"success","trial_type","trial_index","time_elapsed","internal_node_id","subject_id","subjectID","study_id","session_id","exp_id","full_screen","focus_shifts","timeout","failed_images","failed_audio","failed_video","rt","stimulus","key_press","test_part","phase","correct_responses","correct_response","t1_type","t1_image","t2_image","t1_location","lag","t2_location","trial_number","correct","t1_correct","t2_correct","task","stim"
"true","fullscreen","0","8714","0.0-0.0","56d9bcc86301bf00059ec5b5","56d9bcc86301bf00059ec5b5","63a36e1df1afd18b014794e9","63a3a6a6503047eda560409a","rsvp1-task","true","1","","","","","","","","","","","","","","","","","","","","","","",""
"true","preload","1","14027","0.0-1.0","56d9bcc86301bf00059ec5b5","56d9bcc86301bf00059ec5b5","63a36e1df1afd18b014794e9","63a3a6a6503047eda560409a","rsvp1-task","true","0","false","[]","[]","[]","","","","","","","","","","","","","","","","","","",""
"","html-keyboard-response","2","34870","0.0-2.0","56d9bcc86301bf00059ec5b5","56d9bcc86301bf00059ec5b5","63a36e1df1afd18b014794e9","63a3a6a6503047eda560409a","rsvp1-task","true","0","","","","","20844.100000023842","<div class='instructions'><p>You will see a series of scene images rapidly appearing on the computer screen. One of the scene images will be ROTATED, either to the left or to the right.</p><p>When the series ends, you have to respond to the question ‘Which way was the scene rotated?’</p><p>If the scene was rotated left, you will press the 1 key. If the scene was rotated right, press the 0 key. </p><p>Press any key to see an example of the task.</p></div>","m","instructions","","","","","","","","","","","","","","",""
"","html-keyboard-response","3","37889","0.0-3.0-0.0","56d9bcc86301bf00059ec5b5","56d9bcc86301bf00059ec5b5","63a36e1df1afd18b014794e9","63a3a6a6503047eda560409a","rsvp1-task","true","0","","","","","null","<div class=""rsvp"">+</div>","null","fixation","","","","","","","","","","","","","","",""
"","html-keyboard-response","4","38148","0.0-3.0-1.0","56d9bcc86301bf00059ec5b5","56d9bcc86301bf00059ec5b5","63a36e1df1afd18b014794e9","63a3a6a6503047eda560409a","rsvp1-task","true","0","","","","","null","<div class=""rsvp"" ></div>","null","blank","","","","","","","","","","","","","","",""
"","html-keyboard-response","5","38365","0.0-3.0-2.0-0.0","56d9bcc86301bf00059ec5b5","56d9bcc86301bf00059ec5b5","63a36e1df1afd18b014794e9","63a3a6a6503047eda560409a","rsvp1-task","true","0","","","","","null","
					<div style='width: 900px;'>
					<div style='float: center;'><img src=img/nontarget_distractor13.jpeg  ></img>
					</div>
					","null","","","","","","","","","","","","","","","",""
"","html-keyboard-response","6","38461","0.0-3.0-2.0-1.0","56d9bcc86301bf00059ec5b5","56d9bcc86301bf00059ec5b5","63a36e1df1afd18b014794e9","63a3a6a6503047eda560409a","rsvp1-task","true","0","","","","","null","<span></span>","null","iti","","","","","","","","","","","","","","",""
"","html-keyboard-response","7","38681","0.0-3.0-2.0-0.1","56d9bcc86301bf00059ec5b5","56d9bcc86301bf00059ec5b5","63a36e1df1afd18b014794e9","63a3a6a6503047eda560409a","rsvp1-task","true","0","","","","","null","
					<div style='width: 900px;'>
					<div style='float: center;'><img src=img/nontarget_distractor4.jpeg  ></img>
					</div>
					","null","","","","","","","","","","","","","","","",""
"","html-keyboard-response","8","38781","0.0-3.0-2.0-1.1","56d9bcc86301bf00059ec5b5","56d9bcc86301bf00059ec5b5","63a36e1df1afd18b014794e9","63a3a6a6503047eda560409a","rsvp1-task","true","0","","","","","null","<span></span>","null","iti","","","","","","","","","","","","","","",""
"","html-keyboard-response","9","39001","0.0-3.0-2.0-0.2","56d9bcc86301bf00059ec5b5","56d9bcc86301bf00059ec5b5","63a36e1df1afd18b014794e9","63a3a6a6503047eda560409a","rsvp1-task","true","0","","","","","null","
					<div style='width: 900px;'>
					<div style='float: center;'><img src=img/nontarget_distractor52.jpeg  ></img>
					</div>
					","null","","","","","","","","","","","","","","","",""
"","html-keyboard-response","10","39105","0.0-3.0-2.0-1.2","56d9bcc86301bf00059ec5b5","56d9bcc86301bf00059ec5b5","63a36e1df1afd18b014794e9","63a3a6a6503047eda560409a","rsvp1-task","true","0","","","","","null","<span></span>","null","iti","","","","","","","","","","","","","","",""
"","html-keyboard-response","11","39329","0.0-3.0-2.0-0.3","56d9bcc86301bf00059ec5b5","56d9bcc86301bf00059ec5b5","63a36e1df1afd18b014794e9","63a3a6a6503047eda560409a","rsvp1-task","true","0","","","","","null","
					<div style='width: 900px;'>
					<div style='float: center;'><img src=img/nontarget_distractor252.jpeg  ></img>
					</div>
					","null","","","","","","","","","","","","","","","",""
"","html-keyboard-response","12","39433","0.0-3.0-2.0-1.3","56d9bcc86301bf00059ec5b5","56d9bcc86301bf00059ec5b5","63a36e1df1afd18b014794e9","63a3a6a6503047eda560409a","rsvp1-task","true","0","","","","","null","<span></span>","null","iti","","","","","","","","","","","","","","",""
"","html-keyboard-response","13","39657","0.0-3.0-2.0-0.4","56d9bcc86301bf00059ec5b5","56d9bcc86301bf00059ec5b5","63a36e1df1afd18b014794e9","63a3a6a6503047eda560409a","rsvp1-task","true","0","","","","","null","
					<div style='width: 900px;'>
					<div style='float: center;'><img src=img/nontarget_distractor242.jpeg  ></img>
					</div>
					","null","","","","","","","","","","","","","","","",""
"","html-keyboard-response","14","39759","0.0-3.0-2.0-1.4","56d9bcc86301bf00059ec5b5","56d9bcc86301bf00059ec5b5","63a36e1df1afd18b014794e9","63a3a6a6503047eda560409a","rsvp1-task","true","0","","","","","null","<span></span>","null","iti","","","","","","","","","","","","","","",""
"","html-keyboard-response","15","39977","0.0-3.0-2.0-0.5","56d9bcc86301bf00059ec5b5","56d9bcc86301bf00059ec5b5","63a36e1df1afd18b014794e9","63a3a6a6503047eda560409a","rsvp1-task","true","0","","","","","null","
					<div style='width: 900px;'>
					<div style='float: center;'><img src=img/nontarget_distractor135.jpeg  ></img>
					</div>
					","null","","","","","","","","","","","","","","","",""
"","html-keyboard-response","16","40077","0.0-3.0-2.0-1.5","56d9bcc86301bf00059ec5b5","56d9bcc86301bf00059ec5b5","63a36e1df1afd18b014794e9","63a3a6a6503047eda560409a","rsvp1-task","true","0","","","","","null","<span></span>","null","iti","","","","","","","","","","","","","","",""
"","html-keyboard-response","17","40297","0.0-3.0-2.0-0.6","56d9bcc86301bf00059ec5b5","56d9bcc86301bf00059ec5b5","63a36e1df1afd18b014794e9","63a3a6a6503047eda560409a","rsvp1-task","true","0","","","","","null","
					<div style='width: 900px;'>
					<div style='float: center;'><img src=img/nontarget_distractor101.jpeg  ></img>
					</div>
					","null","","","","","","","","","","","","","","","",""
"","html-keyboard-response","18","40399","0.0-3.0-2.0-1.6","56d9bcc86301bf00059ec5b5","56d9bcc86301bf00059ec5b5","63a36e1df1afd18b014794e9","63a3a6a6503047eda560409a","rsvp1-task","true","0","","","","","null","<span></span>","null","iti","","","","","","","","","","","","","","",""
"","html-keyboard-response","19","40616","0.0-3.0-2.0-0.7","56d9bcc86301bf00059ec5b5","56d9bcc86301bf00059ec5b5","63a36e1df1afd18b014794e9","63a3a6a6503047eda560409a","rsvp1-task","true","0","","","","","null","
					<div style='width: 900px;'>
					<div style='float: center;'><img src=img/nontarget_distractor11.jpeg  ></img>
					</div>
					","null","","","","","","","","","","","","","","","",""
"","html-keyboard-response","20","40713","0.0-3.0-2.0-1.7","56d9bcc86301bf00059ec5b5","56d9bcc86301bf00059ec5b5","63a36e1df1afd18b014794e9","63a3a6a6503047eda560409a","rsvp1-task","true","0","","","","","null","<span></span>","null","iti","","","","","","","","","","","","","","",""
"","html-keyboard-response","21","40937","0.0-3.0-2.0-0.8","56d9bcc86301bf00059ec5b5","56d9bcc86301bf00059ec5b5","63a36e1df1afd18b014794e9","63a3a6a6503047eda560409a","rsvp1-task","true","0","","","","","null","
					<div style='width: 900px;'>
					<div style='float: center;'><img src=img/nontarget_distractor123.jpeg  ></img>
					</div>
					","null","","","","","","","","","","","","","","","",""
"","html-keyboard-response","22","41041","0.0-3.0-2.0-1.8","56d9bcc86301bf00059ec5b5","56d9bcc86301bf00059ec5b5","63a36e1df1afd18b014794e9","63a3a6a6503047eda560409a","rsvp1-task","true","0","","","","","null","<span></span>","null","iti","","","","","","","","","","","","","","",""
"","html-keyboard-response","23","41265","0.0-3.0-2.0-0.9","56d9bcc86301bf00059ec5b5","56d9bcc86301bf00059ec5b5","63a36e1df1afd18b014794e9","63a3a6a6503047eda560409a","rsvp1-task","true","0","","","","","null","
					<div style='width: 900px;'>
					<div style='float: center;'><img src=img/t2_targets146.jpeg class=""rotateimgL""  ></img>
					</div>
					","null","","","","","","","","","","","","","","","",""
"","html-keyboard-response","24","41366","0.0-3.0-2.0-1.9","56d9bcc86301bf00059ec5b5","56d9bcc86301bf00059ec5b5","63a36e1df1afd18b014794e9","63a3a6a6503047eda560409a","rsvp1-task","true","0","","","","","null","<span></span>","null","iti","","","","","","","","","","","","","","",""
"","html-keyboard-response","25","41585","0.0-3.0-2.0-0.10","56d9bcc86301bf00059ec5b5","56d9bcc86301bf00059ec5b5","63a36e1df1afd18b014794e9","63a3a6a6503047eda560409a","rsvp1-task","true","0","","","","","null","
					<div style='width: 900px;'>
					<div style='float: center;'><img src=img/nontarget_distractor211.jpeg  ></img>
					</div>
					","null","","","","","","","","","","","","","","","",""
"","html-keyboard-response","26","41689","0.0-3.0-2.0-1.10","56d9bcc86301bf00059ec5b5","56d9bcc86301bf00059ec5b5","63a36e1df1afd18b014794e9","63a3a6a6503047eda560409a","rsvp1-task","true","0","","","","","null","<span></span>","null","iti","","","","","","","","","","","","","","",""
"","html-keyboard-response","27","41913","0.0-3.0-2.0-0.11","56d9bcc86301bf00059ec5b5","56d9bcc86301bf00059ec5b5","63a36e1df1afd18b014794e9","63a3a6a6503047eda560409a","rsvp1-task","true","0","","","","","null","
					<div style='width: 900px;'>
					<div style='float: center;'><img src=img/nontarget_distractor251.jpeg  ></img>
					</div>
					","null","","","","","","","","","","","","","","","",""
"","html-keyboard-response","28","42017","0.0-3.0-2.0-1.11","56d9bcc86301bf00059ec5b5","56d9bcc86301bf00059ec5b5","63a36e1df1afd18b014794e9","63a3a6a6503047eda560409a","rsvp1-task","true","0","","","","","null","<span></span>","null","iti","","","","","","","","","","","","","","",""
"","html-keyboard-response","29","42236","0.0-3.0-2.0-0.12","56d9bcc86301bf00059ec5b5","56d9bcc86301bf00059ec5b5","63a36e1df1afd18b014794e9","63a3a6a6503047eda560409a","rsvp1-task","true","0","","","","","null","
					<div style='width: 900px;'>
					<div style='float: center;'><img src=img/nontarget_distractor194.jpeg  ></img>
					</div>
					","null","","","","","","","","","","","","","","","",""
"","html-keyboard-response","30","42332","0.0-3.0-2.0-1.12","56d9bcc86301bf00059ec5b5","56d9bcc86301bf00059ec5b5","63a36e1df1afd18b014794e9","63a3a6a6503047eda560409a","rsvp1-task","true","0","","","","","null","<span></span>","null","iti","","","","","","","","","","","","","","",""
"","html-keyboard-response","31","42552","0.0-3.0-2.0-0.13","56d9bcc86301bf00059ec5b5","56d9bcc86301bf00059ec5b5","63a36e1df1afd18b014794e9","63a3a6a6503047eda560409a","rsvp1-task","true","0","","","","","null","
					<div style='width: 900px;'>
					<div style='float: center;'><img src=img/nontarget_distractor179.jpeg  ></img>
					</div>
					","null","","","","","","","","","","","","","","","",""
"","html-keyboard-response","32","42657","0.0-3.0-2.0-1.13","56d9bcc86301bf00059ec5b5","56d9bcc86301bf00059ec5b5","63a36e1df1afd18b014794e9","63a3a6a6503047eda560409a","rsvp1-task","true","0","","","","","null","<span></span>","null","iti","","","","","","","","","","","","","","",""
"","html-keyboard-response","33","42880","0.0-3.0-2.0-0.14","56d9bcc86301bf00059ec5b5","56d9bcc86301bf00059ec5b5","63a36e1df1afd18b014794e9","63a3a6a6503047eda560409a","rsvp1-task","true","0","","","","","null","
					<div style='width: 900px;'>
					<div style='float: center;'><img src=img/nontarget_distractor191.jpeg  ></img>
					</div>
					","null","","","","","","","","","","","","","","","",""
"","html-keyboard-response","34","42984","0.0-3.0-2.0-1.14","56d9bcc86301bf00059ec5b5","56d9bcc86301bf00059ec5b5","63a36e1df1afd18b014794e9","63a3a6a6503047eda560409a","rsvp1-task","true","0","","","","","null","<span></span>","null","iti","","","","","","","","","","","","","","",""
"","html-keyboard-response","35","43201","0.0-3.0-2.0-0.15","56d9bcc86301bf00059ec5b5","56d9bcc86301bf00059ec5b5","63a36e1df1afd18b014794e9","63a3a6a6503047eda560409a","rsvp1-task","true","0","","","","","null","
					<div style='width: 900px;'>
					<div style='float: center;'><img src=img/nontarget_distractor96.jpeg  ></img>
					</div>
					","null","","","","","","","","","","","","","","","",""
"","html-keyboard-response","36","43304","0.0-3.0-2.0-1.15","56d9bcc86301bf00059ec5b5","56d9bcc86301bf00059ec5b5","63a36e1df1afd18b014794e9","63a3a6a6503047eda560409a","rsvp1-task","true","0","","","","","null","<span></span>","null","iti","","","","","","","","","","","","","","",""
"","html-keyboard-response","37","43528","0.0-3.0-2.0-0.16","56d9bcc86301bf00059ec5b5","56d9bcc86301bf00059ec5b5","63a36e1df1afd18b014794e9","63a3a6a6503047eda560409a","rsvp1-task","true","0","","","","","null","
					<div style='width: 900px;'>
					<div style='float: center;'><img src=img/nontarget_distractor236.jpeg  ></img>
					</div>
					","null","","","","","","","","","","","","","","","",""
"","html-keyboard-response","38","43628","0.0-3.0-2.0-1.16","56d9bcc86301bf00059ec5b5","56d9bcc86301bf00059ec5b5","63a36e1df1afd18b014794e9","63a3a6a6503047eda560409a","rsvp1-task","true","0","","","","","null","<span></span>","null","iti","","","","","","","","","","","","","","",""
"","html-keyboard-response","39","47461","0.0-3.0-3.0-0.0","56d9bcc86301bf00059ec5b5","56d9bcc86301bf00059ec5b5","63a36e1df1afd18b014794e9","63a3a6a6503047eda560409a","rsvp1-task","true","0","","","","","3829.2999999523163","<div class=""rsvp""> Was the rotated image rotated left (1 key) or right (0 key)?</div>","1","response","instructions","1","1","neutral","img/nontarget_distractor4.jpeg","img/nontarget_distractor211.jpeg","2","8","10","1","true","true","true","",""
"","html-keyboard-response","40","48472","0.0-3.0-4.0","56d9bcc86301bf00059ec5b5","56d9bcc86301bf00059ec5b5","63a36e1df1afd18b014794e9","63a3a6a6503047eda560409a","rsvp1-task","true","0","","","","","null","Correct! </p> <p>  </p><p> ","null","","","","","","","","","","","","","","","main_T1_ITI",""
"","html-keyboard-response","41","61937","0.0-4.0","56d9bcc86301bf00059ec5b5","56d9bcc86301bf00059ec5b5","63a36e1df1afd18b014794e9","63a3a6a6503047eda560409a","rsvp1-task","true","0","","","","","13464.399999976158","<div class='instructions'><p>In the example you just saw, the images appeared quite slowly.</p><p>The real task is more challenging, as the images will appear much more rapidly. This will feel much harder! </p> First, you will complete a practice block. </p><p> <strong>You need to respond correctly on at least 75% of the practice trials to advance, so pay close attention! </strong> </p><p>Press any key to start the practice.</p></div>","n","instructions_2","","","","","","","","","","","","","","",""
"","html-keyboard-response","42","64951","0.0-5.0-0.0","56d9bcc86301bf00059ec5b5","56d9bcc86301bf00059ec5b5","63a36e1df1afd18b014794e9","63a3a6a6503047eda560409a","rsvp1-task","true","0","","","","","null","<div class=""rsvp"">+</div>","null","fixation","","","","","","","","","","","","","","",""
"","html-keyboard-response","43","65215","0.0-5.0-1.0","56d9bcc86301bf00059ec5b5","56d9bcc86301bf00059ec5b5","63a36e1df1afd18b014794e9","63a3a6a6503047eda560409a","rsvp1-task","true","0","","","","","null","<div class=""rsvp"" ></div>","null","blank","","","","","","","","","","","","","","",""
"","html-keyboard-response","44","65323","0.0-5.0-2.0-0.0","56d9bcc86301bf00059ec5b5","56d9bcc86301bf00059ec5b5","63a36e1df1afd18b014794e9","63a3a6a6503047eda560409a","rsvp1-task","true","0","","","","","null","
					<div style='width: 900px;'>
					<div style='float: center;'><img src=img/nontarget_distractor248.jpeg  ></img>
					</div>
					","null","rsvp1","practice0","","","","","","","","","1","","","","","img/nontarget_distractor248.jpeg"
"","html-keyboard-response","45","65328","0.0-5.0-2.0-1.0","56d9bcc86301bf00059ec5b5","56d9bcc86301bf00059ec5b5","63a36e1df1afd18b014794e9","63a3a6a6503047eda560409a","rsvp1-task","true","0","","","","","null","<span></span>","null","iti","","","","","","","","","","","","","","",""
"","html-keyboard-response","46","65431","0.0-5.0-2.0-0.1","56d9bcc86301bf00059ec5b5","56d9bcc86301bf00059ec5b5","63a36e1df1afd18b014794e9","63a3a6a6503047eda560409a","rsvp1-task","true","0","","","","","null","
					<div style='width: 900px;'>
					<div style='float: center;'><img src=img/nontarget_distractor207.jpeg  ></img>
					</div>
					","null","rsvp1","practice0","","","","","","","","","1","","","","","img/nontarget_distractor207.jpeg"
"","html-keyboard-response","47","65437","0.0-5.0-2.0-1.1","56d9bcc86301bf00059ec5b5","56d9bcc86301bf00059ec5b5","63a36e1df1afd18b014794e9","63a3a6a6503047eda560409a","rsvp1-task","true","0","","","","","null","<span></span>","null","iti","","","","","","","","","","","","","","",""
"","html-keyboard-response","48","65541","0.0-5.0-2.0-0.2","56d9bcc86301bf00059ec5b5","56d9bcc86301bf00059ec5b5","63a36e1df1afd18b014794e9","63a3a6a6503047eda560409a","rsvp1-task","true","0","","","","","null","
					<div style='width: 900px;'>
					<div style='float: center;'><img src=img/nontarget_distractor214.jpeg  ></img>
					</div>
					","null","rsvp1","practice0","","","","","","","","","1","","","","","img/nontarget_distractor214.jpeg"
"","html-keyboard-response","49","65547","0.0-5.0-2.0-1.2","56d9bcc86301bf00059ec5b5","56d9bcc86301bf00059ec5b5","63a36e1df1afd18b014794e9","63a3a6a6503047eda560409a","rsvp1-task","true","0","","","","","null","<span></span>","null","iti","","","","","","","","","","","","","","",""
"","html-keyboard-response","50","65651","0.0-5.0-2.0-0.3","56d9bcc86301bf00059ec5b5","56d9bcc86301bf00059ec5b5","63a36e1df1afd18b014794e9","63a3a6a6503047eda560409a","rsvp1-task","true","0","","","","","null","
					<div style='width: 900px;'>
					<div style='float: center;'><img src=img/nontarget_distractor55.jpeg  ></img>
					</div>
					","null","rsvp1","practice0","","","","","","","","","1","","","","","img/nontarget_distractor55.jpeg"
"","html-keyboard-response","51","65657","0.0-5.0-2.0-1.3","56d9bcc86301bf00059ec5b5","56d9bcc86301bf00059ec5b5","63a36e1df1afd18b014794e9","63a3a6a6503047eda560409a","rsvp1-task","true","0","","","","","null","<span></span>","null","iti","","","","","","","","","","","","","","",""
"","html-keyboard-response","52","65759","0.0-5.0-2.0-0.4","56d9bcc86301bf00059ec5b5","56d9bcc86301bf00059ec5b5","63a36e1df1afd18b014794e9","63a3a6a6503047eda560409a","rsvp1-task","true","0","","","","","null","
					<div style='width: 900px;'>
					<div style='float: center;'><img src=img/nontarget_distractor251.jpeg  ></img>
					</div>
					","null","rsvp1","practice0","","","","","","","","","1","","","","","img/nontarget_distractor251.jpeg"
"","html-keyboard-response","53","65765","0.0-5.0-2.0-1.4","56d9bcc86301bf00059ec5b5","56d9bcc86301bf00059ec5b5","63a36e1df1afd18b014794e9","63a3a6a6503047eda560409a","rsvp1-task","true","0","","","","","null","<span></span>","null","iti","","","","","","","","","","","","","","",""
"","html-keyboard-response","54","65867","0.0-5.0-2.0-0.5","56d9bcc86301bf00059ec5b5","56d9bcc86301bf00059ec5b5","63a36e1df1afd18b014794e9","63a3a6a6503047eda560409a","rsvp1-task","true","0","","","","","null","
					<div style='width: 900px;'>
					<div style='float: center;'><img src=img/nontarget_distractor65.jpeg  ></img>
					</div>
					","null","rsvp1","practice0","","","","","","","","","1","","","","","img/nontarget_distractor65.jpeg"
"","html-keyboard-response","55","65873","0.0-5.0-2.0-1.5","56d9bcc86301bf00059ec5b5","56d9bcc86301bf00059ec5b5","63a36e1df1afd18b014794e9","63a3a6a6503047eda560409a","rsvp1-task","true","0","","","","","null","<span></span>","null","iti","","","","","","","","","","","","","","",""
"","html-keyboard-response","56","65974","0.0-5.0-2.0-0.6","56d9bcc86301bf00059ec5b5","56d9bcc86301bf00059ec5b5","63a36e1df1afd18b014794e9","63a3a6a6503047eda560409a","rsvp1-task","true","0","","","","","null","
					<div style='width: 900px;'>
					<div style='float: center;'><img src=img/nontarget_distractor181.jpeg  ></img>
					</div>
					","null","rsvp1","practice0","","","","","","","","","1","","","","","img/nontarget_distractor181.jpeg"
"","html-keyboard-response","57","65980","0.0-5.0-2.0-1.6","56d9bcc86301bf00059ec5b5","56d9bcc86301bf00059ec5b5","63a36e1df1afd18b014794e9","63a3a6a6503047eda560409a","rsvp1-task","true","0","","","","","null","<span></span>","null","iti","","","","","","","","","","","","","","",""
"","html-keyboard-response","58","66087","0.0-5.0-2.0-0.7","56d9bcc86301bf00059ec5b5","56d9bcc86301bf00059ec5b5","63a36e1df1afd18b014794e9","63a3a6a6503047eda560409a","rsvp1-task","true","0","","","","","null","
					<div style='width: 900px;'>
					<div style='float: center;'><img src=img/nontarget_distractor202.jpeg  ></img>
					</div>
					","null","rsvp1","practice0","","","","","","","","","1","","","","","img/nontarget_distractor202.jpeg"
"","html-keyboard-response","59","66093","0.0-5.0-2.0-1.7","56d9bcc86301bf00059ec5b5","56d9bcc86301bf00059ec5b5","63a36e1df1afd18b014794e9","63a3a6a6503047eda560409a","rsvp1-task","true","0","","","","","null","<span></span>","null","iti","","","","","","","","","","","","","","",""
"","html-keyboard-response","60","66199","0.0-5.0-2.0-0.8","56d9bcc86301bf00059ec5b5","56d9bcc86301bf00059ec5b5","63a36e1df1afd18b014794e9","63a3a6a6503047eda560409a","rsvp1-task","true","0","","","","","null","
					<div style='width: 900px;'>
					<div style='float: center;'><img src=img/nontarget_distractor176.jpeg  ></img>
					</div>
					","null","rsvp1","practice0","","","","","","","","","1","","","","","img/nontarget_distractor176.jpeg"
"","html-keyboard-response","61","66205","0.0-5.0-2.0-1.8","56d9bcc86301bf00059ec5b5","56d9bcc86301bf00059ec5b5","63a36e1df1afd18b014794e9","63a3a6a6503047eda560409a","rsvp1-task","true","0","","","","","null","<span></span>","null","iti","","","","","","","","","","","","","","",""
"","html-keyboard-response","62","66308","0.0-5.0-2.0-0.9","56d9bcc86301bf00059ec5b5","56d9bcc86301bf00059ec5b5","63a36e1df1afd18b014794e9","63a3a6a6503047eda560409a","rsvp1-task","true","0","","","","","null","
					<div style='width: 900px;'>
					<div style='float: center;'><img src=img/nontarget_distractor235.jpeg  ></img>
					</div>
					","null","rsvp1","practice0","","","","","","","","","1","","","","","img/nontarget_distractor235.jpeg"
"","html-keyboard-response","63","66313","0.0-5.0-2.0-1.9","56d9bcc86301bf00059ec5b5","56d9bcc86301bf00059ec5b5","63a36e1df1afd18b014794e9","63a3a6a6503047eda560409a","rsvp1-task","true","0","","","","","null","<span></span>","null","iti","","","","","","","","","","","","","","",""
"","html-keyboard-response","64","66415","0.0-5.0-2.0-0.10","56d9bcc86301bf00059ec5b5","56d9bcc86301bf00059ec5b5","63a36e1df1afd18b014794e9","63a3a6a6503047eda560409a","rsvp1-task","true","0","","","","","null","
					<div style='width: 900px;'>
					<div style='float: center;'><img src=img/nontarget_distractor37.jpeg  ></img>
					</div>
					","null","rsvp1","practice0","","","","","","","","","1","","","","","img/nontarget_distractor37.jpeg"
"","html-keyboard-response","65","66421","0.0-5.0-2.0-1.10","56d9bcc86301bf00059ec5b5","56d9bcc86301bf00059ec5b5","63a36e1df1afd18b014794e9","63a3a6a6503047eda560409a","rsvp1-task","true","0","","","","","null","<span></span>","null","iti","","","","","","","","","","","","","","",""
"","html-keyboard-response","66","66524","0.0-5.0-2.0-0.11","56d9bcc86301bf00059ec5b5","56d9bcc86301bf00059ec5b5","63a36e1df1afd18b014794e9","63a3a6a6503047eda560409a","rsvp1-task","true","0","","","","","null","
					<div style='width: 900px;'>
					<div style='float: center;'><img src=img/nontarget_distractor144.jpeg  ></img>
					</div>
					","null","rsvp1","practice0","","","","","","","","","1","","","","","img/nontarget_distractor144.jpeg"
"","html-keyboard-response","67","66530","0.0-5.0-2.0-1.11","56d9bcc86301bf00059ec5b5","56d9bcc86301bf00059ec5b5","63a36e1df1afd18b014794e9","63a3a6a6503047eda560409a","rsvp1-task","true","0","","","","","null","<span></span>","null","iti","","","","","","","","","","","","","","",""
"","html-keyboard-response","68","66636","0.0-5.0-2.0-0.12","56d9bcc86301bf00059ec5b5","56d9bcc86301bf00059ec5b5","63a36e1df1afd18b014794e9","63a3a6a6503047eda560409a","rsvp1-task","true","0","","","","","null","
					<div style='width: 900px;'>
					<div style='float: center;'><img src=img/nontarget_distractor218.jpeg  ></img>
					</div>
					","null","rsvp1","practice0","","","","","","","","","1","","","","","img/nontarget_distractor218.jpeg"
"","html-keyboard-response","69","66641","0.0-5.0-2.0-1.12","56d9bcc86301bf00059ec5b5","56d9bcc86301bf00059ec5b5","63a36e1df1afd18b014794e9","63a3a6a6503047eda560409a","rsvp1-task","true","0","","","","","null","<span></span>","null","iti","","","","","","","","","","","","","","",""
"","html-keyboard-response","70","66743","0.0-5.0-2.0-0.13","56d9bcc86301bf00059ec5b5","56d9bcc86301bf00059ec5b5","63a36e1df1afd18b014794e9","63a3a6a6503047eda560409a","rsvp1-task","true","0","","","","","null","
					<div style='width: 900px;'>
					<div style='float: center;'><img src=img/t2_targets23.jpeg class=""rotateimgR""  ></img>
					</div>
					","null","rsvp1","practice0","","","","","","","","","1","","","","","img/t2_targets23.jpeg class=""rotateimgR"""
"","html-keyboard-response","71","66749","0.0-5.0-2.0-1.13","56d9bcc86301bf00059ec5b5","56d9bcc86301bf00059ec5b5","63a36e1df1afd18b014794e9","63a3a6a6503047eda560409a","rsvp1-task","true","0","","","","","null","<span></span>","null","iti","","","","","","","","","","","","","","",""
"","html-keyboard-response","72","66855","0.0-5.0-2.0-0.14","56d9bcc86301bf00059ec5b5","56d9bcc86301bf00059ec5b5","63a36e1df1afd18b014794e9","63a3a6a6503047eda560409a","rsvp1-task","true","0","","","","","null","
					<div style='width: 900px;'>
					<div style='float: center;'><img src=img/nontarget_distractor43.jpeg  ></img>
					</div>
					","null","rsvp1","practice0","","","","","","","","","1","","","","","img/nontarget_distractor43.jpeg"
"","html-keyboard-response","73","66861","0.0-5.0-2.0-1.14","56d9bcc86301bf00059ec5b5","56d9bcc86301bf00059ec5b5","63a36e1df1afd18b014794e9","63a3a6a6503047eda560409a","rsvp1-task","true","0","","","","","null","<span></span>","null","iti","","","","","","","","","","","","","","",""
"","html-keyboard-response","74","66967","0.0-5.0-2.0-0.15","56d9bcc86301bf00059ec5b5","56d9bcc86301bf00059ec5b5","63a36e1df1afd18b014794e9","63a3a6a6503047eda560409a","rsvp1-task","true","0","","","","","null","
					<div style='width: 900px;'>
					<div style='float: center;'><img src=img/nontarget_distractor245.jpeg  ></img>
					</div>
					","null","rsvp1","practice0","","","","","","","","","1","","","","","img/nontarget_distractor245.jpeg"
"","html-keyboard-response","75","66973","0.0-5.0-2.0-1.15","56d9bcc86301bf00059ec5b5","56d9bcc86301bf00059ec5b5","63a36e1df1afd18b014794e9","63a3a6a6503047eda560409a","rsvp1-task","true","0","","","","","null","<span></span>","null","iti","","","","","","","","","","","","","","",""
"","html-keyboard-response","76","67074","0.0-5.0-2.0-0.16","56d9bcc86301bf00059ec5b5","56d9bcc86301bf00059ec5b5","63a36e1df1afd18b014794e9","63a3a6a6503047eda560409a","rsvp1-task","true","0","","","","","null","
					<div style='width: 900px;'>
					<div style='float: center;'><img src=img/nontarget_distractor197.jpeg  ></img>
					</div>
					","null","rsvp1","practice0","","","","","","","","","1","","","","","img/nontarget_distractor197.jpeg"
"","html-keyboard-response","77","67080","0.0-5.0-2.0-1.16","56d9bcc86301bf00059ec5b5","56d9bcc86301bf00059ec5b5","63a36e1df1afd18b014794e9","63a3a6a6503047eda560409a","rsvp1-task","true","0","","","","","null","<span></span>","null","iti","","","","","","","","","","","","","","",""
"","html-keyboard-response","78","68033","0.0-5.0-3.0-0.0","56d9bcc86301bf00059ec5b5","56d9bcc86301bf00059ec5b5","63a36e1df1afd18b014794e9","63a3a6a6503047eda560409a","rsvp1-task","true","0","","","","","951.2999999523163","<div class=""rsvp""> Was the rotated image rotated left (1 key) or right (0 key)?</div>","0","response","practice0","0","0","neutral","img/nontarget_distractor202.jpeg","img/nontarget_distractor43.jpeg","8","6","14","1","true","true","true","",""
"","html-keyboard-response","79","69047","0.0-5.0-4.0","56d9bcc86301bf00059ec5b5","56d9bcc86301bf00059ec5b5","63a36e1df1afd18b014794e9","63a3a6a6503047eda560409a","rsvp1-task","true","0","","","","","null","Correct! </p> <p>  </p><p> ","null","","","","","","","","","","","","","","","main_T1_ITI",""
"","html-keyboard-response","80","71055","0.0-5.0-5.0","56d9bcc86301bf00059ec5b5","56d9bcc86301bf00059ec5b5","63a36e1df1afd18b014794e9","63a3a6a6503047eda560409a","rsvp1-task","true","0","","","","","null","<div class=""rsvp"">+</div>","null","fixation","","","","","","","","","","","","","","",""
"","html-keyboard-response","81","71319","0.0-5.0-6.0","56d9bcc86301bf00059ec5b5","56d9bcc86301bf00059ec5b5","63a36e1df1afd18b014794e9","63a3a6a6503047eda560409a","rsvp1-task","true","0","","","","","null","<div class=""rsvp"" ></div>","null","blank","","","","","","","","","","","","","","",""
"","html-keyboard-response","82","71431","0.0-5.0-7.0-0.0","56d9bcc86301bf00059ec5b5","56d9bcc86301bf00059ec5b5","63a36e1df1afd18b014794e9","63a3a6a6503047eda560409a","rsvp1-task","true","0","","","","","null","
					<div style='width: 900px;'>
					<div style='float: center;'><img src=img/nontarget_distractor221.jpeg  ></img>
					</div>
					","null","rsvp1","practice0","","","","","","","","","2","","","","","img/nontarget_distractor221.jpeg"
"","html-keyboard-response","83","71436","0.0-5.0-7.0-1.0","56d9bcc86301bf00059ec5b5","56d9bcc86301bf00059ec5b5","63a36e1df1afd18b014794e9","63a3a6a6503047eda560409a","rsvp1-task","true","0","","","","","null","<span></span>","null","iti","","","","","","","","","","","","","","",""
"","html-keyboard-response","84","71539","0.0-5.0-7.0-0.1","56d9bcc86301bf00059ec5b5","56d9bcc86301bf00059ec5b5","63a36e1df1afd18b014794e9","63a3a6a6503047eda560409a","rsvp1-task","true","0","","","","","null","
					<div style='width: 900px;'>
					<div style='float: center;'><img src=img/nontarget_distractor34.jpeg  ></img>
					</div>
					","null","rsvp1","practice0","","","","","","","","","2","","","","","img/nontarget_distractor34.jpeg"
"","html-keyboard-response","85","71544","0.0-5.0-7.0-1.1","56d9bcc86301bf00059ec5b5","56d9bcc86301bf00059ec5b5","63a36e1df1afd18b014794e9","63a3a6a6503047eda560409a","rsvp1-task","true","0","","","","","null","<span></span>","null","iti","","","","","","","","","","","","","","",""
"","html-keyboard-response","86","71647","0.0-5.0-7.0-0.2","56d9bcc86301bf00059ec5b5","56d9bcc86301bf00059ec5b5","63a36e1df1afd18b014794e9","63a3a6a6503047eda560409a","rsvp1-task","true","0","","","","","null","
					<div style='width: 900px;'>
					<div style='float: center;'><img src=img/nontarget_distractor255.jpeg  ></img>
					</div>
					","null","rsvp1","practice0","","","","","","","","","2","","","","","img/nontarget_distractor255.jpeg"
"","html-keyboard-response","87","71652","0.0-5.0-7.0-1.2","56d9bcc86301bf00059ec5b5","56d9bcc86301bf00059ec5b5","63a36e1df1afd18b014794e9","63a3a6a6503047eda560409a","rsvp1-task","true","0","","","","","null","<span></span>","null","iti","","","","","","","","","","","","","","",""
"","html-keyboard-response","88","71755","0.0-5.0-7.0-0.3","56d9bcc86301bf00059ec5b5","56d9bcc86301bf00059ec5b5","63a36e1df1afd18b014794e9","63a3a6a6503047eda560409a","rsvp1-task","true","0","","","","","null","
					<div style='width: 900px;'>
					<div style='float: center;'><img src=img/nontarget_distractor55.jpeg  ></img>
					</div>
					","null","rsvp1","practice0","","","","","","","","","2","","","","","img/nontarget_distractor55.jpeg"
"","html-keyboard-response","89","71760","0.0-5.0-7.0-1.3","56d9bcc86301bf00059ec5b5","56d9bcc86301bf00059ec5b5","63a36e1df1afd18b014794e9","63a3a6a6503047eda560409a","rsvp1-task","true","0","","","","","null","<span></span>","null","iti","","","","","","","","","","","","","","",""
"","html-keyboard-response","90","71863","0.0-5.0-7.0-0.4","56d9bcc86301bf00059ec5b5","56d9bcc86301bf00059ec5b5","63a36e1df1afd18b014794e9","63a3a6a6503047eda560409a","rsvp1-task","true","0","","","","","null","
					<div style='width: 900px;'>
					<div style='float: center;'><img src=img/nontarget_distractor163.jpeg  ></img>
					</div>
					","null","rsvp1","practice0","","","","","","","","","2","","","","","img/nontarget_distractor163.jpeg"
"","html-keyboard-response","91","71868","0.0-5.0-7.0-1.4","56d9bcc86301bf00059ec5b5","56d9bcc86301bf00059ec5b5","63a36e1df1afd18b014794e9","63a3a6a6503047eda560409a","rsvp1-task","true","0","","","","","null","<span></span>","null","iti","","","","","","","","","","","","","","",""
"","html-keyboard-response","92","71974","0.0-5.0-7.0-0.5","56d9bcc86301bf00059ec5b5","56d9bcc86301bf00059ec5b5","63a36e1df1afd18b014794e9","63a3a6a6503047eda560409a","rsvp1-task","true","0","","","","","null","
					<div style='width: 900px;'>
					<div style='float: center;'><img src=img/nontarget_distractor5.jpeg  ></img>
					</div>
					","null","rsvp1","practice0","","","","","","","","","2","","","","","img/nontarget_distractor5.jpeg"
"","html-keyboard-response","93","71980","0.0-5.0-7.0-1.5","56d9bcc86301bf00059ec5b5","56d9bcc86301bf00059ec5b5","63a36e1df1afd18b014794e9","63a3a6a6503047eda560409a","rsvp1-task","true","0","","","","","null","<span></span>","null","iti","","","","","","","","","","","","","","",""
"","html-keyboard-response","94","72083","0.0-5.0-7.0-0.6","56d9bcc86301bf00059ec5b5","56d9bcc86301bf00059ec5b5","63a36e1df1afd18b014794e9","63a3a6a6503047eda560409a","rsvp1-task","true","0","","","","","null","
					<div style='width: 900px;'>
					<div style='float: center;'><img src=img/nontarget_distractor70.jpeg  ></img>
					</div>
					","null","rsvp1","practice0","","","","","","","","","2","","","","","img/nontarget_distractor70.jpeg"
"","html-keyboard-response","95","72088","0.0-5.0-7.0-1.6","56d9bcc86301bf00059ec5b5","56d9bcc86301bf00059ec5b5","63a36e1df1afd18b014794e9","63a3a6a6503047eda560409a","rsvp1-task","true","0","","","","","null","<span></span>","null","iti","","","","","","","","","","","","","","",""
"","html-keyboard-response","96","72195","0.0-5.0-7.0-0.7","56d9bcc86301bf00059ec5b5","56d9bcc86301bf00059ec5b5","63a36e1df1afd18b014794e9","63a3a6a6503047eda560409a","rsvp1-task","true","0","","","","","null","
					<div style='width: 900px;'>
					<div style='float: center;'><img src=img/nontarget_distractor104.jpeg  ></img>
					</div>
					","null","rsvp1","practice0","","","","","","","","","2","","","","","img/nontarget_distractor104.jpeg"
"","html-keyboard-response","97","72201","0.0-5.0-7.0-1.7","56d9bcc86301bf00059ec5b5","56d9bcc86301bf00059ec5b5","63a36e1df1afd18b014794e9","63a3a6a6503047eda560409a","rsvp1-task","true","0","","","","","null","<span></span>","null","iti","","","","","","","","","","","","","","",""
"","html-keyboard-response","98","72303","0.0-5.0-7.0-0.8","56d9bcc86301bf00059ec5b5","56d9bcc86301bf00059ec5b5","63a36e1df1afd18b014794e9","63a3a6a6503047eda560409a","rsvp1-task","true","0","","","","","null","
					<div style='width: 900px;'>
					<div style='float: center;'><img src=img/nontarget_distractor9.jpeg  ></img>
					</div>
					","null","rsvp1","practice0","","","","","","","","","2","","","","","img/nontarget_distractor9.jpeg"
"","html-keyboard-response","99","72308","0.0-5.0-7.0-1.8","56d9bcc86301bf00059ec5b5","56d9bcc86301bf00059ec5b5","63a36e1df1afd18b014794e9","63a3a6a6503047eda560409a","rsvp1-task","true","0","","","","","null","<span></span>","null","iti","","","","","","","","","","","","","","",""
"","html-keyboard-response","100","72415","0.0-5.0-7.0-0.9","56d9bcc86301bf00059ec5b5","56d9bcc86301bf00059ec5b5","63a36e1df1afd18b014794e9","63a3a6a6503047eda560409a","rsvp1-task","true","0","","","","","null","
					<div style='width: 900px;'>
					<div style='float: center;'><img src=img/t2_targets152.jpeg class=""rotateimgR""  ></img>
					</div>
					","null","rsvp1","practice0","","","","","","","","","2","","","","","img/t2_targets152.jpeg class=""rotateimgR"""
"","html-keyboard-response","101","72420","0.0-5.0-7.0-1.9","56d9bcc86301bf00059ec5b5","56d9bcc86301bf00059ec5b5","63a36e1df1afd18b014794e9","63a3a6a6503047eda560409a","rsvp1-task","true","0","","","","","null","<span></span>","null","iti","","","","","","","","","","","","","","",""
"","html-keyboard-response","102","72525","0.0-5.0-7.0-0.10","56d9bcc86301bf00059ec5b5","56d9bcc86301bf00059ec5b5","63a36e1df1afd18b014794e9","63a3a6a6503047eda560409a","rsvp1-task","true","0","","","","","null","
					<div style='width: 900px;'>
					<div style='float: center;'><img src=img/nontarget_distractor253.jpeg  ></img>
					</div>
					","null","rsvp1","practice0","","","","","","","","","2","","","","","img/nontarget_distractor253.jpeg"
"","html-keyboard-response","103","72530","0.0-5.0-7.0-1.10","56d9bcc86301bf00059ec5b5","56d9bcc86301bf00059ec5b5","63a36e1df1afd18b014794e9","63a3a6a6503047eda560409a","rsvp1-task","true","0","","","","","null","<span></span>","null","iti","","","","","","","","","","","","","","",""
"","html-keyboard-response","104","72639","0.0-5.0-7.0-0.11","56d9bcc86301bf00059ec5b5","56d9bcc86301bf00059ec5b5","63a36e1df1afd18b014794e9","63a3a6a6503047eda560409a","rsvp1-task","true","0","","","","","null","
					<div style='width: 900px;'>
					<div style='float: center;'><img src=img/nontarget_distractor196.jpeg  ></img>
					</div>
					","null","rsvp1","practice0","","","","","","","","","2","","","","","img/nontarget_distractor196.jpeg"
"","html-keyboard-response","105","72644","0.0-5.0-7.0-1.11","56d9bcc86301bf00059ec5b5","56d9bcc86301bf00059ec5b5","63a36e1df1afd18b014794e9","63a3a6a6503047eda560409a","rsvp1-task","true","0","","","","","null","<span></span>","null","iti","","","","","","","","","","","","","","",""
"","html-keyboard-response","106","72747","0.0-5.0-7.0-0.12","56d9bcc86301bf00059ec5b5","56d9bcc86301bf00059ec5b5","63a36e1df1afd18b014794e9","63a3a6a6503047eda560409a","rsvp1-task","true","0","","","","","null","
					<div style='width: 900px;'>
					<div style='float: center;'><img src=img/nontarget_distractor50.jpeg  ></img>
					</div>
					","null","rsvp1","practice0","","","","","","","","","2","","","","","img/nontarget_distractor50.jpeg"
"","html-keyboard-response","107","72752","0.0-5.0-7.0-1.12","56d9bcc86301bf00059ec5b5","56d9bcc86301bf00059ec5b5","63a36e1df1afd18b014794e9","63a3a6a6503047eda560409a","rsvp1-task","true","0","","","","","null","<span></span>","null","iti","","","","","","","","","","","","","","",""
"","html-keyboard-response","108","72860","0.0-5.0-7.0-0.13","56d9bcc86301bf00059ec5b5","56d9bcc86301bf00059ec5b5","63a36e1df1afd18b014794e9","63a3a6a6503047eda560409a","rsvp1-task","true","0","","","","","null","
					<div style='width: 900px;'>
					<div style='float: center;'><img src=img/nontarget_distractor57.jpeg  ></img>
					</div>
					","null","rsvp1","practice0","","","","","","","","","2","","","","","img/nontarget_distractor57.jpeg"
"","html-keyboard-response","109","72865","0.0-5.0-7.0-1.13","56d9bcc86301bf00059ec5b5","56d9bcc86301bf00059ec5b5","63a36e1df1afd18b014794e9","63a3a6a6503047eda560409a","rsvp1-task","true","0","","","","","null","<span></span>","null","iti","","","","","","","","","","","","","","",""
"","html-keyboard-response","110","72967","0.0-5.0-7.0-0.14","56d9bcc86301bf00059ec5b5","56d9bcc86301bf00059ec5b5","63a36e1df1afd18b014794e9","63a3a6a6503047eda560409a","rsvp1-task","true","0","","","","","null","
					<div style='width: 900px;'>
					<div style='float: center;'><img src=img/nontarget_distractor158.jpeg  ></img>
					</div>
					","null","rsvp1","practice0","","","","","","","","","2","","","","","img/nontarget_distractor158.jpeg"
"","html-keyboard-response","111","72972","0.0-5.0-7.0-1.14","56d9bcc86301bf00059ec5b5","56d9bcc86301bf00059ec5b5","63a36e1df1afd18b014794e9","63a3a6a6503047eda560409a","rsvp1-task","true","0","","","","","null","<span></span>","null","iti","","","","","","","","","","","","","","",""
"","html-keyboard-response","112","73074","0.0-5.0-7.0-0.15","56d9bcc86301bf00059ec5b5","56d9bcc86301bf00059ec5b5","63a36e1df1afd18b014794e9","63a3a6a6503047eda560409a","rsvp1-task","true","0","","","","","null","
					<div style='width: 900px;'>
					<div style='float: center;'><img src=img/nontarget_distractor239.jpeg  ></img>
					</div>
					","null","rsvp1","practice0","","","","","","","","","2","","","","","img/nontarget_distractor239.jpeg"
"","html-keyboard-response","113","73080","0.0-5.0-7.0-1.15","56d9bcc86301bf00059ec5b5","56d9bcc86301bf00059ec5b5","63a36e1df1afd18b014794e9","63a3a6a6503047eda560409a","rsvp1-task","true","0","","","","","null","<span></span>","null","iti","","","","","","","","","","","","","","",""
"","html-keyboard-response","114","73183","0.0-5.0-7.0-0.16","56d9bcc86301bf00059ec5b5","56d9bcc86301bf00059ec5b5","63a36e1df1afd18b014794e9","63a3a6a6503047eda560409a","rsvp1-task","true","0","","","","","null","
					<div style='width: 900px;'>
					<div style='float: center;'><img src=img/nontarget_distractor227.jpeg  ></img>
					</div>
					","null","rsvp1","practice0","","","","","","","","","2","","","","","img/nontarget_distractor227.jpeg"
"","html-keyboard-response","115","73188","0.0-5.0-7.0-1.16","56d9bcc86301bf00059ec5b5","56d9bcc86301bf00059ec5b5","63a36e1df1afd18b014794e9","63a3a6a6503047eda560409a","rsvp1-task","true","0","","","","","null","<span></span>","null","iti","","","","","","","","","","","","","","",""
"","html-keyboard-response","116","75178","0.0-5.0-8.0-0.0","56d9bcc86301bf00059ec5b5","56d9bcc86301bf00059ec5b5","63a36e1df1afd18b014794e9","63a3a6a6503047eda560409a","rsvp1-task","true","0","","","","","1988.5","<div class=""rsvp""> Was the rotated image rotated left (1 key) or right (0 key)?</div>","0","response","practice0","0","0","neutral","img/nontarget_distractor104.jpeg","img/nontarget_distractor253.jpeg","8","2","10","2","true","true","true","",""
"","html-keyboard-response","117","76190","0.0-5.0-9.0","56d9bcc86301bf00059ec5b5","56d9bcc86301bf00059ec5b5","63a36e1df1afd18b014794e9","63a3a6a6503047eda560409a","rsvp1-task","true","0","","","","","null","Correct! </p> <p>  </p><p> ","null","","","","","","","","","","","","","","","main_T1_ITI",""
"","html-keyboard-response","118","78199","0.0-5.0-10.0","56d9bcc86301bf00059ec5b5","56d9bcc86301bf00059ec5b5","63a36e1df1afd18b014794e9","63a3a6a6503047eda560409a","rsvp1-task","true","0","","","","","null","<div class=""rsvp"">+</div>","null","fixation","","","","","","","","","","","","","","",""
"","html-keyboard-response","119","78462","0.0-5.0-11.0","56d9bcc86301bf00059ec5b5","56d9bcc86301bf00059ec5b5","63a36e1df1afd18b014794e9","63a3a6a6503047eda560409a","rsvp1-task","true","0","","","","","null","<div class=""rsvp"" ></div>","null","blank","","","","","","","","","","","","","","",""
"","html-keyboard-response","120","78575","0.0-5.0-12.0-0.0","56d9bcc86301bf00059ec5b5","56d9bcc86301bf00059ec5b5","63a36e1df1afd18b014794e9","63a3a6a6503047eda560409a","rsvp1-task","true","0","","","","","null","
					<div style='width: 900px;'>
					<div style='float: center;'><img src=img/nontarget_distractor20.jpeg  ></img>
					</div>
					","null","rsvp1","practice0","","","","","","","","","3","","","","","img/nontarget_distractor20.jpeg"
"","html-keyboard-response","121","78580","0.0-5.0-12.0-1.0","56d9bcc86301bf00059ec5b5","56d9bcc86301bf00059ec5b5","63a36e1df1afd18b014794e9","63a3a6a6503047eda560409a","rsvp1-task","true","0","","","","","null","<span></span>","null","iti","","","","","","","","","","","","","","",""
"","html-keyboard-response","122","78687","0.0-5.0-12.0-0.1","56d9bcc86301bf00059ec5b5","56d9bcc86301bf00059ec5b5","63a36e1df1afd18b014794e9","63a3a6a6503047eda560409a","rsvp1-task","true","0","","","","","null","
					<div style='width: 900px;'>
					<div style='float: center;'><img src=img/nontarget_distractor121.jpeg  ></img>
					</div>
					","null","rsvp1","practice0","","","","","","","","","3","","","","","img/nontarget_distractor121.jpeg"
"","html-keyboard-response","123","78692","0.0-5.0-12.0-1.1","56d9bcc86301bf00059ec5b5","56d9bcc86301bf00059ec5b5","63a36e1df1afd18b014794e9","63a3a6a6503047eda560409a","rsvp1-task","true","0","","","","","null","<span></span>","null","iti","","","","","","","","","","","","","","",""
"","html-keyboard-response","124","78799","0.0-5.0-12.0-0.2","56d9bcc86301bf00059ec5b5","56d9bcc86301bf00059ec5b5","63a36e1df1afd18b014794e9","63a3a6a6503047eda560409a","rsvp1-task","true","0","","","","","null","
					<div style='width: 900px;'>
					<div style='float: center;'><img src=img/nontarget_distractor126.jpeg  ></img>
					</div>
					","null","rsvp1","practice0","","","","","","","","","3","","","","","img/nontarget_distractor126.jpeg"
"","html-keyboard-response","125","78804","0.0-5.0-12.0-1.2","56d9bcc86301bf00059ec5b5","56d9bcc86301bf00059ec5b5","63a36e1df1afd18b014794e9","63a3a6a6503047eda560409a","rsvp1-task","true","0","","","","","null","<span></span>","null","iti","","","","","","","","","","","","","","",""
"","html-keyboard-response","126","78907","0.0-5.0-12.0-0.3","56d9bcc86301bf00059ec5b5","56d9bcc86301bf00059ec5b5","63a36e1df1afd18b014794e9","63a3a6a6503047eda560409a","rsvp1-task","true","0","","","","","null","
					<div style='width: 900px;'>
					<div style='float: center;'><img src=img/nontarget_distractor206.jpeg  ></img>
					</div>
					","null","rsvp1","practice0","","","","","","","","","3","","","","","img/nontarget_distractor206.jpeg"
"","html-keyboard-response","127","78912","0.0-5.0-12.0-1.3","56d9bcc86301bf00059ec5b5","56d9bcc86301bf00059ec5b5","63a36e1df1afd18b014794e9","63a3a6a6503047eda560409a","rsvp1-task","true","0","","","","","null","<span></span>","null","iti","","","","","","","","","","","","","","",""
"","html-keyboard-response","128","79015","0.0-5.0-12.0-0.4","56d9bcc86301bf00059ec5b5","56d9bcc86301bf00059ec5b5","63a36e1df1afd18b014794e9","63a3a6a6503047eda560409a","rsvp1-task","true","0","","","","","null","
					<div style='width: 900px;'>
					<div style='float: center;'><img src=img/nontarget_distractor34.jpeg  ></img>
					</div>
					","null","rsvp1","practice0","","","","","","","","","3","","","","","img/nontarget_distractor34.jpeg"
"","html-keyboard-response","129","79020","0.0-5.0-12.0-1.4","56d9bcc86301bf00059ec5b5","56d9bcc86301bf00059ec5b5","63a36e1df1afd18b014794e9","63a3a6a6503047eda560409a","rsvp1-task","true","0","","","","","null","<span></span>","null","iti","","","","","","","","","","","","","","",""
"","html-keyboard-response","130","79127","0.0-5.0-12.0-0.5","56d9bcc86301bf00059ec5b5","56d9bcc86301bf00059ec5b5","63a36e1df1afd18b014794e9","63a3a6a6503047eda560409a","rsvp1-task","true","0","","","","","null","
					<div style='width: 900px;'>
					<div style='float: center;'><img src=img/nontarget_distractor179.jpeg  ></img>
					</div>
					","null","rsvp1","practice0","","","","","","","","","3","","","","","img/nontarget_distractor179.jpeg"
"","html-keyboard-response","131","79132","0.0-5.0-12.0-1.5","56d9bcc86301bf00059ec5b5","56d9bcc86301bf00059ec5b5","63a36e1df1afd18b014794e9","63a3a6a6503047eda560409a","rsvp1-task","true","0","","","","","null","<span></span>","null","iti","","","","","","","","","","","","","","",""
"","html-keyboard-response","132","79239","0.0-5.0-12.0-0.6","56d9bcc86301bf00059ec5b5","56d9bcc86301bf00059ec5b5","63a36e1df1afd18b014794e9","63a3a6a6503047eda560409a","rsvp1-task","true","0","","","","","null","
					<div style='width: 900px;'>
					<div style='float: center;'><img src=img/nontarget_distractor114.jpeg  ></img>
					</div>
					","null","rsvp1","practice0","","","","","","","","","3","","","","","img/nontarget_distractor114.jpeg"
"","html-keyboard-response","133","79244","0.0-5.0-12.0-1.6","56d9bcc86301bf00059ec5b5","56d9bcc86301bf00059ec5b5","63a36e1df1afd18b014794e9","63a3a6a6503047eda560409a","rsvp1-task","true","0","","","","","null","<span></span>","null","iti","","","","","","","","","","","","","","",""
"","html-keyboard-response","134","79351","0.0-5.0-12.0-0.7","56d9bcc86301bf00059ec5b5","56d9bcc86301bf00059ec5b5","63a36e1df1afd18b014794e9","63a3a6a6503047eda560409a","rsvp1-task","true","0","","","","","null","
					<div style='width: 900px;'>
					<div style='float: center;'><img src=img/nontarget_distractor218.jpeg  ></img>
					</div>
					","null","rsvp1","practice0","","","","","","","","","3","","","","","img/nontarget_distractor218.jpeg"
"","html-keyboard-response","135","79356","0.0-5.0-12.0-1.7","56d9bcc86301bf00059ec5b5","56d9bcc86301bf00059ec5b5","63a36e1df1afd18b014794e9","63a3a6a6503047eda560409a","rsvp1-task","true","0","","","","","null","<span></span>","null","iti","","","","","","","","","","","","","","",""
"","html-keyboard-response","136","79463","0.0-5.0-12.0-0.8","56d9bcc86301bf00059ec5b5","56d9bcc86301bf00059ec5b5","63a36e1df1afd18b014794e9","63a3a6a6503047eda560409a","rsvp1-task","true","0","","","","","null","
					<div style='width: 900px;'>
					<div style='float: center;'><img src=img/nontarget_distractor148.jpeg  ></img>
					</div>
					","null","rsvp1","practice0","","","","","","","","","3","","","","","img/nontarget_distractor148.jpeg"
"","html-keyboard-response","137","79468","0.0-5.0-12.0-1.8","56d9bcc86301bf00059ec5b5","56d9bcc86301bf00059ec5b5","63a36e1df1afd18b014794e9","63a3a6a6503047eda560409a","rsvp1-task","true","0","","","","","null","<span></span>","null","iti","","","","","","","","","","","","","","",""
"","html-keyboard-response","138","79571","0.0-5.0-12.0-0.9","56d9bcc86301bf00059ec5b5","56d9bcc86301bf00059ec5b5","63a36e1df1afd18b014794e9","63a3a6a6503047eda560409a","rsvp1-task","true","0","","","","","null","
					<div style='width: 900px;'>
					<div style='float: center;'><img src=img/nontarget_distractor9.jpeg  ></img>
					</div>
					","null","rsvp1","practice0","","","","","","","","","3","","","","","img/nontarget_distractor9.jpeg"
"","html-keyboard-response","139","79576","0.0-5.0-12.0-1.9","56d9bcc86301bf00059ec5b5","56d9bcc86301bf00059ec5b5","63a36e1df1afd18b014794e9","63a3a6a6503047eda560409a","rsvp1-task","true","0","","","","","null","<span></span>","null","iti","","","","","","","","","","","","","","",""
"","html-keyboard-response","140","79683","0.0-5.0-12.0-0.10","56d9bcc86301bf00059ec5b5","56d9bcc86301bf00059ec5b5","63a36e1df1afd18b014794e9","63a3a6a6503047eda560409a","rsvp1-task","true","0","","","","","null","
					<div style='width: 900px;'>
					<div style='float: center;'><img src=img/nontarget_distractor67.jpeg  ></img>
					</div>
					","null","rsvp1","practice0","","","","","","","","","3","","","","","img/nontarget_distractor67.jpeg"
"","html-keyboard-response","141","79688","0.0-5.0-12.0-1.10","56d9bcc86301bf00059ec5b5","56d9bcc86301bf00059ec5b5","63a36e1df1afd18b014794e9","63a3a6a6503047eda560409a","rsvp1-task","true","0","","","","","null","<span></span>","null","iti","","","","","","","","","","","","","","",""
"","html-keyboard-response","142","79791","0.0-5.0-12.0-0.11","56d9bcc86301bf00059ec5b5","56d9bcc86301bf00059ec5b5","63a36e1df1afd18b014794e9","63a3a6a6503047eda560409a","rsvp1-task","true","0","","","","","null","
					<div style='width: 900px;'>
					<div style='float: center;'><img src=img/t2_targets93.jpeg class=""rotateimgR""  ></img>
					</div>
					","null","rsvp1","practice0","","","","","","","","","3","","","","","img/t2_targets93.jpeg class=""rotateimgR"""
"","html-keyboard-response","143","79796","0.0-5.0-12.0-1.11","56d9bcc86301bf00059ec5b5","56d9bcc86301bf00059ec5b5","63a36e1df1afd18b014794e9","63a3a6a6503047eda560409a","rsvp1-task","true","0","","","","","null","<span></span>","null","iti","","","","","","","","","","","","","","",""
"","html-keyboard-response","144","79898","0.0-5.0-12.0-0.12","56d9bcc86301bf00059ec5b5","56d9bcc86301bf00059ec5b5","63a36e1df1afd18b014794e9","63a3a6a6503047eda560409a","rsvp1-task","true","0","","","","","null","
					<div style='width: 900px;'>
					<div style='float: center;'><img src=img/nontarget_distractor251.jpeg  ></img>
					</div>
					","null","rsvp1","practice0","","","","","","","","","3","","","","","img/nontarget_distractor251.jpeg"
"","html-keyboard-response","145","79904","0.0-5.0-12.0-1.12","56d9bcc86301bf00059ec5b5","56d9bcc86301bf00059ec5b5","63a36e1df1afd18b014794e9","63a3a6a6503047eda560409a","rsvp1-task","true","0","","","","","null","<span></span>","null","iti","","","","","","","","","","","","","","",""
"","html-keyboard-response","146","80007","0.0-5.0-12.0-0.13","56d9bcc86301bf00059ec5b5","56d9bcc86301bf00059ec5b5","63a36e1df1afd18b014794e9","63a3a6a6503047eda560409a","rsvp1-task","true","0","","","","","null","
					<div style='width: 900px;'>
					<div style='float: center;'><img src=img/nontarget_distractor102.jpeg  ></img>
					</div>
					","null","rsvp1","practice0","","","","","","","","","3","","","","","img/nontarget_distractor102.jpeg"
"","html-keyboard-response","147","80012","0.0-5.0-12.0-1.13","56d9bcc86301bf00059ec5b5","56d9bcc86301bf00059ec5b5","63a36e1df1afd18b014794e9","63a3a6a6503047eda560409a","rsvp1-task","true","0","","","","","null","<span></span>","null","iti","","","","","","","","","","","","","","",""
"","html-keyboard-response","148","80119","0.0-5.0-12.0-0.14","56d9bcc86301bf00059ec5b5","56d9bcc86301bf00059ec5b5","63a36e1df1afd18b014794e9","63a3a6a6503047eda560409a","rsvp1-task","true","0","","","","","null","
					<div style='width: 900px;'>
					<div style='float: center;'><img src=img/nontarget_distractor208.jpeg  ></img>
					</div>
					","null","rsvp1","practice0","","","","","","","","","3","","","","","img/nontarget_distractor208.jpeg"
"","html-keyboard-response","149","80124","0.0-5.0-12.0-1.14","56d9bcc86301bf00059ec5b5","56d9bcc86301bf00059ec5b5","63a36e1df1afd18b014794e9","63a3a6a6503047eda560409a","rsvp1-task","true","0","","","","","null","<span></span>","null","iti","","","","","","","","","","","","","","",""
"","html-keyboard-response","150","80227","0.0-5.0-12.0-0.15","56d9bcc86301bf00059ec5b5","56d9bcc86301bf00059ec5b5","63a36e1df1afd18b014794e9","63a3a6a6503047eda560409a","rsvp1-task","true","0","","","","","null","
					<div style='width: 900px;'>
					<div style='float: center;'><img src=img/nontarget_distractor169.jpeg  ></img>
					</div>
					","null","rsvp1","practice0","","","","","","","","","3","","","","","img/nontarget_distractor169.jpeg"
"","html-keyboard-response","151","80232","0.0-5.0-12.0-1.15","56d9bcc86301bf00059ec5b5","56d9bcc86301bf00059ec5b5","63a36e1df1afd18b014794e9","63a3a6a6503047eda560409a","rsvp1-task","true","0","","","","","null","<span></span>","null","iti","","","","","","","","","","","","","","",""
"","html-keyboard-response","152","80334","0.0-5.0-12.0-0.16","56d9bcc86301bf00059ec5b5","56d9bcc86301bf00059ec5b5","63a36e1df1afd18b014794e9","63a3a6a6503047eda560409a","rsvp1-task","true","0","","","","","null","
					<div style='width: 900px;'>
					<div style='float: center;'><img src=img/nontarget_distractor212.jpeg  ></img>
					</div>
					","null","rsvp1","practice0","","","","","","","","","3","","","","","img/nontarget_distractor212.jpeg"
"","html-keyboard-response","153","80340","0.0-5.0-12.0-1.16","56d9bcc86301bf00059ec5b5","56d9bcc86301bf00059ec5b5","63a36e1df1afd18b014794e9","63a3a6a6503047eda560409a","rsvp1-task","true","0","","","","","null","<span></span>","null","iti","","","","","","","","","","","","","","",""
"","html-keyboard-response","154","80488","0.0-5.0-13.0-0.0","56d9bcc86301bf00059ec5b5","56d9bcc86301bf00059ec5b5","63a36e1df1afd18b014794e9","63a3a6a6503047eda560409a","rsvp1-task","true","0","","","","","147.30000007152557","<div class=""rsvp""> Was the rotated image rotated left (1 key) or right (0 key)?</div>","0","response","practice0","0","0","neutral","img/nontarget_distractor218.jpeg","img/nontarget_distractor251.jpeg","8","4","12","3","true","true","true","",""
"","html-keyboard-response","155","81498","0.0-5.0-14.0","56d9bcc86301bf00059ec5b5","56d9bcc86301bf00059ec5b5","63a36e1df1afd18b014794e9","63a3a6a6503047eda560409a","rsvp1-task","true","0","","","","","null","Correct! </p> <p>  </p><p> ","null","","","","","","","","","","","","","","","main_T1_ITI",""
"","html-keyboard-response","156","83502","0.0-5.0-15.0","56d9bcc86301bf00059ec5b5","56d9bcc86301bf00059ec5b5","63a36e1df1afd18b014794e9","63a3a6a6503047eda560409a","rsvp1-task","true","0","","","","","null","<div class=""rsvp"">+</div>","null","fixation","","","","","","","","","","","","","","",""
"","html-keyboard-response","157","83762","0.0-5.0-16.0","56d9bcc86301bf00059ec5b5","56d9bcc86301bf00059ec5b5","63a36e1df1afd18b014794e9","63a3a6a6503047eda560409a","rsvp1-task","true","0","","","","","null","<div class=""rsvp"" ></div>","null","blank","","","","","","","","","","","","","","",""
"","html-keyboard-response","158","83870","0.0-5.0-17.0-0.0","56d9bcc86301bf00059ec5b5","56d9bcc86301bf00059ec5b5","63a36e1df1afd18b014794e9","63a3a6a6503047eda560409a","rsvp1-task","true","0","","","","","null","
					<div style='width: 900px;'>
					<div style='float: center;'><img src=img/nontarget_distractor202.jpeg  ></img>
					</div>
					","null","rsvp1","practice0","","","","","","","","","4","","","","","img/nontarget_distractor202.jpeg"
"","html-keyboard-response","159","83876","0.0-5.0-17.0-1.0","56d9bcc86301bf00059ec5b5","56d9bcc86301bf00059ec5b5","63a36e1df1afd18b014794e9","63a3a6a6503047eda560409a","rsvp1-task","true","0","","","","","null","<span></span>","null","iti","","","","","","","","","","","","","","",""
"","html-keyboard-response","160","83980","0.0-5.0-17.0-0.1","56d9bcc86301bf00059ec5b5","56d9bcc86301bf00059ec5b5","63a36e1df1afd18b014794e9","63a3a6a6503047eda560409a","rsvp1-task","true","0","","","","","null","
					<div style='width: 900px;'>
					<div style='float: center;'><img src=img/nontarget_distractor160.jpeg  ></img>
					</div>
					","null","rsvp1","practice0","","","","","","","","","4","","","","","img/nontarget_distractor160.jpeg"
"","html-keyboard-response","161","83986","0.0-5.0-17.0-1.1","56d9bcc86301bf00059ec5b5","56d9bcc86301bf00059ec5b5","63a36e1df1afd18b014794e9","63a3a6a6503047eda560409a","rsvp1-task","true","0","","","","","null","<span></span>","null","iti","","","","","","","","","","","","","","",""
"","html-keyboard-response","162","84090","0.0-5.0-17.0-0.2","56d9bcc86301bf00059ec5b5","56d9bcc86301bf00059ec5b5","63a36e1df1afd18b014794e9","63a3a6a6503047eda560409a","rsvp1-task","true","0","","","","","null","
					<div style='width: 900px;'>
					<div style='float: center;'><img src=img/nontarget_distractor188.jpeg  ></img>
					</div>
					","null","rsvp1","practice0","","","","","","","","","4","","","","","img/nontarget_distractor188.jpeg"
"","html-keyboard-response","163","84096","0.0-5.0-17.0-1.2","56d9bcc86301bf00059ec5b5","56d9bcc86301bf00059ec5b5","63a36e1df1afd18b014794e9","63a3a6a6503047eda560409a","rsvp1-task","true","0","","","","","null","<span></span>","null","iti","","","","","","","","","","","","","","",""
"","html-keyboard-response","164","84198","0.0-5.0-17.0-0.3","56d9bcc86301bf00059ec5b5","56d9bcc86301bf00059ec5b5","63a36e1df1afd18b014794e9","63a3a6a6503047eda560409a","rsvp1-task","true","0","","","","","null","
					<div style='width: 900px;'>
					<div style='float: center;'><img src=img/nontarget_distractor87.jpeg  ></img>
					</div>
					","null","rsvp1","practice0","","","","","","","","","4","","","","","img/nontarget_distractor87.jpeg"
"","html-keyboard-response","165","84204","0.0-5.0-17.0-1.3","56d9bcc86301bf00059ec5b5","56d9bcc86301bf00059ec5b5","63a36e1df1afd18b014794e9","63a3a6a6503047eda560409a","rsvp1-task","true","0","","","","","null","<span></span>","null","iti","","","","","","","","","","","","","","",""
"","html-keyboard-response","166","84310","0.0-5.0-17.0-0.4","56d9bcc86301bf00059ec5b5","56d9bcc86301bf00059ec5b5","63a36e1df1afd18b014794e9","63a3a6a6503047eda560409a","rsvp1-task","true","0","","","","","null","
					<div style='width: 900px;'>
					<div style='float: center;'><img src=img/nontarget_distractor122.jpeg  ></img>
					</div>
					","null","rsvp1","practice0","","","","","","","","","4","","","","","img/nontarget_distractor122.jpeg"
"","html-keyboard-response","167","84316","0.0-5.0-17.0-1.4","56d9bcc86301bf00059ec5b5","56d9bcc86301bf00059ec5b5","63a36e1df1afd18b014794e9","63a3a6a6503047eda560409a","rsvp1-task","true","0","","","","","null","<span></span>","null","iti","","","","","","","","","","","","","","",""
"","html-keyboard-response","168","84422","0.0-5.0-17.0-0.5","56d9bcc86301bf00059ec5b5","56d9bcc86301bf00059ec5b5","63a36e1df1afd18b014794e9","63a3a6a6503047eda560409a","rsvp1-task","true","0","","","","","null","
					<div style='width: 900px;'>
					<div style='float: center;'><img src=img/nontarget_distractor11.jpeg  ></img>
					</div>
					","null","rsvp1","practice0","","","","","","","","","4","","","","","img/nontarget_distractor11.jpeg"
"","html-keyboard-response","169","84428","0.0-5.0-17.0-1.5","56d9bcc86301bf00059ec5b5","56d9bcc86301bf00059ec5b5","63a36e1df1afd18b014794e9","63a3a6a6503047eda560409a","rsvp1-task","true","0","","","","","null","<span></span>","null","iti","","","","","","","","","","","","","","",""
"","html-keyboard-response","170","84530","0.0-5.0-17.0-0.6","56d9bcc86301bf00059ec5b5","56d9bcc86301bf00059ec5b5","63a36e1df1afd18b014794e9","63a3a6a6503047eda560409a","rsvp1-task","true","0","","","","","null","
					<div style='width: 900px;'>
					<div style='float: center;'><img src=img/nontarget_distractor121.jpeg  ></img>
					</div>
					","null","rsvp1","practice0","","","","","","","","","4","","","","","img/nontarget_distractor121.jpeg"
"","html-keyboard-response","171","84536","0.0-5.0-17.0-1.6","56d9bcc86301bf00059ec5b5","56d9bcc86301bf00059ec5b5","63a36e1df1afd18b014794e9","63a3a6a6503047eda560409a","rsvp1-task","true","0","","","","","null","<span></span>","null","iti","","","","","","","","","","","","","","",""
"","html-keyboard-response","172","84638","0.0-5.0-17.0-0.7","56d9bcc86301bf00059ec5b5","56d9bcc86301bf00059ec5b5","63a36e1df1afd18b014794e9","63a3a6a6503047eda560409a","rsvp1-task","true","0","","","","","null","
					<div style='width: 900px;'>
					<div style='float: center;'><img src=img/nontarget_distractor65.jpeg  ></img>
					</div>
					","null","rsvp1","practice0","","","","","","","","","4","","","","","img/nontarget_distractor65.jpeg"
"","html-keyboard-response","173","84643","0.0-5.0-17.0-1.7","56d9bcc86301bf00059ec5b5","56d9bcc86301bf00059ec5b5","63a36e1df1afd18b014794e9","63a3a6a6503047eda560409a","rsvp1-task","true","0","","","","","null","<span></span>","null","iti","","","","","","","","","","","","","","",""
"","html-keyboard-response","174","84750","0.0-5.0-17.0-0.8","56d9bcc86301bf00059ec5b5","56d9bcc86301bf00059ec5b5","63a36e1df1afd18b014794e9","63a3a6a6503047eda560409a","rsvp1-task","true","0","","","","","null","
					<div style='width: 900px;'>
					<div style='float: center;'><img src=img/nontarget_distractor222.jpeg  ></img>
					</div>
					","null","rsvp1","practice0","","","","","","","","","4","","","","","img/nontarget_distractor222.jpeg"
"","html-keyboard-response","175","84756","0.0-5.0-17.0-1.8","56d9bcc86301bf00059ec5b5","56d9bcc86301bf00059ec5b5","63a36e1df1afd18b014794e9","63a3a6a6503047eda560409a","rsvp1-task","true","0","","","","","null","<span></span>","null","iti","","","","","","","","","","","","","","",""
"","html-keyboard-response","176","84858","0.0-5.0-17.0-0.9","56d9bcc86301bf00059ec5b5","56d9bcc86301bf00059ec5b5","63a36e1df1afd18b014794e9","63a3a6a6503047eda560409a","rsvp1-task","true","0","","","","","null","
					<div style='width: 900px;'>
					<div style='float: center;'><img src=img/nontarget_distractor137.jpeg  ></img>
					</div>
					","null","rsvp1","practice0","","","","","","","","","4","","","","","img/nontarget_distractor137.jpeg"
"","html-keyboard-response","177","84863","0.0-5.0-17.0-1.9","56d9bcc86301bf00059ec5b5","56d9bcc86301bf00059ec5b5","63a36e1df1afd18b014794e9","63a3a6a6503047eda560409a","rsvp1-task","true","0","","","","","null","<span></span>","null","iti","","","","","","","","","","","","","","",""
"","html-keyboard-response","178","84966","0.0-5.0-17.0-0.10","56d9bcc86301bf00059ec5b5","56d9bcc86301bf00059ec5b5","63a36e1df1afd18b014794e9","63a3a6a6503047eda560409a","rsvp1-task","true","0","","","","","null","
					<div style='width: 900px;'>
					<div style='float: center;'><img src=img/nontarget_distractor177.jpeg  ></img>
					</div>
					","null","rsvp1","practice0","","","","","","","","","4","","","","","img/nontarget_distractor177.jpeg"
"","html-keyboard-response","179","84972","0.0-5.0-17.0-1.10","56d9bcc86301bf00059ec5b5","56d9bcc86301bf00059ec5b5","63a36e1df1afd18b014794e9","63a3a6a6503047eda560409a","rsvp1-task","true","0","","","","","null","<span></span>","null","iti","","","","","","","","","","","","","","",""
"","html-keyboard-response","180","85074","0.0-5.0-17.0-0.11","56d9bcc86301bf00059ec5b5","56d9bcc86301bf00059ec5b5","63a36e1df1afd18b014794e9","63a3a6a6503047eda560409a","rsvp1-task","true","0","","","","","null","
					<div style='width: 900px;'>
					<div style='float: center;'><img src=img/nontarget_distractor187.jpeg  ></img>
					</div>
					","null","rsvp1","practice0","","","","","","","","","4","","","","","img/nontarget_distractor187.jpeg"
"","html-keyboard-response","181","85080","0.0-5.0-17.0-1.11","56d9bcc86301bf00059ec5b5","56d9bcc86301bf00059ec5b5","63a36e1df1afd18b014794e9","63a3a6a6503047eda560409a","rsvp1-task","true","0","","","","","null","<span></span>","null","iti","","","","","","","","","","","","","","",""
"","html-keyboard-response","182","85182","0.0-5.0-17.0-0.12","56d9bcc86301bf00059ec5b5","56d9bcc86301bf00059ec5b5","63a36e1df1afd18b014794e9","63a3a6a6503047eda560409a","rsvp1-task","true","0","","","","","null","
					<div style='width: 900px;'>
					<div style='float: center;'><img src=img/nontarget_distractor173.jpeg  ></img>
					</div>
					","null","rsvp1","practice0","","","","","","","","","4","","","","","img/nontarget_distractor173.jpeg"
"","html-keyboard-response","183","85188","0.0-5.0-17.0-1.12","56d9bcc86301bf00059ec5b5","56d9bcc86301bf00059ec5b5","63a36e1df1afd18b014794e9","63a3a6a6503047eda560409a","rsvp1-task","true","0","","","","","null","<span></span>","null","iti","","","","","","","","","","","","","","",""
"","html-keyboard-response","184","85290","0.0-5.0-17.0-0.13","56d9bcc86301bf00059ec5b5","56d9bcc86301bf00059ec5b5","63a36e1df1afd18b014794e9","63a3a6a6503047eda560409a","rsvp1-task","true","0","","","","","null","
					<div style='width: 900px;'>
					<div style='float: center;'><img src=img/t2_targets43.jpeg class=""rotateimgL""  ></img>
					</div>
					","null","rsvp1","practice0","","","","","","","","","4","","","","","img/t2_targets43.jpeg class=""rotateimgL"""
"","html-keyboard-response","185","85295","0.0-5.0-17.0-1.13","56d9bcc86301bf00059ec5b5","56d9bcc86301bf00059ec5b5","63a36e1df1afd18b014794e9","63a3a6a6503047eda560409a","rsvp1-task","true","0","","","","","null","<span></span>","null","iti","","","","","","","","","","","","","","",""
"","html-keyboard-response","186","85398","0.0-5.0-17.0-0.14","56d9bcc86301bf00059ec5b5","56d9bcc86301bf00059ec5b5","63a36e1df1afd18b014794e9","63a3a6a6503047eda560409a","rsvp1-task","true","0","","","","","null","
					<div style='width: 900px;'>
					<div style='float: center;'><img src=img/nontarget_distractor197.jpeg  ></img>
					</div>
					","null","rsvp1","practice0","","","","","","","","","4","","","","","img/nontarget_distractor197.jpeg"
"","html-keyboard-response","187","85404","0.0-5.0-17.0-1.14","56d9bcc86301bf00059ec5b5","56d9bcc86301bf00059ec5b5","63a36e1df1afd18b014794e9","63a3a6a6503047eda560409a","rsvp1-task","true","0","","","","","null","<span></span>","null","iti","","","","","","","","","","","","","","",""
"","html-keyboard-response","188","85508","0.0-5.0-17.0-0.15","56d9bcc86301bf00059ec5b5","56d9bcc86301bf00059ec5b5","63a36e1df1afd18b014794e9","63a3a6a6503047eda560409a","rsvp1-task","true","0","","","","","null","
					<div style='width: 900px;'>
					<div style='float: center;'><img src=img/nontarget_distractor129.jpeg  ></img>
					</div>
					","null","rsvp1","practice0","","","","","","","","","4","","","","","img/nontarget_distractor129.jpeg"
"","html-keyboard-response","189","85513","0.0-5.0-17.0-1.15","56d9bcc86301bf00059ec5b5","56d9bcc86301bf00059ec5b5","63a36e1df1afd18b014794e9","63a3a6a6503047eda560409a","rsvp1-task","true","0","","","","","null","<span></span>","null","iti","","","","","","","","","","","","","","",""
"","html-keyboard-response","190","85618","0.0-5.0-17.0-0.16","56d9bcc86301bf00059ec5b5","56d9bcc86301bf00059ec5b5","63a36e1df1afd18b014794e9","63a3a6a6503047eda560409a","rsvp1-task","true","0","","","","","null","
					<div style='width: 900px;'>
					<div style='float: center;'><img src=img/nontarget_distractor79.jpeg  ></img>
					</div>
					","null","rsvp1","practice0","","","","","","","","","4","","","","","img/nontarget_distractor79.jpeg"
"","html-keyboard-response","191","85624","0.0-5.0-17.0-1.16","56d9bcc86301bf00059ec5b5","56d9bcc86301bf00059ec5b5","63a36e1df1afd18b014794e9","63a3a6a6503047eda560409a","rsvp1-task","true","0","","","","","null","<span></span>","null","iti","","","","","","","","","","","","","","",""
"","html-keyboard-response","192","86048","0.0-5.0-18.0-0.0","56d9bcc86301bf00059ec5b5","56d9bcc86301bf00059ec5b5","63a36e1df1afd18b014794e9","63a3a6a6503047eda560409a","rsvp1-task","true","0","","","","","423","<div class=""rsvp""> Was the rotated image rotated left (1 key) or right (0 key)?</div>","1","response","practice0","1","1","neutral","img/nontarget_distractor65.jpeg","img/nontarget_distractor197.jpeg","8","6","14","4","true","true","true","",""
"","html-keyboard-response","193","87054","0.0-5.0-19.0","56d9bcc86301bf00059ec5b5","56d9bcc86301bf00059ec5b5","63a36e1df1afd18b014794e9","63a3a6a6503047eda560409a","rsvp1-task","true","0","","","","","null","Correct! </p> <p>  </p><p> ","null","","","","","","","","","","","","","","","main_T1_ITI",""
"","html-keyboard-response","194","89058","0.0-5.0-20.0","56d9bcc86301bf00059ec5b5","56d9bcc86301bf00059ec5b5","63a36e1df1afd18b014794e9","63a3a6a6503047eda560409a","rsvp1-task","true","0","","","","","null","<div class=""rsvp"">+</div>","null","fixation","","","","","","","","","","","","","","",""
"","html-keyboard-response","195","89310","0.0-5.0-21.0","56d9bcc86301bf00059ec5b5","56d9bcc86301bf00059ec5b5","63a36e1df1afd18b014794e9","63a3a6a6503047eda560409a","rsvp1-task","true","0","","","","","null","<div class=""rsvp"" ></div>","null","blank","","","","","","","","","","","","","","",""
"","html-keyboard-response","196","89422","0.0-5.0-22.0-0.0","56d9bcc86301bf00059ec5b5","56d9bcc86301bf00059ec5b5","63a36e1df1afd18b014794e9","63a3a6a6503047eda560409a","rsvp1-task","true","0","","","","","null","
					<div style='width: 900px;'>
					<div style='float: center;'><img src=img/nontarget_distractor14.jpeg  ></img>
					</div>
					","null","rsvp1","practice0","","","","","","","","","5","","","","","img/nontarget_distractor14.jpeg"
"","html-keyboard-response","197","89427","0.0-5.0-22.0-1.0","56d9bcc86301bf00059ec5b5","56d9bcc86301bf00059ec5b5","63a36e1df1afd18b014794e9","63a3a6a6503047eda560409a","rsvp1-task","true","0","","","","","null","<span></span>","null","iti","","","","","","","","","","","","","","",""
"","html-keyboard-response","198","89534","0.0-5.0-22.0-0.1","56d9bcc86301bf00059ec5b5","56d9bcc86301bf00059ec5b5","63a36e1df1afd18b014794e9","63a3a6a6503047eda560409a","rsvp1-task","true","0","","","","","null","
					<div style='width: 900px;'>
					<div style='float: center;'><img src=img/nontarget_distractor32.jpeg  ></img>
					</div>
					","null","rsvp1","practice0","","","","","","","","","5","","","","","img/nontarget_distractor32.jpeg"
"","html-keyboard-response","199","89540","0.0-5.0-22.0-1.1","56d9bcc86301bf00059ec5b5","56d9bcc86301bf00059ec5b5","63a36e1df1afd18b014794e9","63a3a6a6503047eda560409a","rsvp1-task","true","0","","","","","null","<span></span>","null","iti","","","","","","","","","","","","","","",""
"","html-keyboard-response","200","89646","0.0-5.0-22.0-0.2","56d9bcc86301bf00059ec5b5","56d9bcc86301bf00059ec5b5","63a36e1df1afd18b014794e9","63a3a6a6503047eda560409a","rsvp1-task","true","0","","","","","null","
					<div style='width: 900px;'>
					<div style='float: center;'><img src=img/nontarget_distractor221.jpeg  ></img>
					</div>
					","null","rsvp1","practice0","","","","","","","","","5","","","","","img/nontarget_distractor221.jpeg"
"","html-keyboard-response","201","89652","0.0-5.0-22.0-1.2","56d9bcc86301bf00059ec5b5","56d9bcc86301bf00059ec5b5","63a36e1df1afd18b014794e9","63a3a6a6503047eda560409a","rsvp1-task","true","0","","","","","null","<span></span>","null","iti","","","","","","","","","","","","","","",""
"","html-keyboard-response","202","89758","0.0-5.0-22.0-0.3","56d9bcc86301bf00059ec5b5","56d9bcc86301bf00059ec5b5","63a36e1df1afd18b014794e9","63a3a6a6503047eda560409a","rsvp1-task","true","0","","","","","null","
					<div style='width: 900px;'>
					<div style='float: center;'><img src=img/nontarget_distractor109.jpeg  ></img>
					</div>
					","null","rsvp1","practice0","","","","","","","","","5","","","","","img/nontarget_distractor109.jpeg"
"","html-keyboard-response","203","89763","0.0-5.0-22.0-1.3","56d9bcc86301bf00059ec5b5","56d9bcc86301bf00059ec5b5","63a36e1df1afd18b014794e9","63a3a6a6503047eda560409a","rsvp1-task","true","0","","","","","null","<span></span>","null","iti","","","","","","","","","","","","","","",""
"","html-keyboard-response","204","89870","0.0-5.0-22.0-0.4","56d9bcc86301bf00059ec5b5","56d9bcc86301bf00059ec5b5","63a36e1df1afd18b014794e9","63a3a6a6503047eda560409a","rsvp1-task","true","0","","","","","null","
					<div style='width: 900px;'>
					<div style='float: center;'><img src=img/nontarget_distractor212.jpeg  ></img>
					</div>
					","null","rsvp1","practice0","","","","","","","","","5","","","","","img/nontarget_distractor212.jpeg"
"","html-keyboard-response","205","89876","0.0-5.0-22.0-1.4","56d9bcc86301bf00059ec5b5","56d9bcc86301bf00059ec5b5","63a36e1df1afd18b014794e9","63a3a6a6503047eda560409a","rsvp1-task","true","0","","","","","null","<span></span>","null","iti","","","","","","","","","","","","","","",""
"","html-keyboard-response","206","89982","0.0-5.0-22.0-0.5","56d9bcc86301bf00059ec5b5","56d9bcc86301bf00059ec5b5","63a36e1df1afd18b014794e9","63a3a6a6503047eda560409a","rsvp1-task","true","0","","","","","null","
					<div style='width: 900px;'>
					<div style='float: center;'><img src=img/nontarget_distractor22.jpeg  ></img>
					</div>
					","null","rsvp1","practice0","","","","","","","","","5","","","","","img/nontarget_distractor22.jpeg"
"","html-keyboard-response","207","89988","0.0-5.0-22.0-1.5","56d9bcc86301bf00059ec5b5","56d9bcc86301bf00059ec5b5","63a36e1df1afd18b014794e9","63a3a6a6503047eda560409a","rsvp1-task","true","0","","","","","null","<span></span>","null","iti","","","","","","","","","","","","","","",""
"","html-keyboard-response","208","90091","0.0-5.0-22.0-0.6","56d9bcc86301bf00059ec5b5","56d9bcc86301bf00059ec5b5","63a36e1df1afd18b014794e9","63a3a6a6503047eda560409a","rsvp1-task","true","0","","","","","null","
					<div style='width: 900px;'>
					<div style='float: center;'><img src=img/nontarget_distractor21.jpeg  ></img>
					</div>
					","null","rsvp1","practice0","","","","","","","","","5","","","","","img/nontarget_distractor21.jpeg"
"","html-keyboard-response","209","90097","0.0-5.0-22.0-1.6","56d9bcc86301bf00059ec5b5","56d9bcc86301bf00059ec5b5","63a36e1df1afd18b014794e9","63a3a6a6503047eda560409a","rsvp1-task","true","0","","","","","null","<span></span>","null","iti","","","","","","","","","","","","","","",""
"","html-keyboard-response","210","90202","0.0-5.0-22.0-0.7","56d9bcc86301bf00059ec5b5","56d9bcc86301bf00059ec5b5","63a36e1df1afd18b014794e9","63a3a6a6503047eda560409a","rsvp1-task","true","0","","","","","null","
					<div style='width: 900px;'>
					<div style='float: center;'><img src=img/nontarget_distractor134.jpeg  ></img>
					</div>
					","null","rsvp1","practice0","","","","","","","","","5","","","","","img/nontarget_distractor134.jpeg"
"","html-keyboard-response","211","90207","0.0-5.0-22.0-1.7","56d9bcc86301bf00059ec5b5","56d9bcc86301bf00059ec5b5","63a36e1df1afd18b014794e9","63a3a6a6503047eda560409a","rsvp1-task","true","0","","","","","null","<span></span>","null","iti","","","","","","","","","","","","","","",""
"","html-keyboard-response","212","90315","0.0-5.0-22.0-0.8","56d9bcc86301bf00059ec5b5","56d9bcc86301bf00059ec5b5","63a36e1df1afd18b014794e9","63a3a6a6503047eda560409a","rsvp1-task","true","0","","","","","null","
					<div style='width: 900px;'>
					<div style='float: center;'><img src=img/nontarget_distractor104.jpeg  ></img>
					</div>
					","null","rsvp1","practice0","","","","","","","","","5","","","","","img/nontarget_distractor104.jpeg"
"","html-keyboard-response","213","90320","0.0-5.0-22.0-1.8","56d9bcc86301bf00059ec5b5","56d9bcc86301bf00059ec5b5","63a36e1df1afd18b014794e9","63a3a6a6503047eda560409a","rsvp1-task","true","0","","","","","null","<span></span>","null","iti","","","","","","","","","","","","","","",""
"","html-keyboard-response","214","90426","0.0-5.0-22.0-0.9","56d9bcc86301bf00059ec5b5","56d9bcc86301bf00059ec5b5","63a36e1df1afd18b014794e9","63a3a6a6503047eda560409a","rsvp1-task","true","0","","","","","null","
					<div style='width: 900px;'>
					<div style='float: center;'><img src=img/nontarget_distractor140.jpeg  ></img>
					</div>
					","null","rsvp1","practice0","","","","","","","","","5","","","","","img/nontarget_distractor140.jpeg"
"","html-keyboard-response","215","90432","0.0-5.0-22.0-1.9","56d9bcc86301bf00059ec5b5","56d9bcc86301bf00059ec5b5","63a36e1df1afd18b014794e9","63a3a6a6503047eda560409a","rsvp1-task","true","0","","","","","null","<span></span>","null","iti","","","","","","","","","","","","","","",""
"","html-keyboard-response","216","90534","0.0-5.0-22.0-0.10","56d9bcc86301bf00059ec5b5","56d9bcc86301bf00059ec5b5","63a36e1df1afd18b014794e9","63a3a6a6503047eda560409a","rsvp1-task","true","0","","","","","null","
					<div style='width: 900px;'>
					<div style='float: center;'><img src=img/nontarget_distractor186.jpeg  ></img>
					</div>
					","null","rsvp1","practice0","","","","","","","","","5","","","","","img/nontarget_distractor186.jpeg"
"","html-keyboard-response","217","90539","0.0-5.0-22.0-1.10","56d9bcc86301bf00059ec5b5","56d9bcc86301bf00059ec5b5","63a36e1df1afd18b014794e9","63a3a6a6503047eda560409a","rsvp1-task","true","0","","","","","null","<span></span>","null","iti","","","","","","","","","","","","","","",""
"","html-keyboard-response","218","90646","0.0-5.0-22.0-0.11","56d9bcc86301bf00059ec5b5","56d9bcc86301bf00059ec5b5","63a36e1df1afd18b014794e9","63a3a6a6503047eda560409a","rsvp1-task","true","0","","","","","null","
					<div style='width: 900px;'>
					<div style='float: center;'><img src=img/nontarget_distractor203.jpeg  ></img>
					</div>
					","null","rsvp1","practice0","","","","","","","","","5","","","","","img/nontarget_distractor203.jpeg"
"","html-keyboard-response","219","90650","0.0-5.0-22.0-1.11","56d9bcc86301bf00059ec5b5","56d9bcc86301bf00059ec5b5","63a36e1df1afd18b014794e9","63a3a6a6503047eda560409a","rsvp1-task","true","0","","","","","null","<span></span>","null","iti","","","","","","","","","","","","","","",""
"","html-keyboard-response","220","90758","0.0-5.0-22.0-0.12","56d9bcc86301bf00059ec5b5","56d9bcc86301bf00059ec5b5","63a36e1df1afd18b014794e9","63a3a6a6503047eda560409a","rsvp1-task","true","0","","","","","null","
					<div style='width: 900px;'>
					<div style='float: center;'><img src=img/nontarget_distractor49.jpeg  ></img>
					</div>
					","null","rsvp1","practice0","","","","","","","","","5","","","","","img/nontarget_distractor49.jpeg"
"","html-keyboard-response","221","90764","0.0-5.0-22.0-1.12","56d9bcc86301bf00059ec5b5","56d9bcc86301bf00059ec5b5","63a36e1df1afd18b014794e9","63a3a6a6503047eda560409a","rsvp1-task","true","0","","","","","null","<span></span>","null","iti","","","","","","","","","","","","","","",""
"","html-keyboard-response","222","90870","0.0-5.0-22.0-0.13","56d9bcc86301bf00059ec5b5","56d9bcc86301bf00059ec5b5","63a36e1df1afd18b014794e9","63a3a6a6503047eda560409a","rsvp1-task","true","0","","","","","null","
					<div style='width: 900px;'>
					<div style='float: center;'><img src=img/nontarget_distractor24.jpeg  ></img>
					</div>
					","null","rsvp1","practice0","","","","","","","","","5","","","","","img/nontarget_distractor24.jpeg"
"","html-keyboard-response","223","90876","0.0-5.0-22.0-1.13","56d9bcc86301bf00059ec5b5","56d9bcc86301bf00059ec5b5","63a36e1df1afd18b014794e9","63a3a6a6503047eda560409a","rsvp1-task","true","0","","","","","null","<span></span>","null","iti","","","","","","","","","","","","","","",""
"","html-keyboard-response","224","90980","0.0-5.0-22.0-0.14","56d9bcc86301bf00059ec5b5","56d9bcc86301bf00059ec5b5","63a36e1df1afd18b014794e9","63a3a6a6503047eda560409a","rsvp1-task","true","0","","","","","null","
					<div style='width: 900px;'>
					<div style='float: center;'><img src=img/t2_targets63.jpeg class=""rotateimgR""  ></img>
					</div>
					","null","rsvp1","practice0","","","","","","","","","5","","","","","img/t2_targets63.jpeg class=""rotateimgR"""
"","html-keyboard-response","225","90985","0.0-5.0-22.0-1.14","56d9bcc86301bf00059ec5b5","56d9bcc86301bf00059ec5b5","63a36e1df1afd18b014794e9","63a3a6a6503047eda560409a","rsvp1-task","true","0","","","","","null","<span></span>","null","iti","","","","","","","","","","","","","","",""
"","html-keyboard-response","226","91090","0.0-5.0-22.0-0.15","56d9bcc86301bf00059ec5b5","56d9bcc86301bf00059ec5b5","63a36e1df1afd18b014794e9","63a3a6a6503047eda560409a","rsvp1-task","true","0","","","","","null","
					<div style='width: 900px;'>
					<div style='float: center;'><img src=img/nontarget_distractor46.jpeg  ></img>
					</div>
					","null","rsvp1","practice0","","","","","","","","","5","","","","","img/nontarget_distractor46.jpeg"
"","html-keyboard-response","227","91096","0.0-5.0-22.0-1.15","56d9bcc86301bf00059ec5b5","56d9bcc86301bf00059ec5b5","63a36e1df1afd18b014794e9","63a3a6a6503047eda560409a","rsvp1-task","true","0","","","","","null","<span></span>","null","iti","","","","","","","","","","","","","","",""
"","html-keyboard-response","228","91198","0.0-5.0-22.0-0.16","56d9bcc86301bf00059ec5b5","56d9bcc86301bf00059ec5b5","63a36e1df1afd18b014794e9","63a3a6a6503047eda560409a","rsvp1-task","true","0","","","","","null","
					<div style='width: 900px;'>
					<div style='float: center;'><img src=img/nontarget_distractor87.jpeg  ></img>
					</div>
					","null","rsvp1","practice0","","","","","","","","","5","","","","","img/nontarget_distractor87.jpeg"
"","html-keyboard-response","229","91204","0.0-5.0-22.0-1.16","56d9bcc86301bf00059ec5b5","56d9bcc86301bf00059ec5b5","63a36e1df1afd18b014794e9","63a3a6a6503047eda560409a","rsvp1-task","true","0","","","","","null","<span></span>","null","iti","","","","","","","","","","","","","","",""
"","html-keyboard-response","230","91618","0.0-5.0-23.0-0.0","56d9bcc86301bf00059ec5b5","56d9bcc86301bf00059ec5b5","63a36e1df1afd18b014794e9","63a3a6a6503047eda560409a","rsvp1-task","true","0","","","","","413.2000000476837","<div class=""rsvp""> Was the rotated image rotated left (1 key) or right (0 key)?</div>","0","response","practice0","0","0","neutral","img/nontarget_distractor134.jpeg","img/nontarget_distractor46.jpeg","8","7","15","5","true","true","true","",""
"","html-keyboard-response","231","92626","0.0-5.0-24.0","56d9bcc86301bf00059ec5b5","56d9bcc86301bf00059ec5b5","63a36e1df1afd18b014794e9","63a3a6a6503047eda560409a","rsvp1-task","true","0","","","","","null","Correct! </p> <p>  </p><p> ","null","","","","","","","","","","","","","","","main_T1_ITI",""
"","html-keyboard-response","232","94638","0.0-5.0-25.0","56d9bcc86301bf00059ec5b5","56d9bcc86301bf00059ec5b5","63a36e1df1afd18b014794e9","63a3a6a6503047eda560409a","rsvp1-task","true","0","","","","","null","<div class=""rsvp"">+</div>","null","fixation","","","","","","","","","","","","","","",""
"","html-keyboard-response","233","94902","0.0-5.0-26.0","56d9bcc86301bf00059ec5b5","56d9bcc86301bf00059ec5b5","63a36e1df1afd18b014794e9","63a3a6a6503047eda560409a","rsvp1-task","true","0","","","","","null","<div class=""rsvp"" ></div>","null","blank","","","","","","","","","","","","","","",""
"","html-keyboard-response","234","95014","0.0-5.0-27.0-0.0","56d9bcc86301bf00059ec5b5","56d9bcc86301bf00059ec5b5","63a36e1df1afd18b014794e9","63a3a6a6503047eda560409a","rsvp1-task","true","0","","","","","null","
					<div style='width: 900px;'>
					<div style='float: center;'><img src=img/nontarget_distractor150.jpeg  ></img>
					</div>
					","null","rsvp1","practice0","","","","","","","","","6","","","","","img/nontarget_distractor150.jpeg"
"","html-keyboard-response","235","95019","0.0-5.0-27.0-1.0","56d9bcc86301bf00059ec5b5","56d9bcc86301bf00059ec5b5","63a36e1df1afd18b014794e9","63a3a6a6503047eda560409a","rsvp1-task","true","0","","","","","null","<span></span>","null","iti","","","","","","","","","","","","","","",""
"","html-keyboard-response","236","95124","0.0-5.0-27.0-0.1","56d9bcc86301bf00059ec5b5","56d9bcc86301bf00059ec5b5","63a36e1df1afd18b014794e9","63a3a6a6503047eda560409a","rsvp1-task","true","0","","","","","null","
					<div style='width: 900px;'>
					<div style='float: center;'><img src=img/nontarget_distractor184.jpeg  ></img>
					</div>
					","null","rsvp1","practice0","","","","","","","","","6","","","","","img/nontarget_distractor184.jpeg"
"","html-keyboard-response","237","95129","0.0-5.0-27.0-1.1","56d9bcc86301bf00059ec5b5","56d9bcc86301bf00059ec5b5","63a36e1df1afd18b014794e9","63a3a6a6503047eda560409a","rsvp1-task","true","0","","","","","null","<span></span>","null","iti","","","","","","","","","","","","","","",""
"","html-keyboard-response","238","95238","0.0-5.0-27.0-0.2","56d9bcc86301bf00059ec5b5","56d9bcc86301bf00059ec5b5","63a36e1df1afd18b014794e9","63a3a6a6503047eda560409a","rsvp1-task","true","0","","","","","null","
					<div style='width: 900px;'>
					<div style='float: center;'><img src=img/nontarget_distractor173.jpeg  ></img>
					</div>
					","null","rsvp1","practice0","","","","","","","","","6","","","","","img/nontarget_distractor173.jpeg"
"","html-keyboard-response","239","95243","0.0-5.0-27.0-1.2","56d9bcc86301bf00059ec5b5","56d9bcc86301bf00059ec5b5","63a36e1df1afd18b014794e9","63a3a6a6503047eda560409a","rsvp1-task","true","0","","","","","null","<span></span>","null","iti","","","","","","","","","","","","","","",""
"","html-keyboard-response","240","95348","0.0-5.0-27.0-0.3","56d9bcc86301bf00059ec5b5","56d9bcc86301bf00059ec5b5","63a36e1df1afd18b014794e9","63a3a6a6503047eda560409a","rsvp1-task","true","0","","","","","null","
					<div style='width: 900px;'>
					<div style='float: center;'><img src=img/nontarget_distractor142.jpeg  ></img>
					</div>
					","null","rsvp1","practice0","","","","","","","","","6","","","","","img/nontarget_distractor142.jpeg"
"","html-keyboard-response","241","95353","0.0-5.0-27.0-1.3","56d9bcc86301bf00059ec5b5","56d9bcc86301bf00059ec5b5","63a36e1df1afd18b014794e9","63a3a6a6503047eda560409a","rsvp1-task","true","0","","","","","null","<span></span>","null","iti","","","","","","","","","","","","","","",""
"","html-keyboard-response","242","95458","0.0-5.0-27.0-0.4","56d9bcc86301bf00059ec5b5","56d9bcc86301bf00059ec5b5","63a36e1df1afd18b014794e9","63a3a6a6503047eda560409a","rsvp1-task","true","0","","","","","null","
					<div style='width: 900px;'>
					<div style='float: center;'><img src=img/nontarget_distractor57.jpeg  ></img>
					</div>
					","null","rsvp1","practice0","","","","","","","","","6","","","","","img/nontarget_distractor57.jpeg"
"","html-keyboard-response","243","95464","0.0-5.0-27.0-1.4","56d9bcc86301bf00059ec5b5","56d9bcc86301bf00059ec5b5","63a36e1df1afd18b014794e9","63a3a6a6503047eda560409a","rsvp1-task","true","0","","","","","null","<span></span>","null","iti","","","","","","","","","","","","","","",""
"","html-keyboard-response","244","95570","0.0-5.0-27.0-0.5","56d9bcc86301bf00059ec5b5","56d9bcc86301bf00059ec5b5","63a36e1df1afd18b014794e9","63a3a6a6503047eda560409a","rsvp1-task","true","0","","","","","null","
					<div style='width: 900px;'>
					<div style='float: center;'><img src=img/nontarget_distractor239.jpeg  ></img>
					</div>
					","null","rsvp1","practice0","","","","","","","","","6","","","","","img/nontarget_distractor239.jpeg"
"","html-keyboard-response","245","95575","0.0-5.0-27.0-1.5","56d9bcc86301bf00059ec5b5","56d9bcc86301bf00059ec5b5","63a36e1df1afd18b014794e9","63a3a6a6503047eda560409a","rsvp1-task","true","0","","","","","null","<span></span>","null","iti","","","","","","","","","","","","","","",""
"","html-keyboard-response","246","95682","0.0-5.0-27.0-0.6","56d9bcc86301bf00059ec5b5","56d9bcc86301bf00059ec5b5","63a36e1df1afd18b014794e9","63a3a6a6503047eda560409a","rsvp1-task","true","0","","","","","null","
					<div style='width: 900px;'>
					<div style='float: center;'><img src=img/nontarget_distractor172.jpeg  ></img>
					</div>
					","null","rsvp1","practice0","","","","","","","","","6","","","","","img/nontarget_distractor172.jpeg"
"","html-keyboard-response","247","95687","0.0-5.0-27.0-1.6","56d9bcc86301bf00059ec5b5","56d9bcc86301bf00059ec5b5","63a36e1df1afd18b014794e9","63a3a6a6503047eda560409a","rsvp1-task","true","0","","","","","null","<span></span>","null","iti","","","","","","","","","","","","","","",""
"","html-keyboard-response","248","95790","0.0-5.0-27.0-0.7","56d9bcc86301bf00059ec5b5","56d9bcc86301bf00059ec5b5","63a36e1df1afd18b014794e9","63a3a6a6503047eda560409a","rsvp1-task","true","0","","","","","null","
					<div style='width: 900px;'>
					<div style='float: center;'><img src=img/nontarget_distractor109.jpeg  ></img>
					</div>
					","null","rsvp1","practice0","","","","","","","","","6","","","","","img/nontarget_distractor109.jpeg"
"","html-keyboard-response","249","95795","0.0-5.0-27.0-1.7","56d9bcc86301bf00059ec5b5","56d9bcc86301bf00059ec5b5","63a36e1df1afd18b014794e9","63a3a6a6503047eda560409a","rsvp1-task","true","0","","","","","null","<span></span>","null","iti","","","","","","","","","","","","","","",""
"","html-keyboard-response","250","95902","0.0-5.0-27.0-0.8","56d9bcc86301bf00059ec5b5","56d9bcc86301bf00059ec5b5","63a36e1df1afd18b014794e9","63a3a6a6503047eda560409a","rsvp1-task","true","0","","","","","null","
					<div style='width: 900px;'>
					<div style='float: center;'><img src=img/nontarget_distractor108.jpeg  ></img>
					</div>
					","null","rsvp1","practice0","","","","","","","","","6","","","","","img/nontarget_distractor108.jpeg"
"","html-keyboard-response","251","95907","0.0-5.0-27.0-1.8","56d9bcc86301bf00059ec5b5","56d9bcc86301bf00059ec5b5","63a36e1df1afd18b014794e9","63a3a6a6503047eda560409a","rsvp1-task","true","0","","","","","null","<span></span>","null","iti","","","","","","","","","","","","","","",""
"","html-keyboard-response","252","96014","0.0-5.0-27.0-0.9","56d9bcc86301bf00059ec5b5","56d9bcc86301bf00059ec5b5","63a36e1df1afd18b014794e9","63a3a6a6503047eda560409a","rsvp1-task","true","0","","","","","null","
					<div style='width: 900px;'>
					<div style='float: center;'><img src=img/nontarget_distractor207.jpeg  ></img>
					</div>
					","null","rsvp1","practice0","","","","","","","","","6","","","","","img/nontarget_distractor207.jpeg"
"","html-keyboard-response","253","96019","0.0-5.0-27.0-1.9","56d9bcc86301bf00059ec5b5","56d9bcc86301bf00059ec5b5","63a36e1df1afd18b014794e9","63a3a6a6503047eda560409a","rsvp1-task","true","0","","","","","null","<span></span>","null","iti","","","","","","","","","","","","","","",""
"","html-keyboard-response","254","96124","0.0-5.0-27.0-0.10","56d9bcc86301bf00059ec5b5","56d9bcc86301bf00059ec5b5","63a36e1df1afd18b014794e9","63a3a6a6503047eda560409a","rsvp1-task","true","0","","","","","null","
					<div style='width: 900px;'>
					<div style='float: center;'><img src=img/nontarget_distractor248.jpeg  ></img>
					</div>
					","null","rsvp1","practice0","","","","","","","","","6","","","","","img/nontarget_distractor248.jpeg"
"","html-keyboard-response","255","96130","0.0-5.0-27.0-1.10","56d9bcc86301bf00059ec5b5","56d9bcc86301bf00059ec5b5","63a36e1df1afd18b014794e9","63a3a6a6503047eda560409a","rsvp1-task","true","0","","","","","null","<span></span>","null","iti","","","","","","","","","","","","","","",""
"","html-keyboard-response","256","96236","0.0-5.0-27.0-0.11","56d9bcc86301bf00059ec5b5","56d9bcc86301bf00059ec5b5","63a36e1df1afd18b014794e9","63a3a6a6503047eda560409a","rsvp1-task","true","0","","","","","null","
					<div style='width: 900px;'>
					<div style='float: center;'><img src=img/t2_targets188.jpeg class=""rotateimgL""  ></img>
					</div>
					","null","rsvp1","practice0","","","","","","","","","6","","","","","img/t2_targets188.jpeg class=""rotateimgL"""
"","html-keyboard-response","257","96241","0.0-5.0-27.0-1.11","56d9bcc86301bf00059ec5b5","56d9bcc86301bf00059ec5b5","63a36e1df1afd18b014794e9","63a3a6a6503047eda560409a","rsvp1-task","true","0","","","","","null","<span></span>","null","iti","","","","","","","","","","","","","","",""
"","html-keyboard-response","258","96347","0.0-5.0-27.0-0.12","56d9bcc86301bf00059ec5b5","56d9bcc86301bf00059ec5b5","63a36e1df1afd18b014794e9","63a3a6a6503047eda560409a","rsvp1-task","true","0","","","","","null","
					<div style='width: 900px;'>
					<div style='float: center;'><img src=img/nontarget_distractor15.jpeg  ></img>
					</div>
					","null","rsvp1","practice0","","","","","","","","","6","","","","","img/nontarget_distractor15.jpeg"
"","html-keyboard-response","259","96352","0.0-5.0-27.0-1.12","56d9bcc86301bf00059ec5b5","56d9bcc86301bf00059ec5b5","63a36e1df1afd18b014794e9","63a3a6a6503047eda560409a","rsvp1-task","true","0","","","","","null","<span></span>","null","iti","","","","","","","","","","","","","","",""
"","html-keyboard-response","260","96458","0.0-5.0-27.0-0.13","56d9bcc86301bf00059ec5b5","56d9bcc86301bf00059ec5b5","63a36e1df1afd18b014794e9","63a3a6a6503047eda560409a","rsvp1-task","true","0","","","","","null","
					<div style='width: 900px;'>
					<div style='float: center;'><img src=img/nontarget_distractor255.jpeg  ></img>
					</div>
					","null","rsvp1","practice0","","","","","","","","","6","","","","","img/nontarget_distractor255.jpeg"
"","html-keyboard-response","261","96464","0.0-5.0-27.0-1.13","56d9bcc86301bf00059ec5b5","56d9bcc86301bf00059ec5b5","63a36e1df1afd18b014794e9","63a3a6a6503047eda560409a","rsvp1-task","true","0","","","","","null","<span></span>","null","iti","","","","","","","","","","","","","","",""
"","html-keyboard-response","262","96565","0.0-5.0-27.0-0.14","56d9bcc86301bf00059ec5b5","56d9bcc86301bf00059ec5b5","63a36e1df1afd18b014794e9","63a3a6a6503047eda560409a","rsvp1-task","true","0","","","","","null","
					<div style='width: 900px;'>
					<div style='float: center;'><img src=img/nontarget_distractor51.jpeg  ></img>
					</div>
					","null","rsvp1","practice0","","","","","","","","","6","","","","","img/nontarget_distractor51.jpeg"
"","html-keyboard-response","263","96571","0.0-5.0-27.0-1.14","56d9bcc86301bf00059ec5b5","56d9bcc86301bf00059ec5b5","63a36e1df1afd18b014794e9","63a3a6a6503047eda560409a","rsvp1-task","true","0","","","","","null","<span></span>","null","iti","","","","","","","","","","","","","","",""
"","html-keyboard-response","264","96674","0.0-5.0-27.0-0.15","56d9bcc86301bf00059ec5b5","56d9bcc86301bf00059ec5b5","63a36e1df1afd18b014794e9","63a3a6a6503047eda560409a","rsvp1-task","true","0","","","","","null","
					<div style='width: 900px;'>
					<div style='float: center;'><img src=img/nontarget_distractor219.jpeg  ></img>
					</div>
					","null","rsvp1","practice0","","","","","","","","","6","","","","","img/nontarget_distractor219.jpeg"
"","html-keyboard-response","265","96680","0.0-5.0-27.0-1.15","56d9bcc86301bf00059ec5b5","56d9bcc86301bf00059ec5b5","63a36e1df1afd18b014794e9","63a3a6a6503047eda560409a","rsvp1-task","true","0","","","","","null","<span></span>","null","iti","","","","","","","","","","","","","","",""
"","html-keyboard-response","266","96782","0.0-5.0-27.0-0.16","56d9bcc86301bf00059ec5b5","56d9bcc86301bf00059ec5b5","63a36e1df1afd18b014794e9","63a3a6a6503047eda560409a","rsvp1-task","true","0","","","","","null","
					<div style='width: 900px;'>
					<div style='float: center;'><img src=img/nontarget_distractor198.jpeg  ></img>
					</div>
					","null","rsvp1","practice0","","","","","","","","","6","","","","","img/nontarget_distractor198.jpeg"
"","html-keyboard-response","267","96787","0.0-5.0-27.0-1.16","56d9bcc86301bf00059ec5b5","56d9bcc86301bf00059ec5b5","63a36e1df1afd18b014794e9","63a3a6a6503047eda560409a","rsvp1-task","true","0","","","","","null","<span></span>","null","iti","","","","","","","","","","","","","","",""
"","html-keyboard-response","268","96875","0.0-5.0-28.0-0.0","56d9bcc86301bf00059ec5b5","56d9bcc86301bf00059ec5b5","63a36e1df1afd18b014794e9","63a3a6a6503047eda560409a","rsvp1-task","true","0","","","","","86.30000007152557","<div class=""rsvp""> Was the rotated image rotated left (1 key) or right (0 key)?</div>","1","response","practice0","1","1","neutral","img/nontarget_distractor109.jpeg","img/nontarget_distractor15.jpeg","8","4","12","6","true","true","true","",""
"","html-keyboard-response","269","97884","0.0-5.0-29.0","56d9bcc86301bf00059ec5b5","56d9bcc86301bf00059ec5b5","63a36e1df1afd18b014794e9","63a3a6a6503047eda560409a","rsvp1-task","true","0","","","","","null","Correct! </p> <p>  </p><p> ","null","","","","","","","","","","","","","","","main_T1_ITI",""
"","html-keyboard-response","270","99894","0.0-5.0-30.0","56d9bcc86301bf00059ec5b5","56d9bcc86301bf00059ec5b5","63a36e1df1afd18b014794e9","63a3a6a6503047eda560409a","rsvp1-task","true","0","","","","","null","<div class=""rsvp"">+</div>","null","fixation","","","","","","","","","","","","","","",""
"","html-keyboard-response","271","100158","0.0-5.0-31.0","56d9bcc86301bf00059ec5b5","56d9bcc86301bf00059ec5b5","63a36e1df1afd18b014794e9","63a3a6a6503047eda560409a","rsvp1-task","true","0","","","","","null","<div class=""rsvp"" ></div>","null","blank","","","","","","","","","","","","","","",""
