"success","trial_type","trial_index","time_elapsed","internal_node_id","subject_id","subjectID","study_id","session_id","exp_id","full_screen","focus_shifts","timeout","failed_images","failed_audio","failed_video","rt","stimulus","key_press","test_part","phase","correct_responses","correct_response","t1_type","t1_image","t2_image","t1_location","lag","t2_location","trial_number","correct","t1_correct","t2_correct","task","stim"
"true","fullscreen","0","5135","0.0-0.0","58ab2db50da7f10001de8e34","58ab2db50da7f10001de8e34","63a36e1df1afd18b014794e9","63a38b82c067d51bcd604087","rsvp1-task","true","0","","","","","","","","","","","","","","","","","","","","","","",""
"true","preload","1","14225","0.0-1.0","58ab2db50da7f10001de8e34","58ab2db50da7f10001de8e34","63a36e1df1afd18b014794e9","63a38b82c067d51bcd604087","rsvp1-task","true","0","false","[]","[]","[]","","","","","","","","","","","","","","","","","","",""
"","html-keyboard-response","2","25542","0.0-2.0","58ab2db50da7f10001de8e34","58ab2db50da7f10001de8e34","63a36e1df1afd18b014794e9","63a38b82c067d51bcd604087","rsvp1-task","true","0","","","","","11317","<div class='instructions'><p>You will see a series of scene images rapidly appearing on the computer screen. One of the scene images will be ROTATED, either to the left or to the right.</p><p>When the series ends, you have to respond to the question ‘Which way was the scene rotated?’</p><p>If the scene was rotated left, you will press the 1 key. If the scene was rotated right, press the 0 key. </p><p>Press any key to see an example of the task.</p></div>","1","instructions","","","","","","","","","","","","","","",""
"","html-keyboard-response","3","28559","0.0-3.0-0.0","58ab2db50da7f10001de8e34","58ab2db50da7f10001de8e34","63a36e1df1afd18b014794e9","63a38b82c067d51bcd604087","rsvp1-task","true","0","","","","","null","<div class=""rsvp"">+</div>","null","fixation","","","","","","","","","","","","","","",""
"","html-keyboard-response","4","28822","0.0-3.0-1.0","58ab2db50da7f10001de8e34","58ab2db50da7f10001de8e34","63a36e1df1afd18b014794e9","63a38b82c067d51bcd604087","rsvp1-task","true","0","","","","","null","<div class=""rsvp"" ></div>","null","blank","","","","","","","","","","","","","","",""
"","html-keyboard-response","5","29040","0.0-3.0-2.0-0.0","58ab2db50da7f10001de8e34","58ab2db50da7f10001de8e34","63a36e1df1afd18b014794e9","63a38b82c067d51bcd604087","rsvp1-task","true","0","","","","","null","
					<div style='width: 900px;'>
					<div style='float: center;'><img src=img/nontarget_distractor252.jpeg  ></img>
					</div>
					","null","","","","","","","","","","","","","","","",""
"","html-keyboard-response","6","29133","0.0-3.0-2.0-1.0","58ab2db50da7f10001de8e34","58ab2db50da7f10001de8e34","63a36e1df1afd18b014794e9","63a38b82c067d51bcd604087","rsvp1-task","true","0","","","","","null","<span></span>","null","iti","","","","","","","","","","","","","","",""
"","html-keyboard-response","7","29350","0.0-3.0-2.0-0.1","58ab2db50da7f10001de8e34","58ab2db50da7f10001de8e34","63a36e1df1afd18b014794e9","63a38b82c067d51bcd604087","rsvp1-task","true","0","","","","","null","
					<div style='width: 900px;'>
					<div style='float: center;'><img src=img/nontarget_distractor18.jpeg  ></img>
					</div>
					","null","","","","","","","","","","","","","","","",""
"","html-keyboard-response","8","29443","0.0-3.0-2.0-1.1","58ab2db50da7f10001de8e34","58ab2db50da7f10001de8e34","63a36e1df1afd18b014794e9","63a38b82c067d51bcd604087","rsvp1-task","true","0","","","","","null","<span></span>","null","iti","","","","","","","","","","","","","","",""
"","html-keyboard-response","9","29660","0.0-3.0-2.0-0.2","58ab2db50da7f10001de8e34","58ab2db50da7f10001de8e34","63a36e1df1afd18b014794e9","63a38b82c067d51bcd604087","rsvp1-task","true","0","","","","","null","
					<div style='width: 900px;'>
					<div style='float: center;'><img src=img/nontarget_distractor4.jpeg  ></img>
					</div>
					","null","","","","","","","","","","","","","","","",""
"","html-keyboard-response","10","29753","0.0-3.0-2.0-1.2","58ab2db50da7f10001de8e34","58ab2db50da7f10001de8e34","63a36e1df1afd18b014794e9","63a38b82c067d51bcd604087","rsvp1-task","true","0","","","","","null","<span></span>","null","iti","","","","","","","","","","","","","","",""
"","html-keyboard-response","11","29970","0.0-3.0-2.0-0.3","58ab2db50da7f10001de8e34","58ab2db50da7f10001de8e34","63a36e1df1afd18b014794e9","63a38b82c067d51bcd604087","rsvp1-task","true","0","","","","","null","
					<div style='width: 900px;'>
					<div style='float: center;'><img src=img/nontarget_distractor10.jpeg  ></img>
					</div>
					","null","","","","","","","","","","","","","","","",""
"","html-keyboard-response","12","30063","0.0-3.0-2.0-1.3","58ab2db50da7f10001de8e34","58ab2db50da7f10001de8e34","63a36e1df1afd18b014794e9","63a38b82c067d51bcd604087","rsvp1-task","true","0","","","","","null","<span></span>","null","iti","","","","","","","","","","","","","","",""
"","html-keyboard-response","13","30280","0.0-3.0-2.0-0.4","58ab2db50da7f10001de8e34","58ab2db50da7f10001de8e34","63a36e1df1afd18b014794e9","63a38b82c067d51bcd604087","rsvp1-task","true","0","","","","","null","
					<div style='width: 900px;'>
					<div style='float: center;'><img src=img/nontarget_distractor240.jpeg  ></img>
					</div>
					","null","","","","","","","","","","","","","","","",""
"","html-keyboard-response","14","30372","0.0-3.0-2.0-1.4","58ab2db50da7f10001de8e34","58ab2db50da7f10001de8e34","63a36e1df1afd18b014794e9","63a38b82c067d51bcd604087","rsvp1-task","true","0","","","","","null","<span></span>","null","iti","","","","","","","","","","","","","","",""
"","html-keyboard-response","15","30590","0.0-3.0-2.0-0.5","58ab2db50da7f10001de8e34","58ab2db50da7f10001de8e34","63a36e1df1afd18b014794e9","63a38b82c067d51bcd604087","rsvp1-task","true","0","","","","","null","
					<div style='width: 900px;'>
					<div style='float: center;'><img src=img/nontarget_distractor188.jpeg  ></img>
					</div>
					","null","","","","","","","","","","","","","","","",""
"","html-keyboard-response","16","30683","0.0-3.0-2.0-1.5","58ab2db50da7f10001de8e34","58ab2db50da7f10001de8e34","63a36e1df1afd18b014794e9","63a38b82c067d51bcd604087","rsvp1-task","true","0","","","","","null","<span></span>","null","iti","","","","","","","","","","","","","","",""
"","html-keyboard-response","17","30900","0.0-3.0-2.0-0.6","58ab2db50da7f10001de8e34","58ab2db50da7f10001de8e34","63a36e1df1afd18b014794e9","63a38b82c067d51bcd604087","rsvp1-task","true","0","","","","","null","
					<div style='width: 900px;'>
					<div style='float: center;'><img src=img/nontarget_distractor34.jpeg  ></img>
					</div>
					","null","","","","","","","","","","","","","","","",""
"","html-keyboard-response","18","30994","0.0-3.0-2.0-1.6","58ab2db50da7f10001de8e34","58ab2db50da7f10001de8e34","63a36e1df1afd18b014794e9","63a38b82c067d51bcd604087","rsvp1-task","true","0","","","","","null","<span></span>","null","iti","","","","","","","","","","","","","","",""
"","html-keyboard-response","19","31210","0.0-3.0-2.0-0.7","58ab2db50da7f10001de8e34","58ab2db50da7f10001de8e34","63a36e1df1afd18b014794e9","63a38b82c067d51bcd604087","rsvp1-task","true","0","","","","","null","
					<div style='width: 900px;'>
					<div style='float: center;'><img src=img/nontarget_distractor185.jpeg  ></img>
					</div>
					","null","","","","","","","","","","","","","","","",""
"","html-keyboard-response","20","31303","0.0-3.0-2.0-1.7","58ab2db50da7f10001de8e34","58ab2db50da7f10001de8e34","63a36e1df1afd18b014794e9","63a38b82c067d51bcd604087","rsvp1-task","true","0","","","","","null","<span></span>","null","iti","","","","","","","","","","","","","","",""
"","html-keyboard-response","21","31520","0.0-3.0-2.0-0.8","58ab2db50da7f10001de8e34","58ab2db50da7f10001de8e34","63a36e1df1afd18b014794e9","63a38b82c067d51bcd604087","rsvp1-task","true","0","","","","","null","
					<div style='width: 900px;'>
					<div style='float: center;'><img src=img/nontarget_distractor89.jpeg  ></img>
					</div>
					","null","","","","","","","","","","","","","","","",""
"","html-keyboard-response","22","31613","0.0-3.0-2.0-1.8","58ab2db50da7f10001de8e34","58ab2db50da7f10001de8e34","63a36e1df1afd18b014794e9","63a38b82c067d51bcd604087","rsvp1-task","true","0","","","","","null","<span></span>","null","iti","","","","","","","","","","","","","","",""
"","html-keyboard-response","23","31831","0.0-3.0-2.0-0.9","58ab2db50da7f10001de8e34","58ab2db50da7f10001de8e34","63a36e1df1afd18b014794e9","63a38b82c067d51bcd604087","rsvp1-task","true","0","","","","","null","
					<div style='width: 900px;'>
					<div style='float: center;'><img src=img/t2_targets26.jpeg class=""rotateimgL""  ></img>
					</div>
					","null","","","","","","","","","","","","","","","",""
"","html-keyboard-response","24","31923","0.0-3.0-2.0-1.9","58ab2db50da7f10001de8e34","58ab2db50da7f10001de8e34","63a36e1df1afd18b014794e9","63a38b82c067d51bcd604087","rsvp1-task","true","0","","","","","null","<span></span>","null","iti","","","","","","","","","","","","","","",""
"","html-keyboard-response","25","32140","0.0-3.0-2.0-0.10","58ab2db50da7f10001de8e34","58ab2db50da7f10001de8e34","63a36e1df1afd18b014794e9","63a38b82c067d51bcd604087","rsvp1-task","true","0","","","","","null","
					<div style='width: 900px;'>
					<div style='float: center;'><img src=img/nontarget_distractor60.jpeg  ></img>
					</div>
					","null","","","","","","","","","","","","","","","",""
"","html-keyboard-response","26","32233","0.0-3.0-2.0-1.10","58ab2db50da7f10001de8e34","58ab2db50da7f10001de8e34","63a36e1df1afd18b014794e9","63a38b82c067d51bcd604087","rsvp1-task","true","0","","","","","null","<span></span>","null","iti","","","","","","","","","","","","","","",""
"","html-keyboard-response","27","32450","0.0-3.0-2.0-0.11","58ab2db50da7f10001de8e34","58ab2db50da7f10001de8e34","63a36e1df1afd18b014794e9","63a38b82c067d51bcd604087","rsvp1-task","true","0","","","","","null","
					<div style='width: 900px;'>
					<div style='float: center;'><img src=img/nontarget_distractor244.jpeg  ></img>
					</div>
					","null","","","","","","","","","","","","","","","",""
"","html-keyboard-response","28","32543","0.0-3.0-2.0-1.11","58ab2db50da7f10001de8e34","58ab2db50da7f10001de8e34","63a36e1df1afd18b014794e9","63a38b82c067d51bcd604087","rsvp1-task","true","0","","","","","null","<span></span>","null","iti","","","","","","","","","","","","","","",""
"","html-keyboard-response","29","32760","0.0-3.0-2.0-0.12","58ab2db50da7f10001de8e34","58ab2db50da7f10001de8e34","63a36e1df1afd18b014794e9","63a38b82c067d51bcd604087","rsvp1-task","true","0","","","","","null","
					<div style='width: 900px;'>
					<div style='float: center;'><img src=img/nontarget_distractor209.jpeg  ></img>
					</div>
					","null","","","","","","","","","","","","","","","",""
"","html-keyboard-response","30","32853","0.0-3.0-2.0-1.12","58ab2db50da7f10001de8e34","58ab2db50da7f10001de8e34","63a36e1df1afd18b014794e9","63a38b82c067d51bcd604087","rsvp1-task","true","0","","","","","null","<span></span>","null","iti","","","","","","","","","","","","","","",""
"","html-keyboard-response","31","33070","0.0-3.0-2.0-0.13","58ab2db50da7f10001de8e34","58ab2db50da7f10001de8e34","63a36e1df1afd18b014794e9","63a38b82c067d51bcd604087","rsvp1-task","true","0","","","","","null","
					<div style='width: 900px;'>
					<div style='float: center;'><img src=img/nontarget_distractor90.jpeg  ></img>
					</div>
					","null","","","","","","","","","","","","","","","",""
"","html-keyboard-response","32","33163","0.0-3.0-2.0-1.13","58ab2db50da7f10001de8e34","58ab2db50da7f10001de8e34","63a36e1df1afd18b014794e9","63a38b82c067d51bcd604087","rsvp1-task","true","0","","","","","null","<span></span>","null","iti","","","","","","","","","","","","","","",""
"","html-keyboard-response","33","33380","0.0-3.0-2.0-0.14","58ab2db50da7f10001de8e34","58ab2db50da7f10001de8e34","63a36e1df1afd18b014794e9","63a38b82c067d51bcd604087","rsvp1-task","true","0","","","","","null","
					<div style='width: 900px;'>
					<div style='float: center;'><img src=img/nontarget_distractor130.jpeg  ></img>
					</div>
					","null","","","","","","","","","","","","","","","",""
"","html-keyboard-response","34","33473","0.0-3.0-2.0-1.14","58ab2db50da7f10001de8e34","58ab2db50da7f10001de8e34","63a36e1df1afd18b014794e9","63a38b82c067d51bcd604087","rsvp1-task","true","0","","","","","null","<span></span>","null","iti","","","","","","","","","","","","","","",""
"","html-keyboard-response","35","33690","0.0-3.0-2.0-0.15","58ab2db50da7f10001de8e34","58ab2db50da7f10001de8e34","63a36e1df1afd18b014794e9","63a38b82c067d51bcd604087","rsvp1-task","true","0","","","","","null","
					<div style='width: 900px;'>
					<div style='float: center;'><img src=img/nontarget_distractor48.jpeg  ></img>
					</div>
					","null","","","","","","","","","","","","","","","",""
"","html-keyboard-response","36","33783","0.0-3.0-2.0-1.15","58ab2db50da7f10001de8e34","58ab2db50da7f10001de8e34","63a36e1df1afd18b014794e9","63a38b82c067d51bcd604087","rsvp1-task","true","0","","","","","null","<span></span>","null","iti","","","","","","","","","","","","","","",""
"","html-keyboard-response","37","34000","0.0-3.0-2.0-0.16","58ab2db50da7f10001de8e34","58ab2db50da7f10001de8e34","63a36e1df1afd18b014794e9","63a38b82c067d51bcd604087","rsvp1-task","true","0","","","","","null","
					<div style='width: 900px;'>
					<div style='float: center;'><img src=img/nontarget_distractor231.jpeg  ></img>
					</div>
					","null","","","","","","","","","","","","","","","",""
"","html-keyboard-response","38","34093","0.0-3.0-2.0-1.16","58ab2db50da7f10001de8e34","58ab2db50da7f10001de8e34","63a36e1df1afd18b014794e9","63a38b82c067d51bcd604087","rsvp1-task","true","0","","","","","null","<span></span>","null","iti","","","","","","","","","","","","","","",""
"","html-keyboard-response","39","34754","0.0-3.0-3.0-0.0","58ab2db50da7f10001de8e34","58ab2db50da7f10001de8e34","63a36e1df1afd18b014794e9","63a38b82c067d51bcd604087","rsvp1-task","true","0","","","","","660","<div class=""rsvp""> Was the rotated image rotated left (1 key) or right (0 key)?</div>","1","response","instructions","1","1","neutral","img/nontarget_distractor18.jpeg","img/nontarget_distractor60.jpeg","2","8","10","1","true","true","true","",""
"","html-keyboard-response","40","35767","0.0-3.0-4.0","58ab2db50da7f10001de8e34","58ab2db50da7f10001de8e34","63a36e1df1afd18b014794e9","63a38b82c067d51bcd604087","rsvp1-task","true","0","","","","","null","Correct! </p> <p>  </p><p> ","null","","","","","","","","","","","","","","","main_T1_ITI",""
"","html-keyboard-response","41","42426","0.0-4.0","58ab2db50da7f10001de8e34","58ab2db50da7f10001de8e34","63a36e1df1afd18b014794e9","63a38b82c067d51bcd604087","rsvp1-task","true","0","","","","","6658","<div class='instructions'><p>In the example you just saw, the images appeared quite slowly.</p><p>The real task is more challenging, as the images will appear much more rapidly. This will feel much harder! </p> First, you will complete a practice block. </p><p> <strong>You need to respond correctly on at least 75% of the practice trials to advance, so pay close attention! </strong> </p><p>Press any key to start the practice.</p></div>","1","instructions_2","","","","","","","","","","","","","","",""
"","html-keyboard-response","42","45457","0.0-5.0-0.0","58ab2db50da7f10001de8e34","58ab2db50da7f10001de8e34","63a36e1df1afd18b014794e9","63a38b82c067d51bcd604087","rsvp1-task","true","0","","","","","null","<div class=""rsvp"">+</div>","null","fixation","","","","","","","","","","","","","","",""
"","html-keyboard-response","43","45721","0.0-5.0-1.0","58ab2db50da7f10001de8e34","58ab2db50da7f10001de8e34","63a36e1df1afd18b014794e9","63a38b82c067d51bcd604087","rsvp1-task","true","0","","","","","null","<div class=""rsvp"" ></div>","null","blank","","","","","","","","","","","","","","",""
"","html-keyboard-response","44","45829","0.0-5.0-2.0-0.0","58ab2db50da7f10001de8e34","58ab2db50da7f10001de8e34","63a36e1df1afd18b014794e9","63a38b82c067d51bcd604087","rsvp1-task","true","0","","","","","null","
					<div style='width: 900px;'>
					<div style='float: center;'><img src=img/nontarget_distractor82.jpeg  ></img>
					</div>
					","null","rsvp1","practice0","","","","","","","","","1","","","","","img/nontarget_distractor82.jpeg"
"","html-keyboard-response","45","45844","0.0-5.0-2.0-1.0","58ab2db50da7f10001de8e34","58ab2db50da7f10001de8e34","63a36e1df1afd18b014794e9","63a38b82c067d51bcd604087","rsvp1-task","true","0","","","","","null","<span></span>","null","iti","","","","","","","","","","","","","","",""
"","html-keyboard-response","46","45953","0.0-5.0-2.0-0.1","58ab2db50da7f10001de8e34","58ab2db50da7f10001de8e34","63a36e1df1afd18b014794e9","63a38b82c067d51bcd604087","rsvp1-task","true","0","","","","","null","
					<div style='width: 900px;'>
					<div style='float: center;'><img src=img/nontarget_distractor215.jpeg  ></img>
					</div>
					","null","rsvp1","practice0","","","","","","","","","1","","","","","img/nontarget_distractor215.jpeg"
"","html-keyboard-response","47","45968","0.0-5.0-2.0-1.1","58ab2db50da7f10001de8e34","58ab2db50da7f10001de8e34","63a36e1df1afd18b014794e9","63a38b82c067d51bcd604087","rsvp1-task","true","0","","","","","null","<span></span>","null","iti","","","","","","","","","","","","","","",""
"","html-keyboard-response","48","46077","0.0-5.0-2.0-0.2","58ab2db50da7f10001de8e34","58ab2db50da7f10001de8e34","63a36e1df1afd18b014794e9","63a38b82c067d51bcd604087","rsvp1-task","true","0","","","","","null","
					<div style='width: 900px;'>
					<div style='float: center;'><img src=img/nontarget_distractor47.jpeg  ></img>
					</div>
					","null","rsvp1","practice0","","","","","","","","","1","","","","","img/nontarget_distractor47.jpeg"
"","html-keyboard-response","49","46092","0.0-5.0-2.0-1.2","58ab2db50da7f10001de8e34","58ab2db50da7f10001de8e34","63a36e1df1afd18b014794e9","63a38b82c067d51bcd604087","rsvp1-task","true","0","","","","","null","<span></span>","null","iti","","","","","","","","","","","","","","",""
"","html-keyboard-response","50","46201","0.0-5.0-2.0-0.3","58ab2db50da7f10001de8e34","58ab2db50da7f10001de8e34","63a36e1df1afd18b014794e9","63a38b82c067d51bcd604087","rsvp1-task","true","0","","","","","null","
					<div style='width: 900px;'>
					<div style='float: center;'><img src=img/nontarget_distractor216.jpeg  ></img>
					</div>
					","null","rsvp1","practice0","","","","","","","","","1","","","","","img/nontarget_distractor216.jpeg"
"","html-keyboard-response","51","46216","0.0-5.0-2.0-1.3","58ab2db50da7f10001de8e34","58ab2db50da7f10001de8e34","63a36e1df1afd18b014794e9","63a38b82c067d51bcd604087","rsvp1-task","true","0","","","","","null","<span></span>","null","iti","","","","","","","","","","","","","","",""
"","html-keyboard-response","52","46325","0.0-5.0-2.0-0.4","58ab2db50da7f10001de8e34","58ab2db50da7f10001de8e34","63a36e1df1afd18b014794e9","63a38b82c067d51bcd604087","rsvp1-task","true","0","","","","","null","
					<div style='width: 900px;'>
					<div style='float: center;'><img src=img/nontarget_distractor23.jpeg  ></img>
					</div>
					","null","rsvp1","practice0","","","","","","","","","1","","","","","img/nontarget_distractor23.jpeg"
"","html-keyboard-response","53","46341","0.0-5.0-2.0-1.4","58ab2db50da7f10001de8e34","58ab2db50da7f10001de8e34","63a36e1df1afd18b014794e9","63a38b82c067d51bcd604087","rsvp1-task","true","0","","","","","null","<span></span>","null","iti","","","","","","","","","","","","","","",""
"","html-keyboard-response","54","46449","0.0-5.0-2.0-0.5","58ab2db50da7f10001de8e34","58ab2db50da7f10001de8e34","63a36e1df1afd18b014794e9","63a38b82c067d51bcd604087","rsvp1-task","true","0","","","","","null","
					<div style='width: 900px;'>
					<div style='float: center;'><img src=img/nontarget_distractor56.jpeg  ></img>
					</div>
					","null","rsvp1","practice0","","","","","","","","","1","","","","","img/nontarget_distractor56.jpeg"
"","html-keyboard-response","55","46464","0.0-5.0-2.0-1.5","58ab2db50da7f10001de8e34","58ab2db50da7f10001de8e34","63a36e1df1afd18b014794e9","63a38b82c067d51bcd604087","rsvp1-task","true","0","","","","","null","<span></span>","null","iti","","","","","","","","","","","","","","",""
"","html-keyboard-response","56","46573","0.0-5.0-2.0-0.6","58ab2db50da7f10001de8e34","58ab2db50da7f10001de8e34","63a36e1df1afd18b014794e9","63a38b82c067d51bcd604087","rsvp1-task","true","0","","","","","null","
					<div style='width: 900px;'>
					<div style='float: center;'><img src=img/nontarget_distractor140.jpeg  ></img>
					</div>
					","null","rsvp1","practice0","","","","","","","","","1","","","","","img/nontarget_distractor140.jpeg"
"","html-keyboard-response","57","46589","0.0-5.0-2.0-1.6","58ab2db50da7f10001de8e34","58ab2db50da7f10001de8e34","63a36e1df1afd18b014794e9","63a38b82c067d51bcd604087","rsvp1-task","true","0","","","","","null","<span></span>","null","iti","","","","","","","","","","","","","","",""
"","html-keyboard-response","58","46697","0.0-5.0-2.0-0.7","58ab2db50da7f10001de8e34","58ab2db50da7f10001de8e34","63a36e1df1afd18b014794e9","63a38b82c067d51bcd604087","rsvp1-task","true","0","","","","","null","
					<div style='width: 900px;'>
					<div style='float: center;'><img src=img/nontarget_distractor159.jpeg  ></img>
					</div>
					","null","rsvp1","practice0","","","","","","","","","1","","","","","img/nontarget_distractor159.jpeg"
"","html-keyboard-response","59","46713","0.0-5.0-2.0-1.7","58ab2db50da7f10001de8e34","58ab2db50da7f10001de8e34","63a36e1df1afd18b014794e9","63a38b82c067d51bcd604087","rsvp1-task","true","0","","","","","null","<span></span>","null","iti","","","","","","","","","","","","","","",""
"","html-keyboard-response","60","46821","0.0-5.0-2.0-0.8","58ab2db50da7f10001de8e34","58ab2db50da7f10001de8e34","63a36e1df1afd18b014794e9","63a38b82c067d51bcd604087","rsvp1-task","true","0","","","","","null","
					<div style='width: 900px;'>
					<div style='float: center;'><img src=img/nontarget_distractor174.jpeg  ></img>
					</div>
					","null","rsvp1","practice0","","","","","","","","","1","","","","","img/nontarget_distractor174.jpeg"
"","html-keyboard-response","61","46837","0.0-5.0-2.0-1.8","58ab2db50da7f10001de8e34","58ab2db50da7f10001de8e34","63a36e1df1afd18b014794e9","63a38b82c067d51bcd604087","rsvp1-task","true","0","","","","","null","<span></span>","null","iti","","","","","","","","","","","","","","",""
"","html-keyboard-response","62","46945","0.0-5.0-2.0-0.9","58ab2db50da7f10001de8e34","58ab2db50da7f10001de8e34","63a36e1df1afd18b014794e9","63a38b82c067d51bcd604087","rsvp1-task","true","0","","","","","null","
					<div style='width: 900px;'>
					<div style='float: center;'><img src=img/nontarget_distractor238.jpeg  ></img>
					</div>
					","null","rsvp1","practice0","","","","","","","","","1","","","","","img/nontarget_distractor238.jpeg"
"","html-keyboard-response","63","46961","0.0-5.0-2.0-1.9","58ab2db50da7f10001de8e34","58ab2db50da7f10001de8e34","63a36e1df1afd18b014794e9","63a38b82c067d51bcd604087","rsvp1-task","true","0","","","","","null","<span></span>","null","iti","","","","","","","","","","","","","","",""
"","html-keyboard-response","64","47069","0.0-5.0-2.0-0.10","58ab2db50da7f10001de8e34","58ab2db50da7f10001de8e34","63a36e1df1afd18b014794e9","63a38b82c067d51bcd604087","rsvp1-task","true","0","","","","","null","
					<div style='width: 900px;'>
					<div style='float: center;'><img src=img/nontarget_distractor61.jpeg  ></img>
					</div>
					","null","rsvp1","practice0","","","","","","","","","1","","","","","img/nontarget_distractor61.jpeg"
"","html-keyboard-response","65","47085","0.0-5.0-2.0-1.10","58ab2db50da7f10001de8e34","58ab2db50da7f10001de8e34","63a36e1df1afd18b014794e9","63a38b82c067d51bcd604087","rsvp1-task","true","0","","","","","null","<span></span>","null","iti","","","","","","","","","","","","","","",""
"","html-keyboard-response","66","47193","0.0-5.0-2.0-0.11","58ab2db50da7f10001de8e34","58ab2db50da7f10001de8e34","63a36e1df1afd18b014794e9","63a38b82c067d51bcd604087","rsvp1-task","true","0","","","","","null","
					<div style='width: 900px;'>
					<div style='float: center;'><img src=img/nontarget_distractor105.jpeg  ></img>
					</div>
					","null","rsvp1","practice0","","","","","","","","","1","","","","","img/nontarget_distractor105.jpeg"
"","html-keyboard-response","67","47209","0.0-5.0-2.0-1.11","58ab2db50da7f10001de8e34","58ab2db50da7f10001de8e34","63a36e1df1afd18b014794e9","63a38b82c067d51bcd604087","rsvp1-task","true","0","","","","","null","<span></span>","null","iti","","","","","","","","","","","","","","",""
"","html-keyboard-response","68","47317","0.0-5.0-2.0-0.12","58ab2db50da7f10001de8e34","58ab2db50da7f10001de8e34","63a36e1df1afd18b014794e9","63a38b82c067d51bcd604087","rsvp1-task","true","0","","","","","null","
					<div style='width: 900px;'>
					<div style='float: center;'><img src=img/nontarget_distractor93.jpeg  ></img>
					</div>
					","null","rsvp1","practice0","","","","","","","","","1","","","","","img/nontarget_distractor93.jpeg"
"","html-keyboard-response","69","47333","0.0-5.0-2.0-1.12","58ab2db50da7f10001de8e34","58ab2db50da7f10001de8e34","63a36e1df1afd18b014794e9","63a38b82c067d51bcd604087","rsvp1-task","true","0","","","","","null","<span></span>","null","iti","","","","","","","","","","","","","","",""
"","html-keyboard-response","70","47442","0.0-5.0-2.0-0.13","58ab2db50da7f10001de8e34","58ab2db50da7f10001de8e34","63a36e1df1afd18b014794e9","63a38b82c067d51bcd604087","rsvp1-task","true","0","","","","","null","
					<div style='width: 900px;'>
					<div style='float: center;'><img src=img/nontarget_distractor249.jpeg  ></img>
					</div>
					","null","rsvp1","practice0","","","","","","","","","1","","","","","img/nontarget_distractor249.jpeg"
"","html-keyboard-response","71","47457","0.0-5.0-2.0-1.13","58ab2db50da7f10001de8e34","58ab2db50da7f10001de8e34","63a36e1df1afd18b014794e9","63a38b82c067d51bcd604087","rsvp1-task","true","0","","","","","null","<span></span>","null","iti","","","","","","","","","","","","","","",""
"","html-keyboard-response","72","47565","0.0-5.0-2.0-0.14","58ab2db50da7f10001de8e34","58ab2db50da7f10001de8e34","63a36e1df1afd18b014794e9","63a38b82c067d51bcd604087","rsvp1-task","true","0","","","","","null","
					<div style='width: 900px;'>
					<div style='float: center;'><img src=img/t2_targets95.jpeg class=""rotateimgR""  ></img>
					</div>
					","null","rsvp1","practice0","","","","","","","","","1","","","","","img/t2_targets95.jpeg class=""rotateimgR"""
"","html-keyboard-response","73","47581","0.0-5.0-2.0-1.14","58ab2db50da7f10001de8e34","58ab2db50da7f10001de8e34","63a36e1df1afd18b014794e9","63a38b82c067d51bcd604087","rsvp1-task","true","0","","","","","null","<span></span>","null","iti","","","","","","","","","","","","","","",""
"","html-keyboard-response","74","47689","0.0-5.0-2.0-0.15","58ab2db50da7f10001de8e34","58ab2db50da7f10001de8e34","63a36e1df1afd18b014794e9","63a38b82c067d51bcd604087","rsvp1-task","true","0","","","","","null","
					<div style='width: 900px;'>
					<div style='float: center;'><img src=img/nontarget_distractor254.jpeg  ></img>
					</div>
					","null","rsvp1","practice0","","","","","","","","","1","","","","","img/nontarget_distractor254.jpeg"
"","html-keyboard-response","75","47705","0.0-5.0-2.0-1.15","58ab2db50da7f10001de8e34","58ab2db50da7f10001de8e34","63a36e1df1afd18b014794e9","63a38b82c067d51bcd604087","rsvp1-task","true","0","","","","","null","<span></span>","null","iti","","","","","","","","","","","","","","",""
"","html-keyboard-response","76","47813","0.0-5.0-2.0-0.16","58ab2db50da7f10001de8e34","58ab2db50da7f10001de8e34","63a36e1df1afd18b014794e9","63a38b82c067d51bcd604087","rsvp1-task","true","0","","","","","null","
					<div style='width: 900px;'>
					<div style='float: center;'><img src=img/nontarget_distractor4.jpeg  ></img>
					</div>
					","null","rsvp1","practice0","","","","","","","","","1","","","","","img/nontarget_distractor4.jpeg"
"","html-keyboard-response","77","47828","0.0-5.0-2.0-1.16","58ab2db50da7f10001de8e34","58ab2db50da7f10001de8e34","63a36e1df1afd18b014794e9","63a38b82c067d51bcd604087","rsvp1-task","true","0","","","","","null","<span></span>","null","iti","","","","","","","","","","","","","","",""
"","html-keyboard-response","78","48224","0.0-5.0-3.0-0.0","58ab2db50da7f10001de8e34","58ab2db50da7f10001de8e34","63a36e1df1afd18b014794e9","63a38b82c067d51bcd604087","rsvp1-task","true","0","","","","","395","<div class=""rsvp""> Was the rotated image rotated left (1 key) or right (0 key)?</div>","0","response","practice0","0","0","neutral","img/nontarget_distractor159.jpeg","img/nontarget_distractor254.jpeg","8","7","15","1","true","true","true","",""
"","html-keyboard-response","79","49239","0.0-5.0-4.0","58ab2db50da7f10001de8e34","58ab2db50da7f10001de8e34","63a36e1df1afd18b014794e9","63a38b82c067d51bcd604087","rsvp1-task","true","0","","","","","null","Correct! </p> <p>  </p><p> ","null","","","","","","","","","","","","","","","main_T1_ITI",""
"","html-keyboard-response","80","51255","0.0-5.0-5.0","58ab2db50da7f10001de8e34","58ab2db50da7f10001de8e34","63a36e1df1afd18b014794e9","63a38b82c067d51bcd604087","rsvp1-task","true","0","","","","","null","<div class=""rsvp"">+</div>","null","fixation","","","","","","","","","","","","","","",""
"","html-keyboard-response","81","51518","0.0-5.0-6.0","58ab2db50da7f10001de8e34","58ab2db50da7f10001de8e34","63a36e1df1afd18b014794e9","63a38b82c067d51bcd604087","rsvp1-task","true","0","","","","","null","<div class=""rsvp"" ></div>","null","blank","","","","","","","","","","","","","","",""
"","html-keyboard-response","82","51627","0.0-5.0-7.0-0.0","58ab2db50da7f10001de8e34","58ab2db50da7f10001de8e34","63a36e1df1afd18b014794e9","63a38b82c067d51bcd604087","rsvp1-task","true","0","","","","","null","
					<div style='width: 900px;'>
					<div style='float: center;'><img src=img/nontarget_distractor10.jpeg  ></img>
					</div>
					","null","rsvp1","practice0","","","","","","","","","2","","","","","img/nontarget_distractor10.jpeg"
"","html-keyboard-response","83","51643","0.0-5.0-7.0-1.0","58ab2db50da7f10001de8e34","58ab2db50da7f10001de8e34","63a36e1df1afd18b014794e9","63a38b82c067d51bcd604087","rsvp1-task","true","0","","","","","null","<span></span>","null","iti","","","","","","","","","","","","","","",""
"","html-keyboard-response","84","51751","0.0-5.0-7.0-0.1","58ab2db50da7f10001de8e34","58ab2db50da7f10001de8e34","63a36e1df1afd18b014794e9","63a38b82c067d51bcd604087","rsvp1-task","true","0","","","","","null","
					<div style='width: 900px;'>
					<div style='float: center;'><img src=img/nontarget_distractor34.jpeg  ></img>
					</div>
					","null","rsvp1","practice0","","","","","","","","","2","","","","","img/nontarget_distractor34.jpeg"
"","html-keyboard-response","85","51767","0.0-5.0-7.0-1.1","58ab2db50da7f10001de8e34","58ab2db50da7f10001de8e34","63a36e1df1afd18b014794e9","63a38b82c067d51bcd604087","rsvp1-task","true","0","","","","","null","<span></span>","null","iti","","","","","","","","","","","","","","",""
"","html-keyboard-response","86","51875","0.0-5.0-7.0-0.2","58ab2db50da7f10001de8e34","58ab2db50da7f10001de8e34","63a36e1df1afd18b014794e9","63a38b82c067d51bcd604087","rsvp1-task","true","0","","","","","null","
					<div style='width: 900px;'>
					<div style='float: center;'><img src=img/nontarget_distractor32.jpeg  ></img>
					</div>
					","null","rsvp1","practice0","","","","","","","","","2","","","","","img/nontarget_distractor32.jpeg"
"","html-keyboard-response","87","51891","0.0-5.0-7.0-1.2","58ab2db50da7f10001de8e34","58ab2db50da7f10001de8e34","63a36e1df1afd18b014794e9","63a38b82c067d51bcd604087","rsvp1-task","true","0","","","","","null","<span></span>","null","iti","","","","","","","","","","","","","","",""
"","html-keyboard-response","88","51999","0.0-5.0-7.0-0.3","58ab2db50da7f10001de8e34","58ab2db50da7f10001de8e34","63a36e1df1afd18b014794e9","63a38b82c067d51bcd604087","rsvp1-task","true","0","","","","","null","
					<div style='width: 900px;'>
					<div style='float: center;'><img src=img/nontarget_distractor210.jpeg  ></img>
					</div>
					","null","rsvp1","practice0","","","","","","","","","2","","","","","img/nontarget_distractor210.jpeg"
"","html-keyboard-response","89","52015","0.0-5.0-7.0-1.3","58ab2db50da7f10001de8e34","58ab2db50da7f10001de8e34","63a36e1df1afd18b014794e9","63a38b82c067d51bcd604087","rsvp1-task","true","0","","","","","null","<span></span>","null","iti","","","","","","","","","","","","","","",""
"","html-keyboard-response","90","52123","0.0-5.0-7.0-0.4","58ab2db50da7f10001de8e34","58ab2db50da7f10001de8e34","63a36e1df1afd18b014794e9","63a38b82c067d51bcd604087","rsvp1-task","true","0","","","","","null","
					<div style='width: 900px;'>
					<div style='float: center;'><img src=img/nontarget_distractor125.jpeg  ></img>
					</div>
					","null","rsvp1","practice0","","","","","","","","","2","","","","","img/nontarget_distractor125.jpeg"
"","html-keyboard-response","91","52139","0.0-5.0-7.0-1.4","58ab2db50da7f10001de8e34","58ab2db50da7f10001de8e34","63a36e1df1afd18b014794e9","63a38b82c067d51bcd604087","rsvp1-task","true","0","","","","","null","<span></span>","null","iti","","","","","","","","","","","","","","",""
"","html-keyboard-response","92","52247","0.0-5.0-7.0-0.5","58ab2db50da7f10001de8e34","58ab2db50da7f10001de8e34","63a36e1df1afd18b014794e9","63a38b82c067d51bcd604087","rsvp1-task","true","0","","","","","null","
					<div style='width: 900px;'>
					<div style='float: center;'><img src=img/nontarget_distractor220.jpeg  ></img>
					</div>
					","null","rsvp1","practice0","","","","","","","","","2","","","","","img/nontarget_distractor220.jpeg"
"","html-keyboard-response","93","52263","0.0-5.0-7.0-1.5","58ab2db50da7f10001de8e34","58ab2db50da7f10001de8e34","63a36e1df1afd18b014794e9","63a38b82c067d51bcd604087","rsvp1-task","true","0","","","","","null","<span></span>","null","iti","","","","","","","","","","","","","","",""
"","html-keyboard-response","94","52371","0.0-5.0-7.0-0.6","58ab2db50da7f10001de8e34","58ab2db50da7f10001de8e34","63a36e1df1afd18b014794e9","63a38b82c067d51bcd604087","rsvp1-task","true","0","","","","","null","
					<div style='width: 900px;'>
					<div style='float: center;'><img src=img/nontarget_distractor254.jpeg  ></img>
					</div>
					","null","rsvp1","practice0","","","","","","","","","2","","","","","img/nontarget_distractor254.jpeg"
"","html-keyboard-response","95","52386","0.0-5.0-7.0-1.6","58ab2db50da7f10001de8e34","58ab2db50da7f10001de8e34","63a36e1df1afd18b014794e9","63a38b82c067d51bcd604087","rsvp1-task","true","0","","","","","null","<span></span>","null","iti","","","","","","","","","","","","","","",""
"","html-keyboard-response","96","52495","0.0-5.0-7.0-0.7","58ab2db50da7f10001de8e34","58ab2db50da7f10001de8e34","63a36e1df1afd18b014794e9","63a38b82c067d51bcd604087","rsvp1-task","true","0","","","","","null","
					<div style='width: 900px;'>
					<div style='float: center;'><img src=img/nontarget_distractor173.jpeg  ></img>
					</div>
					","null","rsvp1","practice0","","","","","","","","","2","","","","","img/nontarget_distractor173.jpeg"
"","html-keyboard-response","97","52511","0.0-5.0-7.0-1.7","58ab2db50da7f10001de8e34","58ab2db50da7f10001de8e34","63a36e1df1afd18b014794e9","63a38b82c067d51bcd604087","rsvp1-task","true","0","","","","","null","<span></span>","null","iti","","","","","","","","","","","","","","",""
"","html-keyboard-response","98","52620","0.0-5.0-7.0-0.8","58ab2db50da7f10001de8e34","58ab2db50da7f10001de8e34","63a36e1df1afd18b014794e9","63a38b82c067d51bcd604087","rsvp1-task","true","0","","","","","null","
					<div style='width: 900px;'>
					<div style='float: center;'><img src=img/t2_targets14.jpeg class=""rotateimgL""  ></img>
					</div>
					","null","rsvp1","practice0","","","","","","","","","2","","","","","img/t2_targets14.jpeg class=""rotateimgL"""
"","html-keyboard-response","99","52634","0.0-5.0-7.0-1.8","58ab2db50da7f10001de8e34","58ab2db50da7f10001de8e34","63a36e1df1afd18b014794e9","63a38b82c067d51bcd604087","rsvp1-task","true","0","","","","","null","<span></span>","null","iti","","","","","","","","","","","","","","",""
"","html-keyboard-response","100","52743","0.0-5.0-7.0-0.9","58ab2db50da7f10001de8e34","58ab2db50da7f10001de8e34","63a36e1df1afd18b014794e9","63a38b82c067d51bcd604087","rsvp1-task","true","0","","","","","null","
					<div style='width: 900px;'>
					<div style='float: center;'><img src=img/nontarget_distractor87.jpeg  ></img>
					</div>
					","null","rsvp1","practice0","","","","","","","","","2","","","","","img/nontarget_distractor87.jpeg"
"","html-keyboard-response","101","52759","0.0-5.0-7.0-1.9","58ab2db50da7f10001de8e34","58ab2db50da7f10001de8e34","63a36e1df1afd18b014794e9","63a38b82c067d51bcd604087","rsvp1-task","true","0","","","","","null","<span></span>","null","iti","","","","","","","","","","","","","","",""
"","html-keyboard-response","102","52868","0.0-5.0-7.0-0.10","58ab2db50da7f10001de8e34","58ab2db50da7f10001de8e34","63a36e1df1afd18b014794e9","63a38b82c067d51bcd604087","rsvp1-task","true","0","","","","","null","
					<div style='width: 900px;'>
					<div style='float: center;'><img src=img/nontarget_distractor111.jpeg  ></img>
					</div>
					","null","rsvp1","practice0","","","","","","","","","2","","","","","img/nontarget_distractor111.jpeg"
"","html-keyboard-response","103","52883","0.0-5.0-7.0-1.10","58ab2db50da7f10001de8e34","58ab2db50da7f10001de8e34","63a36e1df1afd18b014794e9","63a38b82c067d51bcd604087","rsvp1-task","true","0","","","","","null","<span></span>","null","iti","","","","","","","","","","","","","","",""
"","html-keyboard-response","104","52991","0.0-5.0-7.0-0.11","58ab2db50da7f10001de8e34","58ab2db50da7f10001de8e34","63a36e1df1afd18b014794e9","63a38b82c067d51bcd604087","rsvp1-task","true","0","","","","","null","
					<div style='width: 900px;'>
					<div style='float: center;'><img src=img/nontarget_distractor85.jpeg  ></img>
					</div>
					","null","rsvp1","practice0","","","","","","","","","2","","","","","img/nontarget_distractor85.jpeg"
"","html-keyboard-response","105","53007","0.0-5.0-7.0-1.11","58ab2db50da7f10001de8e34","58ab2db50da7f10001de8e34","63a36e1df1afd18b014794e9","63a38b82c067d51bcd604087","rsvp1-task","true","0","","","","","null","<span></span>","null","iti","","","","","","","","","","","","","","",""
"","html-keyboard-response","106","53116","0.0-5.0-7.0-0.12","58ab2db50da7f10001de8e34","58ab2db50da7f10001de8e34","63a36e1df1afd18b014794e9","63a38b82c067d51bcd604087","rsvp1-task","true","0","","","","","null","
					<div style='width: 900px;'>
					<div style='float: center;'><img src=img/nontarget_distractor11.jpeg  ></img>
					</div>
					","null","rsvp1","practice0","","","","","","","","","2","","","","","img/nontarget_distractor11.jpeg"
"","html-keyboard-response","107","53131","0.0-5.0-7.0-1.12","58ab2db50da7f10001de8e34","58ab2db50da7f10001de8e34","63a36e1df1afd18b014794e9","63a38b82c067d51bcd604087","rsvp1-task","true","0","","","","","null","<span></span>","null","iti","","","","","","","","","","","","","","",""
"","html-keyboard-response","108","53240","0.0-5.0-7.0-0.13","58ab2db50da7f10001de8e34","58ab2db50da7f10001de8e34","63a36e1df1afd18b014794e9","63a38b82c067d51bcd604087","rsvp1-task","true","0","","","","","null","
					<div style='width: 900px;'>
					<div style='float: center;'><img src=img/nontarget_distractor187.jpeg  ></img>
					</div>
					","null","rsvp1","practice0","","","","","","","","","2","","","","","img/nontarget_distractor187.jpeg"
"","html-keyboard-response","109","53255","0.0-5.0-7.0-1.13","58ab2db50da7f10001de8e34","58ab2db50da7f10001de8e34","63a36e1df1afd18b014794e9","63a38b82c067d51bcd604087","rsvp1-task","true","0","","","","","null","<span></span>","null","iti","","","","","","","","","","","","","","",""
"","html-keyboard-response","110","53364","0.0-5.0-7.0-0.14","58ab2db50da7f10001de8e34","58ab2db50da7f10001de8e34","63a36e1df1afd18b014794e9","63a38b82c067d51bcd604087","rsvp1-task","true","0","","","","","null","
					<div style='width: 900px;'>
					<div style='float: center;'><img src=img/nontarget_distractor186.jpeg  ></img>
					</div>
					","null","rsvp1","practice0","","","","","","","","","2","","","","","img/nontarget_distractor186.jpeg"
"","html-keyboard-response","111","53379","0.0-5.0-7.0-1.14","58ab2db50da7f10001de8e34","58ab2db50da7f10001de8e34","63a36e1df1afd18b014794e9","63a38b82c067d51bcd604087","rsvp1-task","true","0","","","","","null","<span></span>","null","iti","","","","","","","","","","","","","","",""
"","html-keyboard-response","112","53488","0.0-5.0-7.0-0.15","58ab2db50da7f10001de8e34","58ab2db50da7f10001de8e34","63a36e1df1afd18b014794e9","63a38b82c067d51bcd604087","rsvp1-task","true","0","","","","","null","
					<div style='width: 900px;'>
					<div style='float: center;'><img src=img/nontarget_distractor197.jpeg  ></img>
					</div>
					","null","rsvp1","practice0","","","","","","","","","2","","","","","img/nontarget_distractor197.jpeg"
"","html-keyboard-response","113","53503","0.0-5.0-7.0-1.15","58ab2db50da7f10001de8e34","58ab2db50da7f10001de8e34","63a36e1df1afd18b014794e9","63a38b82c067d51bcd604087","rsvp1-task","true","0","","","","","null","<span></span>","null","iti","","","","","","","","","","","","","","",""
"","html-keyboard-response","114","53611","0.0-5.0-7.0-0.16","58ab2db50da7f10001de8e34","58ab2db50da7f10001de8e34","63a36e1df1afd18b014794e9","63a38b82c067d51bcd604087","rsvp1-task","true","0","","","","","null","
					<div style='width: 900px;'>
					<div style='float: center;'><img src=img/nontarget_distractor3.jpeg  ></img>
					</div>
					","null","rsvp1","practice0","","","","","","","","","2","","","","","img/nontarget_distractor3.jpeg"
"","html-keyboard-response","115","53627","0.0-5.0-7.0-1.16","58ab2db50da7f10001de8e34","58ab2db50da7f10001de8e34","63a36e1df1afd18b014794e9","63a38b82c067d51bcd604087","rsvp1-task","true","0","","","","","null","<span></span>","null","iti","","","","","","","","","","","","","","",""
"","html-keyboard-response","116","53729","0.0-5.0-8.0-0.0","58ab2db50da7f10001de8e34","58ab2db50da7f10001de8e34","63a36e1df1afd18b014794e9","63a38b82c067d51bcd604087","rsvp1-task","true","0","","","","","101","<div class=""rsvp""> Was the rotated image rotated left (1 key) or right (0 key)?</div>","1","response","practice0","1","1","neutral","img/nontarget_distractor173.jpeg","img/nontarget_distractor87.jpeg","8","1","9","2","true","true","true","",""
"","html-keyboard-response","117","54743","0.0-5.0-9.0","58ab2db50da7f10001de8e34","58ab2db50da7f10001de8e34","63a36e1df1afd18b014794e9","63a38b82c067d51bcd604087","rsvp1-task","true","0","","","","","null","Correct! </p> <p>  </p><p> ","null","","","","","","","","","","","","","","","main_T1_ITI",""
"","html-keyboard-response","118","56759","0.0-5.0-10.0","58ab2db50da7f10001de8e34","58ab2db50da7f10001de8e34","63a36e1df1afd18b014794e9","63a38b82c067d51bcd604087","rsvp1-task","true","0","","","","","null","<div class=""rsvp"">+</div>","null","fixation","","","","","","","","","","","","","","",""
"","html-keyboard-response","119","57022","0.0-5.0-11.0","58ab2db50da7f10001de8e34","58ab2db50da7f10001de8e34","63a36e1df1afd18b014794e9","63a38b82c067d51bcd604087","rsvp1-task","true","0","","","","","null","<div class=""rsvp"" ></div>","null","blank","","","","","","","","","","","","","","",""
"","html-keyboard-response","120","57131","0.0-5.0-12.0-0.0","58ab2db50da7f10001de8e34","58ab2db50da7f10001de8e34","63a36e1df1afd18b014794e9","63a38b82c067d51bcd604087","rsvp1-task","true","0","","","","","null","
					<div style='width: 900px;'>
					<div style='float: center;'><img src=img/nontarget_distractor143.jpeg  ></img>
					</div>
					","null","rsvp1","practice0","","","","","","","","","3","","","","","img/nontarget_distractor143.jpeg"
"","html-keyboard-response","121","57146","0.0-5.0-12.0-1.0","58ab2db50da7f10001de8e34","58ab2db50da7f10001de8e34","63a36e1df1afd18b014794e9","63a38b82c067d51bcd604087","rsvp1-task","true","0","","","","","null","<span></span>","null","iti","","","","","","","","","","","","","","",""
"","html-keyboard-response","122","57254","0.0-5.0-12.0-0.1","58ab2db50da7f10001de8e34","58ab2db50da7f10001de8e34","63a36e1df1afd18b014794e9","63a38b82c067d51bcd604087","rsvp1-task","true","0","","","","","null","
					<div style='width: 900px;'>
					<div style='float: center;'><img src=img/nontarget_distractor61.jpeg  ></img>
					</div>
					","null","rsvp1","practice0","","","","","","","","","3","","","","","img/nontarget_distractor61.jpeg"
"","html-keyboard-response","123","57270","0.0-5.0-12.0-1.1","58ab2db50da7f10001de8e34","58ab2db50da7f10001de8e34","63a36e1df1afd18b014794e9","63a38b82c067d51bcd604087","rsvp1-task","true","0","","","","","null","<span></span>","null","iti","","","","","","","","","","","","","","",""
"","html-keyboard-response","124","57379","0.0-5.0-12.0-0.2","58ab2db50da7f10001de8e34","58ab2db50da7f10001de8e34","63a36e1df1afd18b014794e9","63a38b82c067d51bcd604087","rsvp1-task","true","0","","","","","null","
					<div style='width: 900px;'>
					<div style='float: center;'><img src=img/nontarget_distractor205.jpeg  ></img>
					</div>
					","null","rsvp1","practice0","","","","","","","","","3","","","","","img/nontarget_distractor205.jpeg"
"","html-keyboard-response","125","57394","0.0-5.0-12.0-1.2","58ab2db50da7f10001de8e34","58ab2db50da7f10001de8e34","63a36e1df1afd18b014794e9","63a38b82c067d51bcd604087","rsvp1-task","true","0","","","","","null","<span></span>","null","iti","","","","","","","","","","","","","","",""
"","html-keyboard-response","126","57503","0.0-5.0-12.0-0.3","58ab2db50da7f10001de8e34","58ab2db50da7f10001de8e34","63a36e1df1afd18b014794e9","63a38b82c067d51bcd604087","rsvp1-task","true","0","","","","","null","
					<div style='width: 900px;'>
					<div style='float: center;'><img src=img/nontarget_distractor51.jpeg  ></img>
					</div>
					","null","rsvp1","practice0","","","","","","","","","3","","","","","img/nontarget_distractor51.jpeg"
"","html-keyboard-response","127","57519","0.0-5.0-12.0-1.3","58ab2db50da7f10001de8e34","58ab2db50da7f10001de8e34","63a36e1df1afd18b014794e9","63a38b82c067d51bcd604087","rsvp1-task","true","0","","","","","null","<span></span>","null","iti","","","","","","","","","","","","","","",""
"","html-keyboard-response","128","57627","0.0-5.0-12.0-0.4","58ab2db50da7f10001de8e34","58ab2db50da7f10001de8e34","63a36e1df1afd18b014794e9","63a38b82c067d51bcd604087","rsvp1-task","true","0","","","","","null","
					<div style='width: 900px;'>
					<div style='float: center;'><img src=img/nontarget_distractor105.jpeg  ></img>
					</div>
					","null","rsvp1","practice0","","","","","","","","","3","","","","","img/nontarget_distractor105.jpeg"
"","html-keyboard-response","129","57642","0.0-5.0-12.0-1.4","58ab2db50da7f10001de8e34","58ab2db50da7f10001de8e34","63a36e1df1afd18b014794e9","63a38b82c067d51bcd604087","rsvp1-task","true","0","","","","","null","<span></span>","null","iti","","","","","","","","","","","","","","",""
"","html-keyboard-response","130","57751","0.0-5.0-12.0-0.5","58ab2db50da7f10001de8e34","58ab2db50da7f10001de8e34","63a36e1df1afd18b014794e9","63a38b82c067d51bcd604087","rsvp1-task","true","0","","","","","null","
					<div style='width: 900px;'>
					<div style='float: center;'><img src=img/nontarget_distractor91.jpeg  ></img>
					</div>
					","null","rsvp1","practice0","","","","","","","","","3","","","","","img/nontarget_distractor91.jpeg"
"","html-keyboard-response","131","57766","0.0-5.0-12.0-1.5","58ab2db50da7f10001de8e34","58ab2db50da7f10001de8e34","63a36e1df1afd18b014794e9","63a38b82c067d51bcd604087","rsvp1-task","true","0","","","","","null","<span></span>","null","iti","","","","","","","","","","","","","","",""
"","html-keyboard-response","132","57874","0.0-5.0-12.0-0.6","58ab2db50da7f10001de8e34","58ab2db50da7f10001de8e34","63a36e1df1afd18b014794e9","63a38b82c067d51bcd604087","rsvp1-task","true","0","","","","","null","
					<div style='width: 900px;'>
					<div style='float: center;'><img src=img/nontarget_distractor117.jpeg  ></img>
					</div>
					","null","rsvp1","practice0","","","","","","","","","3","","","","","img/nontarget_distractor117.jpeg"
"","html-keyboard-response","133","57890","0.0-5.0-12.0-1.6","58ab2db50da7f10001de8e34","58ab2db50da7f10001de8e34","63a36e1df1afd18b014794e9","63a38b82c067d51bcd604087","rsvp1-task","true","0","","","","","null","<span></span>","null","iti","","","","","","","","","","","","","","",""
"","html-keyboard-response","134","57999","0.0-5.0-12.0-0.7","58ab2db50da7f10001de8e34","58ab2db50da7f10001de8e34","63a36e1df1afd18b014794e9","63a38b82c067d51bcd604087","rsvp1-task","true","0","","","","","null","
					<div style='width: 900px;'>
					<div style='float: center;'><img src=img/nontarget_distractor180.jpeg  ></img>
					</div>
					","null","rsvp1","practice0","","","","","","","","","3","","","","","img/nontarget_distractor180.jpeg"
"","html-keyboard-response","135","58014","0.0-5.0-12.0-1.7","58ab2db50da7f10001de8e34","58ab2db50da7f10001de8e34","63a36e1df1afd18b014794e9","63a38b82c067d51bcd604087","rsvp1-task","true","0","","","","","null","<span></span>","null","iti","","","","","","","","","","","","","","",""
"","html-keyboard-response","136","58123","0.0-5.0-12.0-0.8","58ab2db50da7f10001de8e34","58ab2db50da7f10001de8e34","63a36e1df1afd18b014794e9","63a38b82c067d51bcd604087","rsvp1-task","true","0","","","","","null","
					<div style='width: 900px;'>
					<div style='float: center;'><img src=img/nontarget_distractor80.jpeg  ></img>
					</div>
					","null","rsvp1","practice0","","","","","","","","","3","","","","","img/nontarget_distractor80.jpeg"
"","html-keyboard-response","137","58138","0.0-5.0-12.0-1.8","58ab2db50da7f10001de8e34","58ab2db50da7f10001de8e34","63a36e1df1afd18b014794e9","63a38b82c067d51bcd604087","rsvp1-task","true","0","","","","","null","<span></span>","null","iti","","","","","","","","","","","","","","",""
"","html-keyboard-response","138","58247","0.0-5.0-12.0-0.9","58ab2db50da7f10001de8e34","58ab2db50da7f10001de8e34","63a36e1df1afd18b014794e9","63a38b82c067d51bcd604087","rsvp1-task","true","0","","","","","null","
					<div style='width: 900px;'>
					<div style='float: center;'><img src=img/nontarget_distractor43.jpeg  ></img>
					</div>
					","null","rsvp1","practice0","","","","","","","","","3","","","","","img/nontarget_distractor43.jpeg"
"","html-keyboard-response","139","58263","0.0-5.0-12.0-1.9","58ab2db50da7f10001de8e34","58ab2db50da7f10001de8e34","63a36e1df1afd18b014794e9","63a38b82c067d51bcd604087","rsvp1-task","true","0","","","","","null","<span></span>","null","iti","","","","","","","","","","","","","","",""
"","html-keyboard-response","140","58371","0.0-5.0-12.0-0.10","58ab2db50da7f10001de8e34","58ab2db50da7f10001de8e34","63a36e1df1afd18b014794e9","63a38b82c067d51bcd604087","rsvp1-task","true","0","","","","","null","
					<div style='width: 900px;'>
					<div style='float: center;'><img src=img/nontarget_distractor13.jpeg  ></img>
					</div>
					","null","rsvp1","practice0","","","","","","","","","3","","","","","img/nontarget_distractor13.jpeg"
"","html-keyboard-response","141","58386","0.0-5.0-12.0-1.10","58ab2db50da7f10001de8e34","58ab2db50da7f10001de8e34","63a36e1df1afd18b014794e9","63a38b82c067d51bcd604087","rsvp1-task","true","0","","","","","null","<span></span>","null","iti","","","","","","","","","","","","","","",""
"","html-keyboard-response","142","58495","0.0-5.0-12.0-0.11","58ab2db50da7f10001de8e34","58ab2db50da7f10001de8e34","63a36e1df1afd18b014794e9","63a38b82c067d51bcd604087","rsvp1-task","true","0","","","","","null","
					<div style='width: 900px;'>
					<div style='float: center;'><img src=img/nontarget_distractor233.jpeg  ></img>
					</div>
					","null","rsvp1","practice0","","","","","","","","","3","","","","","img/nontarget_distractor233.jpeg"
"","html-keyboard-response","143","58511","0.0-5.0-12.0-1.11","58ab2db50da7f10001de8e34","58ab2db50da7f10001de8e34","63a36e1df1afd18b014794e9","63a38b82c067d51bcd604087","rsvp1-task","true","0","","","","","null","<span></span>","null","iti","","","","","","","","","","","","","","",""
"","html-keyboard-response","144","58619","0.0-5.0-12.0-0.12","58ab2db50da7f10001de8e34","58ab2db50da7f10001de8e34","63a36e1df1afd18b014794e9","63a38b82c067d51bcd604087","rsvp1-task","true","0","","","","","null","
					<div style='width: 900px;'>
					<div style='float: center;'><img src=img/t2_targets147.jpeg class=""rotateimgR""  ></img>
					</div>
					","null","rsvp1","practice0","","","","","","","","","3","","","","","img/t2_targets147.jpeg class=""rotateimgR"""
"","html-keyboard-response","145","58634","0.0-5.0-12.0-1.12","58ab2db50da7f10001de8e34","58ab2db50da7f10001de8e34","63a36e1df1afd18b014794e9","63a38b82c067d51bcd604087","rsvp1-task","true","0","","","","","null","<span></span>","null","iti","","","","","","","","","","","","","","",""
"","html-keyboard-response","146","58743","0.0-5.0-12.0-0.13","58ab2db50da7f10001de8e34","58ab2db50da7f10001de8e34","63a36e1df1afd18b014794e9","63a38b82c067d51bcd604087","rsvp1-task","true","0","","","","","null","
					<div style='width: 900px;'>
					<div style='float: center;'><img src=img/nontarget_distractor250.jpeg  ></img>
					</div>
					","null","rsvp1","practice0","","","","","","","","","3","","","","","img/nontarget_distractor250.jpeg"
"","html-keyboard-response","147","58759","0.0-5.0-12.0-1.13","58ab2db50da7f10001de8e34","58ab2db50da7f10001de8e34","63a36e1df1afd18b014794e9","63a38b82c067d51bcd604087","rsvp1-task","true","0","","","","","null","<span></span>","null","iti","","","","","","","","","","","","","","",""
"","html-keyboard-response","148","58867","0.0-5.0-12.0-0.14","58ab2db50da7f10001de8e34","58ab2db50da7f10001de8e34","63a36e1df1afd18b014794e9","63a38b82c067d51bcd604087","rsvp1-task","true","0","","","","","null","
					<div style='width: 900px;'>
					<div style='float: center;'><img src=img/nontarget_distractor179.jpeg  ></img>
					</div>
					","null","rsvp1","practice0","","","","","","","","","3","","","","","img/nontarget_distractor179.jpeg"
"","html-keyboard-response","149","58882","0.0-5.0-12.0-1.14","58ab2db50da7f10001de8e34","58ab2db50da7f10001de8e34","63a36e1df1afd18b014794e9","63a38b82c067d51bcd604087","rsvp1-task","true","0","","","","","null","<span></span>","null","iti","","","","","","","","","","","","","","",""
"","html-keyboard-response","150","58991","0.0-5.0-12.0-0.15","58ab2db50da7f10001de8e34","58ab2db50da7f10001de8e34","63a36e1df1afd18b014794e9","63a38b82c067d51bcd604087","rsvp1-task","true","0","","","","","null","
					<div style='width: 900px;'>
					<div style='float: center;'><img src=img/nontarget_distractor11.jpeg  ></img>
					</div>
					","null","rsvp1","practice0","","","","","","","","","3","","","","","img/nontarget_distractor11.jpeg"
"","html-keyboard-response","151","59006","0.0-5.0-12.0-1.15","58ab2db50da7f10001de8e34","58ab2db50da7f10001de8e34","63a36e1df1afd18b014794e9","63a38b82c067d51bcd604087","rsvp1-task","true","0","","","","","null","<span></span>","null","iti","","","","","","","","","","","","","","",""
"","html-keyboard-response","152","59115","0.0-5.0-12.0-0.16","58ab2db50da7f10001de8e34","58ab2db50da7f10001de8e34","63a36e1df1afd18b014794e9","63a38b82c067d51bcd604087","rsvp1-task","true","0","","","","","null","
					<div style='width: 900px;'>
					<div style='float: center;'><img src=img/nontarget_distractor10.jpeg  ></img>
					</div>
					","null","rsvp1","practice0","","","","","","","","","3","","","","","img/nontarget_distractor10.jpeg"
"","html-keyboard-response","153","59130","0.0-5.0-12.0-1.16","58ab2db50da7f10001de8e34","58ab2db50da7f10001de8e34","63a36e1df1afd18b014794e9","63a38b82c067d51bcd604087","rsvp1-task","true","0","","","","","null","<span></span>","null","iti","","","","","","","","","","","","","","",""
"","html-keyboard-response","154","59409","0.0-5.0-13.0-0.0","58ab2db50da7f10001de8e34","58ab2db50da7f10001de8e34","63a36e1df1afd18b014794e9","63a38b82c067d51bcd604087","rsvp1-task","true","0","","","","","277","<div class=""rsvp""> Was the rotated image rotated left (1 key) or right (0 key)?</div>","0","response","practice0","0","0","neutral","img/nontarget_distractor180.jpeg","img/nontarget_distractor250.jpeg","8","5","13","3","true","true","true","",""
"","html-keyboard-response","155","60417","0.0-5.0-14.0","58ab2db50da7f10001de8e34","58ab2db50da7f10001de8e34","63a36e1df1afd18b014794e9","63a38b82c067d51bcd604087","rsvp1-task","true","0","","","","","null","Correct! </p> <p>  </p><p> ","null","","","","","","","","","","","","","","","main_T1_ITI",""
"","html-keyboard-response","156","62433","0.0-5.0-15.0","58ab2db50da7f10001de8e34","58ab2db50da7f10001de8e34","63a36e1df1afd18b014794e9","63a38b82c067d51bcd604087","rsvp1-task","true","0","","","","","null","<div class=""rsvp"">+</div>","null","fixation","","","","","","","","","","","","","","",""
"","html-keyboard-response","157","62696","0.0-5.0-16.0","58ab2db50da7f10001de8e34","58ab2db50da7f10001de8e34","63a36e1df1afd18b014794e9","63a38b82c067d51bcd604087","rsvp1-task","true","0","","","","","null","<div class=""rsvp"" ></div>","null","blank","","","","","","","","","","","","","","",""
"","html-keyboard-response","158","62805","0.0-5.0-17.0-0.0","58ab2db50da7f10001de8e34","58ab2db50da7f10001de8e34","63a36e1df1afd18b014794e9","63a38b82c067d51bcd604087","rsvp1-task","true","0","","","","","null","
					<div style='width: 900px;'>
					<div style='float: center;'><img src=img/nontarget_distractor138.jpeg  ></img>
					</div>
					","null","rsvp1","practice0","","","","","","","","","4","","","","","img/nontarget_distractor138.jpeg"
"","html-keyboard-response","159","62820","0.0-5.0-17.0-1.0","58ab2db50da7f10001de8e34","58ab2db50da7f10001de8e34","63a36e1df1afd18b014794e9","63a38b82c067d51bcd604087","rsvp1-task","true","0","","","","","null","<span></span>","null","iti","","","","","","","","","","","","","","",""
"","html-keyboard-response","160","62929","0.0-5.0-17.0-0.1","58ab2db50da7f10001de8e34","58ab2db50da7f10001de8e34","63a36e1df1afd18b014794e9","63a38b82c067d51bcd604087","rsvp1-task","true","0","","","","","null","
					<div style='width: 900px;'>
					<div style='float: center;'><img src=img/nontarget_distractor55.jpeg  ></img>
					</div>
					","null","rsvp1","practice0","","","","","","","","","4","","","","","img/nontarget_distractor55.jpeg"
"","html-keyboard-response","161","62945","0.0-5.0-17.0-1.1","58ab2db50da7f10001de8e34","58ab2db50da7f10001de8e34","63a36e1df1afd18b014794e9","63a38b82c067d51bcd604087","rsvp1-task","true","0","","","","","null","<span></span>","null","iti","","","","","","","","","","","","","","",""
"","html-keyboard-response","162","63052","0.0-5.0-17.0-0.2","58ab2db50da7f10001de8e34","58ab2db50da7f10001de8e34","63a36e1df1afd18b014794e9","63a38b82c067d51bcd604087","rsvp1-task","true","0","","","","","null","
					<div style='width: 900px;'>
					<div style='float: center;'><img src=img/nontarget_distractor236.jpeg  ></img>
					</div>
					","null","rsvp1","practice0","","","","","","","","","4","","","","","img/nontarget_distractor236.jpeg"
"","html-keyboard-response","163","63068","0.0-5.0-17.0-1.2","58ab2db50da7f10001de8e34","58ab2db50da7f10001de8e34","63a36e1df1afd18b014794e9","63a38b82c067d51bcd604087","rsvp1-task","true","0","","","","","null","<span></span>","null","iti","","","","","","","","","","","","","","",""
"","html-keyboard-response","164","63177","0.0-5.0-17.0-0.3","58ab2db50da7f10001de8e34","58ab2db50da7f10001de8e34","63a36e1df1afd18b014794e9","63a38b82c067d51bcd604087","rsvp1-task","true","0","","","","","null","
					<div style='width: 900px;'>
					<div style='float: center;'><img src=img/nontarget_distractor102.jpeg  ></img>
					</div>
					","null","rsvp1","practice0","","","","","","","","","4","","","","","img/nontarget_distractor102.jpeg"
"","html-keyboard-response","165","63192","0.0-5.0-17.0-1.3","58ab2db50da7f10001de8e34","58ab2db50da7f10001de8e34","63a36e1df1afd18b014794e9","63a38b82c067d51bcd604087","rsvp1-task","true","0","","","","","null","<span></span>","null","iti","","","","","","","","","","","","","","",""
"","html-keyboard-response","166","63300","0.0-5.0-17.0-0.4","58ab2db50da7f10001de8e34","58ab2db50da7f10001de8e34","63a36e1df1afd18b014794e9","63a38b82c067d51bcd604087","rsvp1-task","true","0","","","","","null","
					<div style='width: 900px;'>
					<div style='float: center;'><img src=img/nontarget_distractor170.jpeg  ></img>
					</div>
					","null","rsvp1","practice0","","","","","","","","","4","","","","","img/nontarget_distractor170.jpeg"
"","html-keyboard-response","167","63316","0.0-5.0-17.0-1.4","58ab2db50da7f10001de8e34","58ab2db50da7f10001de8e34","63a36e1df1afd18b014794e9","63a38b82c067d51bcd604087","rsvp1-task","true","0","","","","","null","<span></span>","null","iti","","","","","","","","","","","","","","",""
"","html-keyboard-response","168","63425","0.0-5.0-17.0-0.5","58ab2db50da7f10001de8e34","58ab2db50da7f10001de8e34","63a36e1df1afd18b014794e9","63a38b82c067d51bcd604087","rsvp1-task","true","0","","","","","null","
					<div style='width: 900px;'>
					<div style='float: center;'><img src=img/nontarget_distractor91.jpeg  ></img>
					</div>
					","null","rsvp1","practice0","","","","","","","","","4","","","","","img/nontarget_distractor91.jpeg"
"","html-keyboard-response","169","63440","0.0-5.0-17.0-1.5","58ab2db50da7f10001de8e34","58ab2db50da7f10001de8e34","63a36e1df1afd18b014794e9","63a38b82c067d51bcd604087","rsvp1-task","true","0","","","","","null","<span></span>","null","iti","","","","","","","","","","","","","","",""
"","html-keyboard-response","170","63549","0.0-5.0-17.0-0.6","58ab2db50da7f10001de8e34","58ab2db50da7f10001de8e34","63a36e1df1afd18b014794e9","63a38b82c067d51bcd604087","rsvp1-task","true","0","","","","","null","
					<div style='width: 900px;'>
					<div style='float: center;'><img src=img/nontarget_distractor215.jpeg  ></img>
					</div>
					","null","rsvp1","practice0","","","","","","","","","4","","","","","img/nontarget_distractor215.jpeg"
"","html-keyboard-response","171","63565","0.0-5.0-17.0-1.6","58ab2db50da7f10001de8e34","58ab2db50da7f10001de8e34","63a36e1df1afd18b014794e9","63a38b82c067d51bcd604087","rsvp1-task","true","0","","","","","null","<span></span>","null","iti","","","","","","","","","","","","","","",""
"","html-keyboard-response","172","63673","0.0-5.0-17.0-0.7","58ab2db50da7f10001de8e34","58ab2db50da7f10001de8e34","63a36e1df1afd18b014794e9","63a38b82c067d51bcd604087","rsvp1-task","true","0","","","","","null","
					<div style='width: 900px;'>
					<div style='float: center;'><img src=img/nontarget_distractor78.jpeg  ></img>
					</div>
					","null","rsvp1","practice0","","","","","","","","","4","","","","","img/nontarget_distractor78.jpeg"
"","html-keyboard-response","173","63688","0.0-5.0-17.0-1.7","58ab2db50da7f10001de8e34","58ab2db50da7f10001de8e34","63a36e1df1afd18b014794e9","63a38b82c067d51bcd604087","rsvp1-task","true","0","","","","","null","<span></span>","null","iti","","","","","","","","","","","","","","",""
"","html-keyboard-response","174","63797","0.0-5.0-17.0-0.8","58ab2db50da7f10001de8e34","58ab2db50da7f10001de8e34","63a36e1df1afd18b014794e9","63a38b82c067d51bcd604087","rsvp1-task","true","0","","","","","null","
					<div style='width: 900px;'>
					<div style='float: center;'><img src=img/t2_targets163.jpeg class=""rotateimgR""  ></img>
					</div>
					","null","rsvp1","practice0","","","","","","","","","4","","","","","img/t2_targets163.jpeg class=""rotateimgR"""
"","html-keyboard-response","175","63813","0.0-5.0-17.0-1.8","58ab2db50da7f10001de8e34","58ab2db50da7f10001de8e34","63a36e1df1afd18b014794e9","63a38b82c067d51bcd604087","rsvp1-task","true","0","","","","","null","<span></span>","null","iti","","","","","","","","","","","","","","",""
"","html-keyboard-response","176","63921","0.0-5.0-17.0-0.9","58ab2db50da7f10001de8e34","58ab2db50da7f10001de8e34","63a36e1df1afd18b014794e9","63a38b82c067d51bcd604087","rsvp1-task","true","0","","","","","null","
					<div style='width: 900px;'>
					<div style='float: center;'><img src=img/nontarget_distractor72.jpeg  ></img>
					</div>
					","null","rsvp1","practice0","","","","","","","","","4","","","","","img/nontarget_distractor72.jpeg"
"","html-keyboard-response","177","63936","0.0-5.0-17.0-1.9","58ab2db50da7f10001de8e34","58ab2db50da7f10001de8e34","63a36e1df1afd18b014794e9","63a38b82c067d51bcd604087","rsvp1-task","true","0","","","","","null","<span></span>","null","iti","","","","","","","","","","","","","","",""
"","html-keyboard-response","178","64045","0.0-5.0-17.0-0.10","58ab2db50da7f10001de8e34","58ab2db50da7f10001de8e34","63a36e1df1afd18b014794e9","63a38b82c067d51bcd604087","rsvp1-task","true","0","","","","","null","
					<div style='width: 900px;'>
					<div style='float: center;'><img src=img/nontarget_distractor43.jpeg  ></img>
					</div>
					","null","rsvp1","practice0","","","","","","","","","4","","","","","img/nontarget_distractor43.jpeg"
"","html-keyboard-response","179","64060","0.0-5.0-17.0-1.10","58ab2db50da7f10001de8e34","58ab2db50da7f10001de8e34","63a36e1df1afd18b014794e9","63a38b82c067d51bcd604087","rsvp1-task","true","0","","","","","null","<span></span>","null","iti","","","","","","","","","","","","","","",""
"","html-keyboard-response","180","64169","0.0-5.0-17.0-0.11","58ab2db50da7f10001de8e34","58ab2db50da7f10001de8e34","63a36e1df1afd18b014794e9","63a38b82c067d51bcd604087","rsvp1-task","true","0","","","","","null","
					<div style='width: 900px;'>
					<div style='float: center;'><img src=img/nontarget_distractor192.jpeg  ></img>
					</div>
					","null","rsvp1","practice0","","","","","","","","","4","","","","","img/nontarget_distractor192.jpeg"
"","html-keyboard-response","181","64184","0.0-5.0-17.0-1.11","58ab2db50da7f10001de8e34","58ab2db50da7f10001de8e34","63a36e1df1afd18b014794e9","63a38b82c067d51bcd604087","rsvp1-task","true","0","","","","","null","<span></span>","null","iti","","","","","","","","","","","","","","",""
"","html-keyboard-response","182","64293","0.0-5.0-17.0-0.12","58ab2db50da7f10001de8e34","58ab2db50da7f10001de8e34","63a36e1df1afd18b014794e9","63a38b82c067d51bcd604087","rsvp1-task","true","0","","","","","null","
					<div style='width: 900px;'>
					<div style='float: center;'><img src=img/nontarget_distractor164.jpeg  ></img>
					</div>
					","null","rsvp1","practice0","","","","","","","","","4","","","","","img/nontarget_distractor164.jpeg"
"","html-keyboard-response","183","64309","0.0-5.0-17.0-1.12","58ab2db50da7f10001de8e34","58ab2db50da7f10001de8e34","63a36e1df1afd18b014794e9","63a38b82c067d51bcd604087","rsvp1-task","true","0","","","","","null","<span></span>","null","iti","","","","","","","","","","","","","","",""
"","html-keyboard-response","184","64416","0.0-5.0-17.0-0.13","58ab2db50da7f10001de8e34","58ab2db50da7f10001de8e34","63a36e1df1afd18b014794e9","63a38b82c067d51bcd604087","rsvp1-task","true","0","","","","","null","
					<div style='width: 900px;'>
					<div style='float: center;'><img src=img/nontarget_distractor153.jpeg  ></img>
					</div>
					","null","rsvp1","practice0","","","","","","","","","4","","","","","img/nontarget_distractor153.jpeg"
"","html-keyboard-response","185","64432","0.0-5.0-17.0-1.13","58ab2db50da7f10001de8e34","58ab2db50da7f10001de8e34","63a36e1df1afd18b014794e9","63a38b82c067d51bcd604087","rsvp1-task","true","0","","","","","null","<span></span>","null","iti","","","","","","","","","","","","","","",""
"","html-keyboard-response","186","64541","0.0-5.0-17.0-0.14","58ab2db50da7f10001de8e34","58ab2db50da7f10001de8e34","63a36e1df1afd18b014794e9","63a38b82c067d51bcd604087","rsvp1-task","true","0","","","","","null","
					<div style='width: 900px;'>
					<div style='float: center;'><img src=img/nontarget_distractor77.jpeg  ></img>
					</div>
					","null","rsvp1","practice0","","","","","","","","","4","","","","","img/nontarget_distractor77.jpeg"
"","html-keyboard-response","187","64556","0.0-5.0-17.0-1.14","58ab2db50da7f10001de8e34","58ab2db50da7f10001de8e34","63a36e1df1afd18b014794e9","63a38b82c067d51bcd604087","rsvp1-task","true","0","","","","","null","<span></span>","null","iti","","","","","","","","","","","","","","",""
"","html-keyboard-response","188","64665","0.0-5.0-17.0-0.15","58ab2db50da7f10001de8e34","58ab2db50da7f10001de8e34","63a36e1df1afd18b014794e9","63a38b82c067d51bcd604087","rsvp1-task","true","0","","","","","null","
					<div style='width: 900px;'>
					<div style='float: center;'><img src=img/nontarget_distractor75.jpeg  ></img>
					</div>
					","null","rsvp1","practice0","","","","","","","","","4","","","","","img/nontarget_distractor75.jpeg"
"","html-keyboard-response","189","64680","0.0-5.0-17.0-1.15","58ab2db50da7f10001de8e34","58ab2db50da7f10001de8e34","63a36e1df1afd18b014794e9","63a38b82c067d51bcd604087","rsvp1-task","true","0","","","","","null","<span></span>","null","iti","","","","","","","","","","","","","","",""
"","html-keyboard-response","190","64789","0.0-5.0-17.0-0.16","58ab2db50da7f10001de8e34","58ab2db50da7f10001de8e34","63a36e1df1afd18b014794e9","63a38b82c067d51bcd604087","rsvp1-task","true","0","","","","","null","
					<div style='width: 900px;'>
					<div style='float: center;'><img src=img/nontarget_distractor217.jpeg  ></img>
					</div>
					","null","rsvp1","practice0","","","","","","","","","4","","","","","img/nontarget_distractor217.jpeg"
"","html-keyboard-response","191","64804","0.0-5.0-17.0-1.16","58ab2db50da7f10001de8e34","58ab2db50da7f10001de8e34","63a36e1df1afd18b014794e9","63a38b82c067d51bcd604087","rsvp1-task","true","0","","","","","null","<span></span>","null","iti","","","","","","","","","","","","","","",""
"","html-keyboard-response","192","65060","0.0-5.0-18.0-0.0","58ab2db50da7f10001de8e34","58ab2db50da7f10001de8e34","63a36e1df1afd18b014794e9","63a38b82c067d51bcd604087","rsvp1-task","true","0","","","","","255","<div class=""rsvp""> Was the rotated image rotated left (1 key) or right (0 key)?</div>","0","response","practice0","0","0","neutral","img/nontarget_distractor78.jpeg","img/nontarget_distractor72.jpeg","8","1","9","4","true","true","true","",""
"","html-keyboard-response","193","66076","0.0-5.0-19.0","58ab2db50da7f10001de8e34","58ab2db50da7f10001de8e34","63a36e1df1afd18b014794e9","63a38b82c067d51bcd604087","rsvp1-task","true","0","","","","","null","Correct! </p> <p>  </p><p> ","null","","","","","","","","","","","","","","","main_T1_ITI",""
"","html-keyboard-response","194","68091","0.0-5.0-20.0","58ab2db50da7f10001de8e34","58ab2db50da7f10001de8e34","63a36e1df1afd18b014794e9","63a38b82c067d51bcd604087","rsvp1-task","true","0","","","","","null","<div class=""rsvp"">+</div>","null","fixation","","","","","","","","","","","","","","",""
"","html-keyboard-response","195","68354","0.0-5.0-21.0","58ab2db50da7f10001de8e34","58ab2db50da7f10001de8e34","63a36e1df1afd18b014794e9","63a38b82c067d51bcd604087","rsvp1-task","true","0","","","","","null","<div class=""rsvp"" ></div>","null","blank","","","","","","","","","","","","","","",""
"","html-keyboard-response","196","68463","0.0-5.0-22.0-0.0","58ab2db50da7f10001de8e34","58ab2db50da7f10001de8e34","63a36e1df1afd18b014794e9","63a38b82c067d51bcd604087","rsvp1-task","true","0","","","","","null","
					<div style='width: 900px;'>
					<div style='float: center;'><img src=img/nontarget_distractor60.jpeg  ></img>
					</div>
					","null","rsvp1","practice0","","","","","","","","","5","","","","","img/nontarget_distractor60.jpeg"
"","html-keyboard-response","197","68479","0.0-5.0-22.0-1.0","58ab2db50da7f10001de8e34","58ab2db50da7f10001de8e34","63a36e1df1afd18b014794e9","63a38b82c067d51bcd604087","rsvp1-task","true","0","","","","","null","<span></span>","null","iti","","","","","","","","","","","","","","",""
"","html-keyboard-response","198","68587","0.0-5.0-22.0-0.1","58ab2db50da7f10001de8e34","58ab2db50da7f10001de8e34","63a36e1df1afd18b014794e9","63a38b82c067d51bcd604087","rsvp1-task","true","0","","","","","null","
					<div style='width: 900px;'>
					<div style='float: center;'><img src=img/nontarget_distractor4.jpeg  ></img>
					</div>
					","null","rsvp1","practice0","","","","","","","","","5","","","","","img/nontarget_distractor4.jpeg"
"","html-keyboard-response","199","68602","0.0-5.0-22.0-1.1","58ab2db50da7f10001de8e34","58ab2db50da7f10001de8e34","63a36e1df1afd18b014794e9","63a38b82c067d51bcd604087","rsvp1-task","true","0","","","","","null","<span></span>","null","iti","","","","","","","","","","","","","","",""
"","html-keyboard-response","200","68711","0.0-5.0-22.0-0.2","58ab2db50da7f10001de8e34","58ab2db50da7f10001de8e34","63a36e1df1afd18b014794e9","63a38b82c067d51bcd604087","rsvp1-task","true","0","","","","","null","
					<div style='width: 900px;'>
					<div style='float: center;'><img src=img/nontarget_distractor249.jpeg  ></img>
					</div>
					","null","rsvp1","practice0","","","","","","","","","5","","","","","img/nontarget_distractor249.jpeg"
"","html-keyboard-response","201","68726","0.0-5.0-22.0-1.2","58ab2db50da7f10001de8e34","58ab2db50da7f10001de8e34","63a36e1df1afd18b014794e9","63a38b82c067d51bcd604087","rsvp1-task","true","0","","","","","null","<span></span>","null","iti","","","","","","","","","","","","","","",""
"","html-keyboard-response","202","68835","0.0-5.0-22.0-0.3","58ab2db50da7f10001de8e34","58ab2db50da7f10001de8e34","63a36e1df1afd18b014794e9","63a38b82c067d51bcd604087","rsvp1-task","true","0","","","","","null","
					<div style='width: 900px;'>
					<div style='float: center;'><img src=img/nontarget_distractor211.jpeg  ></img>
					</div>
					","null","rsvp1","practice0","","","","","","","","","5","","","","","img/nontarget_distractor211.jpeg"
"","html-keyboard-response","203","68850","0.0-5.0-22.0-1.3","58ab2db50da7f10001de8e34","58ab2db50da7f10001de8e34","63a36e1df1afd18b014794e9","63a38b82c067d51bcd604087","rsvp1-task","true","0","","","","","null","<span></span>","null","iti","","","","","","","","","","","","","","",""
"","html-keyboard-response","204","68959","0.0-5.0-22.0-0.4","58ab2db50da7f10001de8e34","58ab2db50da7f10001de8e34","63a36e1df1afd18b014794e9","63a38b82c067d51bcd604087","rsvp1-task","true","0","","","","","null","
					<div style='width: 900px;'>
					<div style='float: center;'><img src=img/nontarget_distractor193.jpeg  ></img>
					</div>
					","null","rsvp1","practice0","","","","","","","","","5","","","","","img/nontarget_distractor193.jpeg"
"","html-keyboard-response","205","68974","0.0-5.0-22.0-1.4","58ab2db50da7f10001de8e34","58ab2db50da7f10001de8e34","63a36e1df1afd18b014794e9","63a38b82c067d51bcd604087","rsvp1-task","true","0","","","","","null","<span></span>","null","iti","","","","","","","","","","","","","","",""
"","html-keyboard-response","206","69083","0.0-5.0-22.0-0.5","58ab2db50da7f10001de8e34","58ab2db50da7f10001de8e34","63a36e1df1afd18b014794e9","63a38b82c067d51bcd604087","rsvp1-task","true","0","","","","","null","
					<div style='width: 900px;'>
					<div style='float: center;'><img src=img/nontarget_distractor188.jpeg  ></img>
					</div>
					","null","rsvp1","practice0","","","","","","","","","5","","","","","img/nontarget_distractor188.jpeg"
"","html-keyboard-response","207","69099","0.0-5.0-22.0-1.5","58ab2db50da7f10001de8e34","58ab2db50da7f10001de8e34","63a36e1df1afd18b014794e9","63a38b82c067d51bcd604087","rsvp1-task","true","0","","","","","null","<span></span>","null","iti","","","","","","","","","","","","","","",""
"","html-keyboard-response","208","69207","0.0-5.0-22.0-0.6","58ab2db50da7f10001de8e34","58ab2db50da7f10001de8e34","63a36e1df1afd18b014794e9","63a38b82c067d51bcd604087","rsvp1-task","true","0","","","","","null","
					<div style='width: 900px;'>
					<div style='float: center;'><img src=img/nontarget_distractor232.jpeg  ></img>
					</div>
					","null","rsvp1","practice0","","","","","","","","","5","","","","","img/nontarget_distractor232.jpeg"
"","html-keyboard-response","209","69222","0.0-5.0-22.0-1.6","58ab2db50da7f10001de8e34","58ab2db50da7f10001de8e34","63a36e1df1afd18b014794e9","63a38b82c067d51bcd604087","rsvp1-task","true","0","","","","","null","<span></span>","null","iti","","","","","","","","","","","","","","",""
"","html-keyboard-response","210","69331","0.0-5.0-22.0-0.7","58ab2db50da7f10001de8e34","58ab2db50da7f10001de8e34","63a36e1df1afd18b014794e9","63a38b82c067d51bcd604087","rsvp1-task","true","0","","","","","null","
					<div style='width: 900px;'>
					<div style='float: center;'><img src=img/nontarget_distractor62.jpeg  ></img>
					</div>
					","null","rsvp1","practice0","","","","","","","","","5","","","","","img/nontarget_distractor62.jpeg"
"","html-keyboard-response","211","69347","0.0-5.0-22.0-1.7","58ab2db50da7f10001de8e34","58ab2db50da7f10001de8e34","63a36e1df1afd18b014794e9","63a38b82c067d51bcd604087","rsvp1-task","true","0","","","","","null","<span></span>","null","iti","","","","","","","","","","","","","","",""
"","html-keyboard-response","212","69455","0.0-5.0-22.0-0.8","58ab2db50da7f10001de8e34","58ab2db50da7f10001de8e34","63a36e1df1afd18b014794e9","63a38b82c067d51bcd604087","rsvp1-task","true","0","","","","","null","
					<div style='width: 900px;'>
					<div style='float: center;'><img src=img/nontarget_distractor179.jpeg  ></img>
					</div>
					","null","rsvp1","practice0","","","","","","","","","5","","","","","img/nontarget_distractor179.jpeg"
"","html-keyboard-response","213","69471","0.0-5.0-22.0-1.8","58ab2db50da7f10001de8e34","58ab2db50da7f10001de8e34","63a36e1df1afd18b014794e9","63a38b82c067d51bcd604087","rsvp1-task","true","0","","","","","null","<span></span>","null","iti","","","","","","","","","","","","","","",""
"","html-keyboard-response","214","69579","0.0-5.0-22.0-0.9","58ab2db50da7f10001de8e34","58ab2db50da7f10001de8e34","63a36e1df1afd18b014794e9","63a38b82c067d51bcd604087","rsvp1-task","true","0","","","","","null","
					<div style='width: 900px;'>
					<div style='float: center;'><img src=img/t2_targets99.jpeg class=""rotateimgL""  ></img>
					</div>
					","null","rsvp1","practice0","","","","","","","","","5","","","","","img/t2_targets99.jpeg class=""rotateimgL"""
"","html-keyboard-response","215","69595","0.0-5.0-22.0-1.9","58ab2db50da7f10001de8e34","58ab2db50da7f10001de8e34","63a36e1df1afd18b014794e9","63a38b82c067d51bcd604087","rsvp1-task","true","0","","","","","null","<span></span>","null","iti","","","","","","","","","","","","","","",""
"","html-keyboard-response","216","69703","0.0-5.0-22.0-0.10","58ab2db50da7f10001de8e34","58ab2db50da7f10001de8e34","63a36e1df1afd18b014794e9","63a38b82c067d51bcd604087","rsvp1-task","true","0","","","","","null","
					<div style='width: 900px;'>
					<div style='float: center;'><img src=img/nontarget_distractor159.jpeg  ></img>
					</div>
					","null","rsvp1","practice0","","","","","","","","","5","","","","","img/nontarget_distractor159.jpeg"
"","html-keyboard-response","217","69718","0.0-5.0-22.0-1.10","58ab2db50da7f10001de8e34","58ab2db50da7f10001de8e34","63a36e1df1afd18b014794e9","63a38b82c067d51bcd604087","rsvp1-task","true","0","","","","","null","<span></span>","null","iti","","","","","","","","","","","","","","",""
"","html-keyboard-response","218","69827","0.0-5.0-22.0-0.11","58ab2db50da7f10001de8e34","58ab2db50da7f10001de8e34","63a36e1df1afd18b014794e9","63a38b82c067d51bcd604087","rsvp1-task","true","0","","","","","null","
					<div style='width: 900px;'>
					<div style='float: center;'><img src=img/nontarget_distractor56.jpeg  ></img>
					</div>
					","null","rsvp1","practice0","","","","","","","","","5","","","","","img/nontarget_distractor56.jpeg"
"","html-keyboard-response","219","69843","0.0-5.0-22.0-1.11","58ab2db50da7f10001de8e34","58ab2db50da7f10001de8e34","63a36e1df1afd18b014794e9","63a38b82c067d51bcd604087","rsvp1-task","true","0","","","","","null","<span></span>","null","iti","","","","","","","","","","","","","","",""
"","html-keyboard-response","220","69951","0.0-5.0-22.0-0.12","58ab2db50da7f10001de8e34","58ab2db50da7f10001de8e34","63a36e1df1afd18b014794e9","63a38b82c067d51bcd604087","rsvp1-task","true","0","","","","","null","
					<div style='width: 900px;'>
					<div style='float: center;'><img src=img/nontarget_distractor127.jpeg  ></img>
					</div>
					","null","rsvp1","practice0","","","","","","","","","5","","","","","img/nontarget_distractor127.jpeg"
"","html-keyboard-response","221","69967","0.0-5.0-22.0-1.12","58ab2db50da7f10001de8e34","58ab2db50da7f10001de8e34","63a36e1df1afd18b014794e9","63a38b82c067d51bcd604087","rsvp1-task","true","0","","","","","null","<span></span>","null","iti","","","","","","","","","","","","","","",""
"","html-keyboard-response","222","70075","0.0-5.0-22.0-0.13","58ab2db50da7f10001de8e34","58ab2db50da7f10001de8e34","63a36e1df1afd18b014794e9","63a38b82c067d51bcd604087","rsvp1-task","true","0","","","","","null","
					<div style='width: 900px;'>
					<div style='float: center;'><img src=img/nontarget_distractor80.jpeg  ></img>
					</div>
					","null","rsvp1","practice0","","","","","","","","","5","","","","","img/nontarget_distractor80.jpeg"
"","html-keyboard-response","223","70090","0.0-5.0-22.0-1.13","58ab2db50da7f10001de8e34","58ab2db50da7f10001de8e34","63a36e1df1afd18b014794e9","63a38b82c067d51bcd604087","rsvp1-task","true","0","","","","","null","<span></span>","null","iti","","","","","","","","","","","","","","",""
"","html-keyboard-response","224","70199","0.0-5.0-22.0-0.14","58ab2db50da7f10001de8e34","58ab2db50da7f10001de8e34","63a36e1df1afd18b014794e9","63a38b82c067d51bcd604087","rsvp1-task","true","0","","","","","null","
					<div style='width: 900px;'>
					<div style='float: center;'><img src=img/nontarget_distractor244.jpeg  ></img>
					</div>
					","null","rsvp1","practice0","","","","","","","","","5","","","","","img/nontarget_distractor244.jpeg"
"","html-keyboard-response","225","70215","0.0-5.0-22.0-1.14","58ab2db50da7f10001de8e34","58ab2db50da7f10001de8e34","63a36e1df1afd18b014794e9","63a38b82c067d51bcd604087","rsvp1-task","true","0","","","","","null","<span></span>","null","iti","","","","","","","","","","","","","","",""
"","html-keyboard-response","226","70324","0.0-5.0-22.0-0.15","58ab2db50da7f10001de8e34","58ab2db50da7f10001de8e34","63a36e1df1afd18b014794e9","63a38b82c067d51bcd604087","rsvp1-task","true","0","","","","","null","
					<div style='width: 900px;'>
					<div style='float: center;'><img src=img/nontarget_distractor214.jpeg  ></img>
					</div>
					","null","rsvp1","practice0","","","","","","","","","5","","","","","img/nontarget_distractor214.jpeg"
"","html-keyboard-response","227","70339","0.0-5.0-22.0-1.15","58ab2db50da7f10001de8e34","58ab2db50da7f10001de8e34","63a36e1df1afd18b014794e9","63a38b82c067d51bcd604087","rsvp1-task","true","0","","","","","null","<span></span>","null","iti","","","","","","","","","","","","","","",""
"","html-keyboard-response","228","70447","0.0-5.0-22.0-0.16","58ab2db50da7f10001de8e34","58ab2db50da7f10001de8e34","63a36e1df1afd18b014794e9","63a38b82c067d51bcd604087","rsvp1-task","true","0","","","","","null","
					<div style='width: 900px;'>
					<div style='float: center;'><img src=img/nontarget_distractor174.jpeg  ></img>
					</div>
					","null","rsvp1","practice0","","","","","","","","","5","","","","","img/nontarget_distractor174.jpeg"
"","html-keyboard-response","229","70463","0.0-5.0-22.0-1.16","58ab2db50da7f10001de8e34","58ab2db50da7f10001de8e34","63a36e1df1afd18b014794e9","63a38b82c067d51bcd604087","rsvp1-task","true","0","","","","","null","<span></span>","null","iti","","","","","","","","","","","","","","",""
"","html-keyboard-response","230","70748","0.0-5.0-23.0-0.0","58ab2db50da7f10001de8e34","58ab2db50da7f10001de8e34","63a36e1df1afd18b014794e9","63a38b82c067d51bcd604087","rsvp1-task","true","0","","","","","285","<div class=""rsvp""> Was the rotated image rotated left (1 key) or right (0 key)?</div>","1","response","practice0","1","1","neutral","img/nontarget_distractor62.jpeg","img/nontarget_distractor159.jpeg","8","2","10","5","true","true","true","",""
"","html-keyboard-response","231","71750","0.0-5.0-24.0","58ab2db50da7f10001de8e34","58ab2db50da7f10001de8e34","63a36e1df1afd18b014794e9","63a38b82c067d51bcd604087","rsvp1-task","true","0","","","","","null","Correct! </p> <p>  </p><p> ","null","","","","","","","","","","","","","","","main_T1_ITI",""
"","html-keyboard-response","232","73765","0.0-5.0-25.0","58ab2db50da7f10001de8e34","58ab2db50da7f10001de8e34","63a36e1df1afd18b014794e9","63a38b82c067d51bcd604087","rsvp1-task","true","0","","","","","null","<div class=""rsvp"">+</div>","null","fixation","","","","","","","","","","","","","","",""
"","html-keyboard-response","233","74029","0.0-5.0-26.0","58ab2db50da7f10001de8e34","58ab2db50da7f10001de8e34","63a36e1df1afd18b014794e9","63a38b82c067d51bcd604087","rsvp1-task","true","0","","","","","null","<div class=""rsvp"" ></div>","null","blank","","","","","","","","","","","","","","",""
"","html-keyboard-response","234","74137","0.0-5.0-27.0-0.0","58ab2db50da7f10001de8e34","58ab2db50da7f10001de8e34","63a36e1df1afd18b014794e9","63a38b82c067d51bcd604087","rsvp1-task","true","0","","","","","null","
					<div style='width: 900px;'>
					<div style='float: center;'><img src=img/nontarget_distractor64.jpeg  ></img>
					</div>
					","null","rsvp1","practice0","","","","","","","","","6","","","","","img/nontarget_distractor64.jpeg"
"","html-keyboard-response","235","74152","0.0-5.0-27.0-1.0","58ab2db50da7f10001de8e34","58ab2db50da7f10001de8e34","63a36e1df1afd18b014794e9","63a38b82c067d51bcd604087","rsvp1-task","true","0","","","","","null","<span></span>","null","iti","","","","","","","","","","","","","","",""
"","html-keyboard-response","236","74261","0.0-5.0-27.0-0.1","58ab2db50da7f10001de8e34","58ab2db50da7f10001de8e34","63a36e1df1afd18b014794e9","63a38b82c067d51bcd604087","rsvp1-task","true","0","","","","","null","
					<div style='width: 900px;'>
					<div style='float: center;'><img src=img/nontarget_distractor240.jpeg  ></img>
					</div>
					","null","rsvp1","practice0","","","","","","","","","6","","","","","img/nontarget_distractor240.jpeg"
"","html-keyboard-response","237","74276","0.0-5.0-27.0-1.1","58ab2db50da7f10001de8e34","58ab2db50da7f10001de8e34","63a36e1df1afd18b014794e9","63a38b82c067d51bcd604087","rsvp1-task","true","0","","","","","null","<span></span>","null","iti","","","","","","","","","","","","","","",""
"","html-keyboard-response","238","74385","0.0-5.0-27.0-0.2","58ab2db50da7f10001de8e34","58ab2db50da7f10001de8e34","63a36e1df1afd18b014794e9","63a38b82c067d51bcd604087","rsvp1-task","true","0","","","","","null","
					<div style='width: 900px;'>
					<div style='float: center;'><img src=img/nontarget_distractor222.jpeg  ></img>
					</div>
					","null","rsvp1","practice0","","","","","","","","","6","","","","","img/nontarget_distractor222.jpeg"
"","html-keyboard-response","239","74400","0.0-5.0-27.0-1.2","58ab2db50da7f10001de8e34","58ab2db50da7f10001de8e34","63a36e1df1afd18b014794e9","63a38b82c067d51bcd604087","rsvp1-task","true","0","","","","","null","<span></span>","null","iti","","","","","","","","","","","","","","",""
"","html-keyboard-response","240","74509","0.0-5.0-27.0-0.3","58ab2db50da7f10001de8e34","58ab2db50da7f10001de8e34","63a36e1df1afd18b014794e9","63a38b82c067d51bcd604087","rsvp1-task","true","0","","","","","null","
					<div style='width: 900px;'>
					<div style='float: center;'><img src=img/nontarget_distractor119.jpeg  ></img>
					</div>
					","null","rsvp1","practice0","","","","","","","","","6","","","","","img/nontarget_distractor119.jpeg"
"","html-keyboard-response","241","74524","0.0-5.0-27.0-1.3","58ab2db50da7f10001de8e34","58ab2db50da7f10001de8e34","63a36e1df1afd18b014794e9","63a38b82c067d51bcd604087","rsvp1-task","true","0","","","","","null","<span></span>","null","iti","","","","","","","","","","","","","","",""
"","html-keyboard-response","242","74633","0.0-5.0-27.0-0.4","58ab2db50da7f10001de8e34","58ab2db50da7f10001de8e34","63a36e1df1afd18b014794e9","63a38b82c067d51bcd604087","rsvp1-task","true","0","","","","","null","
					<div style='width: 900px;'>
					<div style='float: center;'><img src=img/nontarget_distractor102.jpeg  ></img>
					</div>
					","null","rsvp1","practice0","","","","","","","","","6","","","","","img/nontarget_distractor102.jpeg"
"","html-keyboard-response","243","74649","0.0-5.0-27.0-1.4","58ab2db50da7f10001de8e34","58ab2db50da7f10001de8e34","63a36e1df1afd18b014794e9","63a38b82c067d51bcd604087","rsvp1-task","true","0","","","","","null","<span></span>","null","iti","","","","","","","","","","","","","","",""
"","html-keyboard-response","244","74757","0.0-5.0-27.0-0.5","58ab2db50da7f10001de8e34","58ab2db50da7f10001de8e34","63a36e1df1afd18b014794e9","63a38b82c067d51bcd604087","rsvp1-task","true","0","","","","","null","
					<div style='width: 900px;'>
					<div style='float: center;'><img src=img/nontarget_distractor243.jpeg  ></img>
					</div>
					","null","rsvp1","practice0","","","","","","","","","6","","","","","img/nontarget_distractor243.jpeg"
"","html-keyboard-response","245","74772","0.0-5.0-27.0-1.5","58ab2db50da7f10001de8e34","58ab2db50da7f10001de8e34","63a36e1df1afd18b014794e9","63a38b82c067d51bcd604087","rsvp1-task","true","0","","","","","null","<span></span>","null","iti","","","","","","","","","","","","","","",""
"","html-keyboard-response","246","74881","0.0-5.0-27.0-0.6","58ab2db50da7f10001de8e34","58ab2db50da7f10001de8e34","63a36e1df1afd18b014794e9","63a38b82c067d51bcd604087","rsvp1-task","true","0","","","","","null","
					<div style='width: 900px;'>
					<div style='float: center;'><img src=img/nontarget_distractor156.jpeg  ></img>
					</div>
					","null","rsvp1","practice0","","","","","","","","","6","","","","","img/nontarget_distractor156.jpeg"
"","html-keyboard-response","247","74897","0.0-5.0-27.0-1.6","58ab2db50da7f10001de8e34","58ab2db50da7f10001de8e34","63a36e1df1afd18b014794e9","63a38b82c067d51bcd604087","rsvp1-task","true","0","","","","","null","<span></span>","null","iti","","","","","","","","","","","","","","",""
"","html-keyboard-response","248","75006","0.0-5.0-27.0-0.7","58ab2db50da7f10001de8e34","58ab2db50da7f10001de8e34","63a36e1df1afd18b014794e9","63a38b82c067d51bcd604087","rsvp1-task","true","0","","","","","null","
					<div style='width: 900px;'>
					<div style='float: center;'><img src=img/nontarget_distractor108.jpeg  ></img>
					</div>
					","null","rsvp1","practice0","","","","","","","","","6","","","","","img/nontarget_distractor108.jpeg"
"","html-keyboard-response","249","75021","0.0-5.0-27.0-1.7","58ab2db50da7f10001de8e34","58ab2db50da7f10001de8e34","63a36e1df1afd18b014794e9","63a38b82c067d51bcd604087","rsvp1-task","true","0","","","","","null","<span></span>","null","iti","","","","","","","","","","","","","","",""
"","html-keyboard-response","250","75130","0.0-5.0-27.0-0.8","58ab2db50da7f10001de8e34","58ab2db50da7f10001de8e34","63a36e1df1afd18b014794e9","63a38b82c067d51bcd604087","rsvp1-task","true","0","","","","","null","
					<div style='width: 900px;'>
					<div style='float: center;'><img src=img/nontarget_distractor86.jpeg  ></img>
					</div>
					","null","rsvp1","practice0","","","","","","","","","6","","","","","img/nontarget_distractor86.jpeg"
"","html-keyboard-response","251","75145","0.0-5.0-27.0-1.8","58ab2db50da7f10001de8e34","58ab2db50da7f10001de8e34","63a36e1df1afd18b014794e9","63a38b82c067d51bcd604087","rsvp1-task","true","0","","","","","null","<span></span>","null","iti","","","","","","","","","","","","","","",""
"","html-keyboard-response","252","75253","0.0-5.0-27.0-0.9","58ab2db50da7f10001de8e34","58ab2db50da7f10001de8e34","63a36e1df1afd18b014794e9","63a38b82c067d51bcd604087","rsvp1-task","true","0","","","","","null","
					<div style='width: 900px;'>
					<div style='float: center;'><img src=img/nontarget_distractor194.jpeg  ></img>
					</div>
					","null","rsvp1","practice0","","","","","","","","","6","","","","","img/nontarget_distractor194.jpeg"
"","html-keyboard-response","253","75268","0.0-5.0-27.0-1.9","58ab2db50da7f10001de8e34","58ab2db50da7f10001de8e34","63a36e1df1afd18b014794e9","63a38b82c067d51bcd604087","rsvp1-task","true","0","","","","","null","<span></span>","null","iti","","","","","","","","","","","","","","",""
"","html-keyboard-response","254","75377","0.0-5.0-27.0-0.10","58ab2db50da7f10001de8e34","58ab2db50da7f10001de8e34","63a36e1df1afd18b014794e9","63a38b82c067d51bcd604087","rsvp1-task","true","0","","","","","null","
					<div style='width: 900px;'>
					<div style='float: center;'><img src=img/t2_targets157.jpeg class=""rotateimgR""  ></img>
					</div>
					","null","rsvp1","practice0","","","","","","","","","6","","","","","img/t2_targets157.jpeg class=""rotateimgR"""
"","html-keyboard-response","255","75393","0.0-5.0-27.0-1.10","58ab2db50da7f10001de8e34","58ab2db50da7f10001de8e34","63a36e1df1afd18b014794e9","63a38b82c067d51bcd604087","rsvp1-task","true","0","","","","","null","<span></span>","null","iti","","","","","","","","","","","","","","",""
"","html-keyboard-response","256","75501","0.0-5.0-27.0-0.11","58ab2db50da7f10001de8e34","58ab2db50da7f10001de8e34","63a36e1df1afd18b014794e9","63a38b82c067d51bcd604087","rsvp1-task","true","0","","","","","null","
					<div style='width: 900px;'>
					<div style='float: center;'><img src=img/nontarget_distractor51.jpeg  ></img>
					</div>
					","null","rsvp1","practice0","","","","","","","","","6","","","","","img/nontarget_distractor51.jpeg"
"","html-keyboard-response","257","75516","0.0-5.0-27.0-1.11","58ab2db50da7f10001de8e34","58ab2db50da7f10001de8e34","63a36e1df1afd18b014794e9","63a38b82c067d51bcd604087","rsvp1-task","true","0","","","","","null","<span></span>","null","iti","","","","","","","","","","","","","","",""
"","html-keyboard-response","258","75625","0.0-5.0-27.0-0.12","58ab2db50da7f10001de8e34","58ab2db50da7f10001de8e34","63a36e1df1afd18b014794e9","63a38b82c067d51bcd604087","rsvp1-task","true","0","","","","","null","
					<div style='width: 900px;'>
					<div style='float: center;'><img src=img/nontarget_distractor159.jpeg  ></img>
					</div>
					","null","rsvp1","practice0","","","","","","","","","6","","","","","img/nontarget_distractor159.jpeg"
"","html-keyboard-response","259","75641","0.0-5.0-27.0-1.12","58ab2db50da7f10001de8e34","58ab2db50da7f10001de8e34","63a36e1df1afd18b014794e9","63a38b82c067d51bcd604087","rsvp1-task","true","0","","","","","null","<span></span>","null","iti","","","","","","","","","","","","","","",""
"","html-keyboard-response","260","75750","0.0-5.0-27.0-0.13","58ab2db50da7f10001de8e34","58ab2db50da7f10001de8e34","63a36e1df1afd18b014794e9","63a38b82c067d51bcd604087","rsvp1-task","true","0","","","","","null","
					<div style='width: 900px;'>
					<div style='float: center;'><img src=img/nontarget_distractor52.jpeg  ></img>
					</div>
					","null","rsvp1","practice0","","","","","","","","","6","","","","","img/nontarget_distractor52.jpeg"
"","html-keyboard-response","261","75764","0.0-5.0-27.0-1.13","58ab2db50da7f10001de8e34","58ab2db50da7f10001de8e34","63a36e1df1afd18b014794e9","63a38b82c067d51bcd604087","rsvp1-task","true","0","","","","","null","<span></span>","null","iti","","","","","","","","","","","","","","",""
"","html-keyboard-response","262","75873","0.0-5.0-27.0-0.14","58ab2db50da7f10001de8e34","58ab2db50da7f10001de8e34","63a36e1df1afd18b014794e9","63a38b82c067d51bcd604087","rsvp1-task","true","0","","","","","null","
					<div style='width: 900px;'>
					<div style='float: center;'><img src=img/nontarget_distractor210.jpeg  ></img>
					</div>
					","null","rsvp1","practice0","","","","","","","","","6","","","","","img/nontarget_distractor210.jpeg"
"","html-keyboard-response","263","75889","0.0-5.0-27.0-1.14","58ab2db50da7f10001de8e34","58ab2db50da7f10001de8e34","63a36e1df1afd18b014794e9","63a38b82c067d51bcd604087","rsvp1-task","true","0","","","","","null","<span></span>","null","iti","","","","","","","","","","","","","","",""
"","html-keyboard-response","264","75998","0.0-5.0-27.0-0.15","58ab2db50da7f10001de8e34","58ab2db50da7f10001de8e34","63a36e1df1afd18b014794e9","63a38b82c067d51bcd604087","rsvp1-task","true","0","","","","","null","
					<div style='width: 900px;'>
					<div style='float: center;'><img src=img/nontarget_distractor165.jpeg  ></img>
					</div>
					","null","rsvp1","practice0","","","","","","","","","6","","","","","img/nontarget_distractor165.jpeg"
"","html-keyboard-response","265","76013","0.0-5.0-27.0-1.15","58ab2db50da7f10001de8e34","58ab2db50da7f10001de8e34","63a36e1df1afd18b014794e9","63a38b82c067d51bcd604087","rsvp1-task","true","0","","","","","null","<span></span>","null","iti","","","","","","","","","","","","","","",""
"","html-keyboard-response","266","76121","0.0-5.0-27.0-0.16","58ab2db50da7f10001de8e34","58ab2db50da7f10001de8e34","63a36e1df1afd18b014794e9","63a38b82c067d51bcd604087","rsvp1-task","true","0","","","","","null","
					<div style='width: 900px;'>
					<div style='float: center;'><img src=img/nontarget_distractor79.jpeg  ></img>
					</div>
					","null","rsvp1","practice0","","","","","","","","","6","","","","","img/nontarget_distractor79.jpeg"
"","html-keyboard-response","267","76137","0.0-5.0-27.0-1.16","58ab2db50da7f10001de8e34","58ab2db50da7f10001de8e34","63a36e1df1afd18b014794e9","63a38b82c067d51bcd604087","rsvp1-task","true","0","","","","","null","<span></span>","null","iti","","","","","","","","","","","","","","",""
"","html-keyboard-response","268","76457","0.0-5.0-28.0-0.0","58ab2db50da7f10001de8e34","58ab2db50da7f10001de8e34","63a36e1df1afd18b014794e9","63a38b82c067d51bcd604087","rsvp1-task","true","0","","","","","320","<div class=""rsvp""> Was the rotated image rotated left (1 key) or right (0 key)?</div>","0","response","practice0","0","0","neutral","img/nontarget_distractor108.jpeg","img/nontarget_distractor51.jpeg","8","3","11","6","true","true","true","",""
"","html-keyboard-response","269","77470","0.0-5.0-29.0","58ab2db50da7f10001de8e34","58ab2db50da7f10001de8e34","63a36e1df1afd18b014794e9","63a38b82c067d51bcd604087","rsvp1-task","true","0","","","","","null","Correct! </p> <p>  </p><p> ","null","","","","","","","","","","","","","","","main_T1_ITI",""
"","html-keyboard-response","270","79485","0.0-5.0-30.0","58ab2db50da7f10001de8e34","58ab2db50da7f10001de8e34","63a36e1df1afd18b014794e9","63a38b82c067d51bcd604087","rsvp1-task","true","0","","","","","null","<div class=""rsvp"">+</div>","null","fixation","","","","","","","","","","","","","","",""
"","html-keyboard-response","271","79749","0.0-5.0-31.0","58ab2db50da7f10001de8e34","58ab2db50da7f10001de8e34","63a36e1df1afd18b014794e9","63a38b82c067d51bcd604087","rsvp1-task","true","0","","","","","null","<div class=""rsvp"" ></div>","null","blank","","","","","","","","","","","","","","",""
"","html-keyboard-response","272","79858","0.0-5.0-32.0-0.0","58ab2db50da7f10001de8e34","58ab2db50da7f10001de8e34","63a36e1df1afd18b014794e9","63a38b82c067d51bcd604087","rsvp1-task","true","0","","","","","null","
					<div style='width: 900px;'>
