"success","trial_type","trial_index","time_elapsed","internal_node_id","subject_id","subjectID","study_id","session_id","exp_id","full_screen","focus_shifts","timeout","failed_images","failed_audio","failed_video","rt","stimulus","key_press","test_part","phase","correct_responses","correct_response","t1_type","t1_image","t2_image","t1_location","lag","t2_location","trial_number","correct","t1_correct","t2_correct","task","stim"
"true","fullscreen","0","42198","0.0-0.0","5c634094e30ff200016baccb","5c634094e30ff200016baccb","63a36e1df1afd18b014794e9","63a384421d109d0d23eebe5d","rsvp1-task","true","0","","","","","","","","","","","","","","","","","","","","","","",""
"true","preload","1","121183","0.0-1.0","5c634094e30ff200016baccb","5c634094e30ff200016baccb","63a36e1df1afd18b014794e9","63a384421d109d0d23eebe5d","rsvp1-task","true","0","false","[]","[]","[]","","","","","","","","","","","","","","","","","","",""
"","html-keyboard-response","2","159116","0.0-2.0","5c634094e30ff200016baccb","5c634094e30ff200016baccb","63a36e1df1afd18b014794e9","63a384421d109d0d23eebe5d","rsvp1-task","true","0","","","","","37930","<div class='instructions'><p>You will see a series of scene images rapidly appearing on the computer screen. One of the scene images will be ROTATED, either to the left or to the right.</p><p>When the series ends, you have to respond to the question ‘Which way was the scene rotated?’</p><p>If the scene was rotated left, you will press the 1 key. If the scene was rotated right, press the 0 key. </p><p>Press any key to see an example of the task.</p></div>","0","instructions","","","","","","","","","","","","","","",""
"","html-keyboard-response","3","162125","0.0-3.0-0.0","5c634094e30ff200016baccb","5c634094e30ff200016baccb","63a36e1df1afd18b014794e9","63a384421d109d0d23eebe5d","rsvp1-task","true","0","","","","","null","<div class=""rsvp"">+</div>","null","fixation","","","","","","","","","","","","","","",""
"","html-keyboard-response","4","162383","0.0-3.0-1.0","5c634094e30ff200016baccb","5c634094e30ff200016baccb","63a36e1df1afd18b014794e9","63a384421d109d0d23eebe5d","rsvp1-task","true","0","","","","","null","<div class=""rsvp"" ></div>","null","blank","","","","","","","","","","","","","","",""
"","html-keyboard-response","5","162601","0.0-3.0-2.0-0.0","5c634094e30ff200016baccb","5c634094e30ff200016baccb","63a36e1df1afd18b014794e9","63a384421d109d0d23eebe5d","rsvp1-task","true","0","","","","","null","
					<div style='width: 900px;'>
					<div style='float: center;'><img src=img/nontarget_distractor254.jpeg  ></img>
					</div>
					","null","","","","","","","","","","","","","","","",""
"","html-keyboard-response","6","162700","0.0-3.0-2.0-1.0","5c634094e30ff200016baccb","5c634094e30ff200016baccb","63a36e1df1afd18b014794e9","63a384421d109d0d23eebe5d","rsvp1-task","true","0","","","","","null","<span></span>","null","iti","","","","","","","","","","","","","","",""
"","html-keyboard-response","7","162917","0.0-3.0-2.0-0.1","5c634094e30ff200016baccb","5c634094e30ff200016baccb","63a36e1df1afd18b014794e9","63a384421d109d0d23eebe5d","rsvp1-task","true","0","","","","","null","
					<div style='width: 900px;'>
					<div style='float: center;'><img src=img/nontarget_distractor163.jpeg  ></img>
					</div>
					","null","","","","","","","","","","","","","","","",""
"","html-keyboard-response","8","163016","0.0-3.0-2.0-1.1","5c634094e30ff200016baccb","5c634094e30ff200016baccb","63a36e1df1afd18b014794e9","63a384421d109d0d23eebe5d","rsvp1-task","true","0","","","","","null","<span></span>","null","iti","","","","","","","","","","","","","","",""
"","html-keyboard-response","9","163234","0.0-3.0-2.0-0.2","5c634094e30ff200016baccb","5c634094e30ff200016baccb","63a36e1df1afd18b014794e9","63a384421d109d0d23eebe5d","rsvp1-task","true","0","","","","","null","
					<div style='width: 900px;'>
					<div style='float: center;'><img src=img/nontarget_distractor198.jpeg  ></img>
					</div>
					","null","","","","","","","","","","","","","","","",""
"","html-keyboard-response","10","163331","0.0-3.0-2.0-1.2","5c634094e30ff200016baccb","5c634094e30ff200016baccb","63a36e1df1afd18b014794e9","63a384421d109d0d23eebe5d","rsvp1-task","true","0","","","","","null","<span></span>","null","iti","","","","","","","","","","","","","","",""
"","html-keyboard-response","11","163550","0.0-3.0-2.0-0.3","5c634094e30ff200016baccb","5c634094e30ff200016baccb","63a36e1df1afd18b014794e9","63a384421d109d0d23eebe5d","rsvp1-task","true","0","","","","","null","
					<div style='width: 900px;'>
					<div style='float: center;'><img src=img/nontarget_distractor44.jpeg  ></img>
					</div>
					","null","","","","","","","","","","","","","","","",""
"","html-keyboard-response","12","163651","0.0-3.0-2.0-1.3","5c634094e30ff200016baccb","5c634094e30ff200016baccb","63a36e1df1afd18b014794e9","63a384421d109d0d23eebe5d","rsvp1-task","true","0","","","","","null","<span></span>","null","iti","","","","","","","","","","","","","","",""
"","html-keyboard-response","13","163867","0.0-3.0-2.0-0.4","5c634094e30ff200016baccb","5c634094e30ff200016baccb","63a36e1df1afd18b014794e9","63a384421d109d0d23eebe5d","rsvp1-task","true","0","","","","","null","
					<div style='width: 900px;'>
					<div style='float: center;'><img src=img/nontarget_distractor171.jpeg  ></img>
					</div>
					","null","","","","","","","","","","","","","","","",""
"","html-keyboard-response","14","163966","0.0-3.0-2.0-1.4","5c634094e30ff200016baccb","5c634094e30ff200016baccb","63a36e1df1afd18b014794e9","63a384421d109d0d23eebe5d","rsvp1-task","true","0","","","","","null","<span></span>","null","iti","","","","","","","","","","","","","","",""
"","html-keyboard-response","15","164183","0.0-3.0-2.0-0.5","5c634094e30ff200016baccb","5c634094e30ff200016baccb","63a36e1df1afd18b014794e9","63a384421d109d0d23eebe5d","rsvp1-task","true","0","","","","","null","
					<div style='width: 900px;'>
					<div style='float: center;'><img src=img/nontarget_distractor60.jpeg  ></img>
					</div>
					","null","","","","","","","","","","","","","","","",""
"","html-keyboard-response","16","164288","0.0-3.0-2.0-1.5","5c634094e30ff200016baccb","5c634094e30ff200016baccb","63a36e1df1afd18b014794e9","63a384421d109d0d23eebe5d","rsvp1-task","true","0","","","","","null","<span></span>","null","iti","","","","","","","","","","","","","","",""
"","html-keyboard-response","17","164501","0.0-3.0-2.0-0.6","5c634094e30ff200016baccb","5c634094e30ff200016baccb","63a36e1df1afd18b014794e9","63a384421d109d0d23eebe5d","rsvp1-task","true","0","","","","","null","
					<div style='width: 900px;'>
					<div style='float: center;'><img src=img/nontarget_distractor216.jpeg  ></img>
					</div>
					","null","","","","","","","","","","","","","","","",""
"","html-keyboard-response","18","164600","0.0-3.0-2.0-1.6","5c634094e30ff200016baccb","5c634094e30ff200016baccb","63a36e1df1afd18b014794e9","63a384421d109d0d23eebe5d","rsvp1-task","true","0","","","","","null","<span></span>","null","iti","","","","","","","","","","","","","","",""
"","html-keyboard-response","19","164817","0.0-3.0-2.0-0.7","5c634094e30ff200016baccb","5c634094e30ff200016baccb","63a36e1df1afd18b014794e9","63a384421d109d0d23eebe5d","rsvp1-task","true","0","","","","","null","
					<div style='width: 900px;'>
					<div style='float: center;'><img src=img/nontarget_distractor13.jpeg  ></img>
					</div>
					","null","","","","","","","","","","","","","","","",""
"","html-keyboard-response","20","164915","0.0-3.0-2.0-1.7","5c634094e30ff200016baccb","5c634094e30ff200016baccb","63a36e1df1afd18b014794e9","63a384421d109d0d23eebe5d","rsvp1-task","true","0","","","","","null","<span></span>","null","iti","","","","","","","","","","","","","","",""
"","html-keyboard-response","21","165133","0.0-3.0-2.0-0.8","5c634094e30ff200016baccb","5c634094e30ff200016baccb","63a36e1df1afd18b014794e9","63a384421d109d0d23eebe5d","rsvp1-task","true","0","","","","","null","
					<div style='width: 900px;'>
					<div style='float: center;'><img src=img/nontarget_distractor213.jpeg  ></img>
					</div>
					","null","","","","","","","","","","","","","","","",""
"","html-keyboard-response","22","165230","0.0-3.0-2.0-1.8","5c634094e30ff200016baccb","5c634094e30ff200016baccb","63a36e1df1afd18b014794e9","63a384421d109d0d23eebe5d","rsvp1-task","true","0","","","","","null","<span></span>","null","iti","","","","","","","","","","","","","","",""
"","html-keyboard-response","23","165449","0.0-3.0-2.0-0.9","5c634094e30ff200016baccb","5c634094e30ff200016baccb","63a36e1df1afd18b014794e9","63a384421d109d0d23eebe5d","rsvp1-task","true","0","","","","","null","
					<div style='width: 900px;'>
					<div style='float: center;'><img src=img/t2_targets74.jpeg class=""rotateimgL""  ></img>
					</div>
					","null","","","","","","","","","","","","","","","",""
"","html-keyboard-response","24","165546","0.0-3.0-2.0-1.9","5c634094e30ff200016baccb","5c634094e30ff200016baccb","63a36e1df1afd18b014794e9","63a384421d109d0d23eebe5d","rsvp1-task","true","0","","","","","null","<span></span>","null","iti","","","","","","","","","","","","","","",""
"","html-keyboard-response","25","165767","0.0-3.0-2.0-0.10","5c634094e30ff200016baccb","5c634094e30ff200016baccb","63a36e1df1afd18b014794e9","63a384421d109d0d23eebe5d","rsvp1-task","true","0","","","","","null","
					<div style='width: 900px;'>
					<div style='float: center;'><img src=img/nontarget_distractor247.jpeg  ></img>
					</div>
					","null","","","","","","","","","","","","","","","",""
"","html-keyboard-response","26","165866","0.0-3.0-2.0-1.10","5c634094e30ff200016baccb","5c634094e30ff200016baccb","63a36e1df1afd18b014794e9","63a384421d109d0d23eebe5d","rsvp1-task","true","0","","","","","null","<span></span>","null","iti","","","","","","","","","","","","","","",""
"","html-keyboard-response","27","166082","0.0-3.0-2.0-0.11","5c634094e30ff200016baccb","5c634094e30ff200016baccb","63a36e1df1afd18b014794e9","63a384421d109d0d23eebe5d","rsvp1-task","true","0","","","","","null","
					<div style='width: 900px;'>
					<div style='float: center;'><img src=img/nontarget_distractor237.jpeg  ></img>
					</div>
					","null","","","","","","","","","","","","","","","",""
"","html-keyboard-response","28","166186","0.0-3.0-2.0-1.11","5c634094e30ff200016baccb","5c634094e30ff200016baccb","63a36e1df1afd18b014794e9","63a384421d109d0d23eebe5d","rsvp1-task","true","0","","","","","null","<span></span>","null","iti","","","","","","","","","","","","","","",""
"","html-keyboard-response","29","166399","0.0-3.0-2.0-0.12","5c634094e30ff200016baccb","5c634094e30ff200016baccb","63a36e1df1afd18b014794e9","63a384421d109d0d23eebe5d","rsvp1-task","true","0","","","","","null","
					<div style='width: 900px;'>
					<div style='float: center;'><img src=img/nontarget_distractor172.jpeg  ></img>
					</div>
					","null","","","","","","","","","","","","","","","",""
"","html-keyboard-response","30","166498","0.0-3.0-2.0-1.12","5c634094e30ff200016baccb","5c634094e30ff200016baccb","63a36e1df1afd18b014794e9","63a384421d109d0d23eebe5d","rsvp1-task","true","0","","","","","null","<span></span>","null","iti","","","","","","","","","","","","","","",""
"","html-keyboard-response","31","166715","0.0-3.0-2.0-0.13","5c634094e30ff200016baccb","5c634094e30ff200016baccb","63a36e1df1afd18b014794e9","63a384421d109d0d23eebe5d","rsvp1-task","true","0","","","","","null","
					<div style='width: 900px;'>
					<div style='float: center;'><img src=img/nontarget_distractor35.jpeg  ></img>
					</div>
					","null","","","","","","","","","","","","","","","",""
"","html-keyboard-response","32","166816","0.0-3.0-2.0-1.13","5c634094e30ff200016baccb","5c634094e30ff200016baccb","63a36e1df1afd18b014794e9","63a384421d109d0d23eebe5d","rsvp1-task","true","0","","","","","null","<span></span>","null","iti","","","","","","","","","","","","","","",""
"","html-keyboard-response","33","167032","0.0-3.0-2.0-0.14","5c634094e30ff200016baccb","5c634094e30ff200016baccb","63a36e1df1afd18b014794e9","63a384421d109d0d23eebe5d","rsvp1-task","true","0","","","","","null","
					<div style='width: 900px;'>
					<div style='float: center;'><img src=img/nontarget_distractor144.jpeg  ></img>
					</div>
					","null","","","","","","","","","","","","","","","",""
"","html-keyboard-response","34","167130","0.0-3.0-2.0-1.14","5c634094e30ff200016baccb","5c634094e30ff200016baccb","63a36e1df1afd18b014794e9","63a384421d109d0d23eebe5d","rsvp1-task","true","0","","","","","null","<span></span>","null","iti","","","","","","","","","","","","","","",""
"","html-keyboard-response","35","167348","0.0-3.0-2.0-0.15","5c634094e30ff200016baccb","5c634094e30ff200016baccb","63a36e1df1afd18b014794e9","63a384421d109d0d23eebe5d","rsvp1-task","true","0","","","","","null","
					<div style='width: 900px;'>
					<div style='float: center;'><img src=img/nontarget_distractor46.jpeg  ></img>
					</div>
					","null","","","","","","","","","","","","","","","",""
"","html-keyboard-response","36","167447","0.0-3.0-2.0-1.15","5c634094e30ff200016baccb","5c634094e30ff200016baccb","63a36e1df1afd18b014794e9","63a384421d109d0d23eebe5d","rsvp1-task","true","0","","","","","null","<span></span>","null","iti","","","","","","","","","","","","","","",""
"","html-keyboard-response","37","167665","0.0-3.0-2.0-0.16","5c634094e30ff200016baccb","5c634094e30ff200016baccb","63a36e1df1afd18b014794e9","63a384421d109d0d23eebe5d","rsvp1-task","true","0","","","","","null","
					<div style='width: 900px;'>
					<div style='float: center;'><img src=img/nontarget_distractor39.jpeg  ></img>
					</div>
					","null","","","","","","","","","","","","","","","",""
"","html-keyboard-response","38","167764","0.0-3.0-2.0-1.16","5c634094e30ff200016baccb","5c634094e30ff200016baccb","63a36e1df1afd18b014794e9","63a384421d109d0d23eebe5d","rsvp1-task","true","0","","","","","null","<span></span>","null","iti","","","","","","","","","","","","","","",""
"","html-keyboard-response","39","168595","0.0-3.0-3.0-0.0","5c634094e30ff200016baccb","5c634094e30ff200016baccb","63a36e1df1afd18b014794e9","63a384421d109d0d23eebe5d","rsvp1-task","true","0","","","","","830","<div class=""rsvp""> Was the rotated image rotated left (1 key) or right (0 key)?</div>","1","response","instructions","1","1","neutral","img/nontarget_distractor163.jpeg","img/nontarget_distractor247.jpeg","2","8","10","1","true","true","true","",""
"","html-keyboard-response","40","169611","0.0-3.0-4.0","5c634094e30ff200016baccb","5c634094e30ff200016baccb","63a36e1df1afd18b014794e9","63a384421d109d0d23eebe5d","rsvp1-task","true","0","","","","","null","Correct! </p> <p>  </p><p> ","null","","","","","","","","","","","","","","","main_T1_ITI",""
"","html-keyboard-response","41","175243","0.0-4.0","5c634094e30ff200016baccb","5c634094e30ff200016baccb","63a36e1df1afd18b014794e9","63a384421d109d0d23eebe5d","rsvp1-task","true","0","","","","","5632","<div class='instructions'><p>In the example you just saw, the images appeared quite slowly.</p><p>The real task is more challenging, as the images will appear much more rapidly. This will feel much harder! </p> First, you will complete a practice block. </p><p> <strong>You need to respond correctly on at least 75% of the practice trials to advance, so pay close attention! </strong> </p><p>Press any key to start the practice.</p></div>","0","instructions_2","","","","","","","","","","","","","","",""
"","html-keyboard-response","42","178248","0.0-5.0-0.0","5c634094e30ff200016baccb","5c634094e30ff200016baccb","63a36e1df1afd18b014794e9","63a384421d109d0d23eebe5d","rsvp1-task","true","0","","","","","null","<div class=""rsvp"">+</div>","null","fixation","","","","","","","","","","","","","","",""
"","html-keyboard-response","43","178507","0.0-5.0-1.0","5c634094e30ff200016baccb","5c634094e30ff200016baccb","63a36e1df1afd18b014794e9","63a384421d109d0d23eebe5d","rsvp1-task","true","0","","","","","null","<div class=""rsvp"" ></div>","null","blank","","","","","","","","","","","","","","",""
"","html-keyboard-response","44","178609","0.0-5.0-2.0-0.0","5c634094e30ff200016baccb","5c634094e30ff200016baccb","63a36e1df1afd18b014794e9","63a384421d109d0d23eebe5d","rsvp1-task","true","0","","","","","null","
					<div style='width: 900px;'>
					<div style='float: center;'><img src=img/nontarget_distractor58.jpeg  ></img>
					</div>
					","null","rsvp1","practice0","","","","","","","","","1","","","","","img/nontarget_distractor58.jpeg"
"","html-keyboard-response","45","178626","0.0-5.0-2.0-1.0","5c634094e30ff200016baccb","5c634094e30ff200016baccb","63a36e1df1afd18b014794e9","63a384421d109d0d23eebe5d","rsvp1-task","true","0","","","","","null","<span></span>","null","iti","","","","","","","","","","","","","","",""
"","html-keyboard-response","46","178743","0.0-5.0-2.0-0.1","5c634094e30ff200016baccb","5c634094e30ff200016baccb","63a36e1df1afd18b014794e9","63a384421d109d0d23eebe5d","rsvp1-task","true","0","","","","","null","
					<div style='width: 900px;'>
					<div style='float: center;'><img src=img/nontarget_distractor1.jpeg  ></img>
					</div>
					","null","rsvp1","practice0","","","","","","","","","1","","","","","img/nontarget_distractor1.jpeg"
"","html-keyboard-response","47","178760","0.0-5.0-2.0-1.1","5c634094e30ff200016baccb","5c634094e30ff200016baccb","63a36e1df1afd18b014794e9","63a384421d109d0d23eebe5d","rsvp1-task","true","0","","","","","null","<span></span>","null","iti","","","","","","","","","","","","","","",""
"","html-keyboard-response","48","178876","0.0-5.0-2.0-0.2","5c634094e30ff200016baccb","5c634094e30ff200016baccb","63a36e1df1afd18b014794e9","63a384421d109d0d23eebe5d","rsvp1-task","true","0","","","","","null","
					<div style='width: 900px;'>
					<div style='float: center;'><img src=img/nontarget_distractor170.jpeg  ></img>
					</div>
					","null","rsvp1","practice0","","","","","","","","","1","","","","","img/nontarget_distractor170.jpeg"
"","html-keyboard-response","49","178892","0.0-5.0-2.0-1.2","5c634094e30ff200016baccb","5c634094e30ff200016baccb","63a36e1df1afd18b014794e9","63a384421d109d0d23eebe5d","rsvp1-task","true","0","","","","","null","<span></span>","null","iti","","","","","","","","","","","","","","",""
"","html-keyboard-response","50","179010","0.0-5.0-2.0-0.3","5c634094e30ff200016baccb","5c634094e30ff200016baccb","63a36e1df1afd18b014794e9","63a384421d109d0d23eebe5d","rsvp1-task","true","0","","","","","null","
					<div style='width: 900px;'>
					<div style='float: center;'><img src=img/nontarget_distractor152.jpeg  ></img>
					</div>
					","null","rsvp1","practice0","","","","","","","","","1","","","","","img/nontarget_distractor152.jpeg"
"","html-keyboard-response","51","179025","0.0-5.0-2.0-1.3","5c634094e30ff200016baccb","5c634094e30ff200016baccb","63a36e1df1afd18b014794e9","63a384421d109d0d23eebe5d","rsvp1-task","true","0","","","","","null","<span></span>","null","iti","","","","","","","","","","","","","","",""
"","html-keyboard-response","52","179143","0.0-5.0-2.0-0.4","5c634094e30ff200016baccb","5c634094e30ff200016baccb","63a36e1df1afd18b014794e9","63a384421d109d0d23eebe5d","rsvp1-task","true","0","","","","","null","
					<div style='width: 900px;'>
					<div style='float: center;'><img src=img/nontarget_distractor64.jpeg  ></img>
					</div>
					","null","rsvp1","practice0","","","","","","","","","1","","","","","img/nontarget_distractor64.jpeg"
"","html-keyboard-response","53","179159","0.0-5.0-2.0-1.4","5c634094e30ff200016baccb","5c634094e30ff200016baccb","63a36e1df1afd18b014794e9","63a384421d109d0d23eebe5d","rsvp1-task","true","0","","","","","null","<span></span>","null","iti","","","","","","","","","","","","","","",""
"","html-keyboard-response","54","179275","0.0-5.0-2.0-0.5","5c634094e30ff200016baccb","5c634094e30ff200016baccb","63a36e1df1afd18b014794e9","63a384421d109d0d23eebe5d","rsvp1-task","true","0","","","","","null","
					<div style='width: 900px;'>
					<div style='float: center;'><img src=img/nontarget_distractor136.jpeg  ></img>
					</div>
					","null","rsvp1","practice0","","","","","","","","","1","","","","","img/nontarget_distractor136.jpeg"
"","html-keyboard-response","55","179292","0.0-5.0-2.0-1.5","5c634094e30ff200016baccb","5c634094e30ff200016baccb","63a36e1df1afd18b014794e9","63a384421d109d0d23eebe5d","rsvp1-task","true","0","","","","","null","<span></span>","null","iti","","","","","","","","","","","","","","",""
"","html-keyboard-response","56","179410","0.0-5.0-2.0-0.6","5c634094e30ff200016baccb","5c634094e30ff200016baccb","63a36e1df1afd18b014794e9","63a384421d109d0d23eebe5d","rsvp1-task","true","0","","","","","null","
					<div style='width: 900px;'>
					<div style='float: center;'><img src=img/nontarget_distractor242.jpeg  ></img>
					</div>
					","null","rsvp1","practice0","","","","","","","","","1","","","","","img/nontarget_distractor242.jpeg"
"","html-keyboard-response","57","179426","0.0-5.0-2.0-1.6","5c634094e30ff200016baccb","5c634094e30ff200016baccb","63a36e1df1afd18b014794e9","63a384421d109d0d23eebe5d","rsvp1-task","true","0","","","","","null","<span></span>","null","iti","","","","","","","","","","","","","","",""
"","html-keyboard-response","58","179542","0.0-5.0-2.0-0.7","5c634094e30ff200016baccb","5c634094e30ff200016baccb","63a36e1df1afd18b014794e9","63a384421d109d0d23eebe5d","rsvp1-task","true","0","","","","","null","
					<div style='width: 900px;'>
					<div style='float: center;'><img src=img/nontarget_distractor229.jpeg  ></img>
					</div>
					","null","rsvp1","practice0","","","","","","","","","1","","","","","img/nontarget_distractor229.jpeg"
"","html-keyboard-response","59","179559","0.0-5.0-2.0-1.7","5c634094e30ff200016baccb","5c634094e30ff200016baccb","63a36e1df1afd18b014794e9","63a384421d109d0d23eebe5d","rsvp1-task","true","0","","","","","null","<span></span>","null","iti","","","","","","","","","","","","","","",""
"","html-keyboard-response","60","179676","0.0-5.0-2.0-0.8","5c634094e30ff200016baccb","5c634094e30ff200016baccb","63a36e1df1afd18b014794e9","63a384421d109d0d23eebe5d","rsvp1-task","true","0","","","","","null","
					<div style='width: 900px;'>
					<div style='float: center;'><img src=img/nontarget_distractor80.jpeg  ></img>
					</div>
					","null","rsvp1","practice0","","","","","","","","","1","","","","","img/nontarget_distractor80.jpeg"
"","html-keyboard-response","61","179692","0.0-5.0-2.0-1.8","5c634094e30ff200016baccb","5c634094e30ff200016baccb","63a36e1df1afd18b014794e9","63a384421d109d0d23eebe5d","rsvp1-task","true","0","","","","","null","<span></span>","null","iti","","","","","","","","","","","","","","",""
"","html-keyboard-response","62","179809","0.0-5.0-2.0-0.9","5c634094e30ff200016baccb","5c634094e30ff200016baccb","63a36e1df1afd18b014794e9","63a384421d109d0d23eebe5d","rsvp1-task","true","0","","","","","null","
					<div style='width: 900px;'>
					<div style='float: center;'><img src=img/nontarget_distractor4.jpeg  ></img>
					</div>
					","null","rsvp1","practice0","","","","","","","","","1","","","","","img/nontarget_distractor4.jpeg"
"","html-keyboard-response","63","179825","0.0-5.0-2.0-1.9","5c634094e30ff200016baccb","5c634094e30ff200016baccb","63a36e1df1afd18b014794e9","63a384421d109d0d23eebe5d","rsvp1-task","true","0","","","","","null","<span></span>","null","iti","","","","","","","","","","","","","","",""
"","html-keyboard-response","64","179926","0.0-5.0-2.0-0.10","5c634094e30ff200016baccb","5c634094e30ff200016baccb","63a36e1df1afd18b014794e9","63a384421d109d0d23eebe5d","rsvp1-task","true","0","","","","","null","
					<div style='width: 900px;'>
					<div style='float: center;'><img src=img/nontarget_distractor46.jpeg  ></img>
					</div>
					","null","rsvp1","practice0","","","","","","","","","1","","","","","img/nontarget_distractor46.jpeg"
"","html-keyboard-response","65","179943","0.0-5.0-2.0-1.10","5c634094e30ff200016baccb","5c634094e30ff200016baccb","63a36e1df1afd18b014794e9","63a384421d109d0d23eebe5d","rsvp1-task","true","0","","","","","null","<span></span>","null","iti","","","","","","","","","","","","","","",""
"","html-keyboard-response","66","180058","0.0-5.0-2.0-0.11","5c634094e30ff200016baccb","5c634094e30ff200016baccb","63a36e1df1afd18b014794e9","63a384421d109d0d23eebe5d","rsvp1-task","true","0","","","","","null","
					<div style='width: 900px;'>
					<div style='float: center;'><img src=img/nontarget_distractor79.jpeg  ></img>
					</div>
					","null","rsvp1","practice0","","","","","","","","","1","","","","","img/nontarget_distractor79.jpeg"
"","html-keyboard-response","67","180075","0.0-5.0-2.0-1.11","5c634094e30ff200016baccb","5c634094e30ff200016baccb","63a36e1df1afd18b014794e9","63a384421d109d0d23eebe5d","rsvp1-task","true","0","","","","","null","<span></span>","null","iti","","","","","","","","","","","","","","",""
"","html-keyboard-response","68","180177","0.0-5.0-2.0-0.12","5c634094e30ff200016baccb","5c634094e30ff200016baccb","63a36e1df1afd18b014794e9","63a384421d109d0d23eebe5d","rsvp1-task","true","0","","","","","null","
					<div style='width: 900px;'>
					<div style='float: center;'><img src=img/nontarget_distractor240.jpeg  ></img>
					</div>
					","null","rsvp1","practice0","","","","","","","","","1","","","","","img/nontarget_distractor240.jpeg"
"","html-keyboard-response","69","180192","0.0-5.0-2.0-1.12","5c634094e30ff200016baccb","5c634094e30ff200016baccb","63a36e1df1afd18b014794e9","63a384421d109d0d23eebe5d","rsvp1-task","true","0","","","","","null","<span></span>","null","iti","","","","","","","","","","","","","","",""
"","html-keyboard-response","70","180309","0.0-5.0-2.0-0.13","5c634094e30ff200016baccb","5c634094e30ff200016baccb","63a36e1df1afd18b014794e9","63a384421d109d0d23eebe5d","rsvp1-task","true","0","","","","","null","
					<div style='width: 900px;'>
					<div style='float: center;'><img src=img/t2_targets134.jpeg class=""rotateimgL""  ></img>
					</div>
					","null","rsvp1","practice0","","","","","","","","","1","","","","","img/t2_targets134.jpeg class=""rotateimgL"""
"","html-keyboard-response","71","180325","0.0-5.0-2.0-1.13","5c634094e30ff200016baccb","5c634094e30ff200016baccb","63a36e1df1afd18b014794e9","63a384421d109d0d23eebe5d","rsvp1-task","true","0","","","","","null","<span></span>","null","iti","","","","","","","","","","","","","","",""
"","html-keyboard-response","72","180442","0.0-5.0-2.0-0.14","5c634094e30ff200016baccb","5c634094e30ff200016baccb","63a36e1df1afd18b014794e9","63a384421d109d0d23eebe5d","rsvp1-task","true","0","","","","","null","
					<div style='width: 900px;'>
					<div style='float: center;'><img src=img/nontarget_distractor217.jpeg  ></img>
					</div>
					","null","rsvp1","practice0","","","","","","","","","1","","","","","img/nontarget_distractor217.jpeg"
"","html-keyboard-response","73","180458","0.0-5.0-2.0-1.14","5c634094e30ff200016baccb","5c634094e30ff200016baccb","63a36e1df1afd18b014794e9","63a384421d109d0d23eebe5d","rsvp1-task","true","0","","","","","null","<span></span>","null","iti","","","","","","","","","","","","","","",""
"","html-keyboard-response","74","180560","0.0-5.0-2.0-0.15","5c634094e30ff200016baccb","5c634094e30ff200016baccb","63a36e1df1afd18b014794e9","63a384421d109d0d23eebe5d","rsvp1-task","true","0","","","","","null","
					<div style='width: 900px;'>
					<div style='float: center;'><img src=img/nontarget_distractor158.jpeg  ></img>
					</div>
					","null","rsvp1","practice0","","","","","","","","","1","","","","","img/nontarget_distractor158.jpeg"
"","html-keyboard-response","75","180576","0.0-5.0-2.0-1.15","5c634094e30ff200016baccb","5c634094e30ff200016baccb","63a36e1df1afd18b014794e9","63a384421d109d0d23eebe5d","rsvp1-task","true","0","","","","","null","<span></span>","null","iti","","","","","","","","","","","","","","",""
"","html-keyboard-response","76","180692","0.0-5.0-2.0-0.16","5c634094e30ff200016baccb","5c634094e30ff200016baccb","63a36e1df1afd18b014794e9","63a384421d109d0d23eebe5d","rsvp1-task","true","0","","","","","null","
					<div style='width: 900px;'>
					<div style='float: center;'><img src=img/nontarget_distractor42.jpeg  ></img>
					</div>
					","null","rsvp1","practice0","","","","","","","","","1","","","","","img/nontarget_distractor42.jpeg"
"","html-keyboard-response","77","180708","0.0-5.0-2.0-1.16","5c634094e30ff200016baccb","5c634094e30ff200016baccb","63a36e1df1afd18b014794e9","63a384421d109d0d23eebe5d","rsvp1-task","true","0","","","","","null","<span></span>","null","iti","","","","","","","","","","","","","","",""
"","html-keyboard-response","78","181526","0.0-5.0-3.0-0.0","5c634094e30ff200016baccb","5c634094e30ff200016baccb","63a36e1df1afd18b014794e9","63a384421d109d0d23eebe5d","rsvp1-task","true","0","","","","","816","<div class=""rsvp""> Was the rotated image rotated left (1 key) or right (0 key)?</div>","1","response","practice0","1","1","neutral","img/nontarget_distractor229.jpeg","img/nontarget_distractor217.jpeg","8","6","14","1","true","true","true","",""
"","html-keyboard-response","79","182541","0.0-5.0-4.0","5c634094e30ff200016baccb","5c634094e30ff200016baccb","63a36e1df1afd18b014794e9","63a384421d109d0d23eebe5d","rsvp1-task","true","0","","","","","null","Correct! </p> <p>  </p><p> ","null","","","","","","","","","","","","","","","main_T1_ITI",""
"","html-keyboard-response","80","184557","0.0-5.0-5.0","5c634094e30ff200016baccb","5c634094e30ff200016baccb","63a36e1df1afd18b014794e9","63a384421d109d0d23eebe5d","rsvp1-task","true","0","","","","","null","<div class=""rsvp"">+</div>","null","fixation","","","","","","","","","","","","","","",""
"","html-keyboard-response","81","184823","0.0-5.0-6.0","5c634094e30ff200016baccb","5c634094e30ff200016baccb","63a36e1df1afd18b014794e9","63a384421d109d0d23eebe5d","rsvp1-task","true","0","","","","","null","<div class=""rsvp"" ></div>","null","blank","","","","","","","","","","","","","","",""
"","html-keyboard-response","82","184939","0.0-5.0-7.0-0.0","5c634094e30ff200016baccb","5c634094e30ff200016baccb","63a36e1df1afd18b014794e9","63a384421d109d0d23eebe5d","rsvp1-task","true","0","","","","","null","
					<div style='width: 900px;'>
					<div style='float: center;'><img src=img/nontarget_distractor247.jpeg  ></img>
					</div>
					","null","rsvp1","practice0","","","","","","","","","2","","","","","img/nontarget_distractor247.jpeg"
"","html-keyboard-response","83","184956","0.0-5.0-7.0-1.0","5c634094e30ff200016baccb","5c634094e30ff200016baccb","63a36e1df1afd18b014794e9","63a384421d109d0d23eebe5d","rsvp1-task","true","0","","","","","null","<span></span>","null","iti","","","","","","","","","","","","","","",""
"","html-keyboard-response","84","185073","0.0-5.0-7.0-0.1","5c634094e30ff200016baccb","5c634094e30ff200016baccb","63a36e1df1afd18b014794e9","63a384421d109d0d23eebe5d","rsvp1-task","true","0","","","","","null","
					<div style='width: 900px;'>
					<div style='float: center;'><img src=img/nontarget_distractor180.jpeg  ></img>
					</div>
					","null","rsvp1","practice0","","","","","","","","","2","","","","","img/nontarget_distractor180.jpeg"
"","html-keyboard-response","85","185089","0.0-5.0-7.0-1.1","5c634094e30ff200016baccb","5c634094e30ff200016baccb","63a36e1df1afd18b014794e9","63a384421d109d0d23eebe5d","rsvp1-task","true","0","","","","","null","<span></span>","null","iti","","","","","","","","","","","","","","",""
"","html-keyboard-response","86","185207","0.0-5.0-7.0-0.2","5c634094e30ff200016baccb","5c634094e30ff200016baccb","63a36e1df1afd18b014794e9","63a384421d109d0d23eebe5d","rsvp1-task","true","0","","","","","null","
					<div style='width: 900px;'>
					<div style='float: center;'><img src=img/nontarget_distractor3.jpeg  ></img>
					</div>
					","null","rsvp1","practice0","","","","","","","","","2","","","","","img/nontarget_distractor3.jpeg"
"","html-keyboard-response","87","185223","0.0-5.0-7.0-1.2","5c634094e30ff200016baccb","5c634094e30ff200016baccb","63a36e1df1afd18b014794e9","63a384421d109d0d23eebe5d","rsvp1-task","true","0","","","","","null","<span></span>","null","iti","","","","","","","","","","","","","","",""
"","html-keyboard-response","88","185339","0.0-5.0-7.0-0.3","5c634094e30ff200016baccb","5c634094e30ff200016baccb","63a36e1df1afd18b014794e9","63a384421d109d0d23eebe5d","rsvp1-task","true","0","","","","","null","
					<div style='width: 900px;'>
					<div style='float: center;'><img src=img/nontarget_distractor174.jpeg  ></img>
					</div>
					","null","rsvp1","practice0","","","","","","","","","2","","","","","img/nontarget_distractor174.jpeg"
"","html-keyboard-response","89","185356","0.0-5.0-7.0-1.3","5c634094e30ff200016baccb","5c634094e30ff200016baccb","63a36e1df1afd18b014794e9","63a384421d109d0d23eebe5d","rsvp1-task","true","0","","","","","null","<span></span>","null","iti","","","","","","","","","","","","","","",""
"","html-keyboard-response","90","185473","0.0-5.0-7.0-0.4","5c634094e30ff200016baccb","5c634094e30ff200016baccb","63a36e1df1afd18b014794e9","63a384421d109d0d23eebe5d","rsvp1-task","true","0","","","","","null","
					<div style='width: 900px;'>
					<div style='float: center;'><img src=img/nontarget_distractor38.jpeg  ></img>
					</div>
					","null","rsvp1","practice0","","","","","","","","","2","","","","","img/nontarget_distractor38.jpeg"
"","html-keyboard-response","91","185490","0.0-5.0-7.0-1.4","5c634094e30ff200016baccb","5c634094e30ff200016baccb","63a36e1df1afd18b014794e9","63a384421d109d0d23eebe5d","rsvp1-task","true","0","","","","","null","<span></span>","null","iti","","","","","","","","","","","","","","",""
"","html-keyboard-response","92","185591","0.0-5.0-7.0-0.5","5c634094e30ff200016baccb","5c634094e30ff200016baccb","63a36e1df1afd18b014794e9","63a384421d109d0d23eebe5d","rsvp1-task","true","0","","","","","null","
					<div style='width: 900px;'>
					<div style='float: center;'><img src=img/nontarget_distractor60.jpeg  ></img>
					</div>
					","null","rsvp1","practice0","","","","","","","","","2","","","","","img/nontarget_distractor60.jpeg"
"","html-keyboard-response","93","185606","0.0-5.0-7.0-1.5","5c634094e30ff200016baccb","5c634094e30ff200016baccb","63a36e1df1afd18b014794e9","63a384421d109d0d23eebe5d","rsvp1-task","true","0","","","","","null","<span></span>","null","iti","","","","","","","","","","","","","","",""
"","html-keyboard-response","94","185708","0.0-5.0-7.0-0.6","5c634094e30ff200016baccb","5c634094e30ff200016baccb","63a36e1df1afd18b014794e9","63a384421d109d0d23eebe5d","rsvp1-task","true","0","","","","","null","
					<div style='width: 900px;'>
					<div style='float: center;'><img src=img/nontarget_distractor80.jpeg  ></img>
					</div>
					","null","rsvp1","practice0","","","","","","","","","2","","","","","img/nontarget_distractor80.jpeg"
"","html-keyboard-response","95","185723","0.0-5.0-7.0-1.6","5c634094e30ff200016baccb","5c634094e30ff200016baccb","63a36e1df1afd18b014794e9","63a384421d109d0d23eebe5d","rsvp1-task","true","0","","","","","null","<span></span>","null","iti","","","","","","","","","","","","","","",""
"","html-keyboard-response","96","185839","0.0-5.0-7.0-0.7","5c634094e30ff200016baccb","5c634094e30ff200016baccb","63a36e1df1afd18b014794e9","63a384421d109d0d23eebe5d","rsvp1-task","true","0","","","","","null","
					<div style='width: 900px;'>
					<div style='float: center;'><img src=img/nontarget_distractor217.jpeg  ></img>
					</div>
					","null","rsvp1","practice0","","","","","","","","","2","","","","","img/nontarget_distractor217.jpeg"
"","html-keyboard-response","97","185856","0.0-5.0-7.0-1.7","5c634094e30ff200016baccb","5c634094e30ff200016baccb","63a36e1df1afd18b014794e9","63a384421d109d0d23eebe5d","rsvp1-task","true","0","","","","","null","<span></span>","null","iti","","","","","","","","","","","","","","",""
"","html-keyboard-response","98","185957","0.0-5.0-7.0-0.8","5c634094e30ff200016baccb","5c634094e30ff200016baccb","63a36e1df1afd18b014794e9","63a384421d109d0d23eebe5d","rsvp1-task","true","0","","","","","null","
					<div style='width: 900px;'>
					<div style='float: center;'><img src=img/nontarget_distractor123.jpeg  ></img>
					</div>
					","null","rsvp1","practice0","","","","","","","","","2","","","","","img/nontarget_distractor123.jpeg"
"","html-keyboard-response","99","185973","0.0-5.0-7.0-1.8","5c634094e30ff200016baccb","5c634094e30ff200016baccb","63a36e1df1afd18b014794e9","63a384421d109d0d23eebe5d","rsvp1-task","true","0","","","","","null","<span></span>","null","iti","","","","","","","","","","","","","","",""
"","html-keyboard-response","100","186089","0.0-5.0-7.0-0.9","5c634094e30ff200016baccb","5c634094e30ff200016baccb","63a36e1df1afd18b014794e9","63a384421d109d0d23eebe5d","rsvp1-task","true","0","","","","","null","
					<div style='width: 900px;'>
					<div style='float: center;'><img src=img/nontarget_distractor13.jpeg  ></img>
					</div>
					","null","rsvp1","practice0","","","","","","","","","2","","","","","img/nontarget_distractor13.jpeg"
"","html-keyboard-response","101","186106","0.0-5.0-7.0-1.9","5c634094e30ff200016baccb","5c634094e30ff200016baccb","63a36e1df1afd18b014794e9","63a384421d109d0d23eebe5d","rsvp1-task","true","0","","","","","null","<span></span>","null","iti","","","","","","","","","","","","","","",""
"","html-keyboard-response","102","186207","0.0-5.0-7.0-0.10","5c634094e30ff200016baccb","5c634094e30ff200016baccb","63a36e1df1afd18b014794e9","63a384421d109d0d23eebe5d","rsvp1-task","true","0","","","","","null","
					<div style='width: 900px;'>
					<div style='float: center;'><img src=img/nontarget_distractor75.jpeg  ></img>
					</div>
					","null","rsvp1","practice0","","","","","","","","","2","","","","","img/nontarget_distractor75.jpeg"
"","html-keyboard-response","103","186223","0.0-5.0-7.0-1.10","5c634094e30ff200016baccb","5c634094e30ff200016baccb","63a36e1df1afd18b014794e9","63a384421d109d0d23eebe5d","rsvp1-task","true","0","","","","","null","<span></span>","null","iti","","","","","","","","","","","","","","",""
"","html-keyboard-response","104","186339","0.0-5.0-7.0-0.11","5c634094e30ff200016baccb","5c634094e30ff200016baccb","63a36e1df1afd18b014794e9","63a384421d109d0d23eebe5d","rsvp1-task","true","0","","","","","null","
					<div style='width: 900px;'>
					<div style='float: center;'><img src=img/nontarget_distractor78.jpeg  ></img>
					</div>
					","null","rsvp1","practice0","","","","","","","","","2","","","","","img/nontarget_distractor78.jpeg"
"","html-keyboard-response","105","186356","0.0-5.0-7.0-1.11","5c634094e30ff200016baccb","5c634094e30ff200016baccb","63a36e1df1afd18b014794e9","63a384421d109d0d23eebe5d","rsvp1-task","true","0","","","","","null","<span></span>","null","iti","","","","","","","","","","","","","","",""
"","html-keyboard-response","106","186472","0.0-5.0-7.0-0.12","5c634094e30ff200016baccb","5c634094e30ff200016baccb","63a36e1df1afd18b014794e9","63a384421d109d0d23eebe5d","rsvp1-task","true","0","","","","","null","
					<div style='width: 900px;'>
					<div style='float: center;'><img src=img/nontarget_distractor138.jpeg  ></img>
					</div>
					","null","rsvp1","practice0","","","","","","","","","2","","","","","img/nontarget_distractor138.jpeg"
"","html-keyboard-response","107","186489","0.0-5.0-7.0-1.12","5c634094e30ff200016baccb","5c634094e30ff200016baccb","63a36e1df1afd18b014794e9","63a384421d109d0d23eebe5d","rsvp1-task","true","0","","","","","null","<span></span>","null","iti","","","","","","","","","","","","","","",""
"","html-keyboard-response","108","186591","0.0-5.0-7.0-0.13","5c634094e30ff200016baccb","5c634094e30ff200016baccb","63a36e1df1afd18b014794e9","63a384421d109d0d23eebe5d","rsvp1-task","true","0","","","","","null","
					<div style='width: 900px;'>
					<div style='float: center;'><img src=img/nontarget_distractor109.jpeg  ></img>
					</div>
					","null","rsvp1","practice0","","","","","","","","","2","","","","","img/nontarget_distractor109.jpeg"
"","html-keyboard-response","109","186605","0.0-5.0-7.0-1.13","5c634094e30ff200016baccb","5c634094e30ff200016baccb","63a36e1df1afd18b014794e9","63a384421d109d0d23eebe5d","rsvp1-task","true","0","","","","","null","<span></span>","null","iti","","","","","","","","","","","","","","",""
"","html-keyboard-response","110","186722","0.0-5.0-7.0-0.14","5c634094e30ff200016baccb","5c634094e30ff200016baccb","63a36e1df1afd18b014794e9","63a384421d109d0d23eebe5d","rsvp1-task","true","0","","","","","null","
					<div style='width: 900px;'>
					<div style='float: center;'><img src=img/nontarget_distractor154.jpeg  ></img>
					</div>
					","null","rsvp1","practice0","","","","","","","","","2","","","","","img/nontarget_distractor154.jpeg"
"","html-keyboard-response","111","186739","0.0-5.0-7.0-1.14","5c634094e30ff200016baccb","5c634094e30ff200016baccb","63a36e1df1afd18b014794e9","63a384421d109d0d23eebe5d","rsvp1-task","true","0","","","","","null","<span></span>","null","iti","","","","","","","","","","","","","","",""
"","html-keyboard-response","112","186856","0.0-5.0-7.0-0.15","5c634094e30ff200016baccb","5c634094e30ff200016baccb","63a36e1df1afd18b014794e9","63a384421d109d0d23eebe5d","rsvp1-task","true","0","","","","","null","
					<div style='width: 900px;'>
					<div style='float: center;'><img src=img/t2_targets21.jpeg class=""rotateimgL""  ></img>
					</div>
					","null","rsvp1","practice0","","","","","","","","","2","","","","","img/t2_targets21.jpeg class=""rotateimgL"""
"","html-keyboard-response","113","186872","0.0-5.0-7.0-1.15","5c634094e30ff200016baccb","5c634094e30ff200016baccb","63a36e1df1afd18b014794e9","63a384421d109d0d23eebe5d","rsvp1-task","true","0","","","","","null","<span></span>","null","iti","","","","","","","","","","","","","","",""
"","html-keyboard-response","114","186989","0.0-5.0-7.0-0.16","5c634094e30ff200016baccb","5c634094e30ff200016baccb","63a36e1df1afd18b014794e9","63a384421d109d0d23eebe5d","rsvp1-task","true","0","","","","","null","
					<div style='width: 900px;'>
					<div style='float: center;'><img src=img/nontarget_distractor31.jpeg  ></img>
					</div>
					","null","rsvp1","practice0","","","","","","","","","2","","","","","img/nontarget_distractor31.jpeg"
"","html-keyboard-response","115","187005","0.0-5.0-7.0-1.16","5c634094e30ff200016baccb","5c634094e30ff200016baccb","63a36e1df1afd18b014794e9","63a384421d109d0d23eebe5d","rsvp1-task","true","0","","","","","null","<span></span>","null","iti","","","","","","","","","","","","","","",""
"","html-keyboard-response","116","187904","0.0-5.0-8.0-0.0","5c634094e30ff200016baccb","5c634094e30ff200016baccb","63a36e1df1afd18b014794e9","63a384421d109d0d23eebe5d","rsvp1-task","true","0","","","","","896","<div class=""rsvp""> Was the rotated image rotated left (1 key) or right (0 key)?</div>","1","response","practice0","1","1","neutral","img/nontarget_distractor217.jpeg","img/nontarget_distractor31.jpeg","8","8","16","2","true","true","true","",""
"","html-keyboard-response","117","188918","0.0-5.0-9.0","5c634094e30ff200016baccb","5c634094e30ff200016baccb","63a36e1df1afd18b014794e9","63a384421d109d0d23eebe5d","rsvp1-task","true","0","","","","","null","Correct! </p> <p>  </p><p> ","null","","","","","","","","","","","","","","","main_T1_ITI",""
"","html-keyboard-response","118","190934","0.0-5.0-10.0","5c634094e30ff200016baccb","5c634094e30ff200016baccb","63a36e1df1afd18b014794e9","63a384421d109d0d23eebe5d","rsvp1-task","true","0","","","","","null","<div class=""rsvp"">+</div>","null","fixation","","","","","","","","","","","","","","",""
"","html-keyboard-response","119","191190","0.0-5.0-11.0","5c634094e30ff200016baccb","5c634094e30ff200016baccb","63a36e1df1afd18b014794e9","63a384421d109d0d23eebe5d","rsvp1-task","true","0","","","","","null","<div class=""rsvp"" ></div>","null","blank","","","","","","","","","","","","","","",""
"","html-keyboard-response","120","191303","0.0-5.0-12.0-0.0","5c634094e30ff200016baccb","5c634094e30ff200016baccb","63a36e1df1afd18b014794e9","63a384421d109d0d23eebe5d","rsvp1-task","true","0","","","","","null","
					<div style='width: 900px;'>
					<div style='float: center;'><img src=img/nontarget_distractor155.jpeg  ></img>
					</div>
					","null","rsvp1","practice0","","","","","","","","","3","","","","","img/nontarget_distractor155.jpeg"
"","html-keyboard-response","121","191319","0.0-5.0-12.0-1.0","5c634094e30ff200016baccb","5c634094e30ff200016baccb","63a36e1df1afd18b014794e9","63a384421d109d0d23eebe5d","rsvp1-task","true","0","","","","","null","<span></span>","null","iti","","","","","","","","","","","","","","",""
"","html-keyboard-response","122","191437","0.0-5.0-12.0-0.1","5c634094e30ff200016baccb","5c634094e30ff200016baccb","63a36e1df1afd18b014794e9","63a384421d109d0d23eebe5d","rsvp1-task","true","0","","","","","null","
					<div style='width: 900px;'>
					<div style='float: center;'><img src=img/nontarget_distractor39.jpeg  ></img>
					</div>
					","null","rsvp1","practice0","","","","","","","","","3","","","","","img/nontarget_distractor39.jpeg"
"","html-keyboard-response","123","191453","0.0-5.0-12.0-1.1","5c634094e30ff200016baccb","5c634094e30ff200016baccb","63a36e1df1afd18b014794e9","63a384421d109d0d23eebe5d","rsvp1-task","true","0","","","","","null","<span></span>","null","iti","","","","","","","","","","","","","","",""
"","html-keyboard-response","124","191569","0.0-5.0-12.0-0.2","5c634094e30ff200016baccb","5c634094e30ff200016baccb","63a36e1df1afd18b014794e9","63a384421d109d0d23eebe5d","rsvp1-task","true","0","","","","","null","
					<div style='width: 900px;'>
					<div style='float: center;'><img src=img/nontarget_distractor157.jpeg  ></img>
					</div>
					","null","rsvp1","practice0","","","","","","","","","3","","","","","img/nontarget_distractor157.jpeg"
"","html-keyboard-response","125","191585","0.0-5.0-12.0-1.2","5c634094e30ff200016baccb","5c634094e30ff200016baccb","63a36e1df1afd18b014794e9","63a384421d109d0d23eebe5d","rsvp1-task","true","0","","","","","null","<span></span>","null","iti","","","","","","","","","","","","","","",""
"","html-keyboard-response","126","191703","0.0-5.0-12.0-0.3","5c634094e30ff200016baccb","5c634094e30ff200016baccb","63a36e1df1afd18b014794e9","63a384421d109d0d23eebe5d","rsvp1-task","true","0","","","","","null","
					<div style='width: 900px;'>
					<div style='float: center;'><img src=img/nontarget_distractor166.jpeg  ></img>
					</div>
					","null","rsvp1","practice0","","","","","","","","","3","","","","","img/nontarget_distractor166.jpeg"
"","html-keyboard-response","127","191720","0.0-5.0-12.0-1.3","5c634094e30ff200016baccb","5c634094e30ff200016baccb","63a36e1df1afd18b014794e9","63a384421d109d0d23eebe5d","rsvp1-task","true","0","","","","","null","<span></span>","null","iti","","","","","","","","","","","","","","",""
"","html-keyboard-response","128","191821","0.0-5.0-12.0-0.4","5c634094e30ff200016baccb","5c634094e30ff200016baccb","63a36e1df1afd18b014794e9","63a384421d109d0d23eebe5d","rsvp1-task","true","0","","","","","null","
					<div style='width: 900px;'>
					<div style='float: center;'><img src=img/nontarget_distractor182.jpeg  ></img>
					</div>
					","null","rsvp1","practice0","","","","","","","","","3","","","","","img/nontarget_distractor182.jpeg"
"","html-keyboard-response","129","191836","0.0-5.0-12.0-1.4","5c634094e30ff200016baccb","5c634094e30ff200016baccb","63a36e1df1afd18b014794e9","63a384421d109d0d23eebe5d","rsvp1-task","true","0","","","","","null","<span></span>","null","iti","","","","","","","","","","","","","","",""
"","html-keyboard-response","130","191938","0.0-5.0-12.0-0.5","5c634094e30ff200016baccb","5c634094e30ff200016baccb","63a36e1df1afd18b014794e9","63a384421d109d0d23eebe5d","rsvp1-task","true","0","","","","","null","
					<div style='width: 900px;'>
					<div style='float: center;'><img src=img/nontarget_distractor110.jpeg  ></img>
					</div>
					","null","rsvp1","practice0","","","","","","","","","3","","","","","img/nontarget_distractor110.jpeg"
"","html-keyboard-response","131","191952","0.0-5.0-12.0-1.5","5c634094e30ff200016baccb","5c634094e30ff200016baccb","63a36e1df1afd18b014794e9","63a384421d109d0d23eebe5d","rsvp1-task","true","0","","","","","null","<span></span>","null","iti","","","","","","","","","","","","","","",""
"","html-keyboard-response","132","192054","0.0-5.0-12.0-0.6","5c634094e30ff200016baccb","5c634094e30ff200016baccb","63a36e1df1afd18b014794e9","63a384421d109d0d23eebe5d","rsvp1-task","true","0","","","","","null","
					<div style='width: 900px;'>
					<div style='float: center;'><img src=img/nontarget_distractor2.jpeg  ></img>
					</div>
					","null","rsvp1","practice0","","","","","","","","","3","","","","","img/nontarget_distractor2.jpeg"
"","html-keyboard-response","133","192069","0.0-5.0-12.0-1.6","5c634094e30ff200016baccb","5c634094e30ff200016baccb","63a36e1df1afd18b014794e9","63a384421d109d0d23eebe5d","rsvp1-task","true","0","","","","","null","<span></span>","null","iti","","","","","","","","","","","","","","",""
"","html-keyboard-response","134","192187","0.0-5.0-12.0-0.7","5c634094e30ff200016baccb","5c634094e30ff200016baccb","63a36e1df1afd18b014794e9","63a384421d109d0d23eebe5d","rsvp1-task","true","0","","","","","null","
					<div style='width: 900px;'>
					<div style='float: center;'><img src=img/nontarget_distractor112.jpeg  ></img>
					</div>
					","null","rsvp1","practice0","","","","","","","","","3","","","","","img/nontarget_distractor112.jpeg"
"","html-keyboard-response","135","192203","0.0-5.0-12.0-1.7","5c634094e30ff200016baccb","5c634094e30ff200016baccb","63a36e1df1afd18b014794e9","63a384421d109d0d23eebe5d","rsvp1-task","true","0","","","","","null","<span></span>","null","iti","","","","","","","","","","","","","","",""
"","html-keyboard-response","136","192320","0.0-5.0-12.0-0.8","5c634094e30ff200016baccb","5c634094e30ff200016baccb","63a36e1df1afd18b014794e9","63a384421d109d0d23eebe5d","rsvp1-task","true","0","","","","","null","
					<div style='width: 900px;'>
					<div style='float: center;'><img src=img/t2_targets192.jpeg class=""rotateimgR""  ></img>
					</div>
					","null","rsvp1","practice0","","","","","","","","","3","","","","","img/t2_targets192.jpeg class=""rotateimgR"""
"","html-keyboard-response","137","192337","0.0-5.0-12.0-1.8","5c634094e30ff200016baccb","5c634094e30ff200016baccb","63a36e1df1afd18b014794e9","63a384421d109d0d23eebe5d","rsvp1-task","true","0","","","","","null","<span></span>","null","iti","","","","","","","","","","","","","","",""
"","html-keyboard-response","138","192453","0.0-5.0-12.0-0.9","5c634094e30ff200016baccb","5c634094e30ff200016baccb","63a36e1df1afd18b014794e9","63a384421d109d0d23eebe5d","rsvp1-task","true","0","","","","","null","
					<div style='width: 900px;'>
					<div style='float: center;'><img src=img/nontarget_distractor248.jpeg  ></img>
					</div>
					","null","rsvp1","practice0","","","","","","","","","3","","","","","img/nontarget_distractor248.jpeg"
"","html-keyboard-response","139","192469","0.0-5.0-12.0-1.9","5c634094e30ff200016baccb","5c634094e30ff200016baccb","63a36e1df1afd18b014794e9","63a384421d109d0d23eebe5d","rsvp1-task","true","0","","","","","null","<span></span>","null","iti","","","","","","","","","","","","","","",""
"","html-keyboard-response","140","192586","0.0-5.0-12.0-0.10","5c634094e30ff200016baccb","5c634094e30ff200016baccb","63a36e1df1afd18b014794e9","63a384421d109d0d23eebe5d","rsvp1-task","true","0","","","","","null","
					<div style='width: 900px;'>
					<div style='float: center;'><img src=img/nontarget_distractor194.jpeg  ></img>
					</div>
					","null","rsvp1","practice0","","","","","","","","","3","","","","","img/nontarget_distractor194.jpeg"
"","html-keyboard-response","141","192603","0.0-5.0-12.0-1.10","5c634094e30ff200016baccb","5c634094e30ff200016baccb","63a36e1df1afd18b014794e9","63a384421d109d0d23eebe5d","rsvp1-task","true","0","","","","","null","<span></span>","null","iti","","","","","","","","","","","","","","",""
"","html-keyboard-response","142","192720","0.0-5.0-12.0-0.11","5c634094e30ff200016baccb","5c634094e30ff200016baccb","63a36e1df1afd18b014794e9","63a384421d109d0d23eebe5d","rsvp1-task","true","0","","","","","null","
					<div style='width: 900px;'>
					<div style='float: center;'><img src=img/nontarget_distractor107.jpeg  ></img>
					</div>
					","null","rsvp1","practice0","","","","","","","","","3","","","","","img/nontarget_distractor107.jpeg"
"","html-keyboard-response","143","192736","0.0-5.0-12.0-1.11","5c634094e30ff200016baccb","5c634094e30ff200016baccb","63a36e1df1afd18b014794e9","63a384421d109d0d23eebe5d","rsvp1-task","true","0","","","","","null","<span></span>","null","iti","","","","","","","","","","","","","","",""
"","html-keyboard-response","144","192853","0.0-5.0-12.0-0.12","5c634094e30ff200016baccb","5c634094e30ff200016baccb","63a36e1df1afd18b014794e9","63a384421d109d0d23eebe5d","rsvp1-task","true","0","","","","","null","
					<div style='width: 900px;'>
					<div style='float: center;'><img src=img/nontarget_distractor123.jpeg  ></img>
					</div>
					","null","rsvp1","practice0","","","","","","","","","3","","","","","img/nontarget_distractor123.jpeg"
"","html-keyboard-response","145","192869","0.0-5.0-12.0-1.12","5c634094e30ff200016baccb","5c634094e30ff200016baccb","63a36e1df1afd18b014794e9","63a384421d109d0d23eebe5d","rsvp1-task","true","0","","","","","null","<span></span>","null","iti","","","","","","","","","","","","","","",""
"","html-keyboard-response","146","192986","0.0-5.0-12.0-0.13","5c634094e30ff200016baccb","5c634094e30ff200016baccb","63a36e1df1afd18b014794e9","63a384421d109d0d23eebe5d","rsvp1-task","true","0","","","","","null","
					<div style='width: 900px;'>
					<div style='float: center;'><img src=img/nontarget_distractor149.jpeg  ></img>
					</div>
					","null","rsvp1","practice0","","","","","","","","","3","","","","","img/nontarget_distractor149.jpeg"
"","html-keyboard-response","147","193002","0.0-5.0-12.0-1.13","5c634094e30ff200016baccb","5c634094e30ff200016baccb","63a36e1df1afd18b014794e9","63a384421d109d0d23eebe5d","rsvp1-task","true","0","","","","","null","<span></span>","null","iti","","","","","","","","","","","","","","",""
"","html-keyboard-response","148","193119","0.0-5.0-12.0-0.14","5c634094e30ff200016baccb","5c634094e30ff200016baccb","63a36e1df1afd18b014794e9","63a384421d109d0d23eebe5d","rsvp1-task","true","0","","","","","null","
					<div style='width: 900px;'>
					<div style='float: center;'><img src=img/nontarget_distractor119.jpeg  ></img>
					</div>
					","null","rsvp1","practice0","","","","","","","","","3","","","","","img/nontarget_distractor119.jpeg"
"","html-keyboard-response","149","193136","0.0-5.0-12.0-1.14","5c634094e30ff200016baccb","5c634094e30ff200016baccb","63a36e1df1afd18b014794e9","63a384421d109d0d23eebe5d","rsvp1-task","true","0","","","","","null","<span></span>","null","iti","","","","","","","","","","","","","","",""
"","html-keyboard-response","150","193237","0.0-5.0-12.0-0.15","5c634094e30ff200016baccb","5c634094e30ff200016baccb","63a36e1df1afd18b014794e9","63a384421d109d0d23eebe5d","rsvp1-task","true","0","","","","","null","
					<div style='width: 900px;'>
					<div style='float: center;'><img src=img/nontarget_distractor108.jpeg  ></img>
					</div>
					","null","rsvp1","practice0","","","","","","","","","3","","","","","img/nontarget_distractor108.jpeg"
"","html-keyboard-response","151","193253","0.0-5.0-12.0-1.15","5c634094e30ff200016baccb","5c634094e30ff200016baccb","63a36e1df1afd18b014794e9","63a384421d109d0d23eebe5d","rsvp1-task","true","0","","","","","null","<span></span>","null","iti","","","","","","","","","","","","","","",""
"","html-keyboard-response","152","193353","0.0-5.0-12.0-0.16","5c634094e30ff200016baccb","5c634094e30ff200016baccb","63a36e1df1afd18b014794e9","63a384421d109d0d23eebe5d","rsvp1-task","true","0","","","","","null","
					<div style='width: 900px;'>
					<div style='float: center;'><img src=img/nontarget_distractor178.jpeg  ></img>
					</div>
					","null","rsvp1","practice0","","","","","","","","","3","","","","","img/nontarget_distractor178.jpeg"
"","html-keyboard-response","153","193369","0.0-5.0-12.0-1.16","5c634094e30ff200016baccb","5c634094e30ff200016baccb","63a36e1df1afd18b014794e9","63a384421d109d0d23eebe5d","rsvp1-task","true","0","","","","","null","<span></span>","null","iti","","","","","","","","","","","","","","",""
"","html-keyboard-response","154","193866","0.0-5.0-13.0-0.0","5c634094e30ff200016baccb","5c634094e30ff200016baccb","63a36e1df1afd18b014794e9","63a384421d109d0d23eebe5d","rsvp1-task","true","0","","","","","495","<div class=""rsvp""> Was the rotated image rotated left (1 key) or right (0 key)?</div>","0","response","practice0","0","0","neutral","img/nontarget_distractor112.jpeg","img/nontarget_distractor248.jpeg","8","1","9","3","true","true","true","",""
"","html-keyboard-response","155","194869","0.0-5.0-14.0","5c634094e30ff200016baccb","5c634094e30ff200016baccb","63a36e1df1afd18b014794e9","63a384421d109d0d23eebe5d","rsvp1-task","true","0","","","","","null","Correct! </p> <p>  </p><p> ","null","","","","","","","","","","","","","","","main_T1_ITI",""
"","html-keyboard-response","156","196884","0.0-5.0-15.0","5c634094e30ff200016baccb","5c634094e30ff200016baccb","63a36e1df1afd18b014794e9","63a384421d109d0d23eebe5d","rsvp1-task","true","0","","","","","null","<div class=""rsvp"">+</div>","null","fixation","","","","","","","","","","","","","","",""
"","html-keyboard-response","157","197149","0.0-5.0-16.0","5c634094e30ff200016baccb","5c634094e30ff200016baccb","63a36e1df1afd18b014794e9","63a384421d109d0d23eebe5d","rsvp1-task","true","0","","","","","null","<div class=""rsvp"" ></div>","null","blank","","","","","","","","","","","","","","",""
"","html-keyboard-response","158","197251","0.0-5.0-17.0-0.0","5c634094e30ff200016baccb","5c634094e30ff200016baccb","63a36e1df1afd18b014794e9","63a384421d109d0d23eebe5d","rsvp1-task","true","0","","","","","null","
					<div style='width: 900px;'>
					<div style='float: center;'><img src=img/nontarget_distractor64.jpeg  ></img>
					</div>
					","null","rsvp1","practice0","","","","","","","","","4","","","","","img/nontarget_distractor64.jpeg"
"","html-keyboard-response","159","197267","0.0-5.0-17.0-1.0","5c634094e30ff200016baccb","5c634094e30ff200016baccb","63a36e1df1afd18b014794e9","63a384421d109d0d23eebe5d","rsvp1-task","true","0","","","","","null","<span></span>","null","iti","","","","","","","","","","","","","","",""
"","html-keyboard-response","160","197384","0.0-5.0-17.0-0.1","5c634094e30ff200016baccb","5c634094e30ff200016baccb","63a36e1df1afd18b014794e9","63a384421d109d0d23eebe5d","rsvp1-task","true","0","","","","","null","
					<div style='width: 900px;'>
					<div style='float: center;'><img src=img/nontarget_distractor42.jpeg  ></img>
					</div>
					","null","rsvp1","practice0","","","","","","","","","4","","","","","img/nontarget_distractor42.jpeg"
"","html-keyboard-response","161","197400","0.0-5.0-17.0-1.1","5c634094e30ff200016baccb","5c634094e30ff200016baccb","63a36e1df1afd18b014794e9","63a384421d109d0d23eebe5d","rsvp1-task","true","0","","","","","null","<span></span>","null","iti","","","","","","","","","","","","","","",""
"","html-keyboard-response","162","197517","0.0-5.0-17.0-0.2","5c634094e30ff200016baccb","5c634094e30ff200016baccb","63a36e1df1afd18b014794e9","63a384421d109d0d23eebe5d","rsvp1-task","true","0","","","","","null","
					<div style='width: 900px;'>
					<div style='float: center;'><img src=img/nontarget_distractor193.jpeg  ></img>
					</div>
					","null","rsvp1","practice0","","","","","","","","","4","","","","","img/nontarget_distractor193.jpeg"
"","html-keyboard-response","163","197534","0.0-5.0-17.0-1.2","5c634094e30ff200016baccb","5c634094e30ff200016baccb","63a36e1df1afd18b014794e9","63a384421d109d0d23eebe5d","rsvp1-task","true","0","","","","","null","<span></span>","null","iti","","","","","","","","","","","","","","",""
"","html-keyboard-response","164","197650","0.0-5.0-17.0-0.3","5c634094e30ff200016baccb","5c634094e30ff200016baccb","63a36e1df1afd18b014794e9","63a384421d109d0d23eebe5d","rsvp1-task","true","0","","","","","null","
					<div style='width: 900px;'>
					<div style='float: center;'><img src=img/nontarget_distractor19.jpeg  ></img>
					</div>
					","null","rsvp1","practice0","","","","","","","","","4","","","","","img/nontarget_distractor19.jpeg"
"","html-keyboard-response","165","197667","0.0-5.0-17.0-1.3","5c634094e30ff200016baccb","5c634094e30ff200016baccb","63a36e1df1afd18b014794e9","63a384421d109d0d23eebe5d","rsvp1-task","true","0","","","","","null","<span></span>","null","iti","","","","","","","","","","","","","","",""
"","html-keyboard-response","166","197783","0.0-5.0-17.0-0.4","5c634094e30ff200016baccb","5c634094e30ff200016baccb","63a36e1df1afd18b014794e9","63a384421d109d0d23eebe5d","rsvp1-task","true","0","","","","","null","
					<div style='width: 900px;'>
					<div style='float: center;'><img src=img/nontarget_distractor24.jpeg  ></img>
					</div>
					","null","rsvp1","practice0","","","","","","","","","4","","","","","img/nontarget_distractor24.jpeg"
"","html-keyboard-response","167","197800","0.0-5.0-17.0-1.4","5c634094e30ff200016baccb","5c634094e30ff200016baccb","63a36e1df1afd18b014794e9","63a384421d109d0d23eebe5d","rsvp1-task","true","0","","","","","null","<span></span>","null","iti","","","","","","","","","","","","","","",""
"","html-keyboard-response","168","197917","0.0-5.0-17.0-0.5","5c634094e30ff200016baccb","5c634094e30ff200016baccb","63a36e1df1afd18b014794e9","63a384421d109d0d23eebe5d","rsvp1-task","true","0","","","","","null","
					<div style='width: 900px;'>
					<div style='float: center;'><img src=img/nontarget_distractor246.jpeg  ></img>
					</div>
					","null","rsvp1","practice0","","","","","","","","","4","","","","","img/nontarget_distractor246.jpeg"
"","html-keyboard-response","169","197933","0.0-5.0-17.0-1.5","5c634094e30ff200016baccb","5c634094e30ff200016baccb","63a36e1df1afd18b014794e9","63a384421d109d0d23eebe5d","rsvp1-task","true","0","","","","","null","<span></span>","null","iti","","","","","","","","","","","","","","",""
"","html-keyboard-response","170","198049","0.0-5.0-17.0-0.6","5c634094e30ff200016baccb","5c634094e30ff200016baccb","63a36e1df1afd18b014794e9","63a384421d109d0d23eebe5d","rsvp1-task","true","0","","","","","null","
					<div style='width: 900px;'>
					<div style='float: center;'><img src=img/nontarget_distractor247.jpeg  ></img>
					</div>
					","null","rsvp1","practice0","","","","","","","","","4","","","","","img/nontarget_distractor247.jpeg"
"","html-keyboard-response","171","198066","0.0-5.0-17.0-1.6","5c634094e30ff200016baccb","5c634094e30ff200016baccb","63a36e1df1afd18b014794e9","63a384421d109d0d23eebe5d","rsvp1-task","true","0","","","","","null","<span></span>","null","iti","","","","","","","","","","","","","","",""
"","html-keyboard-response","172","198183","0.0-5.0-17.0-0.7","5c634094e30ff200016baccb","5c634094e30ff200016baccb","63a36e1df1afd18b014794e9","63a384421d109d0d23eebe5d","rsvp1-task","true","0","","","","","null","
					<div style='width: 900px;'>
					<div style='float: center;'><img src=img/nontarget_distractor33.jpeg  ></img>
					</div>
					","null","rsvp1","practice0","","","","","","","","","4","","","","","img/nontarget_distractor33.jpeg"
"","html-keyboard-response","173","198199","0.0-5.0-17.0-1.7","5c634094e30ff200016baccb","5c634094e30ff200016baccb","63a36e1df1afd18b014794e9","63a384421d109d0d23eebe5d","rsvp1-task","true","0","","","","","null","<span></span>","null","iti","","","","","","","","","","","","","","",""
"","html-keyboard-response","174","198317","0.0-5.0-17.0-0.8","5c634094e30ff200016baccb","5c634094e30ff200016baccb","63a36e1df1afd18b014794e9","63a384421d109d0d23eebe5d","rsvp1-task","true","0","","","","","null","
					<div style='width: 900px;'>
					<div style='float: center;'><img src=img/nontarget_distractor163.jpeg  ></img>
					</div>
					","null","rsvp1","practice0","","","","","","","","","4","","","","","img/nontarget_distractor163.jpeg"
"","html-keyboard-response","175","198333","0.0-5.0-17.0-1.8","5c634094e30ff200016baccb","5c634094e30ff200016baccb","63a36e1df1afd18b014794e9","63a384421d109d0d23eebe5d","rsvp1-task","true","0","","","","","null","<span></span>","null","iti","","","","","","","","","","","","","","",""
"","html-keyboard-response","176","198449","0.0-5.0-17.0-0.9","5c634094e30ff200016baccb","5c634094e30ff200016baccb","63a36e1df1afd18b014794e9","63a384421d109d0d23eebe5d","rsvp1-task","true","0","","","","","null","
					<div style='width: 900px;'>
					<div style='float: center;'><img src=img/nontarget_distractor59.jpeg  ></img>
					</div>
					","null","rsvp1","practice0","","","","","","","","","4","","","","","img/nontarget_distractor59.jpeg"
"","html-keyboard-response","177","198466","0.0-5.0-17.0-1.9","5c634094e30ff200016baccb","5c634094e30ff200016baccb","63a36e1df1afd18b014794e9","63a384421d109d0d23eebe5d","rsvp1-task","true","0","","","","","null","<span></span>","null","iti","","","","","","","","","","","","","","",""
"","html-keyboard-response","178","198583","0.0-5.0-17.0-0.10","5c634094e30ff200016baccb","5c634094e30ff200016baccb","63a36e1df1afd18b014794e9","63a384421d109d0d23eebe5d","rsvp1-task","true","0","","","","","null","
					<div style='width: 900px;'>
					<div style='float: center;'><img src=img/nontarget_distractor204.jpeg  ></img>
					</div>
					","null","rsvp1","practice0","","","","","","","","","4","","","","","img/nontarget_distractor204.jpeg"
"","html-keyboard-response","179","198599","0.0-5.0-17.0-1.10","5c634094e30ff200016baccb","5c634094e30ff200016baccb","63a36e1df1afd18b014794e9","63a384421d109d0d23eebe5d","rsvp1-task","true","0","","","","","null","<span></span>","null","iti","","","","","","","","","","","","","","",""
"","html-keyboard-response","180","198716","0.0-5.0-17.0-0.11","5c634094e30ff200016baccb","5c634094e30ff200016baccb","63a36e1df1afd18b014794e9","63a384421d109d0d23eebe5d","rsvp1-task","true","0","","","","","null","
					<div style='width: 900px;'>
					<div style='float: center;'><img src=img/nontarget_distractor241.jpeg  ></img>
					</div>
					","null","rsvp1","practice0","","","","","","","","","4","","","","","img/nontarget_distractor241.jpeg"
"","html-keyboard-response","181","198733","0.0-5.0-17.0-1.11","5c634094e30ff200016baccb","5c634094e30ff200016baccb","63a36e1df1afd18b014794e9","63a384421d109d0d23eebe5d","rsvp1-task","true","0","","","","","null","<span></span>","null","iti","","","","","","","","","","","","","","",""
"","html-keyboard-response","182","198849","0.0-5.0-17.0-0.12","5c634094e30ff200016baccb","5c634094e30ff200016baccb","63a36e1df1afd18b014794e9","63a384421d109d0d23eebe5d","rsvp1-task","true","0","","","","","null","
					<div style='width: 900px;'>
					<div style='float: center;'><img src=img/t2_targets168.jpeg class=""rotateimgR""  ></img>
					</div>
					","null","rsvp1","practice0","","","","","","","","","4","","","","","img/t2_targets168.jpeg class=""rotateimgR"""
"","html-keyboard-response","183","198866","0.0-5.0-17.0-1.12","5c634094e30ff200016baccb","5c634094e30ff200016baccb","63a36e1df1afd18b014794e9","63a384421d109d0d23eebe5d","rsvp1-task","true","0","","","","","null","<span></span>","null","iti","","","","","","","","","","","","","","",""
"","html-keyboard-response","184","198982","0.0-5.0-17.0-0.13","5c634094e30ff200016baccb","5c634094e30ff200016baccb","63a36e1df1afd18b014794e9","63a384421d109d0d23eebe5d","rsvp1-task","true","0","","","","","null","
					<div style='width: 900px;'>
					<div style='float: center;'><img src=img/nontarget_distractor122.jpeg  ></img>
					</div>
					","null","rsvp1","practice0","","","","","","","","","4","","","","","img/nontarget_distractor122.jpeg"
"","html-keyboard-response","185","198999","0.0-5.0-17.0-1.13","5c634094e30ff200016baccb","5c634094e30ff200016baccb","63a36e1df1afd18b014794e9","63a384421d109d0d23eebe5d","rsvp1-task","true","0","","","","","null","<span></span>","null","iti","","","","","","","","","","","","","","",""
"","html-keyboard-response","186","199116","0.0-5.0-17.0-0.14","5c634094e30ff200016baccb","5c634094e30ff200016baccb","63a36e1df1afd18b014794e9","63a384421d109d0d23eebe5d","rsvp1-task","true","0","","","","","null","
					<div style='width: 900px;'>
					<div style='float: center;'><img src=img/nontarget_distractor104.jpeg  ></img>
					</div>
					","null","rsvp1","practice0","","","","","","","","","4","","","","","img/nontarget_distractor104.jpeg"
"","html-keyboard-response","187","199133","0.0-5.0-17.0-1.14","5c634094e30ff200016baccb","5c634094e30ff200016baccb","63a36e1df1afd18b014794e9","63a384421d109d0d23eebe5d","rsvp1-task","true","0","","","","","null","<span></span>","null","iti","","","","","","","","","","","","","","",""
"","html-keyboard-response","188","199248","0.0-5.0-17.0-0.15","5c634094e30ff200016baccb","5c634094e30ff200016baccb","63a36e1df1afd18b014794e9","63a384421d109d0d23eebe5d","rsvp1-task","true","0","","","","","null","
					<div style='width: 900px;'>
					<div style='float: center;'><img src=img/nontarget_distractor52.jpeg  ></img>
					</div>
					","null","rsvp1","practice0","","","","","","","","","4","","","","","img/nontarget_distractor52.jpeg"
"","html-keyboard-response","189","199266","0.0-5.0-17.0-1.15","5c634094e30ff200016baccb","5c634094e30ff200016baccb","63a36e1df1afd18b014794e9","63a384421d109d0d23eebe5d","rsvp1-task","true","0","","","","","null","<span></span>","null","iti","","","","","","","","","","","","","","",""
"","html-keyboard-response","190","199382","0.0-5.0-17.0-0.16","5c634094e30ff200016baccb","5c634094e30ff200016baccb","63a36e1df1afd18b014794e9","63a384421d109d0d23eebe5d","rsvp1-task","true","0","","","","","null","
					<div style='width: 900px;'>
					<div style='float: center;'><img src=img/nontarget_distractor234.jpeg  ></img>
					</div>
					","null","rsvp1","practice0","","","","","","","","","4","","","","","img/nontarget_distractor234.jpeg"
"","html-keyboard-response","191","199399","0.0-5.0-17.0-1.16","5c634094e30ff200016baccb","5c634094e30ff200016baccb","63a36e1df1afd18b014794e9","63a384421d109d0d23eebe5d","rsvp1-task","true","0","","","","","null","<span></span>","null","iti","","","","","","","","","","","","","","",""
"","html-keyboard-response","192","199819","0.0-5.0-18.0-0.0","5c634094e30ff200016baccb","5c634094e30ff200016baccb","63a36e1df1afd18b014794e9","63a384421d109d0d23eebe5d","rsvp1-task","true","0","","","","","419","<div class=""rsvp""> Was the rotated image rotated left (1 key) or right (0 key)?</div>","0","response","practice0","0","0","neutral","img/nontarget_distractor33.jpeg","img/nontarget_distractor122.jpeg","8","5","13","4","true","true","true","",""
"","html-keyboard-response","193","200824","0.0-5.0-19.0","5c634094e30ff200016baccb","5c634094e30ff200016baccb","63a36e1df1afd18b014794e9","63a384421d109d0d23eebe5d","rsvp1-task","true","0","","","","","null","Correct! </p> <p>  </p><p> ","null","","","","","","","","","","","","","","","main_T1_ITI",""
"","html-keyboard-response","194","202825","0.0-5.0-20.0","5c634094e30ff200016baccb","5c634094e30ff200016baccb","63a36e1df1afd18b014794e9","63a384421d109d0d23eebe5d","rsvp1-task","true","0","","","","","null","<div class=""rsvp"">+</div>","null","fixation","","","","","","","","","","","","","","",""
"","html-keyboard-response","195","203079","0.0-5.0-21.0","5c634094e30ff200016baccb","5c634094e30ff200016baccb","63a36e1df1afd18b014794e9","63a384421d109d0d23eebe5d","rsvp1-task","true","0","","","","","null","<div class=""rsvp"" ></div>","null","blank","","","","","","","","","","","","","","",""
"","html-keyboard-response","196","203180","0.0-5.0-22.0-0.0","5c634094e30ff200016baccb","5c634094e30ff200016baccb","63a36e1df1afd18b014794e9","63a384421d109d0d23eebe5d","rsvp1-task","true","0","","","","","null","
					<div style='width: 900px;'>
					<div style='float: center;'><img src=img/nontarget_distractor236.jpeg  ></img>
					</div>
					","null","rsvp1","practice0","","","","","","","","","5","","","","","img/nontarget_distractor236.jpeg"
"","html-keyboard-response","197","203197","0.0-5.0-22.0-1.0","5c634094e30ff200016baccb","5c634094e30ff200016baccb","63a36e1df1afd18b014794e9","63a384421d109d0d23eebe5d","rsvp1-task","true","0","","","","","null","<span></span>","null","iti","","","","","","","","","","","","","","",""
"","html-keyboard-response","198","203314","0.0-5.0-22.0-0.1","5c634094e30ff200016baccb","5c634094e30ff200016baccb","63a36e1df1afd18b014794e9","63a384421d109d0d23eebe5d","rsvp1-task","true","0","","","","","null","
					<div style='width: 900px;'>
					<div style='float: center;'><img src=img/nontarget_distractor127.jpeg  ></img>
					</div>
					","null","rsvp1","practice0","","","","","","","","","5","","","","","img/nontarget_distractor127.jpeg"
"","html-keyboard-response","199","203330","0.0-5.0-22.0-1.1","5c634094e30ff200016baccb","5c634094e30ff200016baccb","63a36e1df1afd18b014794e9","63a384421d109d0d23eebe5d","rsvp1-task","true","0","","","","","null","<span></span>","null","iti","","","","","","","","","","","","","","",""
"","html-keyboard-response","200","203447","0.0-5.0-22.0-0.2","5c634094e30ff200016baccb","5c634094e30ff200016baccb","63a36e1df1afd18b014794e9","63a384421d109d0d23eebe5d","rsvp1-task","true","0","","","","","null","
					<div style='width: 900px;'>
					<div style='float: center;'><img src=img/nontarget_distractor249.jpeg  ></img>
					</div>
					","null","rsvp1","practice0","","","","","","","","","5","","","","","img/nontarget_distractor249.jpeg"
"","html-keyboard-response","201","203463","0.0-5.0-22.0-1.2","5c634094e30ff200016baccb","5c634094e30ff200016baccb","63a36e1df1afd18b014794e9","63a384421d109d0d23eebe5d","rsvp1-task","true","0","","","","","null","<span></span>","null","iti","","","","","","","","","","","","","","",""
"","html-keyboard-response","202","203580","0.0-5.0-22.0-0.3","5c634094e30ff200016baccb","5c634094e30ff200016baccb","63a36e1df1afd18b014794e9","63a384421d109d0d23eebe5d","rsvp1-task","true","0","","","","","null","
					<div style='width: 900px;'>
					<div style='float: center;'><img src=img/nontarget_distractor24.jpeg  ></img>
					</div>
					","null","rsvp1","practice0","","","","","","","","","5","","","","","img/nontarget_distractor24.jpeg"
"","html-keyboard-response","203","203597","0.0-5.0-22.0-1.3","5c634094e30ff200016baccb","5c634094e30ff200016baccb","63a36e1df1afd18b014794e9","63a384421d109d0d23eebe5d","rsvp1-task","true","0","","","","","null","<span></span>","null","iti","","","","","","","","","","","","","","",""
"","html-keyboard-response","204","203714","0.0-5.0-22.0-0.4","5c634094e30ff200016baccb","5c634094e30ff200016baccb","63a36e1df1afd18b014794e9","63a384421d109d0d23eebe5d","rsvp1-task","true","0","","","","","null","
					<div style='width: 900px;'>
					<div style='float: center;'><img src=img/nontarget_distractor105.jpeg  ></img>
					</div>
					","null","rsvp1","practice0","","","","","","","","","5","","","","","img/nontarget_distractor105.jpeg"
"","html-keyboard-response","205","203730","0.0-5.0-22.0-1.4","5c634094e30ff200016baccb","5c634094e30ff200016baccb","63a36e1df1afd18b014794e9","63a384421d109d0d23eebe5d","rsvp1-task","true","0","","","","","null","<span></span>","null","iti","","","","","","","","","","","","","","",""
"","html-keyboard-response","206","203832","0.0-5.0-22.0-0.5","5c634094e30ff200016baccb","5c634094e30ff200016baccb","63a36e1df1afd18b014794e9","63a384421d109d0d23eebe5d","rsvp1-task","true","0","","","","","null","
					<div style='width: 900px;'>
					<div style='float: center;'><img src=img/nontarget_distractor151.jpeg  ></img>
					</div>
					","null","rsvp1","practice0","","","","","","","","","5","","","","","img/nontarget_distractor151.jpeg"
"","html-keyboard-response","207","203847","0.0-5.0-22.0-1.5","5c634094e30ff200016baccb","5c634094e30ff200016baccb","63a36e1df1afd18b014794e9","63a384421d109d0d23eebe5d","rsvp1-task","true","0","","","","","null","<span></span>","null","iti","","","","","","","","","","","","","","",""
"","html-keyboard-response","208","203964","0.0-5.0-22.0-0.6","5c634094e30ff200016baccb","5c634094e30ff200016baccb","63a36e1df1afd18b014794e9","63a384421d109d0d23eebe5d","rsvp1-task","true","0","","","","","null","
					<div style='width: 900px;'>
					<div style='float: center;'><img src=img/nontarget_distractor159.jpeg  ></img>
					</div>
					","null","rsvp1","practice0","","","","","","","","","5","","","","","img/nontarget_distractor159.jpeg"
"","html-keyboard-response","209","203980","0.0-5.0-22.0-1.6","5c634094e30ff200016baccb","5c634094e30ff200016baccb","63a36e1df1afd18b014794e9","63a384421d109d0d23eebe5d","rsvp1-task","true","0","","","","","null","<span></span>","null","iti","","","","","","","","","","","","","","",""
"","html-keyboard-response","210","204097","0.0-5.0-22.0-0.7","5c634094e30ff200016baccb","5c634094e30ff200016baccb","63a36e1df1afd18b014794e9","63a384421d109d0d23eebe5d","rsvp1-task","true","0","","","","","null","
					<div style='width: 900px;'>
					<div style='float: center;'><img src=img/nontarget_distractor27.jpeg  ></img>
					</div>
					","null","rsvp1","practice0","","","","","","","","","5","","","","","img/nontarget_distractor27.jpeg"
"","html-keyboard-response","211","204114","0.0-5.0-22.0-1.7","5c634094e30ff200016baccb","5c634094e30ff200016baccb","63a36e1df1afd18b014794e9","63a384421d109d0d23eebe5d","rsvp1-task","true","0","","","","","null","<span></span>","null","iti","","","","","","","","","","","","","","",""
"","html-keyboard-response","212","204226","0.0-5.0-22.0-0.8","5c634094e30ff200016baccb","5c634094e30ff200016baccb","63a36e1df1afd18b014794e9","63a384421d109d0d23eebe5d","rsvp1-task","true","0","","","","","null","
					<div style='width: 900px;'>
					<div style='float: center;'><img src=img/nontarget_distractor61.jpeg  ></img>
					</div>
					","null","rsvp1","practice0","","","","","","","","","5","","","","","img/nontarget_distractor61.jpeg"
"","html-keyboard-response","213","204241","0.0-5.0-22.0-1.8","5c634094e30ff200016baccb","5c634094e30ff200016baccb","63a36e1df1afd18b014794e9","63a384421d109d0d23eebe5d","rsvp1-task","true","0","","","","","null","<span></span>","null","iti","","","","","","","","","","","","","","",""
"","html-keyboard-response","214","204346","0.0-5.0-22.0-0.9","5c634094e30ff200016baccb","5c634094e30ff200016baccb","63a36e1df1afd18b014794e9","63a384421d109d0d23eebe5d","rsvp1-task","true","0","","","","","null","
					<div style='width: 900px;'>
					<div style='float: center;'><img src=img/nontarget_distractor206.jpeg  ></img>
					</div>
					","null","rsvp1","practice0","","","","","","","","","5","","","","","img/nontarget_distractor206.jpeg"
"","html-keyboard-response","215","204363","0.0-5.0-22.0-1.9","5c634094e30ff200016baccb","5c634094e30ff200016baccb","63a36e1df1afd18b014794e9","63a384421d109d0d23eebe5d","rsvp1-task","true","0","","","","","null","<span></span>","null","iti","","","","","","","","","","","","","","",""
"","html-keyboard-response","216","204478","0.0-5.0-22.0-0.10","5c634094e30ff200016baccb","5c634094e30ff200016baccb","63a36e1df1afd18b014794e9","63a384421d109d0d23eebe5d","rsvp1-task","true","0","","","","","null","
					<div style='width: 900px;'>
					<div style='float: center;'><img src=img/nontarget_distractor7.jpeg  ></img>
					</div>
					","null","rsvp1","practice0","","","","","","","","","5","","","","","img/nontarget_distractor7.jpeg"
"","html-keyboard-response","217","204496","0.0-5.0-22.0-1.10","5c634094e30ff200016baccb","5c634094e30ff200016baccb","63a36e1df1afd18b014794e9","63a384421d109d0d23eebe5d","rsvp1-task","true","0","","","","","null","<span></span>","null","iti","","","","","","","","","","","","","","",""
"","html-keyboard-response","218","204613","0.0-5.0-22.0-0.11","5c634094e30ff200016baccb","5c634094e30ff200016baccb","63a36e1df1afd18b014794e9","63a384421d109d0d23eebe5d","rsvp1-task","true","0","","","","","null","
					<div style='width: 900px;'>
					<div style='float: center;'><img src=img/nontarget_distractor55.jpeg  ></img>
					</div>
					","null","rsvp1","practice0","","","","","","","","","5","","","","","img/nontarget_distractor55.jpeg"
"","html-keyboard-response","219","204629","0.0-5.0-22.0-1.11","5c634094e30ff200016baccb","5c634094e30ff200016baccb","63a36e1df1afd18b014794e9","63a384421d109d0d23eebe5d","rsvp1-task","true","0","","","","","null","<span></span>","null","iti","","","","","","","","","","","","","","",""
"","html-keyboard-response","220","204746","0.0-5.0-22.0-0.12","5c634094e30ff200016baccb","5c634094e30ff200016baccb","63a36e1df1afd18b014794e9","63a384421d109d0d23eebe5d","rsvp1-task","true","0","","","","","null","
					<div style='width: 900px;'>
					<div style='float: center;'><img src=img/nontarget_distractor212.jpeg  ></img>
					</div>
					","null","rsvp1","practice0","","","","","","","","","5","","","","","img/nontarget_distractor212.jpeg"
"","html-keyboard-response","221","204762","0.0-5.0-22.0-1.12","5c634094e30ff200016baccb","5c634094e30ff200016baccb","63a36e1df1afd18b014794e9","63a384421d109d0d23eebe5d","rsvp1-task","true","0","","","","","null","<span></span>","null","iti","","","","","","","","","","","","","","",""
"","html-keyboard-response","222","204879","0.0-5.0-22.0-0.13","5c634094e30ff200016baccb","5c634094e30ff200016baccb","63a36e1df1afd18b014794e9","63a384421d109d0d23eebe5d","rsvp1-task","true","0","","","","","null","
					<div style='width: 900px;'>
					<div style='float: center;'><img src=img/nontarget_distractor59.jpeg  ></img>
					</div>
					","null","rsvp1","practice0","","","","","","","","","5","","","","","img/nontarget_distractor59.jpeg"
"","html-keyboard-response","223","204896","0.0-5.0-22.0-1.13","5c634094e30ff200016baccb","5c634094e30ff200016baccb","63a36e1df1afd18b014794e9","63a384421d109d0d23eebe5d","rsvp1-task","true","0","","","","","null","<span></span>","null","iti","","","","","","","","","","","","","","",""
"","html-keyboard-response","224","205012","0.0-5.0-22.0-0.14","5c634094e30ff200016baccb","5c634094e30ff200016baccb","63a36e1df1afd18b014794e9","63a384421d109d0d23eebe5d","rsvp1-task","true","0","","","","","null","
					<div style='width: 900px;'>
					<div style='float: center;'><img src=img/t2_targets162.jpeg class=""rotateimgL""  ></img>
					</div>
					","null","rsvp1","practice0","","","","","","","","","5","","","","","img/t2_targets162.jpeg class=""rotateimgL"""
"","html-keyboard-response","225","205029","0.0-5.0-22.0-1.14","5c634094e30ff200016baccb","5c634094e30ff200016baccb","63a36e1df1afd18b014794e9","63a384421d109d0d23eebe5d","rsvp1-task","true","0","","","","","null","<span></span>","null","iti","","","","","","","","","","","","","","",""
"","html-keyboard-response","226","205145","0.0-5.0-22.0-0.15","5c634094e30ff200016baccb","5c634094e30ff200016baccb","63a36e1df1afd18b014794e9","63a384421d109d0d23eebe5d","rsvp1-task","true","0","","","","","null","
					<div style='width: 900px;'>
					<div style='float: center;'><img src=img/nontarget_distractor175.jpeg  ></img>
					</div>
					","null","rsvp1","practice0","","","","","","","","","5","","","","","img/nontarget_distractor175.jpeg"
"","html-keyboard-response","227","205162","0.0-5.0-22.0-1.15","5c634094e30ff200016baccb","5c634094e30ff200016baccb","63a36e1df1afd18b014794e9","63a384421d109d0d23eebe5d","rsvp1-task","true","0","","","","","null","<span></span>","null","iti","","","","","","","","","","","","","","",""
"","html-keyboard-response","228","205278","0.0-5.0-22.0-0.16","5c634094e30ff200016baccb","5c634094e30ff200016baccb","63a36e1df1afd18b014794e9","63a384421d109d0d23eebe5d","rsvp1-task","true","0","","","","","null","
					<div style='width: 900px;'>
					<div style='float: center;'><img src=img/nontarget_distractor23.jpeg  ></img>
					</div>
					","null","rsvp1","practice0","","","","","","","","","5","","","","","img/nontarget_distractor23.jpeg"
"","html-keyboard-response","229","205296","0.0-5.0-22.0-1.16","5c634094e30ff200016baccb","5c634094e30ff200016baccb","63a36e1df1afd18b014794e9","63a384421d109d0d23eebe5d","rsvp1-task","true","0","","","","","null","<span></span>","null","iti","","","","","","","","","","","","","","",""
"","html-keyboard-response","230","205794","0.0-5.0-23.0-0.0","5c634094e30ff200016baccb","5c634094e30ff200016baccb","63a36e1df1afd18b014794e9","63a384421d109d0d23eebe5d","rsvp1-task","true","0","","","","","497","<div class=""rsvp""> Was the rotated image rotated left (1 key) or right (0 key)?</div>","1","response","practice0","1","1","neutral","img/nontarget_distractor27.jpeg","img/nontarget_distractor175.jpeg","8","7","15","5","true","true","true","",""
"","html-keyboard-response","231","206805","0.0-5.0-24.0","5c634094e30ff200016baccb","5c634094e30ff200016baccb","63a36e1df1afd18b014794e9","63a384421d109d0d23eebe5d","rsvp1-task","true","0","","","","","null","Correct! </p> <p>  </p><p> ","null","","","","","","","","","","","","","","","main_T1_ITI",""
"","html-keyboard-response","232","208806","0.0-5.0-25.0","5c634094e30ff200016baccb","5c634094e30ff200016baccb","63a36e1df1afd18b014794e9","63a384421d109d0d23eebe5d","rsvp1-task","true","0","","","","","null","<div class=""rsvp"">+</div>","null","fixation","","","","","","","","","","","","","","",""
"","html-keyboard-response","233","209062","0.0-5.0-26.0","5c634094e30ff200016baccb","5c634094e30ff200016baccb","63a36e1df1afd18b014794e9","63a384421d109d0d23eebe5d","rsvp1-task","true","0","","","","","null","<div class=""rsvp"" ></div>","null","blank","","","","","","","","","","","","","","",""
"","html-keyboard-response","234","209178","0.0-5.0-27.0-0.0","5c634094e30ff200016baccb","5c634094e30ff200016baccb","63a36e1df1afd18b014794e9","63a384421d109d0d23eebe5d","rsvp1-task","true","0","","","","","null","
					<div style='width: 900px;'>
					<div style='float: center;'><img src=img/nontarget_distractor192.jpeg  ></img>
					</div>
					","null","rsvp1","practice0","","","","","","","","","6","","","","","img/nontarget_distractor192.jpeg"
"","html-keyboard-response","235","209194","0.0-5.0-27.0-1.0","5c634094e30ff200016baccb","5c634094e30ff200016baccb","63a36e1df1afd18b014794e9","63a384421d109d0d23eebe5d","rsvp1-task","true","0","","","","","null","<span></span>","null","iti","","","","","","","","","","","","","","",""
"","html-keyboard-response","236","209311","0.0-5.0-27.0-0.1","5c634094e30ff200016baccb","5c634094e30ff200016baccb","63a36e1df1afd18b014794e9","63a384421d109d0d23eebe5d","rsvp1-task","true","0","","","","","null","
					<div style='width: 900px;'>
					<div style='float: center;'><img src=img/nontarget_distractor58.jpeg  ></img>
					</div>
					","null","rsvp1","practice0","","","","","","","","","6","","","","","img/nontarget_distractor58.jpeg"
"","html-keyboard-response","237","209327","0.0-5.0-27.0-1.1","5c634094e30ff200016baccb","5c634094e30ff200016baccb","63a36e1df1afd18b014794e9","63a384421d109d0d23eebe5d","rsvp1-task","true","0","","","","","null","<span></span>","null","iti","","","","","","","","","","","","","","",""
"","html-keyboard-response","238","209428","0.0-5.0-27.0-0.2","5c634094e30ff200016baccb","5c634094e30ff200016baccb","63a36e1df1afd18b014794e9","63a384421d109d0d23eebe5d","rsvp1-task","true","0","","","","","null","
					<div style='width: 900px;'>
					<div style='float: center;'><img src=img/nontarget_distractor164.jpeg  ></img>
					</div>
					","null","rsvp1","practice0","","","","","","","","","6","","","","","img/nontarget_distractor164.jpeg"
"","html-keyboard-response","239","209444","0.0-5.0-27.0-1.2","5c634094e30ff200016baccb","5c634094e30ff200016baccb","63a36e1df1afd18b014794e9","63a384421d109d0d23eebe5d","rsvp1-task","true","0","","","","","null","<span></span>","null","iti","","","","","","","","","","","","","","",""
"","html-keyboard-response","240","209561","0.0-5.0-27.0-0.3","5c634094e30ff200016baccb","5c634094e30ff200016baccb","63a36e1df1afd18b014794e9","63a384421d109d0d23eebe5d","rsvp1-task","true","0","","","","","null","
					<div style='width: 900px;'>
					<div style='float: center;'><img src=img/nontarget_distractor248.jpeg  ></img>
					</div>
					","null","rsvp1","practice0","","","","","","","","","6","","","","","img/nontarget_distractor248.jpeg"
"","html-keyboard-response","241","209578","0.0-5.0-27.0-1.3","5c634094e30ff200016baccb","5c634094e30ff200016baccb","63a36e1df1afd18b014794e9","63a384421d109d0d23eebe5d","rsvp1-task","true","0","","","","","null","<span></span>","null","iti","","","","","","","","","","","","","","",""
"","html-keyboard-response","242","209694","0.0-5.0-27.0-0.4","5c634094e30ff200016baccb","5c634094e30ff200016baccb","63a36e1df1afd18b014794e9","63a384421d109d0d23eebe5d","rsvp1-task","true","0","","","","","null","
					<div style='width: 900px;'>
					<div style='float: center;'><img src=img/nontarget_distractor160.jpeg  ></img>
					</div>
					","null","rsvp1","practice0","","","","","","","","","6","","","","","img/nontarget_distractor160.jpeg"
"","html-keyboard-response","243","209711","0.0-5.0-27.0-1.4","5c634094e30ff200016baccb","5c634094e30ff200016baccb","63a36e1df1afd18b014794e9","63a384421d109d0d23eebe5d","rsvp1-task","true","0","","","","","null","<span></span>","null","iti","","","","","","","","","","","","","","",""
"","html-keyboard-response","244","209827","0.0-5.0-27.0-0.5","5c634094e30ff200016baccb","5c634094e30ff200016baccb","63a36e1df1afd18b014794e9","63a384421d109d0d23eebe5d","rsvp1-task","true","0","","","","","null","
					<div style='width: 900px;'>
					<div style='float: center;'><img src=img/nontarget_distractor66.jpeg  ></img>
					</div>
					","null","rsvp1","practice0","","","","","","","","","6","","","","","img/nontarget_distractor66.jpeg"
"","html-keyboard-response","245","209844","0.0-5.0-27.0-1.5","5c634094e30ff200016baccb","5c634094e30ff200016baccb","63a36e1df1afd18b014794e9","63a384421d109d0d23eebe5d","rsvp1-task","true","0","","","","","null","<span></span>","null","iti","","","","","","","","","","","","","","",""
"","html-keyboard-response","246","209960","0.0-5.0-27.0-0.6","5c634094e30ff200016baccb","5c634094e30ff200016baccb","63a36e1df1afd18b014794e9","63a384421d109d0d23eebe5d","rsvp1-task","true","0","","","","","null","
					<div style='width: 900px;'>
					<div style='float: center;'><img src=img/nontarget_distractor35.jpeg  ></img>
					</div>
					","null","rsvp1","practice0","","","","","","","","","6","","","","","img/nontarget_distractor35.jpeg"
"","html-keyboard-response","247","209978","0.0-5.0-27.0-1.6","5c634094e30ff200016baccb","5c634094e30ff200016baccb","63a36e1df1afd18b014794e9","63a384421d109d0d23eebe5d","rsvp1-task","true","0","","","","","null","<span></span>","null","iti","","","","","","","","","","","","","","",""
"","html-keyboard-response","248","210094","0.0-5.0-27.0-0.7","5c634094e30ff200016baccb","5c634094e30ff200016baccb","63a36e1df1afd18b014794e9","63a384421d109d0d23eebe5d","rsvp1-task","true","0","","","","","null","
					<div style='width: 900px;'>
					<div style='float: center;'><img src=img/nontarget_distractor127.jpeg  ></img>
					</div>
					","null","rsvp1","practice0","","","","","","","","","6","","","","","img/nontarget_distractor127.jpeg"
"","html-keyboard-response","249","210111","0.0-5.0-27.0-1.7","5c634094e30ff200016baccb","5c634094e30ff200016baccb","63a36e1df1afd18b014794e9","63a384421d109d0d23eebe5d","rsvp1-task","true","0","","","","","null","<span></span>","null","iti","","","","","","","","","","","","","","",""
"","html-keyboard-response","250","210227","0.0-5.0-27.0-0.8","5c634094e30ff200016baccb","5c634094e30ff200016baccb","63a36e1df1afd18b014794e9","63a384421d109d0d23eebe5d","rsvp1-task","true","0","","","","","null","
					<div style='width: 900px;'>
					<div style='float: center;'><img src=img/nontarget_distractor195.jpeg  ></img>
					</div>
					","null","rsvp1","practice0","","","","","","","","","6","","","","","img/nontarget_distractor195.jpeg"
"","html-keyboard-response","251","210243","0.0-5.0-27.0-1.8","5c634094e30ff200016baccb","5c634094e30ff200016baccb","63a36e1df1afd18b014794e9","63a384421d109d0d23eebe5d","rsvp1-task","true","0","","","","","null","<span></span>","null","iti","","","","","","","","","","","","","","",""
"","html-keyboard-response","252","210361","0.0-5.0-27.0-0.9","5c634094e30ff200016baccb","5c634094e30ff200016baccb","63a36e1df1afd18b014794e9","63a384421d109d0d23eebe5d","rsvp1-task","true","0","","","","","null","
					<div style='width: 900px;'>
					<div style='float: center;'><img src=img/nontarget_distractor62.jpeg  ></img>
					</div>
					","null","rsvp1","practice0","","","","","","","","","6","","","","","img/nontarget_distractor62.jpeg"
"","html-keyboard-response","253","210377","0.0-5.0-27.0-1.9","5c634094e30ff200016baccb","5c634094e30ff200016baccb","63a36e1df1afd18b014794e9","63a384421d109d0d23eebe5d","rsvp1-task","true","0","","","","","null","<span></span>","null","iti","","","","","","","","","","","","","","",""
"","html-keyboard-response","254","210494","0.0-5.0-27.0-0.10","5c634094e30ff200016baccb","5c634094e30ff200016baccb","63a36e1df1afd18b014794e9","63a384421d109d0d23eebe5d","rsvp1-task","true","0","","","","","null","
					<div style='width: 900px;'>
					<div style='float: center;'><img src=img/nontarget_distractor18.jpeg  ></img>
					</div>
					","null","rsvp1","practice0","","","","","","","","","6","","","","","img/nontarget_distractor18.jpeg"
"","html-keyboard-response","255","210511","0.0-5.0-27.0-1.10","5c634094e30ff200016baccb","5c634094e30ff200016baccb","63a36e1df1afd18b014794e9","63a384421d109d0d23eebe5d","rsvp1-task","true","0","","","","","null","<span></span>","null","iti","","","","","","","","","","","","","","",""
"","html-keyboard-response","256","210627","0.0-5.0-27.0-0.11","5c634094e30ff200016baccb","5c634094e30ff200016baccb","63a36e1df1afd18b014794e9","63a384421d109d0d23eebe5d","rsvp1-task","true","0","","","","","null","
					<div style='width: 900px;'>
					<div style='float: center;'><img src=img/t2_targets144.jpeg class=""rotateimgL""  ></img>
					</div>
					","null","rsvp1","practice0","","","","","","","","","6","","","","","img/t2_targets144.jpeg class=""rotateimgL"""
"","html-keyboard-response","257","210644","0.0-5.0-27.0-1.11","5c634094e30ff200016baccb","5c634094e30ff200016baccb","63a36e1df1afd18b014794e9","63a384421d109d0d23eebe5d","rsvp1-task","true","0","","","","","null","<span></span>","null","iti","","","","","","","","","","","","","","",""
"","html-keyboard-response","258","210745","0.0-5.0-27.0-0.12","5c634094e30ff200016baccb","5c634094e30ff200016baccb","63a36e1df1afd18b014794e9","63a384421d109d0d23eebe5d","rsvp1-task","true","0","","","","","null","
					<div style='width: 900px;'>
					<div style='float: center;'><img src=img/nontarget_distractor225.jpeg  ></img>
					</div>
					","null","rsvp1","practice0","","","","","","","","","6","","","","","img/nontarget_distractor225.jpeg"
"","html-keyboard-response","259","210760","0.0-5.0-27.0-1.12","5c634094e30ff200016baccb","5c634094e30ff200016baccb","63a36e1df1afd18b014794e9","63a384421d109d0d23eebe5d","rsvp1-task","true","0","","","","","null","<span></span>","null","iti","","","","","","","","","","","","","","",""
"","html-keyboard-response","260","210862","0.0-5.0-27.0-0.13","5c634094e30ff200016baccb","5c634094e30ff200016baccb","63a36e1df1afd18b014794e9","63a384421d109d0d23eebe5d","rsvp1-task","true","0","","","","","null","
					<div style='width: 900px;'>
					<div style='float: center;'><img src=img/nontarget_distractor116.jpeg  ></img>
					</div>
					","null","rsvp1","practice0","","","","","","","","","6","","","","","img/nontarget_distractor116.jpeg"
"","html-keyboard-response","261","210877","0.0-5.0-27.0-1.13","5c634094e30ff200016baccb","5c634094e30ff200016baccb","63a36e1df1afd18b014794e9","63a384421d109d0d23eebe5d","rsvp1-task","true","0","","","","","null","<span></span>","null","iti","","","","","","","","","","","","","","",""
"","html-keyboard-response","262","210979","0.0-5.0-27.0-0.14","5c634094e30ff200016baccb","5c634094e30ff200016baccb","63a36e1df1afd18b014794e9","63a384421d109d0d23eebe5d","rsvp1-task","true","0","","","","","null","
					<div style='width: 900px;'>
					<div style='float: center;'><img src=img/nontarget_distractor64.jpeg  ></img>
					</div>
					","null","rsvp1","practice0","","","","","","","","","6","","","","","img/nontarget_distractor64.jpeg"
"","html-keyboard-response","263","210994","0.0-5.0-27.0-1.14","5c634094e30ff200016baccb","5c634094e30ff200016baccb","63a36e1df1afd18b014794e9","63a384421d109d0d23eebe5d","rsvp1-task","true","0","","","","","null","<span></span>","null","iti","","","","","","","","","","","","","","",""
"","html-keyboard-response","264","211110","0.0-5.0-27.0-0.15","5c634094e30ff200016baccb","5c634094e30ff200016baccb","63a36e1df1afd18b014794e9","63a384421d109d0d23eebe5d","rsvp1-task","true","0","","","","","null","
					<div style='width: 900px;'>
					<div style='float: center;'><img src=img/nontarget_distractor241.jpeg  ></img>
					</div>
					","null","rsvp1","practice0","","","","","","","","","6","","","","","img/nontarget_distractor241.jpeg"
"","html-keyboard-response","265","211127","0.0-5.0-27.0-1.15","5c634094e30ff200016baccb","5c634094e30ff200016baccb","63a36e1df1afd18b014794e9","63a384421d109d0d23eebe5d","rsvp1-task","true","0","","","","","null","<span></span>","null","iti","","","","","","","","","","","","","","",""
"","html-keyboard-response","266","211243","0.0-5.0-27.0-0.16","5c634094e30ff200016baccb","5c634094e30ff200016baccb","63a36e1df1afd18b014794e9","63a384421d109d0d23eebe5d","rsvp1-task","true","0","","","","","null","
					<div style='width: 900px;'>
					<div style='float: center;'><img src=img/nontarget_distractor108.jpeg  ></img>
					</div>
					","null","rsvp1","practice0","","","","","","","","","6","","","","","img/nontarget_distractor108.jpeg"
"","html-keyboard-response","267","211260","0.0-5.0-27.0-1.16","5c634094e30ff200016baccb","5c634094e30ff200016baccb","63a36e1df1afd18b014794e9","63a384421d109d0d23eebe5d","rsvp1-task","true","0","","","","","null","<span></span>","null","iti","","","","","","","","","","","","","","",""
"","html-keyboard-response","268","211727","0.0-5.0-28.0-0.0","5c634094e30ff200016baccb","5c634094e30ff200016baccb","63a36e1df1afd18b014794e9","63a384421d109d0d23eebe5d","rsvp1-task","true","0","","","","","466","<div class=""rsvp""> Was the rotated image rotated left (1 key) or right (0 key)?</div>","1","response","practice0","1","1","neutral","img/nontarget_distractor127.jpeg","img/nontarget_distractor225.jpeg","8","4","12","6","true","true","true","",""
"","html-keyboard-response","269","212729","0.0-5.0-29.0","5c634094e30ff200016baccb","5c634094e30ff200016baccb","63a36e1df1afd18b014794e9","63a384421d109d0d23eebe5d","rsvp1-task","true","0","","","","","null","Correct! </p> <p>  </p><p> ","null","","","","","","","","","","","","","","","main_T1_ITI",""
"","html-keyboard-response","270","214735","0.0-5.0-30.0","5c634094e30ff200016baccb","5c634094e30ff200016baccb","63a36e1df1afd18b014794e9","63a384421d109d0d23eebe5d","rsvp1-task","true","0","","","","","null","<div class=""rsvp"">+</div>","null","fixation","","","","","","","","","","","","","","",""
"","html-keyboard-response","271","214991","0.0-5.0-31.0","5c634094e30ff200016baccb","5c634094e30ff200016baccb","63a36e1df1afd18b014794e9","63a384421d109d0d23eebe5d","rsvp1-task","true","0","","","","","null","<div class=""rsvp"" ></div>","null","blank","","","","","","","","","","","","","","",""
