"success","trial_type","trial_index","time_elapsed","internal_node_id","subject_id","subjectID","study_id","session_id","exp_id","full_screen","focus_shifts","timeout","failed_images","failed_audio","failed_video","rt","stimulus","key_press","test_part","phase","correct_responses","correct_response","t1_type","t1_image","t2_image","t1_location","lag","t2_location","trial_number","correct","t1_correct","t2_correct","task","stim"
"true","fullscreen","0","4361","0.0-0.0","5eeacbcbb570dc1ab706417a","5eeacbcbb570dc1ab706417a","63a36e1df1afd18b014794e9","63a38e761f815af434c84927","rsvp1-task","true","0","","","","","","","","","","","","","","","","","","","","","","",""
"true","preload","1","9077","0.0-1.0","5eeacbcbb570dc1ab706417a","5eeacbcbb570dc1ab706417a","63a36e1df1afd18b014794e9","63a38e761f815af434c84927","rsvp1-task","true","0","false","[]","[]","[]","","","","","","","","","","","","","","","","","","",""
"","html-keyboard-response","2","20841","0.0-2.0","5eeacbcbb570dc1ab706417a","5eeacbcbb570dc1ab706417a","63a36e1df1afd18b014794e9","63a38e761f815af434c84927","rsvp1-task","true","0","","","","","11761.100000023842","<div class='instructions'><p>You will see a series of scene images rapidly appearing on the computer screen. One of the scene images will be ROTATED, either to the left or to the right.</p><p>When the series ends, you have to respond to the question ‘Which way was the scene rotated?’</p><p>If the scene was rotated left, you will press the 1 key. If the scene was rotated right, press the 0 key. </p><p>Press any key to see an example of the task.</p></div>"," ","instructions","","","","","","","","","","","","","","",""
"","html-keyboard-response","3","23881","0.0-3.0-0.0","5eeacbcbb570dc1ab706417a","5eeacbcbb570dc1ab706417a","63a36e1df1afd18b014794e9","63a38e761f815af434c84927","rsvp1-task","true","0","","","","","null","<div class=""rsvp"">+</div>","null","fixation","","","","","","","","","","","","","","",""
"","html-keyboard-response","4","24137","0.0-3.0-1.0","5eeacbcbb570dc1ab706417a","5eeacbcbb570dc1ab706417a","63a36e1df1afd18b014794e9","63a38e761f815af434c84927","rsvp1-task","true","0","","","","","null","<div class=""rsvp"" ></div>","null","blank","","","","","","","","","","","","","","",""
"","html-keyboard-response","5","24355","0.0-3.0-2.0-0.0","5eeacbcbb570dc1ab706417a","5eeacbcbb570dc1ab706417a","63a36e1df1afd18b014794e9","63a38e761f815af434c84927","rsvp1-task","true","0","","","","","null","
					<div style='width: 900px;'>
					<div style='float: center;'><img src=img/nontarget_distractor145.jpeg  ></img>
					</div>
					","null","","","","","","","","","","","","","","","",""
"","html-keyboard-response","6","24462","0.0-3.0-2.0-1.0","5eeacbcbb570dc1ab706417a","5eeacbcbb570dc1ab706417a","63a36e1df1afd18b014794e9","63a38e761f815af434c84927","rsvp1-task","true","0","","","","","null","<span></span>","null","iti","","","","","","","","","","","","","","",""
"","html-keyboard-response","7","24687","0.0-3.0-2.0-0.1","5eeacbcbb570dc1ab706417a","5eeacbcbb570dc1ab706417a","63a36e1df1afd18b014794e9","63a38e761f815af434c84927","rsvp1-task","true","0","","","","","null","
					<div style='width: 900px;'>
					<div style='float: center;'><img src=img/nontarget_distractor229.jpeg  ></img>
					</div>
					","null","","","","","","","","","","","","","","","",""
"","html-keyboard-response","8","24797","0.0-3.0-2.0-1.1","5eeacbcbb570dc1ab706417a","5eeacbcbb570dc1ab706417a","63a36e1df1afd18b014794e9","63a38e761f815af434c84927","rsvp1-task","true","0","","","","","null","<span></span>","null","iti","","","","","","","","","","","","","","",""
"","html-keyboard-response","9","25022","0.0-3.0-2.0-0.2","5eeacbcbb570dc1ab706417a","5eeacbcbb570dc1ab706417a","63a36e1df1afd18b014794e9","63a38e761f815af434c84927","rsvp1-task","true","0","","","","","null","
					<div style='width: 900px;'>
					<div style='float: center;'><img src=img/nontarget_distractor67.jpeg  ></img>
					</div>
					","null","","","","","","","","","","","","","","","",""
"","html-keyboard-response","10","25130","0.0-3.0-2.0-1.2","5eeacbcbb570dc1ab706417a","5eeacbcbb570dc1ab706417a","63a36e1df1afd18b014794e9","63a38e761f815af434c84927","rsvp1-task","true","0","","","","","null","<span></span>","null","iti","","","","","","","","","","","","","","",""
"","html-keyboard-response","11","25356","0.0-3.0-2.0-0.3","5eeacbcbb570dc1ab706417a","5eeacbcbb570dc1ab706417a","63a36e1df1afd18b014794e9","63a38e761f815af434c84927","rsvp1-task","true","0","","","","","null","
					<div style='width: 900px;'>
					<div style='float: center;'><img src=img/nontarget_distractor111.jpeg  ></img>
					</div>
					","null","","","","","","","","","","","","","","","",""
"","html-keyboard-response","12","25464","0.0-3.0-2.0-1.3","5eeacbcbb570dc1ab706417a","5eeacbcbb570dc1ab706417a","63a36e1df1afd18b014794e9","63a38e761f815af434c84927","rsvp1-task","true","0","","","","","null","<span></span>","null","iti","","","","","","","","","","","","","","",""
"","html-keyboard-response","13","25689","0.0-3.0-2.0-0.4","5eeacbcbb570dc1ab706417a","5eeacbcbb570dc1ab706417a","63a36e1df1afd18b014794e9","63a38e761f815af434c84927","rsvp1-task","true","0","","","","","null","
					<div style='width: 900px;'>
					<div style='float: center;'><img src=img/nontarget_distractor188.jpeg  ></img>
					</div>
					","null","","","","","","","","","","","","","","","",""
"","html-keyboard-response","14","25797","0.0-3.0-2.0-1.4","5eeacbcbb570dc1ab706417a","5eeacbcbb570dc1ab706417a","63a36e1df1afd18b014794e9","63a38e761f815af434c84927","rsvp1-task","true","0","","","","","null","<span></span>","null","iti","","","","","","","","","","","","","","",""
"","html-keyboard-response","15","26017","0.0-3.0-2.0-0.5","5eeacbcbb570dc1ab706417a","5eeacbcbb570dc1ab706417a","63a36e1df1afd18b014794e9","63a38e761f815af434c84927","rsvp1-task","true","0","","","","","null","
					<div style='width: 900px;'>
					<div style='float: center;'><img src=img/nontarget_distractor183.jpeg  ></img>
					</div>
					","null","","","","","","","","","","","","","","","",""
"","html-keyboard-response","16","26115","0.0-3.0-2.0-1.5","5eeacbcbb570dc1ab706417a","5eeacbcbb570dc1ab706417a","63a36e1df1afd18b014794e9","63a38e761f815af434c84927","rsvp1-task","true","0","","","","","null","<span></span>","null","iti","","","","","","","","","","","","","","",""
"","html-keyboard-response","17","26343","0.0-3.0-2.0-0.6","5eeacbcbb570dc1ab706417a","5eeacbcbb570dc1ab706417a","63a36e1df1afd18b014794e9","63a38e761f815af434c84927","rsvp1-task","true","0","","","","","null","
					<div style='width: 900px;'>
					<div style='float: center;'><img src=img/nontarget_distractor35.jpeg  ></img>
					</div>
					","null","","","","","","","","","","","","","","","",""
"","html-keyboard-response","18","26447","0.0-3.0-2.0-1.6","5eeacbcbb570dc1ab706417a","5eeacbcbb570dc1ab706417a","63a36e1df1afd18b014794e9","63a38e761f815af434c84927","rsvp1-task","true","0","","","","","null","<span></span>","null","iti","","","","","","","","","","","","","","",""
"","html-keyboard-response","19","26677","0.0-3.0-2.0-0.7","5eeacbcbb570dc1ab706417a","5eeacbcbb570dc1ab706417a","63a36e1df1afd18b014794e9","63a38e761f815af434c84927","rsvp1-task","true","0","","","","","null","
					<div style='width: 900px;'>
					<div style='float: center;'><img src=img/nontarget_distractor99.jpeg  ></img>
					</div>
					","null","","","","","","","","","","","","","","","",""
"","html-keyboard-response","20","26782","0.0-3.0-2.0-1.7","5eeacbcbb570dc1ab706417a","5eeacbcbb570dc1ab706417a","63a36e1df1afd18b014794e9","63a38e761f815af434c84927","rsvp1-task","true","0","","","","","null","<span></span>","null","iti","","","","","","","","","","","","","","",""
"","html-keyboard-response","21","27011","0.0-3.0-2.0-0.8","5eeacbcbb570dc1ab706417a","5eeacbcbb570dc1ab706417a","63a36e1df1afd18b014794e9","63a38e761f815af434c84927","rsvp1-task","true","0","","","","","null","
					<div style='width: 900px;'>
					<div style='float: center;'><img src=img/nontarget_distractor122.jpeg  ></img>
					</div>
					","null","","","","","","","","","","","","","","","",""
"","html-keyboard-response","22","27105","0.0-3.0-2.0-1.8","5eeacbcbb570dc1ab706417a","5eeacbcbb570dc1ab706417a","63a36e1df1afd18b014794e9","63a38e761f815af434c84927","rsvp1-task","true","0","","","","","null","<span></span>","null","iti","","","","","","","","","","","","","","",""
"","html-keyboard-response","23","27328","0.0-3.0-2.0-0.9","5eeacbcbb570dc1ab706417a","5eeacbcbb570dc1ab706417a","63a36e1df1afd18b014794e9","63a38e761f815af434c84927","rsvp1-task","true","0","","","","","null","
					<div style='width: 900px;'>
					<div style='float: center;'><img src=img/t2_targets167.jpeg class=""rotateimgL""  ></img>
					</div>
					","null","","","","","","","","","","","","","","","",""
"","html-keyboard-response","24","27433","0.0-3.0-2.0-1.9","5eeacbcbb570dc1ab706417a","5eeacbcbb570dc1ab706417a","63a36e1df1afd18b014794e9","63a38e761f815af434c84927","rsvp1-task","true","0","","","","","null","<span></span>","null","iti","","","","","","","","","","","","","","",""
"","html-keyboard-response","25","27659","0.0-3.0-2.0-0.10","5eeacbcbb570dc1ab706417a","5eeacbcbb570dc1ab706417a","63a36e1df1afd18b014794e9","63a38e761f815af434c84927","rsvp1-task","true","0","","","","","null","
					<div style='width: 900px;'>
					<div style='float: center;'><img src=img/nontarget_distractor19.jpeg  ></img>
					</div>
					","null","","","","","","","","","","","","","","","",""
"","html-keyboard-response","26","27769","0.0-3.0-2.0-1.10","5eeacbcbb570dc1ab706417a","5eeacbcbb570dc1ab706417a","63a36e1df1afd18b014794e9","63a38e761f815af434c84927","rsvp1-task","true","0","","","","","null","<span></span>","null","iti","","","","","","","","","","","","","","",""
"","html-keyboard-response","27","27993","0.0-3.0-2.0-0.11","5eeacbcbb570dc1ab706417a","5eeacbcbb570dc1ab706417a","63a36e1df1afd18b014794e9","63a38e761f815af434c84927","rsvp1-task","true","0","","","","","null","
					<div style='width: 900px;'>
					<div style='float: center;'><img src=img/nontarget_distractor144.jpeg  ></img>
					</div>
					","null","","","","","","","","","","","","","","","",""
"","html-keyboard-response","28","28099","0.0-3.0-2.0-1.11","5eeacbcbb570dc1ab706417a","5eeacbcbb570dc1ab706417a","63a36e1df1afd18b014794e9","63a38e761f815af434c84927","rsvp1-task","true","0","","","","","null","<span></span>","null","iti","","","","","","","","","","","","","","",""
"","html-keyboard-response","29","28326","0.0-3.0-2.0-0.12","5eeacbcbb570dc1ab706417a","5eeacbcbb570dc1ab706417a","63a36e1df1afd18b014794e9","63a38e761f815af434c84927","rsvp1-task","true","0","","","","","null","
					<div style='width: 900px;'>
					<div style='float: center;'><img src=img/nontarget_distractor201.jpeg  ></img>
					</div>
					","null","","","","","","","","","","","","","","","",""
"","html-keyboard-response","30","28418","0.0-3.0-2.0-1.12","5eeacbcbb570dc1ab706417a","5eeacbcbb570dc1ab706417a","63a36e1df1afd18b014794e9","63a38e761f815af434c84927","rsvp1-task","true","0","","","","","null","<span></span>","null","iti","","","","","","","","","","","","","","",""
"","html-keyboard-response","31","28633","0.0-3.0-2.0-0.13","5eeacbcbb570dc1ab706417a","5eeacbcbb570dc1ab706417a","63a36e1df1afd18b014794e9","63a38e761f815af434c84927","rsvp1-task","true","0","","","","","null","
					<div style='width: 900px;'>
					<div style='float: center;'><img src=img/nontarget_distractor223.jpeg  ></img>
					</div>
					","null","","","","","","","","","","","","","","","",""
"","html-keyboard-response","32","28733","0.0-3.0-2.0-1.13","5eeacbcbb570dc1ab706417a","5eeacbcbb570dc1ab706417a","63a36e1df1afd18b014794e9","63a38e761f815af434c84927","rsvp1-task","true","0","","","","","null","<span></span>","null","iti","","","","","","","","","","","","","","",""
"","html-keyboard-response","33","28964","0.0-3.0-2.0-0.14","5eeacbcbb570dc1ab706417a","5eeacbcbb570dc1ab706417a","63a36e1df1afd18b014794e9","63a38e761f815af434c84927","rsvp1-task","true","0","","","","","null","
					<div style='width: 900px;'>
					<div style='float: center;'><img src=img/nontarget_distractor43.jpeg  ></img>
					</div>
					","null","","","","","","","","","","","","","","","",""
"","html-keyboard-response","34","29067","0.0-3.0-2.0-1.14","5eeacbcbb570dc1ab706417a","5eeacbcbb570dc1ab706417a","63a36e1df1afd18b014794e9","63a38e761f815af434c84927","rsvp1-task","true","0","","","","","null","<span></span>","null","iti","","","","","","","","","","","","","","",""
"","html-keyboard-response","35","29296","0.0-3.0-2.0-0.15","5eeacbcbb570dc1ab706417a","5eeacbcbb570dc1ab706417a","63a36e1df1afd18b014794e9","63a38e761f815af434c84927","rsvp1-task","true","0","","","","","null","
					<div style='width: 900px;'>
					<div style='float: center;'><img src=img/nontarget_distractor9.jpeg  ></img>
					</div>
					","null","","","","","","","","","","","","","","","",""
"","html-keyboard-response","36","29401","0.0-3.0-2.0-1.15","5eeacbcbb570dc1ab706417a","5eeacbcbb570dc1ab706417a","63a36e1df1afd18b014794e9","63a38e761f815af434c84927","rsvp1-task","true","0","","","","","null","<span></span>","null","iti","","","","","","","","","","","","","","",""
"","html-keyboard-response","37","29627","0.0-3.0-2.0-0.16","5eeacbcbb570dc1ab706417a","5eeacbcbb570dc1ab706417a","63a36e1df1afd18b014794e9","63a38e761f815af434c84927","rsvp1-task","true","0","","","","","null","
					<div style='width: 900px;'>
					<div style='float: center;'><img src=img/nontarget_distractor211.jpeg  ></img>
					</div>
					","null","","","","","","","","","","","","","","","",""
"","html-keyboard-response","38","29734","0.0-3.0-2.0-1.16","5eeacbcbb570dc1ab706417a","5eeacbcbb570dc1ab706417a","63a36e1df1afd18b014794e9","63a38e761f815af434c84927","rsvp1-task","true","0","","","","","null","<span></span>","null","iti","","","","","","","","","","","","","","",""
"","html-keyboard-response","39","31448","0.0-3.0-3.0-0.0","5eeacbcbb570dc1ab706417a","5eeacbcbb570dc1ab706417a","63a36e1df1afd18b014794e9","63a38e761f815af434c84927","rsvp1-task","true","0","","","","","1712","<div class=""rsvp""> Was the rotated image rotated left (1 key) or right (0 key)?</div>","1","response","instructions","1","1","neutral","img/nontarget_distractor229.jpeg","img/nontarget_distractor19.jpeg","2","8","10","1","true","true","true","",""
"","html-keyboard-response","40","32465","0.0-3.0-4.0","5eeacbcbb570dc1ab706417a","5eeacbcbb570dc1ab706417a","63a36e1df1afd18b014794e9","63a38e761f815af434c84927","rsvp1-task","true","0","","","","","null","Correct! </p> <p>  </p><p> ","null","","","","","","","","","","","","","","","main_T1_ITI",""
"","html-keyboard-response","41","41960","0.0-4.0","5eeacbcbb570dc1ab706417a","5eeacbcbb570dc1ab706417a","63a36e1df1afd18b014794e9","63a38e761f815af434c84927","rsvp1-task","true","0","","","","","9494.200000047684","<div class='instructions'><p>In the example you just saw, the images appeared quite slowly.</p><p>The real task is more challenging, as the images will appear much more rapidly. This will feel much harder! </p> First, you will complete a practice block. </p><p> <strong>You need to respond correctly on at least 75% of the practice trials to advance, so pay close attention! </strong> </p><p>Press any key to start the practice.</p></div>"," ","instructions_2","","","","","","","","","","","","","","",""
"","html-keyboard-response","42","44991","0.0-5.0-0.0","5eeacbcbb570dc1ab706417a","5eeacbcbb570dc1ab706417a","63a36e1df1afd18b014794e9","63a38e761f815af434c84927","rsvp1-task","true","0","","","","","null","<div class=""rsvp"">+</div>","null","fixation","","","","","","","","","","","","","","",""
"","html-keyboard-response","43","45257","0.0-5.0-1.0","5eeacbcbb570dc1ab706417a","5eeacbcbb570dc1ab706417a","63a36e1df1afd18b014794e9","63a38e761f815af434c84927","rsvp1-task","true","0","","","","","null","<div class=""rsvp"" ></div>","null","blank","","","","","","","","","","","","","","",""
"","html-keyboard-response","44","45368","0.0-5.0-2.0-0.0","5eeacbcbb570dc1ab706417a","5eeacbcbb570dc1ab706417a","63a36e1df1afd18b014794e9","63a38e761f815af434c84927","rsvp1-task","true","0","","","","","null","
					<div style='width: 900px;'>
					<div style='float: center;'><img src=img/nontarget_distractor163.jpeg  ></img>
					</div>
					","null","rsvp1","practice0","","","","","","","","","1","","","","","img/nontarget_distractor163.jpeg"
"","html-keyboard-response","45","45374","0.0-5.0-2.0-1.0","5eeacbcbb570dc1ab706417a","5eeacbcbb570dc1ab706417a","63a36e1df1afd18b014794e9","63a38e761f815af434c84927","rsvp1-task","true","0","","","","","null","<span></span>","null","iti","","","","","","","","","","","","","","",""
"","html-keyboard-response","46","45484","0.0-5.0-2.0-0.1","5eeacbcbb570dc1ab706417a","5eeacbcbb570dc1ab706417a","63a36e1df1afd18b014794e9","63a38e761f815af434c84927","rsvp1-task","true","0","","","","","null","
					<div style='width: 900px;'>
					<div style='float: center;'><img src=img/nontarget_distractor5.jpeg  ></img>
					</div>
					","null","rsvp1","practice0","","","","","","","","","1","","","","","img/nontarget_distractor5.jpeg"
"","html-keyboard-response","47","45490","0.0-5.0-2.0-1.1","5eeacbcbb570dc1ab706417a","5eeacbcbb570dc1ab706417a","63a36e1df1afd18b014794e9","63a38e761f815af434c84927","rsvp1-task","true","0","","","","","null","<span></span>","null","iti","","","","","","","","","","","","","","",""
"","html-keyboard-response","48","45601","0.0-5.0-2.0-0.2","5eeacbcbb570dc1ab706417a","5eeacbcbb570dc1ab706417a","63a36e1df1afd18b014794e9","63a38e761f815af434c84927","rsvp1-task","true","0","","","","","null","
					<div style='width: 900px;'>
					<div style='float: center;'><img src=img/nontarget_distractor86.jpeg  ></img>
					</div>
					","null","rsvp1","practice0","","","","","","","","","1","","","","","img/nontarget_distractor86.jpeg"
"","html-keyboard-response","49","45607","0.0-5.0-2.0-1.2","5eeacbcbb570dc1ab706417a","5eeacbcbb570dc1ab706417a","63a36e1df1afd18b014794e9","63a38e761f815af434c84927","rsvp1-task","true","0","","","","","null","<span></span>","null","iti","","","","","","","","","","","","","","",""
"","html-keyboard-response","50","45718","0.0-5.0-2.0-0.3","5eeacbcbb570dc1ab706417a","5eeacbcbb570dc1ab706417a","63a36e1df1afd18b014794e9","63a38e761f815af434c84927","rsvp1-task","true","0","","","","","null","
					<div style='width: 900px;'>
					<div style='float: center;'><img src=img/nontarget_distractor32.jpeg  ></img>
					</div>
					","null","rsvp1","practice0","","","","","","","","","1","","","","","img/nontarget_distractor32.jpeg"
"","html-keyboard-response","51","45724","0.0-5.0-2.0-1.3","5eeacbcbb570dc1ab706417a","5eeacbcbb570dc1ab706417a","63a36e1df1afd18b014794e9","63a38e761f815af434c84927","rsvp1-task","true","0","","","","","null","<span></span>","null","iti","","","","","","","","","","","","","","",""
"","html-keyboard-response","52","45835","0.0-5.0-2.0-0.4","5eeacbcbb570dc1ab706417a","5eeacbcbb570dc1ab706417a","63a36e1df1afd18b014794e9","63a38e761f815af434c84927","rsvp1-task","true","0","","","","","null","
					<div style='width: 900px;'>
					<div style='float: center;'><img src=img/nontarget_distractor135.jpeg  ></img>
					</div>
					","null","rsvp1","practice0","","","","","","","","","1","","","","","img/nontarget_distractor135.jpeg"
"","html-keyboard-response","53","45840","0.0-5.0-2.0-1.4","5eeacbcbb570dc1ab706417a","5eeacbcbb570dc1ab706417a","63a36e1df1afd18b014794e9","63a38e761f815af434c84927","rsvp1-task","true","0","","","","","null","<span></span>","null","iti","","","","","","","","","","","","","","",""
"","html-keyboard-response","54","45952","0.0-5.0-2.0-0.5","5eeacbcbb570dc1ab706417a","5eeacbcbb570dc1ab706417a","63a36e1df1afd18b014794e9","63a38e761f815af434c84927","rsvp1-task","true","0","","","","","null","
					<div style='width: 900px;'>
					<div style='float: center;'><img src=img/nontarget_distractor46.jpeg  ></img>
					</div>
					","null","rsvp1","practice0","","","","","","","","","1","","","","","img/nontarget_distractor46.jpeg"
"","html-keyboard-response","55","45958","0.0-5.0-2.0-1.5","5eeacbcbb570dc1ab706417a","5eeacbcbb570dc1ab706417a","63a36e1df1afd18b014794e9","63a38e761f815af434c84927","rsvp1-task","true","0","","","","","null","<span></span>","null","iti","","","","","","","","","","","","","","",""
"","html-keyboard-response","56","46068","0.0-5.0-2.0-0.6","5eeacbcbb570dc1ab706417a","5eeacbcbb570dc1ab706417a","63a36e1df1afd18b014794e9","63a38e761f815af434c84927","rsvp1-task","true","0","","","","","null","
					<div style='width: 900px;'>
					<div style='float: center;'><img src=img/nontarget_distractor25.jpeg  ></img>
					</div>
					","null","rsvp1","practice0","","","","","","","","","1","","","","","img/nontarget_distractor25.jpeg"
"","html-keyboard-response","57","46074","0.0-5.0-2.0-1.6","5eeacbcbb570dc1ab706417a","5eeacbcbb570dc1ab706417a","63a36e1df1afd18b014794e9","63a38e761f815af434c84927","rsvp1-task","true","0","","","","","null","<span></span>","null","iti","","","","","","","","","","","","","","",""
"","html-keyboard-response","58","46185","0.0-5.0-2.0-0.7","5eeacbcbb570dc1ab706417a","5eeacbcbb570dc1ab706417a","63a36e1df1afd18b014794e9","63a38e761f815af434c84927","rsvp1-task","true","0","","","","","null","
					<div style='width: 900px;'>
					<div style='float: center;'><img src=img/nontarget_distractor204.jpeg  ></img>
					</div>
					","null","rsvp1","practice0","","","","","","","","","1","","","","","img/nontarget_distractor204.jpeg"
"","html-keyboard-response","59","46192","0.0-5.0-2.0-1.7","5eeacbcbb570dc1ab706417a","5eeacbcbb570dc1ab706417a","63a36e1df1afd18b014794e9","63a38e761f815af434c84927","rsvp1-task","true","0","","","","","null","<span></span>","null","iti","","","","","","","","","","","","","","",""
"","html-keyboard-response","60","46302","0.0-5.0-2.0-0.8","5eeacbcbb570dc1ab706417a","5eeacbcbb570dc1ab706417a","63a36e1df1afd18b014794e9","63a38e761f815af434c84927","rsvp1-task","true","0","","","","","null","
					<div style='width: 900px;'>
					<div style='float: center;'><img src=img/nontarget_distractor3.jpeg  ></img>
					</div>
					","null","rsvp1","practice0","","","","","","","","","1","","","","","img/nontarget_distractor3.jpeg"
"","html-keyboard-response","61","46308","0.0-5.0-2.0-1.8","5eeacbcbb570dc1ab706417a","5eeacbcbb570dc1ab706417a","63a36e1df1afd18b014794e9","63a38e761f815af434c84927","rsvp1-task","true","0","","","","","null","<span></span>","null","iti","","","","","","","","","","","","","","",""
"","html-keyboard-response","62","46420","0.0-5.0-2.0-0.9","5eeacbcbb570dc1ab706417a","5eeacbcbb570dc1ab706417a","63a36e1df1afd18b014794e9","63a38e761f815af434c84927","rsvp1-task","true","0","","","","","null","
					<div style='width: 900px;'>
					<div style='float: center;'><img src=img/nontarget_distractor114.jpeg  ></img>
					</div>
					","null","rsvp1","practice0","","","","","","","","","1","","","","","img/nontarget_distractor114.jpeg"
"","html-keyboard-response","63","46425","0.0-5.0-2.0-1.9","5eeacbcbb570dc1ab706417a","5eeacbcbb570dc1ab706417a","63a36e1df1afd18b014794e9","63a38e761f815af434c84927","rsvp1-task","true","0","","","","","null","<span></span>","null","iti","","","","","","","","","","","","","","",""
"","html-keyboard-response","64","46538","0.0-5.0-2.0-0.10","5eeacbcbb570dc1ab706417a","5eeacbcbb570dc1ab706417a","63a36e1df1afd18b014794e9","63a38e761f815af434c84927","rsvp1-task","true","0","","","","","null","
					<div style='width: 900px;'>
					<div style='float: center;'><img src=img/t2_targets104.jpeg class=""rotateimgR""  ></img>
					</div>
					","null","rsvp1","practice0","","","","","","","","","1","","","","","img/t2_targets104.jpeg class=""rotateimgR"""
"","html-keyboard-response","65","46544","0.0-5.0-2.0-1.10","5eeacbcbb570dc1ab706417a","5eeacbcbb570dc1ab706417a","63a36e1df1afd18b014794e9","63a38e761f815af434c84927","rsvp1-task","true","0","","","","","null","<span></span>","null","iti","","","","","","","","","","","","","","",""
"","html-keyboard-response","66","46654","0.0-5.0-2.0-0.11","5eeacbcbb570dc1ab706417a","5eeacbcbb570dc1ab706417a","63a36e1df1afd18b014794e9","63a38e761f815af434c84927","rsvp1-task","true","0","","","","","null","
					<div style='width: 900px;'>
					<div style='float: center;'><img src=img/nontarget_distractor36.jpeg  ></img>
					</div>
					","null","rsvp1","practice0","","","","","","","","","1","","","","","img/nontarget_distractor36.jpeg"
"","html-keyboard-response","67","46659","0.0-5.0-2.0-1.11","5eeacbcbb570dc1ab706417a","5eeacbcbb570dc1ab706417a","63a36e1df1afd18b014794e9","63a38e761f815af434c84927","rsvp1-task","true","0","","","","","null","<span></span>","null","iti","","","","","","","","","","","","","","",""
"","html-keyboard-response","68","46771","0.0-5.0-2.0-0.12","5eeacbcbb570dc1ab706417a","5eeacbcbb570dc1ab706417a","63a36e1df1afd18b014794e9","63a38e761f815af434c84927","rsvp1-task","true","0","","","","","null","
					<div style='width: 900px;'>
					<div style='float: center;'><img src=img/nontarget_distractor148.jpeg  ></img>
					</div>
					","null","rsvp1","practice0","","","","","","","","","1","","","","","img/nontarget_distractor148.jpeg"
"","html-keyboard-response","69","46777","0.0-5.0-2.0-1.12","5eeacbcbb570dc1ab706417a","5eeacbcbb570dc1ab706417a","63a36e1df1afd18b014794e9","63a38e761f815af434c84927","rsvp1-task","true","0","","","","","null","<span></span>","null","iti","","","","","","","","","","","","","","",""
"","html-keyboard-response","70","46887","0.0-5.0-2.0-0.13","5eeacbcbb570dc1ab706417a","5eeacbcbb570dc1ab706417a","63a36e1df1afd18b014794e9","63a38e761f815af434c84927","rsvp1-task","true","0","","","","","null","
					<div style='width: 900px;'>
					<div style='float: center;'><img src=img/nontarget_distractor243.jpeg  ></img>
					</div>
					","null","rsvp1","practice0","","","","","","","","","1","","","","","img/nontarget_distractor243.jpeg"
"","html-keyboard-response","71","46892","0.0-5.0-2.0-1.13","5eeacbcbb570dc1ab706417a","5eeacbcbb570dc1ab706417a","63a36e1df1afd18b014794e9","63a38e761f815af434c84927","rsvp1-task","true","0","","","","","null","<span></span>","null","iti","","","","","","","","","","","","","","",""
"","html-keyboard-response","72","46996","0.0-5.0-2.0-0.14","5eeacbcbb570dc1ab706417a","5eeacbcbb570dc1ab706417a","63a36e1df1afd18b014794e9","63a38e761f815af434c84927","rsvp1-task","true","0","","","","","null","
					<div style='width: 900px;'>
					<div style='float: center;'><img src=img/nontarget_distractor242.jpeg  ></img>
					</div>
					","null","rsvp1","practice0","","","","","","","","","1","","","","","img/nontarget_distractor242.jpeg"
"","html-keyboard-response","73","47001","0.0-5.0-2.0-1.14","5eeacbcbb570dc1ab706417a","5eeacbcbb570dc1ab706417a","63a36e1df1afd18b014794e9","63a38e761f815af434c84927","rsvp1-task","true","0","","","","","null","<span></span>","null","iti","","","","","","","","","","","","","","",""
"","html-keyboard-response","74","47105","0.0-5.0-2.0-0.15","5eeacbcbb570dc1ab706417a","5eeacbcbb570dc1ab706417a","63a36e1df1afd18b014794e9","63a38e761f815af434c84927","rsvp1-task","true","0","","","","","null","
					<div style='width: 900px;'>
					<div style='float: center;'><img src=img/nontarget_distractor81.jpeg  ></img>
					</div>
					","null","rsvp1","practice0","","","","","","","","","1","","","","","img/nontarget_distractor81.jpeg"
"","html-keyboard-response","75","47110","0.0-5.0-2.0-1.15","5eeacbcbb570dc1ab706417a","5eeacbcbb570dc1ab706417a","63a36e1df1afd18b014794e9","63a38e761f815af434c84927","rsvp1-task","true","0","","","","","null","<span></span>","null","iti","","","","","","","","","","","","","","",""
"","html-keyboard-response","76","47225","0.0-5.0-2.0-0.16","5eeacbcbb570dc1ab706417a","5eeacbcbb570dc1ab706417a","63a36e1df1afd18b014794e9","63a38e761f815af434c84927","rsvp1-task","true","0","","","","","null","
					<div style='width: 900px;'>
					<div style='float: center;'><img src=img/nontarget_distractor214.jpeg  ></img>
					</div>
					","null","rsvp1","practice0","","","","","","","","","1","","","","","img/nontarget_distractor214.jpeg"
"","html-keyboard-response","77","47231","0.0-5.0-2.0-1.16","5eeacbcbb570dc1ab706417a","5eeacbcbb570dc1ab706417a","63a36e1df1afd18b014794e9","63a38e761f815af434c84927","rsvp1-task","true","0","","","","","null","<span></span>","null","iti","","","","","","","","","","","","","","",""
"","html-keyboard-response","78","47958","0.0-5.0-3.0-0.0","5eeacbcbb570dc1ab706417a","5eeacbcbb570dc1ab706417a","63a36e1df1afd18b014794e9","63a38e761f815af434c84927","rsvp1-task","true","0","","","","","725.2999999523163","<div class=""rsvp""> Was the rotated image rotated left (1 key) or right (0 key)?</div>","0","response","practice0","0","0","neutral","img/nontarget_distractor204.jpeg","img/nontarget_distractor36.jpeg","8","3","11","1","true","true","true","",""
"","html-keyboard-response","79","48968","0.0-5.0-4.0","5eeacbcbb570dc1ab706417a","5eeacbcbb570dc1ab706417a","63a36e1df1afd18b014794e9","63a38e761f815af434c84927","rsvp1-task","true","0","","","","","null","Correct! </p> <p>  </p><p> ","null","","","","","","","","","","","","","","","main_T1_ITI",""
"","html-keyboard-response","80","50990","0.0-5.0-5.0","5eeacbcbb570dc1ab706417a","5eeacbcbb570dc1ab706417a","63a36e1df1afd18b014794e9","63a38e761f815af434c84927","rsvp1-task","true","0","","","","","null","<div class=""rsvp"">+</div>","null","fixation","","","","","","","","","","","","","","",""
"","html-keyboard-response","81","51252","0.0-5.0-6.0","5eeacbcbb570dc1ab706417a","5eeacbcbb570dc1ab706417a","63a36e1df1afd18b014794e9","63a38e761f815af434c84927","rsvp1-task","true","0","","","","","null","<div class=""rsvp"" ></div>","null","blank","","","","","","","","","","","","","","",""
"","html-keyboard-response","82","51363","0.0-5.0-7.0-0.0","5eeacbcbb570dc1ab706417a","5eeacbcbb570dc1ab706417a","63a36e1df1afd18b014794e9","63a38e761f815af434c84927","rsvp1-task","true","0","","","","","null","
					<div style='width: 900px;'>
					<div style='float: center;'><img src=img/nontarget_distractor191.jpeg  ></img>
					</div>
					","null","rsvp1","practice0","","","","","","","","","2","","","","","img/nontarget_distractor191.jpeg"
"","html-keyboard-response","83","51368","0.0-5.0-7.0-1.0","5eeacbcbb570dc1ab706417a","5eeacbcbb570dc1ab706417a","63a36e1df1afd18b014794e9","63a38e761f815af434c84927","rsvp1-task","true","0","","","","","null","<span></span>","null","iti","","","","","","","","","","","","","","",""
"","html-keyboard-response","84","51475","0.0-5.0-7.0-0.1","5eeacbcbb570dc1ab706417a","5eeacbcbb570dc1ab706417a","63a36e1df1afd18b014794e9","63a38e761f815af434c84927","rsvp1-task","true","0","","","","","null","
					<div style='width: 900px;'>
					<div style='float: center;'><img src=img/nontarget_distractor23.jpeg  ></img>
					</div>
					","null","rsvp1","practice0","","","","","","","","","2","","","","","img/nontarget_distractor23.jpeg"
"","html-keyboard-response","85","51480","0.0-5.0-7.0-1.1","5eeacbcbb570dc1ab706417a","5eeacbcbb570dc1ab706417a","63a36e1df1afd18b014794e9","63a38e761f815af434c84927","rsvp1-task","true","0","","","","","null","<span></span>","null","iti","","","","","","","","","","","","","","",""
"","html-keyboard-response","86","51594","0.0-5.0-7.0-0.2","5eeacbcbb570dc1ab706417a","5eeacbcbb570dc1ab706417a","63a36e1df1afd18b014794e9","63a38e761f815af434c84927","rsvp1-task","true","0","","","","","null","
					<div style='width: 900px;'>
					<div style='float: center;'><img src=img/nontarget_distractor171.jpeg  ></img>
					</div>
					","null","rsvp1","practice0","","","","","","","","","2","","","","","img/nontarget_distractor171.jpeg"
"","html-keyboard-response","87","51600","0.0-5.0-7.0-1.2","5eeacbcbb570dc1ab706417a","5eeacbcbb570dc1ab706417a","63a36e1df1afd18b014794e9","63a38e761f815af434c84927","rsvp1-task","true","0","","","","","null","<span></span>","null","iti","","","","","","","","","","","","","","",""
"","html-keyboard-response","88","51708","0.0-5.0-7.0-0.3","5eeacbcbb570dc1ab706417a","5eeacbcbb570dc1ab706417a","63a36e1df1afd18b014794e9","63a38e761f815af434c84927","rsvp1-task","true","0","","","","","null","
					<div style='width: 900px;'>
					<div style='float: center;'><img src=img/nontarget_distractor244.jpeg  ></img>
					</div>
					","null","rsvp1","practice0","","","","","","","","","2","","","","","img/nontarget_distractor244.jpeg"
"","html-keyboard-response","89","51714","0.0-5.0-7.0-1.3","5eeacbcbb570dc1ab706417a","5eeacbcbb570dc1ab706417a","63a36e1df1afd18b014794e9","63a38e761f815af434c84927","rsvp1-task","true","0","","","","","null","<span></span>","null","iti","","","","","","","","","","","","","","",""
"","html-keyboard-response","90","51828","0.0-5.0-7.0-0.4","5eeacbcbb570dc1ab706417a","5eeacbcbb570dc1ab706417a","63a36e1df1afd18b014794e9","63a38e761f815af434c84927","rsvp1-task","true","0","","","","","null","
					<div style='width: 900px;'>
					<div style='float: center;'><img src=img/nontarget_distractor122.jpeg  ></img>
					</div>
					","null","rsvp1","practice0","","","","","","","","","2","","","","","img/nontarget_distractor122.jpeg"
"","html-keyboard-response","91","51833","0.0-5.0-7.0-1.4","5eeacbcbb570dc1ab706417a","5eeacbcbb570dc1ab706417a","63a36e1df1afd18b014794e9","63a38e761f815af434c84927","rsvp1-task","true","0","","","","","null","<span></span>","null","iti","","","","","","","","","","","","","","",""
"","html-keyboard-response","92","51942","0.0-5.0-7.0-0.5","5eeacbcbb570dc1ab706417a","5eeacbcbb570dc1ab706417a","63a36e1df1afd18b014794e9","63a38e761f815af434c84927","rsvp1-task","true","0","","","","","null","
					<div style='width: 900px;'>
					<div style='float: center;'><img src=img/nontarget_distractor220.jpeg  ></img>
					</div>
					","null","rsvp1","practice0","","","","","","","","","2","","","","","img/nontarget_distractor220.jpeg"
"","html-keyboard-response","93","51947","0.0-5.0-7.0-1.5","5eeacbcbb570dc1ab706417a","5eeacbcbb570dc1ab706417a","63a36e1df1afd18b014794e9","63a38e761f815af434c84927","rsvp1-task","true","0","","","","","null","<span></span>","null","iti","","","","","","","","","","","","","","",""
"","html-keyboard-response","94","52058","0.0-5.0-7.0-0.6","5eeacbcbb570dc1ab706417a","5eeacbcbb570dc1ab706417a","63a36e1df1afd18b014794e9","63a38e761f815af434c84927","rsvp1-task","true","0","","","","","null","
					<div style='width: 900px;'>
					<div style='float: center;'><img src=img/nontarget_distractor206.jpeg  ></img>
					</div>
					","null","rsvp1","practice0","","","","","","","","","2","","","","","img/nontarget_distractor206.jpeg"
"","html-keyboard-response","95","52064","0.0-5.0-7.0-1.6","5eeacbcbb570dc1ab706417a","5eeacbcbb570dc1ab706417a","63a36e1df1afd18b014794e9","63a38e761f815af434c84927","rsvp1-task","true","0","","","","","null","<span></span>","null","iti","","","","","","","","","","","","","","",""
"","html-keyboard-response","96","52175","0.0-5.0-7.0-0.7","5eeacbcbb570dc1ab706417a","5eeacbcbb570dc1ab706417a","63a36e1df1afd18b014794e9","63a38e761f815af434c84927","rsvp1-task","true","0","","","","","null","
					<div style='width: 900px;'>
					<div style='float: center;'><img src=img/nontarget_distractor256.jpeg  ></img>
					</div>
					","null","rsvp1","practice0","","","","","","","","","2","","","","","img/nontarget_distractor256.jpeg"
"","html-keyboard-response","97","52181","0.0-5.0-7.0-1.7","5eeacbcbb570dc1ab706417a","5eeacbcbb570dc1ab706417a","63a36e1df1afd18b014794e9","63a38e761f815af434c84927","rsvp1-task","true","0","","","","","null","<span></span>","null","iti","","","","","","","","","","","","","","",""
"","html-keyboard-response","98","52291","0.0-5.0-7.0-0.8","5eeacbcbb570dc1ab706417a","5eeacbcbb570dc1ab706417a","63a36e1df1afd18b014794e9","63a38e761f815af434c84927","rsvp1-task","true","0","","","","","null","
					<div style='width: 900px;'>
					<div style='float: center;'><img src=img/t2_targets98.jpeg class=""rotateimgR""  ></img>
					</div>
					","null","rsvp1","practice0","","","","","","","","","2","","","","","img/t2_targets98.jpeg class=""rotateimgR"""
"","html-keyboard-response","99","52297","0.0-5.0-7.0-1.8","5eeacbcbb570dc1ab706417a","5eeacbcbb570dc1ab706417a","63a36e1df1afd18b014794e9","63a38e761f815af434c84927","rsvp1-task","true","0","","","","","null","<span></span>","null","iti","","","","","","","","","","","","","","",""
"","html-keyboard-response","100","52412","0.0-5.0-7.0-0.9","5eeacbcbb570dc1ab706417a","5eeacbcbb570dc1ab706417a","63a36e1df1afd18b014794e9","63a38e761f815af434c84927","rsvp1-task","true","0","","","","","null","
					<div style='width: 900px;'>
					<div style='float: center;'><img src=img/nontarget_distractor9.jpeg  ></img>
					</div>
					","null","rsvp1","practice0","","","","","","","","","2","","","","","img/nontarget_distractor9.jpeg"
"","html-keyboard-response","101","52418","0.0-5.0-7.0-1.9","5eeacbcbb570dc1ab706417a","5eeacbcbb570dc1ab706417a","63a36e1df1afd18b014794e9","63a38e761f815af434c84927","rsvp1-task","true","0","","","","","null","<span></span>","null","iti","","","","","","","","","","","","","","",""
"","html-keyboard-response","102","52527","0.0-5.0-7.0-0.10","5eeacbcbb570dc1ab706417a","5eeacbcbb570dc1ab706417a","63a36e1df1afd18b014794e9","63a38e761f815af434c84927","rsvp1-task","true","0","","","","","null","
					<div style='width: 900px;'>
					<div style='float: center;'><img src=img/nontarget_distractor31.jpeg  ></img>
					</div>
					","null","rsvp1","practice0","","","","","","","","","2","","","","","img/nontarget_distractor31.jpeg"
"","html-keyboard-response","103","52532","0.0-5.0-7.0-1.10","5eeacbcbb570dc1ab706417a","5eeacbcbb570dc1ab706417a","63a36e1df1afd18b014794e9","63a38e761f815af434c84927","rsvp1-task","true","0","","","","","null","<span></span>","null","iti","","","","","","","","","","","","","","",""
"","html-keyboard-response","104","52644","0.0-5.0-7.0-0.11","5eeacbcbb570dc1ab706417a","5eeacbcbb570dc1ab706417a","63a36e1df1afd18b014794e9","63a38e761f815af434c84927","rsvp1-task","true","0","","","","","null","
					<div style='width: 900px;'>
					<div style='float: center;'><img src=img/nontarget_distractor114.jpeg  ></img>
					</div>
					","null","rsvp1","practice0","","","","","","","","","2","","","","","img/nontarget_distractor114.jpeg"
"","html-keyboard-response","105","52650","0.0-5.0-7.0-1.11","5eeacbcbb570dc1ab706417a","5eeacbcbb570dc1ab706417a","63a36e1df1afd18b014794e9","63a38e761f815af434c84927","rsvp1-task","true","0","","","","","null","<span></span>","null","iti","","","","","","","","","","","","","","",""
"","html-keyboard-response","106","52761","0.0-5.0-7.0-0.12","5eeacbcbb570dc1ab706417a","5eeacbcbb570dc1ab706417a","63a36e1df1afd18b014794e9","63a38e761f815af434c84927","rsvp1-task","true","0","","","","","null","
					<div style='width: 900px;'>
					<div style='float: center;'><img src=img/nontarget_distractor138.jpeg  ></img>
					</div>
					","null","rsvp1","practice0","","","","","","","","","2","","","","","img/nontarget_distractor138.jpeg"
"","html-keyboard-response","107","52766","0.0-5.0-7.0-1.12","5eeacbcbb570dc1ab706417a","5eeacbcbb570dc1ab706417a","63a36e1df1afd18b014794e9","63a38e761f815af434c84927","rsvp1-task","true","0","","","","","null","<span></span>","null","iti","","","","","","","","","","","","","","",""
"","html-keyboard-response","108","52878","0.0-5.0-7.0-0.13","5eeacbcbb570dc1ab706417a","5eeacbcbb570dc1ab706417a","63a36e1df1afd18b014794e9","63a38e761f815af434c84927","rsvp1-task","true","0","","","","","null","
					<div style='width: 900px;'>
					<div style='float: center;'><img src=img/nontarget_distractor179.jpeg  ></img>
					</div>
					","null","rsvp1","practice0","","","","","","","","","2","","","","","img/nontarget_distractor179.jpeg"
"","html-keyboard-response","109","52883","0.0-5.0-7.0-1.13","5eeacbcbb570dc1ab706417a","5eeacbcbb570dc1ab706417a","63a36e1df1afd18b014794e9","63a38e761f815af434c84927","rsvp1-task","true","0","","","","","null","<span></span>","null","iti","","","","","","","","","","","","","","",""
"","html-keyboard-response","110","52995","0.0-5.0-7.0-0.14","5eeacbcbb570dc1ab706417a","5eeacbcbb570dc1ab706417a","63a36e1df1afd18b014794e9","63a38e761f815af434c84927","rsvp1-task","true","0","","","","","null","
					<div style='width: 900px;'>
					<div style='float: center;'><img src=img/nontarget_distractor1.jpeg  ></img>
					</div>
					","null","rsvp1","practice0","","","","","","","","","2","","","","","img/nontarget_distractor1.jpeg"
"","html-keyboard-response","111","53000","0.0-5.0-7.0-1.14","5eeacbcbb570dc1ab706417a","5eeacbcbb570dc1ab706417a","63a36e1df1afd18b014794e9","63a38e761f815af434c84927","rsvp1-task","true","0","","","","","null","<span></span>","null","iti","","","","","","","","","","","","","","",""
"","html-keyboard-response","112","53111","0.0-5.0-7.0-0.15","5eeacbcbb570dc1ab706417a","5eeacbcbb570dc1ab706417a","63a36e1df1afd18b014794e9","63a38e761f815af434c84927","rsvp1-task","true","0","","","","","null","
					<div style='width: 900px;'>
					<div style='float: center;'><img src=img/nontarget_distractor230.jpeg  ></img>
					</div>
					","null","rsvp1","practice0","","","","","","","","","2","","","","","img/nontarget_distractor230.jpeg"
"","html-keyboard-response","113","53117","0.0-5.0-7.0-1.15","5eeacbcbb570dc1ab706417a","5eeacbcbb570dc1ab706417a","63a36e1df1afd18b014794e9","63a38e761f815af434c84927","rsvp1-task","true","0","","","","","null","<span></span>","null","iti","","","","","","","","","","","","","","",""
"","html-keyboard-response","114","53230","0.0-5.0-7.0-0.16","5eeacbcbb570dc1ab706417a","5eeacbcbb570dc1ab706417a","63a36e1df1afd18b014794e9","63a38e761f815af434c84927","rsvp1-task","true","0","","","","","null","
					<div style='width: 900px;'>
					<div style='float: center;'><img src=img/nontarget_distractor233.jpeg  ></img>
					</div>
					","null","rsvp1","practice0","","","","","","","","","2","","","","","img/nontarget_distractor233.jpeg"
"","html-keyboard-response","115","53235","0.0-5.0-7.0-1.16","5eeacbcbb570dc1ab706417a","5eeacbcbb570dc1ab706417a","63a36e1df1afd18b014794e9","63a38e761f815af434c84927","rsvp1-task","true","0","","","","","null","<span></span>","null","iti","","","","","","","","","","","","","","",""
"","html-keyboard-response","116","54087","0.0-5.0-8.0-0.0","5eeacbcbb570dc1ab706417a","5eeacbcbb570dc1ab706417a","63a36e1df1afd18b014794e9","63a38e761f815af434c84927","rsvp1-task","true","0","","","","","851","<div class=""rsvp""> Was the rotated image rotated left (1 key) or right (0 key)?</div>","0","response","practice0","0","0","neutral","img/nontarget_distractor256.jpeg","img/nontarget_distractor9.jpeg","8","1","9","2","true","true","true","",""
"","html-keyboard-response","117","55104","0.0-5.0-9.0","5eeacbcbb570dc1ab706417a","5eeacbcbb570dc1ab706417a","63a36e1df1afd18b014794e9","63a38e761f815af434c84927","rsvp1-task","true","0","","","","","null","Correct! </p> <p>  </p><p> ","null","","","","","","","","","","","","","","","main_T1_ITI",""
"","html-keyboard-response","118","57110","0.0-5.0-10.0","5eeacbcbb570dc1ab706417a","5eeacbcbb570dc1ab706417a","63a36e1df1afd18b014794e9","63a38e761f815af434c84927","rsvp1-task","true","0","","","","","null","<div class=""rsvp"">+</div>","null","fixation","","","","","","","","","","","","","","",""
"","html-keyboard-response","119","57370","0.0-5.0-11.0","5eeacbcbb570dc1ab706417a","5eeacbcbb570dc1ab706417a","63a36e1df1afd18b014794e9","63a38e761f815af434c84927","rsvp1-task","true","0","","","","","null","<div class=""rsvp"" ></div>","null","blank","","","","","","","","","","","","","","",""
"","html-keyboard-response","120","57480","0.0-5.0-12.0-0.0","5eeacbcbb570dc1ab706417a","5eeacbcbb570dc1ab706417a","63a36e1df1afd18b014794e9","63a38e761f815af434c84927","rsvp1-task","true","0","","","","","null","
					<div style='width: 900px;'>
					<div style='float: center;'><img src=img/nontarget_distractor57.jpeg  ></img>
					</div>
					","null","rsvp1","practice0","","","","","","","","","3","","","","","img/nontarget_distractor57.jpeg"
"","html-keyboard-response","121","57486","0.0-5.0-12.0-1.0","5eeacbcbb570dc1ab706417a","5eeacbcbb570dc1ab706417a","63a36e1df1afd18b014794e9","63a38e761f815af434c84927","rsvp1-task","true","0","","","","","null","<span></span>","null","iti","","","","","","","","","","","","","","",""
"","html-keyboard-response","122","57597","0.0-5.0-12.0-0.1","5eeacbcbb570dc1ab706417a","5eeacbcbb570dc1ab706417a","63a36e1df1afd18b014794e9","63a38e761f815af434c84927","rsvp1-task","true","0","","","","","null","
					<div style='width: 900px;'>
					<div style='float: center;'><img src=img/nontarget_distractor40.jpeg  ></img>
					</div>
					","null","rsvp1","practice0","","","","","","","","","3","","","","","img/nontarget_distractor40.jpeg"
"","html-keyboard-response","123","57603","0.0-5.0-12.0-1.1","5eeacbcbb570dc1ab706417a","5eeacbcbb570dc1ab706417a","63a36e1df1afd18b014794e9","63a38e761f815af434c84927","rsvp1-task","true","0","","","","","null","<span></span>","null","iti","","","","","","","","","","","","","","",""
"","html-keyboard-response","124","57714","0.0-5.0-12.0-0.2","5eeacbcbb570dc1ab706417a","5eeacbcbb570dc1ab706417a","63a36e1df1afd18b014794e9","63a38e761f815af434c84927","rsvp1-task","true","0","","","","","null","
					<div style='width: 900px;'>
					<div style='float: center;'><img src=img/nontarget_distractor36.jpeg  ></img>
					</div>
					","null","rsvp1","practice0","","","","","","","","","3","","","","","img/nontarget_distractor36.jpeg"
"","html-keyboard-response","125","57719","0.0-5.0-12.0-1.2","5eeacbcbb570dc1ab706417a","5eeacbcbb570dc1ab706417a","63a36e1df1afd18b014794e9","63a38e761f815af434c84927","rsvp1-task","true","0","","","","","null","<span></span>","null","iti","","","","","","","","","","","","","","",""
"","html-keyboard-response","126","57831","0.0-5.0-12.0-0.3","5eeacbcbb570dc1ab706417a","5eeacbcbb570dc1ab706417a","63a36e1df1afd18b014794e9","63a38e761f815af434c84927","rsvp1-task","true","0","","","","","null","
					<div style='width: 900px;'>
					<div style='float: center;'><img src=img/nontarget_distractor60.jpeg  ></img>
					</div>
					","null","rsvp1","practice0","","","","","","","","","3","","","","","img/nontarget_distractor60.jpeg"
"","html-keyboard-response","127","57837","0.0-5.0-12.0-1.3","5eeacbcbb570dc1ab706417a","5eeacbcbb570dc1ab706417a","63a36e1df1afd18b014794e9","63a38e761f815af434c84927","rsvp1-task","true","0","","","","","null","<span></span>","null","iti","","","","","","","","","","","","","","",""
"","html-keyboard-response","128","57947","0.0-5.0-12.0-0.4","5eeacbcbb570dc1ab706417a","5eeacbcbb570dc1ab706417a","63a36e1df1afd18b014794e9","63a38e761f815af434c84927","rsvp1-task","true","0","","","","","null","
					<div style='width: 900px;'>
					<div style='float: center;'><img src=img/nontarget_distractor207.jpeg  ></img>
					</div>
					","null","rsvp1","practice0","","","","","","","","","3","","","","","img/nontarget_distractor207.jpeg"
"","html-keyboard-response","129","57953","0.0-5.0-12.0-1.4","5eeacbcbb570dc1ab706417a","5eeacbcbb570dc1ab706417a","63a36e1df1afd18b014794e9","63a38e761f815af434c84927","rsvp1-task","true","0","","","","","null","<span></span>","null","iti","","","","","","","","","","","","","","",""
"","html-keyboard-response","130","58067","0.0-5.0-12.0-0.5","5eeacbcbb570dc1ab706417a","5eeacbcbb570dc1ab706417a","63a36e1df1afd18b014794e9","63a38e761f815af434c84927","rsvp1-task","true","0","","","","","null","
					<div style='width: 900px;'>
					<div style='float: center;'><img src=img/nontarget_distractor249.jpeg  ></img>
					</div>
					","null","rsvp1","practice0","","","","","","","","","3","","","","","img/nontarget_distractor249.jpeg"
"","html-keyboard-response","131","58073","0.0-5.0-12.0-1.5","5eeacbcbb570dc1ab706417a","5eeacbcbb570dc1ab706417a","63a36e1df1afd18b014794e9","63a38e761f815af434c84927","rsvp1-task","true","0","","","","","null","<span></span>","null","iti","","","","","","","","","","","","","","",""
"","html-keyboard-response","132","58183","0.0-5.0-12.0-0.6","5eeacbcbb570dc1ab706417a","5eeacbcbb570dc1ab706417a","63a36e1df1afd18b014794e9","63a38e761f815af434c84927","rsvp1-task","true","0","","","","","null","
					<div style='width: 900px;'>
					<div style='float: center;'><img src=img/nontarget_distractor239.jpeg  ></img>
					</div>
					","null","rsvp1","practice0","","","","","","","","","3","","","","","img/nontarget_distractor239.jpeg"
"","html-keyboard-response","133","58189","0.0-5.0-12.0-1.6","5eeacbcbb570dc1ab706417a","5eeacbcbb570dc1ab706417a","63a36e1df1afd18b014794e9","63a38e761f815af434c84927","rsvp1-task","true","0","","","","","null","<span></span>","null","iti","","","","","","","","","","","","","","",""
"","html-keyboard-response","134","58300","0.0-5.0-12.0-0.7","5eeacbcbb570dc1ab706417a","5eeacbcbb570dc1ab706417a","63a36e1df1afd18b014794e9","63a38e761f815af434c84927","rsvp1-task","true","0","","","","","null","
					<div style='width: 900px;'>
					<div style='float: center;'><img src=img/nontarget_distractor247.jpeg  ></img>
					</div>
					","null","rsvp1","practice0","","","","","","","","","3","","","","","img/nontarget_distractor247.jpeg"
"","html-keyboard-response","135","58305","0.0-5.0-12.0-1.7","5eeacbcbb570dc1ab706417a","5eeacbcbb570dc1ab706417a","63a36e1df1afd18b014794e9","63a38e761f815af434c84927","rsvp1-task","true","0","","","","","null","<span></span>","null","iti","","","","","","","","","","","","","","",""
"","html-keyboard-response","136","58416","0.0-5.0-12.0-0.8","5eeacbcbb570dc1ab706417a","5eeacbcbb570dc1ab706417a","63a36e1df1afd18b014794e9","63a38e761f815af434c84927","rsvp1-task","true","0","","","","","null","
					<div style='width: 900px;'>
					<div style='float: center;'><img src=img/nontarget_distractor198.jpeg  ></img>
					</div>
					","null","rsvp1","practice0","","","","","","","","","3","","","","","img/nontarget_distractor198.jpeg"
"","html-keyboard-response","137","58422","0.0-5.0-12.0-1.8","5eeacbcbb570dc1ab706417a","5eeacbcbb570dc1ab706417a","63a36e1df1afd18b014794e9","63a38e761f815af434c84927","rsvp1-task","true","0","","","","","null","<span></span>","null","iti","","","","","","","","","","","","","","",""
"","html-keyboard-response","138","58531","0.0-5.0-12.0-0.9","5eeacbcbb570dc1ab706417a","5eeacbcbb570dc1ab706417a","63a36e1df1afd18b014794e9","63a38e761f815af434c84927","rsvp1-task","true","0","","","","","null","
					<div style='width: 900px;'>
					<div style='float: center;'><img src=img/nontarget_distractor253.jpeg  ></img>
					</div>
					","null","rsvp1","practice0","","","","","","","","","3","","","","","img/nontarget_distractor253.jpeg"
"","html-keyboard-response","139","58537","0.0-5.0-12.0-1.9","5eeacbcbb570dc1ab706417a","5eeacbcbb570dc1ab706417a","63a36e1df1afd18b014794e9","63a38e761f815af434c84927","rsvp1-task","true","0","","","","","null","<span></span>","null","iti","","","","","","","","","","","","","","",""
"","html-keyboard-response","140","58648","0.0-5.0-12.0-0.10","5eeacbcbb570dc1ab706417a","5eeacbcbb570dc1ab706417a","63a36e1df1afd18b014794e9","63a38e761f815af434c84927","rsvp1-task","true","0","","","","","null","
					<div style='width: 900px;'>
					<div style='float: center;'><img src=img/nontarget_distractor156.jpeg  ></img>
					</div>
					","null","rsvp1","practice0","","","","","","","","","3","","","","","img/nontarget_distractor156.jpeg"
"","html-keyboard-response","141","58655","0.0-5.0-12.0-1.10","5eeacbcbb570dc1ab706417a","5eeacbcbb570dc1ab706417a","63a36e1df1afd18b014794e9","63a38e761f815af434c84927","rsvp1-task","true","0","","","","","null","<span></span>","null","iti","","","","","","","","","","","","","","",""
"","html-keyboard-response","142","58765","0.0-5.0-12.0-0.11","5eeacbcbb570dc1ab706417a","5eeacbcbb570dc1ab706417a","63a36e1df1afd18b014794e9","63a38e761f815af434c84927","rsvp1-task","true","0","","","","","null","
					<div style='width: 900px;'>
					<div style='float: center;'><img src=img/nontarget_distractor24.jpeg  ></img>
					</div>
					","null","rsvp1","practice0","","","","","","","","","3","","","","","img/nontarget_distractor24.jpeg"
"","html-keyboard-response","143","58770","0.0-5.0-12.0-1.11","5eeacbcbb570dc1ab706417a","5eeacbcbb570dc1ab706417a","63a36e1df1afd18b014794e9","63a38e761f815af434c84927","rsvp1-task","true","0","","","","","null","<span></span>","null","iti","","","","","","","","","","","","","","",""
"","html-keyboard-response","144","58882","0.0-5.0-12.0-0.12","5eeacbcbb570dc1ab706417a","5eeacbcbb570dc1ab706417a","63a36e1df1afd18b014794e9","63a38e761f815af434c84927","rsvp1-task","true","0","","","","","null","
					<div style='width: 900px;'>
					<div style='float: center;'><img src=img/nontarget_distractor116.jpeg  ></img>
					</div>
					","null","rsvp1","practice0","","","","","","","","","3","","","","","img/nontarget_distractor116.jpeg"
"","html-keyboard-response","145","58888","0.0-5.0-12.0-1.12","5eeacbcbb570dc1ab706417a","5eeacbcbb570dc1ab706417a","63a36e1df1afd18b014794e9","63a38e761f815af434c84927","rsvp1-task","true","0","","","","","null","<span></span>","null","iti","","","","","","","","","","","","","","",""
"","html-keyboard-response","146","58998","0.0-5.0-12.0-0.13","5eeacbcbb570dc1ab706417a","5eeacbcbb570dc1ab706417a","63a36e1df1afd18b014794e9","63a38e761f815af434c84927","rsvp1-task","true","0","","","","","null","
					<div style='width: 900px;'>
					<div style='float: center;'><img src=img/nontarget_distractor14.jpeg  ></img>
					</div>
					","null","rsvp1","practice0","","","","","","","","","3","","","","","img/nontarget_distractor14.jpeg"
"","html-keyboard-response","147","59004","0.0-5.0-12.0-1.13","5eeacbcbb570dc1ab706417a","5eeacbcbb570dc1ab706417a","63a36e1df1afd18b014794e9","63a38e761f815af434c84927","rsvp1-task","true","0","","","","","null","<span></span>","null","iti","","","","","","","","","","","","","","",""
"","html-keyboard-response","148","59116","0.0-5.0-12.0-0.14","5eeacbcbb570dc1ab706417a","5eeacbcbb570dc1ab706417a","63a36e1df1afd18b014794e9","63a38e761f815af434c84927","rsvp1-task","true","0","","","","","null","
					<div style='width: 900px;'>
					<div style='float: center;'><img src=img/t2_targets74.jpeg class=""rotateimgR""  ></img>
					</div>
					","null","rsvp1","practice0","","","","","","","","","3","","","","","img/t2_targets74.jpeg class=""rotateimgR"""
"","html-keyboard-response","149","59122","0.0-5.0-12.0-1.14","5eeacbcbb570dc1ab706417a","5eeacbcbb570dc1ab706417a","63a36e1df1afd18b014794e9","63a38e761f815af434c84927","rsvp1-task","true","0","","","","","null","<span></span>","null","iti","","","","","","","","","","","","","","",""
"","html-keyboard-response","150","59233","0.0-5.0-12.0-0.15","5eeacbcbb570dc1ab706417a","5eeacbcbb570dc1ab706417a","63a36e1df1afd18b014794e9","63a38e761f815af434c84927","rsvp1-task","true","0","","","","","null","
					<div style='width: 900px;'>
					<div style='float: center;'><img src=img/nontarget_distractor201.jpeg  ></img>
					</div>
					","null","rsvp1","practice0","","","","","","","","","3","","","","","img/nontarget_distractor201.jpeg"
"","html-keyboard-response","151","59239","0.0-5.0-12.0-1.15","5eeacbcbb570dc1ab706417a","5eeacbcbb570dc1ab706417a","63a36e1df1afd18b014794e9","63a38e761f815af434c84927","rsvp1-task","true","0","","","","","null","<span></span>","null","iti","","","","","","","","","","","","","","",""
"","html-keyboard-response","152","59344","0.0-5.0-12.0-0.16","5eeacbcbb570dc1ab706417a","5eeacbcbb570dc1ab706417a","63a36e1df1afd18b014794e9","63a38e761f815af434c84927","rsvp1-task","true","0","","","","","null","
					<div style='width: 900px;'>
					<div style='float: center;'><img src=img/nontarget_distractor152.jpeg  ></img>
					</div>
					","null","rsvp1","practice0","","","","","","","","","3","","","","","img/nontarget_distractor152.jpeg"
"","html-keyboard-response","153","59349","0.0-5.0-12.0-1.16","5eeacbcbb570dc1ab706417a","5eeacbcbb570dc1ab706417a","63a36e1df1afd18b014794e9","63a38e761f815af434c84927","rsvp1-task","true","0","","","","","null","<span></span>","null","iti","","","","","","","","","","","","","","",""
"","html-keyboard-response","154","60199","0.0-5.0-13.0-0.0","5eeacbcbb570dc1ab706417a","5eeacbcbb570dc1ab706417a","63a36e1df1afd18b014794e9","63a38e761f815af434c84927","rsvp1-task","true","0","","","","","849.3000000715256","<div class=""rsvp""> Was the rotated image rotated left (1 key) or right (0 key)?</div>","0","response","practice0","0","0","neutral","img/nontarget_distractor247.jpeg","img/nontarget_distractor201.jpeg","8","7","15","3","true","true","true","",""
"","html-keyboard-response","155","61216","0.0-5.0-14.0","5eeacbcbb570dc1ab706417a","5eeacbcbb570dc1ab706417a","63a36e1df1afd18b014794e9","63a38e761f815af434c84927","rsvp1-task","true","0","","","","","null","Correct! </p> <p>  </p><p> ","null","","","","","","","","","","","","","","","main_T1_ITI",""
"","html-keyboard-response","156","63234","0.0-5.0-15.0","5eeacbcbb570dc1ab706417a","5eeacbcbb570dc1ab706417a","63a36e1df1afd18b014794e9","63a38e761f815af434c84927","rsvp1-task","true","0","","","","","null","<div class=""rsvp"">+</div>","null","fixation","","","","","","","","","","","","","","",""
"","html-keyboard-response","157","63495","0.0-5.0-16.0","5eeacbcbb570dc1ab706417a","5eeacbcbb570dc1ab706417a","63a36e1df1afd18b014794e9","63a38e761f815af434c84927","rsvp1-task","true","0","","","","","null","<div class=""rsvp"" ></div>","null","blank","","","","","","","","","","","","","","",""
"","html-keyboard-response","158","63603","0.0-5.0-17.0-0.0","5eeacbcbb570dc1ab706417a","5eeacbcbb570dc1ab706417a","63a36e1df1afd18b014794e9","63a38e761f815af434c84927","rsvp1-task","true","0","","","","","null","
					<div style='width: 900px;'>
					<div style='float: center;'><img src=img/nontarget_distractor21.jpeg  ></img>
					</div>
					","null","rsvp1","practice0","","","","","","","","","4","","","","","img/nontarget_distractor21.jpeg"
"","html-keyboard-response","159","63609","0.0-5.0-17.0-1.0","5eeacbcbb570dc1ab706417a","5eeacbcbb570dc1ab706417a","63a36e1df1afd18b014794e9","63a38e761f815af434c84927","rsvp1-task","true","0","","","","","null","<span></span>","null","iti","","","","","","","","","","","","","","",""
"","html-keyboard-response","160","63720","0.0-5.0-17.0-0.1","5eeacbcbb570dc1ab706417a","5eeacbcbb570dc1ab706417a","63a36e1df1afd18b014794e9","63a38e761f815af434c84927","rsvp1-task","true","0","","","","","null","
					<div style='width: 900px;'>
					<div style='float: center;'><img src=img/nontarget_distractor79.jpeg  ></img>
					</div>
					","null","rsvp1","practice0","","","","","","","","","4","","","","","img/nontarget_distractor79.jpeg"
"","html-keyboard-response","161","63726","0.0-5.0-17.0-1.1","5eeacbcbb570dc1ab706417a","5eeacbcbb570dc1ab706417a","63a36e1df1afd18b014794e9","63a38e761f815af434c84927","rsvp1-task","true","0","","","","","null","<span></span>","null","iti","","","","","","","","","","","","","","",""
"","html-keyboard-response","162","63837","0.0-5.0-17.0-0.2","5eeacbcbb570dc1ab706417a","5eeacbcbb570dc1ab706417a","63a36e1df1afd18b014794e9","63a38e761f815af434c84927","rsvp1-task","true","0","","","","","null","
					<div style='width: 900px;'>
					<div style='float: center;'><img src=img/nontarget_distractor97.jpeg  ></img>
					</div>
					","null","rsvp1","practice0","","","","","","","","","4","","","","","img/nontarget_distractor97.jpeg"
"","html-keyboard-response","163","63843","0.0-5.0-17.0-1.2","5eeacbcbb570dc1ab706417a","5eeacbcbb570dc1ab706417a","63a36e1df1afd18b014794e9","63a38e761f815af434c84927","rsvp1-task","true","0","","","","","null","<span></span>","null","iti","","","","","","","","","","","","","","",""
"","html-keyboard-response","164","63954","0.0-5.0-17.0-0.3","5eeacbcbb570dc1ab706417a","5eeacbcbb570dc1ab706417a","63a36e1df1afd18b014794e9","63a38e761f815af434c84927","rsvp1-task","true","0","","","","","null","
					<div style='width: 900px;'>
					<div style='float: center;'><img src=img/nontarget_distractor32.jpeg  ></img>
					</div>
					","null","rsvp1","practice0","","","","","","","","","4","","","","","img/nontarget_distractor32.jpeg"
"","html-keyboard-response","165","63960","0.0-5.0-17.0-1.3","5eeacbcbb570dc1ab706417a","5eeacbcbb570dc1ab706417a","63a36e1df1afd18b014794e9","63a38e761f815af434c84927","rsvp1-task","true","0","","","","","null","<span></span>","null","iti","","","","","","","","","","","","","","",""
"","html-keyboard-response","166","64070","0.0-5.0-17.0-0.4","5eeacbcbb570dc1ab706417a","5eeacbcbb570dc1ab706417a","63a36e1df1afd18b014794e9","63a38e761f815af434c84927","rsvp1-task","true","0","","","","","null","
					<div style='width: 900px;'>
					<div style='float: center;'><img src=img/nontarget_distractor112.jpeg  ></img>
					</div>
					","null","rsvp1","practice0","","","","","","","","","4","","","","","img/nontarget_distractor112.jpeg"
"","html-keyboard-response","167","64076","0.0-5.0-17.0-1.4","5eeacbcbb570dc1ab706417a","5eeacbcbb570dc1ab706417a","63a36e1df1afd18b014794e9","63a38e761f815af434c84927","rsvp1-task","true","0","","","","","null","<span></span>","null","iti","","","","","","","","","","","","","","",""
"","html-keyboard-response","168","64187","0.0-5.0-17.0-0.5","5eeacbcbb570dc1ab706417a","5eeacbcbb570dc1ab706417a","63a36e1df1afd18b014794e9","63a38e761f815af434c84927","rsvp1-task","true","0","","","","","null","
					<div style='width: 900px;'>
					<div style='float: center;'><img src=img/nontarget_distractor62.jpeg  ></img>
					</div>
					","null","rsvp1","practice0","","","","","","","","","4","","","","","img/nontarget_distractor62.jpeg"
"","html-keyboard-response","169","64194","0.0-5.0-17.0-1.5","5eeacbcbb570dc1ab706417a","5eeacbcbb570dc1ab706417a","63a36e1df1afd18b014794e9","63a38e761f815af434c84927","rsvp1-task","true","0","","","","","null","<span></span>","null","iti","","","","","","","","","","","","","","",""
"","html-keyboard-response","170","64304","0.0-5.0-17.0-0.6","5eeacbcbb570dc1ab706417a","5eeacbcbb570dc1ab706417a","63a36e1df1afd18b014794e9","63a38e761f815af434c84927","rsvp1-task","true","0","","","","","null","
					<div style='width: 900px;'>
					<div style='float: center;'><img src=img/nontarget_distractor224.jpeg  ></img>
					</div>
					","null","rsvp1","practice0","","","","","","","","","4","","","","","img/nontarget_distractor224.jpeg"
"","html-keyboard-response","171","64310","0.0-5.0-17.0-1.6","5eeacbcbb570dc1ab706417a","5eeacbcbb570dc1ab706417a","63a36e1df1afd18b014794e9","63a38e761f815af434c84927","rsvp1-task","true","0","","","","","null","<span></span>","null","iti","","","","","","","","","","","","","","",""
"","html-keyboard-response","172","64421","0.0-5.0-17.0-0.7","5eeacbcbb570dc1ab706417a","5eeacbcbb570dc1ab706417a","63a36e1df1afd18b014794e9","63a38e761f815af434c84927","rsvp1-task","true","0","","","","","null","
					<div style='width: 900px;'>
					<div style='float: center;'><img src=img/nontarget_distractor156.jpeg  ></img>
					</div>
					","null","rsvp1","practice0","","","","","","","","","4","","","","","img/nontarget_distractor156.jpeg"
"","html-keyboard-response","173","64427","0.0-5.0-17.0-1.7","5eeacbcbb570dc1ab706417a","5eeacbcbb570dc1ab706417a","63a36e1df1afd18b014794e9","63a38e761f815af434c84927","rsvp1-task","true","0","","","","","null","<span></span>","null","iti","","","","","","","","","","","","","","",""
"","html-keyboard-response","174","64537","0.0-5.0-17.0-0.8","5eeacbcbb570dc1ab706417a","5eeacbcbb570dc1ab706417a","63a36e1df1afd18b014794e9","63a38e761f815af434c84927","rsvp1-task","true","0","","","","","null","
					<div style='width: 900px;'>
					<div style='float: center;'><img src=img/t2_targets26.jpeg class=""rotateimgL""  ></img>
					</div>
					","null","rsvp1","practice0","","","","","","","","","4","","","","","img/t2_targets26.jpeg class=""rotateimgL"""
"","html-keyboard-response","175","64542","0.0-5.0-17.0-1.8","5eeacbcbb570dc1ab706417a","5eeacbcbb570dc1ab706417a","63a36e1df1afd18b014794e9","63a38e761f815af434c84927","rsvp1-task","true","0","","","","","null","<span></span>","null","iti","","","","","","","","","","","","","","",""
"","html-keyboard-response","176","64655","0.0-5.0-17.0-0.9","5eeacbcbb570dc1ab706417a","5eeacbcbb570dc1ab706417a","63a36e1df1afd18b014794e9","63a38e761f815af434c84927","rsvp1-task","true","0","","","","","null","
					<div style='width: 900px;'>
					<div style='float: center;'><img src=img/nontarget_distractor227.jpeg  ></img>
					</div>
					","null","rsvp1","practice0","","","","","","","","","4","","","","","img/nontarget_distractor227.jpeg"
"","html-keyboard-response","177","64660","0.0-5.0-17.0-1.9","5eeacbcbb570dc1ab706417a","5eeacbcbb570dc1ab706417a","63a36e1df1afd18b014794e9","63a38e761f815af434c84927","rsvp1-task","true","0","","","","","null","<span></span>","null","iti","","","","","","","","","","","","","","",""
"","html-keyboard-response","178","64771","0.0-5.0-17.0-0.10","5eeacbcbb570dc1ab706417a","5eeacbcbb570dc1ab706417a","63a36e1df1afd18b014794e9","63a38e761f815af434c84927","rsvp1-task","true","0","","","","","null","
					<div style='width: 900px;'>
					<div style='float: center;'><img src=img/nontarget_distractor140.jpeg  ></img>
					</div>
					","null","rsvp1","practice0","","","","","","","","","4","","","","","img/nontarget_distractor140.jpeg"
"","html-keyboard-response","179","64777","0.0-5.0-17.0-1.10","5eeacbcbb570dc1ab706417a","5eeacbcbb570dc1ab706417a","63a36e1df1afd18b014794e9","63a38e761f815af434c84927","rsvp1-task","true","0","","","","","null","<span></span>","null","iti","","","","","","","","","","","","","","",""
"","html-keyboard-response","180","64888","0.0-5.0-17.0-0.11","5eeacbcbb570dc1ab706417a","5eeacbcbb570dc1ab706417a","63a36e1df1afd18b014794e9","63a38e761f815af434c84927","rsvp1-task","true","0","","","","","null","
					<div style='width: 900px;'>
					<div style='float: center;'><img src=img/nontarget_distractor255.jpeg  ></img>
					</div>
					","null","rsvp1","practice0","","","","","","","","","4","","","","","img/nontarget_distractor255.jpeg"
"","html-keyboard-response","181","64894","0.0-5.0-17.0-1.11","5eeacbcbb570dc1ab706417a","5eeacbcbb570dc1ab706417a","63a36e1df1afd18b014794e9","63a38e761f815af434c84927","rsvp1-task","true","0","","","","","null","<span></span>","null","iti","","","","","","","","","","","","","","",""
"","html-keyboard-response","182","65005","0.0-5.0-17.0-0.12","5eeacbcbb570dc1ab706417a","5eeacbcbb570dc1ab706417a","63a36e1df1afd18b014794e9","63a38e761f815af434c84927","rsvp1-task","true","0","","","","","null","
					<div style='width: 900px;'>
					<div style='float: center;'><img src=img/nontarget_distractor92.jpeg  ></img>
					</div>
					","null","rsvp1","practice0","","","","","","","","","4","","","","","img/nontarget_distractor92.jpeg"
"","html-keyboard-response","183","65011","0.0-5.0-17.0-1.12","5eeacbcbb570dc1ab706417a","5eeacbcbb570dc1ab706417a","63a36e1df1afd18b014794e9","63a38e761f815af434c84927","rsvp1-task","true","0","","","","","null","<span></span>","null","iti","","","","","","","","","","","","","","",""
"","html-keyboard-response","184","65122","0.0-5.0-17.0-0.13","5eeacbcbb570dc1ab706417a","5eeacbcbb570dc1ab706417a","63a36e1df1afd18b014794e9","63a38e761f815af434c84927","rsvp1-task","true","0","","","","","null","
					<div style='width: 900px;'>
					<div style='float: center;'><img src=img/nontarget_distractor229.jpeg  ></img>
					</div>
					","null","rsvp1","practice0","","","","","","","","","4","","","","","img/nontarget_distractor229.jpeg"
"","html-keyboard-response","185","65128","0.0-5.0-17.0-1.13","5eeacbcbb570dc1ab706417a","5eeacbcbb570dc1ab706417a","63a36e1df1afd18b014794e9","63a38e761f815af434c84927","rsvp1-task","true","0","","","","","null","<span></span>","null","iti","","","","","","","","","","","","","","",""
"","html-keyboard-response","186","65238","0.0-5.0-17.0-0.14","5eeacbcbb570dc1ab706417a","5eeacbcbb570dc1ab706417a","63a36e1df1afd18b014794e9","63a38e761f815af434c84927","rsvp1-task","true","0","","","","","null","
					<div style='width: 900px;'>
					<div style='float: center;'><img src=img/nontarget_distractor155.jpeg  ></img>
					</div>
					","null","rsvp1","practice0","","","","","","","","","4","","","","","img/nontarget_distractor155.jpeg"
"","html-keyboard-response","187","65244","0.0-5.0-17.0-1.14","5eeacbcbb570dc1ab706417a","5eeacbcbb570dc1ab706417a","63a36e1df1afd18b014794e9","63a38e761f815af434c84927","rsvp1-task","true","0","","","","","null","<span></span>","null","iti","","","","","","","","","","","","","","",""
"","html-keyboard-response","188","65355","0.0-5.0-17.0-0.15","5eeacbcbb570dc1ab706417a","5eeacbcbb570dc1ab706417a","63a36e1df1afd18b014794e9","63a38e761f815af434c84927","rsvp1-task","true","0","","","","","null","
					<div style='width: 900px;'>
					<div style='float: center;'><img src=img/nontarget_distractor7.jpeg  ></img>
					</div>
					","null","rsvp1","practice0","","","","","","","","","4","","","","","img/nontarget_distractor7.jpeg"
"","html-keyboard-response","189","65361","0.0-5.0-17.0-1.15","5eeacbcbb570dc1ab706417a","5eeacbcbb570dc1ab706417a","63a36e1df1afd18b014794e9","63a38e761f815af434c84927","rsvp1-task","true","0","","","","","null","<span></span>","null","iti","","","","","","","","","","","","","","",""
"","html-keyboard-response","190","65472","0.0-5.0-17.0-0.16","5eeacbcbb570dc1ab706417a","5eeacbcbb570dc1ab706417a","63a36e1df1afd18b014794e9","63a38e761f815af434c84927","rsvp1-task","true","0","","","","","null","
					<div style='width: 900px;'>
					<div style='float: center;'><img src=img/nontarget_distractor101.jpeg  ></img>
					</div>
					","null","rsvp1","practice0","","","","","","","","","4","","","","","img/nontarget_distractor101.jpeg"
"","html-keyboard-response","191","65478","0.0-5.0-17.0-1.16","5eeacbcbb570dc1ab706417a","5eeacbcbb570dc1ab706417a","63a36e1df1afd18b014794e9","63a38e761f815af434c84927","rsvp1-task","true","0","","","","","null","<span></span>","null","iti","","","","","","","","","","","","","","",""
"","html-keyboard-response","192","65927","0.0-5.0-18.0-0.0","5eeacbcbb570dc1ab706417a","5eeacbcbb570dc1ab706417a","63a36e1df1afd18b014794e9","63a38e761f815af434c84927","rsvp1-task","true","0","","","","","447.5","<div class=""rsvp""> Was the rotated image rotated left (1 key) or right (0 key)?</div>","1","response","practice0","1","1","neutral","img/nontarget_distractor156.jpeg","img/nontarget_distractor227.jpeg","8","1","9","4","true","true","true","",""
"","html-keyboard-response","193","66941","0.0-5.0-19.0","5eeacbcbb570dc1ab706417a","5eeacbcbb570dc1ab706417a","63a36e1df1afd18b014794e9","63a38e761f815af434c84927","rsvp1-task","true","0","","","","","null","Correct! </p> <p>  </p><p> ","null","","","","","","","","","","","","","","","main_T1_ITI",""
"","html-keyboard-response","194","68955","0.0-5.0-20.0","5eeacbcbb570dc1ab706417a","5eeacbcbb570dc1ab706417a","63a36e1df1afd18b014794e9","63a38e761f815af434c84927","rsvp1-task","true","0","","","","","null","<div class=""rsvp"">+</div>","null","fixation","","","","","","","","","","","","","","",""
"","html-keyboard-response","195","69215","0.0-5.0-21.0","5eeacbcbb570dc1ab706417a","5eeacbcbb570dc1ab706417a","63a36e1df1afd18b014794e9","63a38e761f815af434c84927","rsvp1-task","true","0","","","","","null","<div class=""rsvp"" ></div>","null","blank","","","","","","","","","","","","","","",""
"","html-keyboard-response","196","69322","0.0-5.0-22.0-0.0","5eeacbcbb570dc1ab706417a","5eeacbcbb570dc1ab706417a","63a36e1df1afd18b014794e9","63a38e761f815af434c84927","rsvp1-task","true","0","","","","","null","
					<div style='width: 900px;'>
					<div style='float: center;'><img src=img/nontarget_distractor143.jpeg  ></img>
					</div>
					","null","rsvp1","practice0","","","","","","","","","5","","","","","img/nontarget_distractor143.jpeg"
"","html-keyboard-response","197","69328","0.0-5.0-22.0-1.0","5eeacbcbb570dc1ab706417a","5eeacbcbb570dc1ab706417a","63a36e1df1afd18b014794e9","63a38e761f815af434c84927","rsvp1-task","true","0","","","","","null","<span></span>","null","iti","","","","","","","","","","","","","","",""
"","html-keyboard-response","198","69443","0.0-5.0-22.0-0.1","5eeacbcbb570dc1ab706417a","5eeacbcbb570dc1ab706417a","63a36e1df1afd18b014794e9","63a38e761f815af434c84927","rsvp1-task","true","0","","","","","null","
					<div style='width: 900px;'>
					<div style='float: center;'><img src=img/nontarget_distractor141.jpeg  ></img>
					</div>
					","null","rsvp1","practice0","","","","","","","","","5","","","","","img/nontarget_distractor141.jpeg"
"","html-keyboard-response","199","69449","0.0-5.0-22.0-1.1","5eeacbcbb570dc1ab706417a","5eeacbcbb570dc1ab706417a","63a36e1df1afd18b014794e9","63a38e761f815af434c84927","rsvp1-task","true","0","","","","","null","<span></span>","null","iti","","","","","","","","","","","","","","",""
"","html-keyboard-response","200","69560","0.0-5.0-22.0-0.2","5eeacbcbb570dc1ab706417a","5eeacbcbb570dc1ab706417a","63a36e1df1afd18b014794e9","63a38e761f815af434c84927","rsvp1-task","true","0","","","","","null","
					<div style='width: 900px;'>
					<div style='float: center;'><img src=img/nontarget_distractor119.jpeg  ></img>
					</div>
					","null","rsvp1","practice0","","","","","","","","","5","","","","","img/nontarget_distractor119.jpeg"
"","html-keyboard-response","201","69565","0.0-5.0-22.0-1.2","5eeacbcbb570dc1ab706417a","5eeacbcbb570dc1ab706417a","63a36e1df1afd18b014794e9","63a38e761f815af434c84927","rsvp1-task","true","0","","","","","null","<span></span>","null","iti","","","","","","","","","","","","","","",""
"","html-keyboard-response","202","69676","0.0-5.0-22.0-0.3","5eeacbcbb570dc1ab706417a","5eeacbcbb570dc1ab706417a","63a36e1df1afd18b014794e9","63a38e761f815af434c84927","rsvp1-task","true","0","","","","","null","
					<div style='width: 900px;'>
					<div style='float: center;'><img src=img/nontarget_distractor34.jpeg  ></img>
					</div>
					","null","rsvp1","practice0","","","","","","","","","5","","","","","img/nontarget_distractor34.jpeg"
"","html-keyboard-response","203","69682","0.0-5.0-22.0-1.3","5eeacbcbb570dc1ab706417a","5eeacbcbb570dc1ab706417a","63a36e1df1afd18b014794e9","63a38e761f815af434c84927","rsvp1-task","true","0","","","","","null","<span></span>","null","iti","","","","","","","","","","","","","","",""
"","html-keyboard-response","204","69793","0.0-5.0-22.0-0.4","5eeacbcbb570dc1ab706417a","5eeacbcbb570dc1ab706417a","63a36e1df1afd18b014794e9","63a38e761f815af434c84927","rsvp1-task","true","0","","","","","null","
					<div style='width: 900px;'>
					<div style='float: center;'><img src=img/nontarget_distractor112.jpeg  ></img>
					</div>
					","null","rsvp1","practice0","","","","","","","","","5","","","","","img/nontarget_distractor112.jpeg"
"","html-keyboard-response","205","69799","0.0-5.0-22.0-1.4","5eeacbcbb570dc1ab706417a","5eeacbcbb570dc1ab706417a","63a36e1df1afd18b014794e9","63a38e761f815af434c84927","rsvp1-task","true","0","","","","","null","<span></span>","null","iti","","","","","","","","","","","","","","",""
"","html-keyboard-response","206","69910","0.0-5.0-22.0-0.5","5eeacbcbb570dc1ab706417a","5eeacbcbb570dc1ab706417a","63a36e1df1afd18b014794e9","63a38e761f815af434c84927","rsvp1-task","true","0","","","","","null","
					<div style='width: 900px;'>
					<div style='float: center;'><img src=img/nontarget_distractor173.jpeg  ></img>
					</div>
					","null","rsvp1","practice0","","","","","","","","","5","","","","","img/nontarget_distractor173.jpeg"
"","html-keyboard-response","207","69916","0.0-5.0-22.0-1.5","5eeacbcbb570dc1ab706417a","5eeacbcbb570dc1ab706417a","63a36e1df1afd18b014794e9","63a38e761f815af434c84927","rsvp1-task","true","0","","","","","null","<span></span>","null","iti","","","","","","","","","","","","","","",""
"","html-keyboard-response","208","70027","0.0-5.0-22.0-0.6","5eeacbcbb570dc1ab706417a","5eeacbcbb570dc1ab706417a","63a36e1df1afd18b014794e9","63a38e761f815af434c84927","rsvp1-task","true","0","","","","","null","
					<div style='width: 900px;'>
					<div style='float: center;'><img src=img/nontarget_distractor111.jpeg  ></img>
					</div>
					","null","rsvp1","practice0","","","","","","","","","5","","","","","img/nontarget_distractor111.jpeg"
"","html-keyboard-response","209","70033","0.0-5.0-22.0-1.6","5eeacbcbb570dc1ab706417a","5eeacbcbb570dc1ab706417a","63a36e1df1afd18b014794e9","63a38e761f815af434c84927","rsvp1-task","true","0","","","","","null","<span></span>","null","iti","","","","","","","","","","","","","","",""
"","html-keyboard-response","210","70143","0.0-5.0-22.0-0.7","5eeacbcbb570dc1ab706417a","5eeacbcbb570dc1ab706417a","63a36e1df1afd18b014794e9","63a38e761f815af434c84927","rsvp1-task","true","0","","","","","null","
					<div style='width: 900px;'>
					<div style='float: center;'><img src=img/nontarget_distractor147.jpeg  ></img>
					</div>
					","null","rsvp1","practice0","","","","","","","","","5","","","","","img/nontarget_distractor147.jpeg"
"","html-keyboard-response","211","70149","0.0-5.0-22.0-1.7","5eeacbcbb570dc1ab706417a","5eeacbcbb570dc1ab706417a","63a36e1df1afd18b014794e9","63a38e761f815af434c84927","rsvp1-task","true","0","","","","","null","<span></span>","null","iti","","","","","","","","","","","","","","",""
"","html-keyboard-response","212","70260","0.0-5.0-22.0-0.8","5eeacbcbb570dc1ab706417a","5eeacbcbb570dc1ab706417a","63a36e1df1afd18b014794e9","63a38e761f815af434c84927","rsvp1-task","true","0","","","","","null","
					<div style='width: 900px;'>
					<div style='float: center;'><img src=img/nontarget_distractor165.jpeg  ></img>
					</div>
					","null","rsvp1","practice0","","","","","","","","","5","","","","","img/nontarget_distractor165.jpeg"
"","html-keyboard-response","213","70266","0.0-5.0-22.0-1.8","5eeacbcbb570dc1ab706417a","5eeacbcbb570dc1ab706417a","63a36e1df1afd18b014794e9","63a38e761f815af434c84927","rsvp1-task","true","0","","","","","null","<span></span>","null","iti","","","","","","","","","","","","","","",""
"","html-keyboard-response","214","70376","0.0-5.0-22.0-0.9","5eeacbcbb570dc1ab706417a","5eeacbcbb570dc1ab706417a","63a36e1df1afd18b014794e9","63a38e761f815af434c84927","rsvp1-task","true","0","","","","","null","
					<div style='width: 900px;'>
					<div style='float: center;'><img src=img/t2_targets54.jpeg class=""rotateimgL""  ></img>
					</div>
					","null","rsvp1","practice0","","","","","","","","","5","","","","","img/t2_targets54.jpeg class=""rotateimgL"""
"","html-keyboard-response","215","70382","0.0-5.0-22.0-1.9","5eeacbcbb570dc1ab706417a","5eeacbcbb570dc1ab706417a","63a36e1df1afd18b014794e9","63a38e761f815af434c84927","rsvp1-task","true","0","","","","","null","<span></span>","null","iti","","","","","","","","","","","","","","",""
"","html-keyboard-response","216","70495","0.0-5.0-22.0-0.10","5eeacbcbb570dc1ab706417a","5eeacbcbb570dc1ab706417a","63a36e1df1afd18b014794e9","63a38e761f815af434c84927","rsvp1-task","true","0","","","","","null","
					<div style='width: 900px;'>
					<div style='float: center;'><img src=img/nontarget_distractor249.jpeg  ></img>
					</div>
					","null","rsvp1","practice0","","","","","","","","","5","","","","","img/nontarget_distractor249.jpeg"
"","html-keyboard-response","217","70501","0.0-5.0-22.0-1.10","5eeacbcbb570dc1ab706417a","5eeacbcbb570dc1ab706417a","63a36e1df1afd18b014794e9","63a38e761f815af434c84927","rsvp1-task","true","0","","","","","null","<span></span>","null","iti","","","","","","","","","","","","","","",""
"","html-keyboard-response","218","70611","0.0-5.0-22.0-0.11","5eeacbcbb570dc1ab706417a","5eeacbcbb570dc1ab706417a","63a36e1df1afd18b014794e9","63a38e761f815af434c84927","rsvp1-task","true","0","","","","","null","
					<div style='width: 900px;'>
					<div style='float: center;'><img src=img/nontarget_distractor12.jpeg  ></img>
					</div>
					","null","rsvp1","practice0","","","","","","","","","5","","","","","img/nontarget_distractor12.jpeg"
"","html-keyboard-response","219","70616","0.0-5.0-22.0-1.11","5eeacbcbb570dc1ab706417a","5eeacbcbb570dc1ab706417a","63a36e1df1afd18b014794e9","63a38e761f815af434c84927","rsvp1-task","true","0","","","","","null","<span></span>","null","iti","","","","","","","","","","","","","","",""
"","html-keyboard-response","220","70727","0.0-5.0-22.0-0.12","5eeacbcbb570dc1ab706417a","5eeacbcbb570dc1ab706417a","63a36e1df1afd18b014794e9","63a38e761f815af434c84927","rsvp1-task","true","0","","","","","null","
					<div style='width: 900px;'>
					<div style='float: center;'><img src=img/nontarget_distractor65.jpeg  ></img>
					</div>
					","null","rsvp1","practice0","","","","","","","","","5","","","","","img/nontarget_distractor65.jpeg"
"","html-keyboard-response","221","70733","0.0-5.0-22.0-1.12","5eeacbcbb570dc1ab706417a","5eeacbcbb570dc1ab706417a","63a36e1df1afd18b014794e9","63a38e761f815af434c84927","rsvp1-task","true","0","","","","","null","<span></span>","null","iti","","","","","","","","","","","","","","",""
"","html-keyboard-response","222","70844","0.0-5.0-22.0-0.13","5eeacbcbb570dc1ab706417a","5eeacbcbb570dc1ab706417a","63a36e1df1afd18b014794e9","63a38e761f815af434c84927","rsvp1-task","true","0","","","","","null","
					<div style='width: 900px;'>
					<div style='float: center;'><img src=img/nontarget_distractor47.jpeg  ></img>
					</div>
					","null","rsvp1","practice0","","","","","","","","","5","","","","","img/nontarget_distractor47.jpeg"
"","html-keyboard-response","223","70850","0.0-5.0-22.0-1.13","5eeacbcbb570dc1ab706417a","5eeacbcbb570dc1ab706417a","63a36e1df1afd18b014794e9","63a38e761f815af434c84927","rsvp1-task","true","0","","","","","null","<span></span>","null","iti","","","","","","","","","","","","","","",""
"","html-keyboard-response","224","70961","0.0-5.0-22.0-0.14","5eeacbcbb570dc1ab706417a","5eeacbcbb570dc1ab706417a","63a36e1df1afd18b014794e9","63a38e761f815af434c84927","rsvp1-task","true","0","","","","","null","
					<div style='width: 900px;'>
					<div style='float: center;'><img src=img/nontarget_distractor238.jpeg  ></img>
					</div>
					","null","rsvp1","practice0","","","","","","","","","5","","","","","img/nontarget_distractor238.jpeg"
"","html-keyboard-response","225","70967","0.0-5.0-22.0-1.14","5eeacbcbb570dc1ab706417a","5eeacbcbb570dc1ab706417a","63a36e1df1afd18b014794e9","63a38e761f815af434c84927","rsvp1-task","true","0","","","","","null","<span></span>","null","iti","","","","","","","","","","","","","","",""
"","html-keyboard-response","226","71078","0.0-5.0-22.0-0.15","5eeacbcbb570dc1ab706417a","5eeacbcbb570dc1ab706417a","63a36e1df1afd18b014794e9","63a38e761f815af434c84927","rsvp1-task","true","0","","","","","null","
					<div style='width: 900px;'>
					<div style='float: center;'><img src=img/nontarget_distractor202.jpeg  ></img>
					</div>
					","null","rsvp1","practice0","","","","","","","","","5","","","","","img/nontarget_distractor202.jpeg"
"","html-keyboard-response","227","71084","0.0-5.0-22.0-1.15","5eeacbcbb570dc1ab706417a","5eeacbcbb570dc1ab706417a","63a36e1df1afd18b014794e9","63a38e761f815af434c84927","rsvp1-task","true","0","","","","","null","<span></span>","null","iti","","","","","","","","","","","","","","",""
"","html-keyboard-response","228","71195","0.0-5.0-22.0-0.16","5eeacbcbb570dc1ab706417a","5eeacbcbb570dc1ab706417a","63a36e1df1afd18b014794e9","63a38e761f815af434c84927","rsvp1-task","true","0","","","","","null","
					<div style='width: 900px;'>
					<div style='float: center;'><img src=img/nontarget_distractor226.jpeg  ></img>
					</div>
					","null","rsvp1","practice0","","","","","","","","","5","","","","","img/nontarget_distractor226.jpeg"
"","html-keyboard-response","229","71202","0.0-5.0-22.0-1.16","5eeacbcbb570dc1ab706417a","5eeacbcbb570dc1ab706417a","63a36e1df1afd18b014794e9","63a38e761f815af434c84927","rsvp1-task","true","0","","","","","null","<span></span>","null","iti","","","","","","","","","","","","","","",""
"","html-keyboard-response","230","71639","0.0-5.0-23.0-0.0","5eeacbcbb570dc1ab706417a","5eeacbcbb570dc1ab706417a","63a36e1df1afd18b014794e9","63a38e761f815af434c84927","rsvp1-task","true","0","","","","","436.5","<div class=""rsvp""> Was the rotated image rotated left (1 key) or right (0 key)?</div>","1","response","practice0","1","1","neutral","img/nontarget_distractor147.jpeg","img/nontarget_distractor249.jpeg","8","2","10","5","true","true","true","",""
"","html-keyboard-response","231","72655","0.0-5.0-24.0","5eeacbcbb570dc1ab706417a","5eeacbcbb570dc1ab706417a","63a36e1df1afd18b014794e9","63a38e761f815af434c84927","rsvp1-task","true","0","","","","","null","Correct! </p> <p>  </p><p> ","null","","","","","","","","","","","","","","","main_T1_ITI",""
"","html-keyboard-response","232","74658","0.0-5.0-25.0","5eeacbcbb570dc1ab706417a","5eeacbcbb570dc1ab706417a","63a36e1df1afd18b014794e9","63a38e761f815af434c84927","rsvp1-task","true","0","","","","","null","<div class=""rsvp"">+</div>","null","fixation","","","","","","","","","","","","","","",""
"","html-keyboard-response","233","74929","0.0-5.0-26.0","5eeacbcbb570dc1ab706417a","5eeacbcbb570dc1ab706417a","63a36e1df1afd18b014794e9","63a38e761f815af434c84927","rsvp1-task","true","0","","","","","null","<div class=""rsvp"" ></div>","null","blank","","","","","","","","","","","","","","",""
"","html-keyboard-response","234","75034","0.0-5.0-27.0-0.0","5eeacbcbb570dc1ab706417a","5eeacbcbb570dc1ab706417a","63a36e1df1afd18b014794e9","63a38e761f815af434c84927","rsvp1-task","true","0","","","","","null","
					<div style='width: 900px;'>
					<div style='float: center;'><img src=img/nontarget_distractor160.jpeg  ></img>
					</div>
					","null","rsvp1","practice0","","","","","","","","","6","","","","","img/nontarget_distractor160.jpeg"
"","html-keyboard-response","235","75040","0.0-5.0-27.0-1.0","5eeacbcbb570dc1ab706417a","5eeacbcbb570dc1ab706417a","63a36e1df1afd18b014794e9","63a38e761f815af434c84927","rsvp1-task","true","0","","","","","null","<span></span>","null","iti","","","","","","","","","","","","","","",""
"","html-keyboard-response","236","75150","0.0-5.0-27.0-0.1","5eeacbcbb570dc1ab706417a","5eeacbcbb570dc1ab706417a","63a36e1df1afd18b014794e9","63a38e761f815af434c84927","rsvp1-task","true","0","","","","","null","
					<div style='width: 900px;'>
					<div style='float: center;'><img src=img/nontarget_distractor109.jpeg  ></img>
					</div>
					","null","rsvp1","practice0","","","","","","","","","6","","","","","img/nontarget_distractor109.jpeg"
"","html-keyboard-response","237","75156","0.0-5.0-27.0-1.1","5eeacbcbb570dc1ab706417a","5eeacbcbb570dc1ab706417a","63a36e1df1afd18b014794e9","63a38e761f815af434c84927","rsvp1-task","true","0","","","","","null","<span></span>","null","iti","","","","","","","","","","","","","","",""
"","html-keyboard-response","238","75267","0.0-5.0-27.0-0.2","5eeacbcbb570dc1ab706417a","5eeacbcbb570dc1ab706417a","63a36e1df1afd18b014794e9","63a38e761f815af434c84927","rsvp1-task","true","0","","","","","null","
					<div style='width: 900px;'>
					<div style='float: center;'><img src=img/nontarget_distractor210.jpeg  ></img>
					</div>
					","null","rsvp1","practice0","","","","","","","","","6","","","","","img/nontarget_distractor210.jpeg"
"","html-keyboard-response","239","75273","0.0-5.0-27.0-1.2","5eeacbcbb570dc1ab706417a","5eeacbcbb570dc1ab706417a","63a36e1df1afd18b014794e9","63a38e761f815af434c84927","rsvp1-task","true","0","","","","","null","<span></span>","null","iti","","","","","","","","","","","","","","",""
"","html-keyboard-response","240","75384","0.0-5.0-27.0-0.3","5eeacbcbb570dc1ab706417a","5eeacbcbb570dc1ab706417a","63a36e1df1afd18b014794e9","63a38e761f815af434c84927","rsvp1-task","true","0","","","","","null","
					<div style='width: 900px;'>
					<div style='float: center;'><img src=img/nontarget_distractor78.jpeg  ></img>
					</div>
					","null","rsvp1","practice0","","","","","","","","","6","","","","","img/nontarget_distractor78.jpeg"
"","html-keyboard-response","241","75390","0.0-5.0-27.0-1.3","5eeacbcbb570dc1ab706417a","5eeacbcbb570dc1ab706417a","63a36e1df1afd18b014794e9","63a38e761f815af434c84927","rsvp1-task","true","0","","","","","null","<span></span>","null","iti","","","","","","","","","","","","","","",""
"","html-keyboard-response","242","75500","0.0-5.0-27.0-0.4","5eeacbcbb570dc1ab706417a","5eeacbcbb570dc1ab706417a","63a36e1df1afd18b014794e9","63a38e761f815af434c84927","rsvp1-task","true","0","","","","","null","
					<div style='width: 900px;'>
					<div style='float: center;'><img src=img/nontarget_distractor192.jpeg  ></img>
					</div>
					","null","rsvp1","practice0","","","","","","","","","6","","","","","img/nontarget_distractor192.jpeg"
"","html-keyboard-response","243","75506","0.0-5.0-27.0-1.4","5eeacbcbb570dc1ab706417a","5eeacbcbb570dc1ab706417a","63a36e1df1afd18b014794e9","63a38e761f815af434c84927","rsvp1-task","true","0","","","","","null","<span></span>","null","iti","","","","","","","","","","","","","","",""
"","html-keyboard-response","244","75618","0.0-5.0-27.0-0.5","5eeacbcbb570dc1ab706417a","5eeacbcbb570dc1ab706417a","63a36e1df1afd18b014794e9","63a38e761f815af434c84927","rsvp1-task","true","0","","","","","null","
					<div style='width: 900px;'>
					<div style='float: center;'><img src=img/nontarget_distractor229.jpeg  ></img>
					</div>
					","null","rsvp1","practice0","","","","","","","","","6","","","","","img/nontarget_distractor229.jpeg"
"","html-keyboard-response","245","75624","0.0-5.0-27.0-1.5","5eeacbcbb570dc1ab706417a","5eeacbcbb570dc1ab706417a","63a36e1df1afd18b014794e9","63a38e761f815af434c84927","rsvp1-task","true","0","","","","","null","<span></span>","null","iti","","","","","","","","","","","","","","",""
"","html-keyboard-response","246","75740","0.0-5.0-27.0-0.6","5eeacbcbb570dc1ab706417a","5eeacbcbb570dc1ab706417a","63a36e1df1afd18b014794e9","63a38e761f815af434c84927","rsvp1-task","true","0","","","","","null","
					<div style='width: 900px;'>
					<div style='float: center;'><img src=img/nontarget_distractor213.jpeg  ></img>
					</div>
					","null","rsvp1","practice0","","","","","","","","","6","","","","","img/nontarget_distractor213.jpeg"
"","html-keyboard-response","247","75746","0.0-5.0-27.0-1.6","5eeacbcbb570dc1ab706417a","5eeacbcbb570dc1ab706417a","63a36e1df1afd18b014794e9","63a38e761f815af434c84927","rsvp1-task","true","0","","","","","null","<span></span>","null","iti","","","","","","","","","","","","","","",""
"","html-keyboard-response","248","75851","0.0-5.0-27.0-0.7","5eeacbcbb570dc1ab706417a","5eeacbcbb570dc1ab706417a","63a36e1df1afd18b014794e9","63a38e761f815af434c84927","rsvp1-task","true","0","","","","","null","
					<div style='width: 900px;'>
					<div style='float: center;'><img src=img/nontarget_distractor130.jpeg  ></img>
					</div>
					","null","rsvp1","practice0","","","","","","","","","6","","","","","img/nontarget_distractor130.jpeg"
"","html-keyboard-response","249","75857","0.0-5.0-27.0-1.7","5eeacbcbb570dc1ab706417a","5eeacbcbb570dc1ab706417a","63a36e1df1afd18b014794e9","63a38e761f815af434c84927","rsvp1-task","true","0","","","","","null","<span></span>","null","iti","","","","","","","","","","","","","","",""
"","html-keyboard-response","250","75968","0.0-5.0-27.0-0.8","5eeacbcbb570dc1ab706417a","5eeacbcbb570dc1ab706417a","63a36e1df1afd18b014794e9","63a38e761f815af434c84927","rsvp1-task","true","0","","","","","null","
					<div style='width: 900px;'>
					<div style='float: center;'><img src=img/nontarget_distractor170.jpeg  ></img>
					</div>
					","null","rsvp1","practice0","","","","","","","","","6","","","","","img/nontarget_distractor170.jpeg"
"","html-keyboard-response","251","75974","0.0-5.0-27.0-1.8","5eeacbcbb570dc1ab706417a","5eeacbcbb570dc1ab706417a","63a36e1df1afd18b014794e9","63a38e761f815af434c84927","rsvp1-task","true","0","","","","","null","<span></span>","null","iti","","","","","","","","","","","","","","",""
"","html-keyboard-response","252","76085","0.0-5.0-27.0-0.9","5eeacbcbb570dc1ab706417a","5eeacbcbb570dc1ab706417a","63a36e1df1afd18b014794e9","63a38e761f815af434c84927","rsvp1-task","true","0","","","","","null","
					<div style='width: 900px;'>
					<div style='float: center;'><img src=img/nontarget_distractor85.jpeg  ></img>
					</div>
					","null","rsvp1","practice0","","","","","","","","","6","","","","","img/nontarget_distractor85.jpeg"
"","html-keyboard-response","253","76091","0.0-5.0-27.0-1.9","5eeacbcbb570dc1ab706417a","5eeacbcbb570dc1ab706417a","63a36e1df1afd18b014794e9","63a38e761f815af434c84927","rsvp1-task","true","0","","","","","null","<span></span>","null","iti","","","","","","","","","","","","","","",""
"","html-keyboard-response","254","76201","0.0-5.0-27.0-0.10","5eeacbcbb570dc1ab706417a","5eeacbcbb570dc1ab706417a","63a36e1df1afd18b014794e9","63a38e761f815af434c84927","rsvp1-task","true","0","","","","","null","
					<div style='width: 900px;'>
					<div style='float: center;'><img src=img/t2_targets108.jpeg class=""rotateimgL""  ></img>
					</div>
					","null","rsvp1","practice0","","","","","","","","","6","","","","","img/t2_targets108.jpeg class=""rotateimgL"""
"","html-keyboard-response","255","76207","0.0-5.0-27.0-1.10","5eeacbcbb570dc1ab706417a","5eeacbcbb570dc1ab706417a","63a36e1df1afd18b014794e9","63a38e761f815af434c84927","rsvp1-task","true","0","","","","","null","<span></span>","null","iti","","","","","","","","","","","","","","",""
"","html-keyboard-response","256","76318","0.0-5.0-27.0-0.11","5eeacbcbb570dc1ab706417a","5eeacbcbb570dc1ab706417a","63a36e1df1afd18b014794e9","63a38e761f815af434c84927","rsvp1-task","true","0","","","","","null","
					<div style='width: 900px;'>
					<div style='float: center;'><img src=img/nontarget_distractor26.jpeg  ></img>
					</div>
					","null","rsvp1","practice0","","","","","","","","","6","","","","","img/nontarget_distractor26.jpeg"
"","html-keyboard-response","257","76324","0.0-5.0-27.0-1.11","5eeacbcbb570dc1ab706417a","5eeacbcbb570dc1ab706417a","63a36e1df1afd18b014794e9","63a38e761f815af434c84927","rsvp1-task","true","0","","","","","null","<span></span>","null","iti","","","","","","","","","","","","","","",""
"","html-keyboard-response","258","76435","0.0-5.0-27.0-0.12","5eeacbcbb570dc1ab706417a","5eeacbcbb570dc1ab706417a","63a36e1df1afd18b014794e9","63a38e761f815af434c84927","rsvp1-task","true","0","","","","","null","
					<div style='width: 900px;'>
					<div style='float: center;'><img src=img/nontarget_distractor140.jpeg  ></img>
					</div>
					","null","rsvp1","practice0","","","","","","","","","6","","","","","img/nontarget_distractor140.jpeg"
"","html-keyboard-response","259","76441","0.0-5.0-27.0-1.12","5eeacbcbb570dc1ab706417a","5eeacbcbb570dc1ab706417a","63a36e1df1afd18b014794e9","63a38e761f815af434c84927","rsvp1-task","true","0","","","","","null","<span></span>","null","iti","","","","","","","","","","","","","","",""
"","html-keyboard-response","260","76553","0.0-5.0-27.0-0.13","5eeacbcbb570dc1ab706417a","5eeacbcbb570dc1ab706417a","63a36e1df1afd18b014794e9","63a38e761f815af434c84927","rsvp1-task","true","0","","","","","null","
					<div style='width: 900px;'>
					<div style='float: center;'><img src=img/nontarget_distractor121.jpeg  ></img>
					</div>
					","null","rsvp1","practice0","","","","","","","","","6","","","","","img/nontarget_distractor121.jpeg"
"","html-keyboard-response","261","76558","0.0-5.0-27.0-1.13","5eeacbcbb570dc1ab706417a","5eeacbcbb570dc1ab706417a","63a36e1df1afd18b014794e9","63a38e761f815af434c84927","rsvp1-task","true","0","","","","","null","<span></span>","null","iti","","","","","","","","","","","","","","",""
"","html-keyboard-response","262","76669","0.0-5.0-27.0-0.14","5eeacbcbb570dc1ab706417a","5eeacbcbb570dc1ab706417a","63a36e1df1afd18b014794e9","63a38e761f815af434c84927","rsvp1-task","true","0","","","","","null","
					<div style='width: 900px;'>
					<div style='float: center;'><img src=img/nontarget_distractor154.jpeg  ></img>
					</div>
					","null","rsvp1","practice0","","","","","","","","","6","","","","","img/nontarget_distractor154.jpeg"
"","html-keyboard-response","263","76675","0.0-5.0-27.0-1.14","5eeacbcbb570dc1ab706417a","5eeacbcbb570dc1ab706417a","63a36e1df1afd18b014794e9","63a38e761f815af434c84927","rsvp1-task","true","0","","","","","null","<span></span>","null","iti","","","","","","","","","","","","","","",""
"","html-keyboard-response","264","76787","0.0-5.0-27.0-0.15","5eeacbcbb570dc1ab706417a","5eeacbcbb570dc1ab706417a","63a36e1df1afd18b014794e9","63a38e761f815af434c84927","rsvp1-task","true","0","","","","","null","
					<div style='width: 900px;'>
					<div style='float: center;'><img src=img/nontarget_distractor60.jpeg  ></img>
					</div>
					","null","rsvp1","practice0","","","","","","","","","6","","","","","img/nontarget_distractor60.jpeg"
"","html-keyboard-response","265","76793","0.0-5.0-27.0-1.15","5eeacbcbb570dc1ab706417a","5eeacbcbb570dc1ab706417a","63a36e1df1afd18b014794e9","63a38e761f815af434c84927","rsvp1-task","true","0","","","","","null","<span></span>","null","iti","","","","","","","","","","","","","","",""
"","html-keyboard-response","266","76903","0.0-5.0-27.0-0.16","5eeacbcbb570dc1ab706417a","5eeacbcbb570dc1ab706417a","63a36e1df1afd18b014794e9","63a38e761f815af434c84927","rsvp1-task","true","0","","","","","null","
					<div style='width: 900px;'>
					<div style='float: center;'><img src=img/nontarget_distractor36.jpeg  ></img>
					</div>
					","null","rsvp1","practice0","","","","","","","","","6","","","","","img/nontarget_distractor36.jpeg"
"","html-keyboard-response","267","76909","0.0-5.0-27.0-1.16","5eeacbcbb570dc1ab706417a","5eeacbcbb570dc1ab706417a","63a36e1df1afd18b014794e9","63a38e761f815af434c84927","rsvp1-task","true","0","","","","","null","<span></span>","null","iti","","","","","","","","","","","","","","",""
"","html-keyboard-response","268","77366","0.0-5.0-28.0-0.0","5eeacbcbb570dc1ab706417a","5eeacbcbb570dc1ab706417a","63a36e1df1afd18b014794e9","63a38e761f815af434c84927","rsvp1-task","true","0","","","","","456","<div class=""rsvp""> Was the rotated image rotated left (1 key) or right (0 key)?</div>","1","response","practice0","1","1","neutral","img/nontarget_distractor130.jpeg","img/nontarget_distractor26.jpeg","8","3","11","6","true","true","true","",""
"","html-keyboard-response","269","78370","0.0-5.0-29.0","5eeacbcbb570dc1ab706417a","5eeacbcbb570dc1ab706417a","63a36e1df1afd18b014794e9","63a38e761f815af434c84927","rsvp1-task","true","0","","","","","null","Correct! </p> <p>  </p><p> ","null","","","","","","","","","","","","","","","main_T1_ITI",""
"","html-keyboard-response","270","80377","0.0-5.0-30.0","5eeacbcbb570dc1ab706417a","5eeacbcbb570dc1ab706417a","63a36e1df1afd18b014794e9","63a38e761f815af434c84927","rsvp1-task","true","0","","","","","null","<div class=""rsvp"">+</div>","null","fixation","","","","","","","","","","","","","","",""
"","html-keyboard-response","271","80632","0.0-5.0-31.0","5eeacbcbb570dc1ab706417a","5eeacbcbb570dc1ab706417a","63a36e1df1afd18b014794e9","63a38e761f815af434c84927","rsvp1-task","true","0","","","","","null","<div class=""rsvp"" ></div>","null","blank","","","","","","","","","","","","","","",""
"","html-keyboard-response","272","80739","0.0-5.0-32.0-0.0","5eeacbcbb570dc1ab706417a","5eeacbcbb570dc1ab706417a","63a36e1df1afd18b014794e9","63a38e761f815af434c84927","rsvp1-task","true","0","","","","","null","
