"success","trial_type","trial_index","time_elapsed","internal_node_id","subject_id","subjectID","study_id","session_id","exp_id","full_screen","focus_shifts","timeout","failed_images","failed_audio","failed_video","rt","stimulus","key_press","test_part","phase","correct_responses","correct_response","t1_type","t1_image","t2_image","t1_location","lag","t2_location","trial_number","correct","t1_correct","t2_correct","task","stim"
"true","fullscreen","0","7900","0.0-0.0","5f13a4ac3263a43c3511749c","5f13a4ac3263a43c3511749c","63a36e1df1afd18b014794e9","63a38d2147e8f8af27593f09","rsvp1-task","true","0","","","","","","","","","","","","","","","","","","","","","","",""
"true","preload","1","13443","0.0-1.0","5f13a4ac3263a43c3511749c","5f13a4ac3263a43c3511749c","63a36e1df1afd18b014794e9","63a38d2147e8f8af27593f09","rsvp1-task","true","0","false","[]","[]","[]","","","","","","","","","","","","","","","","","","",""
"","html-keyboard-response","2","220435","0.0-2.0","5f13a4ac3263a43c3511749c","5f13a4ac3263a43c3511749c","63a36e1df1afd18b014794e9","63a38d2147e8f8af27593f09","rsvp1-task","false","1","","","","","206989.80000001192","<div class='instructions'><p>You will see a series of scene images rapidly appearing on the computer screen. One of the scene images will be ROTATED, either to the left or to the right.</p><p>When the series ends, you have to respond to the question ‘Which way was the scene rotated?’</p><p>If the scene was rotated left, you will press the 1 key. If the scene was rotated right, press the 0 key. </p><p>Press any key to see an example of the task.</p></div>"," ","instructions","","","","","","","","","","","","","","",""
"","html-keyboard-response","3","223457","0.0-3.0-0.0","5f13a4ac3263a43c3511749c","5f13a4ac3263a43c3511749c","63a36e1df1afd18b014794e9","63a38d2147e8f8af27593f09","rsvp1-task","false","0","","","","","null","<div class=""rsvp"">+</div>","null","fixation","","","","","","","","","","","","","","",""
"","html-keyboard-response","4","223713","0.0-3.0-1.0","5f13a4ac3263a43c3511749c","5f13a4ac3263a43c3511749c","63a36e1df1afd18b014794e9","63a38d2147e8f8af27593f09","rsvp1-task","false","0","","","","","null","<div class=""rsvp"" ></div>","null","blank","","","","","","","","","","","","","","",""
"","html-keyboard-response","5","223931","0.0-3.0-2.0-0.0","5f13a4ac3263a43c3511749c","5f13a4ac3263a43c3511749c","63a36e1df1afd18b014794e9","63a38d2147e8f8af27593f09","rsvp1-task","false","0","","","","","null","
					<div style='width: 900px;'>
					<div style='float: center;'><img src=img/nontarget_distractor43.jpeg  ></img>
					</div>
					","null","","","","","","","","","","","","","","","",""
"","html-keyboard-response","6","224037","0.0-3.0-2.0-1.0","5f13a4ac3263a43c3511749c","5f13a4ac3263a43c3511749c","63a36e1df1afd18b014794e9","63a38d2147e8f8af27593f09","rsvp1-task","false","0","","","","","null","<span></span>","null","iti","","","","","","","","","","","","","","",""
"","html-keyboard-response","7","224264","0.0-3.0-2.0-0.1","5f13a4ac3263a43c3511749c","5f13a4ac3263a43c3511749c","63a36e1df1afd18b014794e9","63a38d2147e8f8af27593f09","rsvp1-task","false","0","","","","","null","
					<div style='width: 900px;'>
					<div style='float: center;'><img src=img/nontarget_distractor116.jpeg  ></img>
					</div>
					","null","","","","","","","","","","","","","","","",""
"","html-keyboard-response","8","224373","0.0-3.0-2.0-1.1","5f13a4ac3263a43c3511749c","5f13a4ac3263a43c3511749c","63a36e1df1afd18b014794e9","63a38d2147e8f8af27593f09","rsvp1-task","false","0","","","","","null","<span></span>","null","iti","","","","","","","","","","","","","","",""
"","html-keyboard-response","9","224599","0.0-3.0-2.0-0.2","5f13a4ac3263a43c3511749c","5f13a4ac3263a43c3511749c","63a36e1df1afd18b014794e9","63a38d2147e8f8af27593f09","rsvp1-task","false","0","","","","","null","
					<div style='width: 900px;'>
					<div style='float: center;'><img src=img/nontarget_distractor94.jpeg  ></img>
					</div>
					","null","","","","","","","","","","","","","","","",""
"","html-keyboard-response","10","224706","0.0-3.0-2.0-1.2","5f13a4ac3263a43c3511749c","5f13a4ac3263a43c3511749c","63a36e1df1afd18b014794e9","63a38d2147e8f8af27593f09","rsvp1-task","false","0","","","","","null","<span></span>","null","iti","","","","","","","","","","","","","","",""
"","html-keyboard-response","11","224933","0.0-3.0-2.0-0.3","5f13a4ac3263a43c3511749c","5f13a4ac3263a43c3511749c","63a36e1df1afd18b014794e9","63a38d2147e8f8af27593f09","rsvp1-task","false","0","","","","","null","
					<div style='width: 900px;'>
					<div style='float: center;'><img src=img/nontarget_distractor217.jpeg  ></img>
					</div>
					","null","","","","","","","","","","","","","","","",""
"","html-keyboard-response","12","225039","0.0-3.0-2.0-1.3","5f13a4ac3263a43c3511749c","5f13a4ac3263a43c3511749c","63a36e1df1afd18b014794e9","63a38d2147e8f8af27593f09","rsvp1-task","false","0","","","","","null","<span></span>","null","iti","","","","","","","","","","","","","","",""
"","html-keyboard-response","13","225267","0.0-3.0-2.0-0.4","5f13a4ac3263a43c3511749c","5f13a4ac3263a43c3511749c","63a36e1df1afd18b014794e9","63a38d2147e8f8af27593f09","rsvp1-task","false","0","","","","","null","
					<div style='width: 900px;'>
					<div style='float: center;'><img src=img/nontarget_distractor33.jpeg  ></img>
					</div>
					","null","","","","","","","","","","","","","","","",""
"","html-keyboard-response","14","225374","0.0-3.0-2.0-1.4","5f13a4ac3263a43c3511749c","5f13a4ac3263a43c3511749c","63a36e1df1afd18b014794e9","63a38d2147e8f8af27593f09","rsvp1-task","false","0","","","","","null","<span></span>","null","iti","","","","","","","","","","","","","","",""
"","html-keyboard-response","15","225601","0.0-3.0-2.0-0.5","5f13a4ac3263a43c3511749c","5f13a4ac3263a43c3511749c","63a36e1df1afd18b014794e9","63a38d2147e8f8af27593f09","rsvp1-task","false","0","","","","","null","
					<div style='width: 900px;'>
					<div style='float: center;'><img src=img/nontarget_distractor199.jpeg  ></img>
					</div>
					","null","","","","","","","","","","","","","","","",""
"","html-keyboard-response","16","225708","0.0-3.0-2.0-1.5","5f13a4ac3263a43c3511749c","5f13a4ac3263a43c3511749c","63a36e1df1afd18b014794e9","63a38d2147e8f8af27593f09","rsvp1-task","false","0","","","","","null","<span></span>","null","iti","","","","","","","","","","","","","","",""
"","html-keyboard-response","17","225935","0.0-3.0-2.0-0.6","5f13a4ac3263a43c3511749c","5f13a4ac3263a43c3511749c","63a36e1df1afd18b014794e9","63a38d2147e8f8af27593f09","rsvp1-task","false","0","","","","","null","
					<div style='width: 900px;'>
					<div style='float: center;'><img src=img/nontarget_distractor36.jpeg  ></img>
					</div>
					","null","","","","","","","","","","","","","","","",""
"","html-keyboard-response","18","226041","0.0-3.0-2.0-1.6","5f13a4ac3263a43c3511749c","5f13a4ac3263a43c3511749c","63a36e1df1afd18b014794e9","63a38d2147e8f8af27593f09","rsvp1-task","false","0","","","","","null","<span></span>","null","iti","","","","","","","","","","","","","","",""
"","html-keyboard-response","19","226269","0.0-3.0-2.0-0.7","5f13a4ac3263a43c3511749c","5f13a4ac3263a43c3511749c","63a36e1df1afd18b014794e9","63a38d2147e8f8af27593f09","rsvp1-task","false","0","","","","","null","
					<div style='width: 900px;'>
					<div style='float: center;'><img src=img/nontarget_distractor49.jpeg  ></img>
					</div>
					","null","","","","","","","","","","","","","","","",""
"","html-keyboard-response","20","226376","0.0-3.0-2.0-1.7","5f13a4ac3263a43c3511749c","5f13a4ac3263a43c3511749c","63a36e1df1afd18b014794e9","63a38d2147e8f8af27593f09","rsvp1-task","false","0","","","","","null","<span></span>","null","iti","","","","","","","","","","","","","","",""
"","html-keyboard-response","21","226603","0.0-3.0-2.0-0.8","5f13a4ac3263a43c3511749c","5f13a4ac3263a43c3511749c","63a36e1df1afd18b014794e9","63a38d2147e8f8af27593f09","rsvp1-task","false","0","","","","","null","
					<div style='width: 900px;'>
					<div style='float: center;'><img src=img/nontarget_distractor134.jpeg  ></img>
					</div>
					","null","","","","","","","","","","","","","","","",""
"","html-keyboard-response","22","226710","0.0-3.0-2.0-1.8","5f13a4ac3263a43c3511749c","5f13a4ac3263a43c3511749c","63a36e1df1afd18b014794e9","63a38d2147e8f8af27593f09","rsvp1-task","false","0","","","","","null","<span></span>","null","iti","","","","","","","","","","","","","","",""
"","html-keyboard-response","23","226937","0.0-3.0-2.0-0.9","5f13a4ac3263a43c3511749c","5f13a4ac3263a43c3511749c","63a36e1df1afd18b014794e9","63a38d2147e8f8af27593f09","rsvp1-task","false","0","","","","","null","
					<div style='width: 900px;'>
					<div style='float: center;'><img src=img/t2_targets182.jpeg class=""rotateimgL""  ></img>
					</div>
					","null","","","","","","","","","","","","","","","",""
"","html-keyboard-response","24","227044","0.0-3.0-2.0-1.9","5f13a4ac3263a43c3511749c","5f13a4ac3263a43c3511749c","63a36e1df1afd18b014794e9","63a38d2147e8f8af27593f09","rsvp1-task","false","0","","","","","null","<span></span>","null","iti","","","","","","","","","","","","","","",""
"","html-keyboard-response","25","227271","0.0-3.0-2.0-0.10","5f13a4ac3263a43c3511749c","5f13a4ac3263a43c3511749c","63a36e1df1afd18b014794e9","63a38d2147e8f8af27593f09","rsvp1-task","false","0","","","","","null","
					<div style='width: 900px;'>
					<div style='float: center;'><img src=img/nontarget_distractor95.jpeg  ></img>
					</div>
					","null","","","","","","","","","","","","","","","",""
"","html-keyboard-response","26","227379","0.0-3.0-2.0-1.10","5f13a4ac3263a43c3511749c","5f13a4ac3263a43c3511749c","63a36e1df1afd18b014794e9","63a38d2147e8f8af27593f09","rsvp1-task","false","0","","","","","null","<span></span>","null","iti","","","","","","","","","","","","","","",""
"","html-keyboard-response","27","227606","0.0-3.0-2.0-0.11","5f13a4ac3263a43c3511749c","5f13a4ac3263a43c3511749c","63a36e1df1afd18b014794e9","63a38d2147e8f8af27593f09","rsvp1-task","false","0","","","","","null","
					<div style='width: 900px;'>
					<div style='float: center;'><img src=img/nontarget_distractor235.jpeg  ></img>
					</div>
					","null","","","","","","","","","","","","","","","",""
"","html-keyboard-response","28","227712","0.0-3.0-2.0-1.11","5f13a4ac3263a43c3511749c","5f13a4ac3263a43c3511749c","63a36e1df1afd18b014794e9","63a38d2147e8f8af27593f09","rsvp1-task","false","0","","","","","null","<span></span>","null","iti","","","","","","","","","","","","","","",""
"","html-keyboard-response","29","227938","0.0-3.0-2.0-0.12","5f13a4ac3263a43c3511749c","5f13a4ac3263a43c3511749c","63a36e1df1afd18b014794e9","63a38d2147e8f8af27593f09","rsvp1-task","false","0","","","","","null","
					<div style='width: 900px;'>
					<div style='float: center;'><img src=img/nontarget_distractor125.jpeg  ></img>
					</div>
					","null","","","","","","","","","","","","","","","",""
"","html-keyboard-response","30","228045","0.0-3.0-2.0-1.12","5f13a4ac3263a43c3511749c","5f13a4ac3263a43c3511749c","63a36e1df1afd18b014794e9","63a38d2147e8f8af27593f09","rsvp1-task","false","0","","","","","null","<span></span>","null","iti","","","","","","","","","","","","","","",""
"","html-keyboard-response","31","228273","0.0-3.0-2.0-0.13","5f13a4ac3263a43c3511749c","5f13a4ac3263a43c3511749c","63a36e1df1afd18b014794e9","63a38d2147e8f8af27593f09","rsvp1-task","false","0","","","","","null","
					<div style='width: 900px;'>
					<div style='float: center;'><img src=img/nontarget_distractor10.jpeg  ></img>
					</div>
					","null","","","","","","","","","","","","","","","",""
"","html-keyboard-response","32","228380","0.0-3.0-2.0-1.13","5f13a4ac3263a43c3511749c","5f13a4ac3263a43c3511749c","63a36e1df1afd18b014794e9","63a38d2147e8f8af27593f09","rsvp1-task","false","0","","","","","null","<span></span>","null","iti","","","","","","","","","","","","","","",""
"","html-keyboard-response","33","228607","0.0-3.0-2.0-0.14","5f13a4ac3263a43c3511749c","5f13a4ac3263a43c3511749c","63a36e1df1afd18b014794e9","63a38d2147e8f8af27593f09","rsvp1-task","false","0","","","","","null","
					<div style='width: 900px;'>
					<div style='float: center;'><img src=img/nontarget_distractor14.jpeg  ></img>
					</div>
					","null","","","","","","","","","","","","","","","",""
"","html-keyboard-response","34","228714","0.0-3.0-2.0-1.14","5f13a4ac3263a43c3511749c","5f13a4ac3263a43c3511749c","63a36e1df1afd18b014794e9","63a38d2147e8f8af27593f09","rsvp1-task","false","0","","","","","null","<span></span>","null","iti","","","","","","","","","","","","","","",""
"","html-keyboard-response","35","228941","0.0-3.0-2.0-0.15","5f13a4ac3263a43c3511749c","5f13a4ac3263a43c3511749c","63a36e1df1afd18b014794e9","63a38d2147e8f8af27593f09","rsvp1-task","false","0","","","","","null","
					<div style='width: 900px;'>
					<div style='float: center;'><img src=img/nontarget_distractor72.jpeg  ></img>
					</div>
					","null","","","","","","","","","","","","","","","",""
"","html-keyboard-response","36","229047","0.0-3.0-2.0-1.15","5f13a4ac3263a43c3511749c","5f13a4ac3263a43c3511749c","63a36e1df1afd18b014794e9","63a38d2147e8f8af27593f09","rsvp1-task","false","0","","","","","null","<span></span>","null","iti","","","","","","","","","","","","","","",""
"","html-keyboard-response","37","229274","0.0-3.0-2.0-0.16","5f13a4ac3263a43c3511749c","5f13a4ac3263a43c3511749c","63a36e1df1afd18b014794e9","63a38d2147e8f8af27593f09","rsvp1-task","false","0","","","","","null","
					<div style='width: 900px;'>
					<div style='float: center;'><img src=img/nontarget_distractor208.jpeg  ></img>
					</div>
					","null","","","","","","","","","","","","","","","",""
"","html-keyboard-response","38","229381","0.0-3.0-2.0-1.16","5f13a4ac3263a43c3511749c","5f13a4ac3263a43c3511749c","63a36e1df1afd18b014794e9","63a38d2147e8f8af27593f09","rsvp1-task","false","0","","","","","null","<span></span>","null","iti","","","","","","","","","","","","","","",""
"","html-keyboard-response","39","233138","0.0-3.0-3.0-0.0","5f13a4ac3263a43c3511749c","5f13a4ac3263a43c3511749c","63a36e1df1afd18b014794e9","63a38d2147e8f8af27593f09","rsvp1-task","false","0","","","","","3754.899999976158","<div class=""rsvp""> Was the rotated image rotated left (1 key) or right (0 key)?</div>","1","response","instructions","1","1","neutral","img/nontarget_distractor116.jpeg","img/nontarget_distractor95.jpeg","2","8","10","1","true","true","true","",""
"","html-keyboard-response","40","234152","0.0-3.0-4.0","5f13a4ac3263a43c3511749c","5f13a4ac3263a43c3511749c","63a36e1df1afd18b014794e9","63a38d2147e8f8af27593f09","rsvp1-task","false","0","","","","","null","Correct! </p> <p>  </p><p> ","null","","","","","","","","","","","","","","","main_T1_ITI",""
"","html-keyboard-response","41","245809","0.0-4.0","5f13a4ac3263a43c3511749c","5f13a4ac3263a43c3511749c","63a36e1df1afd18b014794e9","63a38d2147e8f8af27593f09","rsvp1-task","false","0","","","","","11655.800000011921","<div class='instructions'><p>In the example you just saw, the images appeared quite slowly.</p><p>The real task is more challenging, as the images will appear much more rapidly. This will feel much harder! </p> First, you will complete a practice block. </p><p> <strong>You need to respond correctly on at least 75% of the practice trials to advance, so pay close attention! </strong> </p><p>Press any key to start the practice.</p></div>"," ","instructions_2","","","","","","","","","","","","","","",""
"","html-keyboard-response","42","248836","0.0-5.0-0.0","5f13a4ac3263a43c3511749c","5f13a4ac3263a43c3511749c","63a36e1df1afd18b014794e9","63a38d2147e8f8af27593f09","rsvp1-task","false","0","","","","","null","<div class=""rsvp"">+</div>","null","fixation","","","","","","","","","","","","","","",""
"","html-keyboard-response","43","249093","0.0-5.0-1.0","5f13a4ac3263a43c3511749c","5f13a4ac3263a43c3511749c","63a36e1df1afd18b014794e9","63a38d2147e8f8af27593f09","rsvp1-task","false","0","","","","","null","<div class=""rsvp"" ></div>","null","blank","","","","","","","","","","","","","","",""
"","html-keyboard-response","44","249203","0.0-5.0-2.0-0.0","5f13a4ac3263a43c3511749c","5f13a4ac3263a43c3511749c","63a36e1df1afd18b014794e9","63a38d2147e8f8af27593f09","rsvp1-task","false","0","","","","","null","
					<div style='width: 900px;'>
					<div style='float: center;'><img src=img/nontarget_distractor42.jpeg  ></img>
					</div>
					","null","rsvp1","practice0","","","","","","","","","1","","","","","img/nontarget_distractor42.jpeg"
"","html-keyboard-response","45","249208","0.0-5.0-2.0-1.0","5f13a4ac3263a43c3511749c","5f13a4ac3263a43c3511749c","63a36e1df1afd18b014794e9","63a38d2147e8f8af27593f09","rsvp1-task","false","0","","","","","null","<span></span>","null","iti","","","","","","","","","","","","","","",""
"","html-keyboard-response","46","249321","0.0-5.0-2.0-0.1","5f13a4ac3263a43c3511749c","5f13a4ac3263a43c3511749c","63a36e1df1afd18b014794e9","63a38d2147e8f8af27593f09","rsvp1-task","false","0","","","","","null","
					<div style='width: 900px;'>
					<div style='float: center;'><img src=img/nontarget_distractor117.jpeg  ></img>
					</div>
					","null","rsvp1","practice0","","","","","","","","","1","","","","","img/nontarget_distractor117.jpeg"
"","html-keyboard-response","47","249327","0.0-5.0-2.0-1.1","5f13a4ac3263a43c3511749c","5f13a4ac3263a43c3511749c","63a36e1df1afd18b014794e9","63a38d2147e8f8af27593f09","rsvp1-task","false","0","","","","","null","<span></span>","null","iti","","","","","","","","","","","","","","",""
"","html-keyboard-response","48","249439","0.0-5.0-2.0-0.2","5f13a4ac3263a43c3511749c","5f13a4ac3263a43c3511749c","63a36e1df1afd18b014794e9","63a38d2147e8f8af27593f09","rsvp1-task","false","0","","","","","null","
					<div style='width: 900px;'>
					<div style='float: center;'><img src=img/nontarget_distractor165.jpeg  ></img>
					</div>
					","null","rsvp1","practice0","","","","","","","","","1","","","","","img/nontarget_distractor165.jpeg"
"","html-keyboard-response","49","249446","0.0-5.0-2.0-1.2","5f13a4ac3263a43c3511749c","5f13a4ac3263a43c3511749c","63a36e1df1afd18b014794e9","63a38d2147e8f8af27593f09","rsvp1-task","false","0","","","","","null","<span></span>","null","iti","","","","","","","","","","","","","","",""
"","html-keyboard-response","50","249556","0.0-5.0-2.0-0.3","5f13a4ac3263a43c3511749c","5f13a4ac3263a43c3511749c","63a36e1df1afd18b014794e9","63a38d2147e8f8af27593f09","rsvp1-task","false","0","","","","","null","
					<div style='width: 900px;'>
					<div style='float: center;'><img src=img/nontarget_distractor41.jpeg  ></img>
					</div>
					","null","rsvp1","practice0","","","","","","","","","1","","","","","img/nontarget_distractor41.jpeg"
"","html-keyboard-response","51","249562","0.0-5.0-2.0-1.3","5f13a4ac3263a43c3511749c","5f13a4ac3263a43c3511749c","63a36e1df1afd18b014794e9","63a38d2147e8f8af27593f09","rsvp1-task","false","0","","","","","null","<span></span>","null","iti","","","","","","","","","","","","","","",""
"","html-keyboard-response","52","249674","0.0-5.0-2.0-0.4","5f13a4ac3263a43c3511749c","5f13a4ac3263a43c3511749c","63a36e1df1afd18b014794e9","63a38d2147e8f8af27593f09","rsvp1-task","false","0","","","","","null","
					<div style='width: 900px;'>
					<div style='float: center;'><img src=img/nontarget_distractor149.jpeg  ></img>
					</div>
					","null","rsvp1","practice0","","","","","","","","","1","","","","","img/nontarget_distractor149.jpeg"
"","html-keyboard-response","53","249680","0.0-5.0-2.0-1.4","5f13a4ac3263a43c3511749c","5f13a4ac3263a43c3511749c","63a36e1df1afd18b014794e9","63a38d2147e8f8af27593f09","rsvp1-task","false","0","","","","","null","<span></span>","null","iti","","","","","","","","","","","","","","",""
"","html-keyboard-response","54","249791","0.0-5.0-2.0-0.5","5f13a4ac3263a43c3511749c","5f13a4ac3263a43c3511749c","63a36e1df1afd18b014794e9","63a38d2147e8f8af27593f09","rsvp1-task","false","0","","","","","null","
					<div style='width: 900px;'>
					<div style='float: center;'><img src=img/nontarget_distractor208.jpeg  ></img>
					</div>
					","null","rsvp1","practice0","","","","","","","","","1","","","","","img/nontarget_distractor208.jpeg"
"","html-keyboard-response","55","249797","0.0-5.0-2.0-1.5","5f13a4ac3263a43c3511749c","5f13a4ac3263a43c3511749c","63a36e1df1afd18b014794e9","63a38d2147e8f8af27593f09","rsvp1-task","false","0","","","","","null","<span></span>","null","iti","","","","","","","","","","","","","","",""
"","html-keyboard-response","56","249907","0.0-5.0-2.0-0.6","5f13a4ac3263a43c3511749c","5f13a4ac3263a43c3511749c","63a36e1df1afd18b014794e9","63a38d2147e8f8af27593f09","rsvp1-task","false","0","","","","","null","
					<div style='width: 900px;'>
					<div style='float: center;'><img src=img/nontarget_distractor82.jpeg  ></img>
					</div>
					","null","rsvp1","practice0","","","","","","","","","1","","","","","img/nontarget_distractor82.jpeg"
"","html-keyboard-response","57","249913","0.0-5.0-2.0-1.6","5f13a4ac3263a43c3511749c","5f13a4ac3263a43c3511749c","63a36e1df1afd18b014794e9","63a38d2147e8f8af27593f09","rsvp1-task","false","0","","","","","null","<span></span>","null","iti","","","","","","","","","","","","","","",""
"","html-keyboard-response","58","250025","0.0-5.0-2.0-0.7","5f13a4ac3263a43c3511749c","5f13a4ac3263a43c3511749c","63a36e1df1afd18b014794e9","63a38d2147e8f8af27593f09","rsvp1-task","false","0","","","","","null","
					<div style='width: 900px;'>
					<div style='float: center;'><img src=img/nontarget_distractor155.jpeg  ></img>
					</div>
					","null","rsvp1","practice0","","","","","","","","","1","","","","","img/nontarget_distractor155.jpeg"
"","html-keyboard-response","59","250030","0.0-5.0-2.0-1.7","5f13a4ac3263a43c3511749c","5f13a4ac3263a43c3511749c","63a36e1df1afd18b014794e9","63a38d2147e8f8af27593f09","rsvp1-task","false","0","","","","","null","<span></span>","null","iti","","","","","","","","","","","","","","",""
"","html-keyboard-response","60","250140","0.0-5.0-2.0-0.8","5f13a4ac3263a43c3511749c","5f13a4ac3263a43c3511749c","63a36e1df1afd18b014794e9","63a38d2147e8f8af27593f09","rsvp1-task","false","0","","","","","null","
					<div style='width: 900px;'>
					<div style='float: center;'><img src=img/nontarget_distractor191.jpeg  ></img>
					</div>
					","null","rsvp1","practice0","","","","","","","","","1","","","","","img/nontarget_distractor191.jpeg"
"","html-keyboard-response","61","250147","0.0-5.0-2.0-1.8","5f13a4ac3263a43c3511749c","5f13a4ac3263a43c3511749c","63a36e1df1afd18b014794e9","63a38d2147e8f8af27593f09","rsvp1-task","false","0","","","","","null","<span></span>","null","iti","","","","","","","","","","","","","","",""
"","html-keyboard-response","62","250256","0.0-5.0-2.0-0.9","5f13a4ac3263a43c3511749c","5f13a4ac3263a43c3511749c","63a36e1df1afd18b014794e9","63a38d2147e8f8af27593f09","rsvp1-task","false","0","","","","","null","
					<div style='width: 900px;'>
					<div style='float: center;'><img src=img/t2_targets129.jpeg class=""rotateimgL""  ></img>
					</div>
					","null","rsvp1","practice0","","","","","","","","","1","","","","","img/t2_targets129.jpeg class=""rotateimgL"""
"","html-keyboard-response","63","250262","0.0-5.0-2.0-1.9","5f13a4ac3263a43c3511749c","5f13a4ac3263a43c3511749c","63a36e1df1afd18b014794e9","63a38d2147e8f8af27593f09","rsvp1-task","false","0","","","","","null","<span></span>","null","iti","","","","","","","","","","","","","","",""
"","html-keyboard-response","64","250374","0.0-5.0-2.0-0.10","5f13a4ac3263a43c3511749c","5f13a4ac3263a43c3511749c","63a36e1df1afd18b014794e9","63a38d2147e8f8af27593f09","rsvp1-task","false","0","","","","","null","
					<div style='width: 900px;'>
					<div style='float: center;'><img src=img/nontarget_distractor67.jpeg  ></img>
					</div>
					","null","rsvp1","practice0","","","","","","","","","1","","","","","img/nontarget_distractor67.jpeg"
"","html-keyboard-response","65","250380","0.0-5.0-2.0-1.10","5f13a4ac3263a43c3511749c","5f13a4ac3263a43c3511749c","63a36e1df1afd18b014794e9","63a38d2147e8f8af27593f09","rsvp1-task","false","0","","","","","null","<span></span>","null","iti","","","","","","","","","","","","","","",""
"","html-keyboard-response","66","250492","0.0-5.0-2.0-0.11","5f13a4ac3263a43c3511749c","5f13a4ac3263a43c3511749c","63a36e1df1afd18b014794e9","63a38d2147e8f8af27593f09","rsvp1-task","false","0","","","","","null","
					<div style='width: 900px;'>
					<div style='float: center;'><img src=img/nontarget_distractor170.jpeg  ></img>
					</div>
					","null","rsvp1","practice0","","","","","","","","","1","","","","","img/nontarget_distractor170.jpeg"
"","html-keyboard-response","67","250498","0.0-5.0-2.0-1.11","5f13a4ac3263a43c3511749c","5f13a4ac3263a43c3511749c","63a36e1df1afd18b014794e9","63a38d2147e8f8af27593f09","rsvp1-task","false","0","","","","","null","<span></span>","null","iti","","","","","","","","","","","","","","",""
"","html-keyboard-response","68","250609","0.0-5.0-2.0-0.12","5f13a4ac3263a43c3511749c","5f13a4ac3263a43c3511749c","63a36e1df1afd18b014794e9","63a38d2147e8f8af27593f09","rsvp1-task","false","0","","","","","null","
					<div style='width: 900px;'>
					<div style='float: center;'><img src=img/nontarget_distractor159.jpeg  ></img>
					</div>
					","null","rsvp1","practice0","","","","","","","","","1","","","","","img/nontarget_distractor159.jpeg"
"","html-keyboard-response","69","250614","0.0-5.0-2.0-1.12","5f13a4ac3263a43c3511749c","5f13a4ac3263a43c3511749c","63a36e1df1afd18b014794e9","63a38d2147e8f8af27593f09","rsvp1-task","false","0","","","","","null","<span></span>","null","iti","","","","","","","","","","","","","","",""
"","html-keyboard-response","70","250725","0.0-5.0-2.0-0.13","5f13a4ac3263a43c3511749c","5f13a4ac3263a43c3511749c","63a36e1df1afd18b014794e9","63a38d2147e8f8af27593f09","rsvp1-task","false","0","","","","","null","
					<div style='width: 900px;'>
					<div style='float: center;'><img src=img/nontarget_distractor94.jpeg  ></img>
					</div>
					","null","rsvp1","practice0","","","","","","","","","1","","","","","img/nontarget_distractor94.jpeg"
"","html-keyboard-response","71","250731","0.0-5.0-2.0-1.13","5f13a4ac3263a43c3511749c","5f13a4ac3263a43c3511749c","63a36e1df1afd18b014794e9","63a38d2147e8f8af27593f09","rsvp1-task","false","0","","","","","null","<span></span>","null","iti","","","","","","","","","","","","","","",""
"","html-keyboard-response","72","250843","0.0-5.0-2.0-0.14","5f13a4ac3263a43c3511749c","5f13a4ac3263a43c3511749c","63a36e1df1afd18b014794e9","63a38d2147e8f8af27593f09","rsvp1-task","false","0","","","","","null","
					<div style='width: 900px;'>
					<div style='float: center;'><img src=img/nontarget_distractor110.jpeg  ></img>
					</div>
					","null","rsvp1","practice0","","","","","","","","","1","","","","","img/nontarget_distractor110.jpeg"
"","html-keyboard-response","73","250850","0.0-5.0-2.0-1.14","5f13a4ac3263a43c3511749c","5f13a4ac3263a43c3511749c","63a36e1df1afd18b014794e9","63a38d2147e8f8af27593f09","rsvp1-task","false","0","","","","","null","<span></span>","null","iti","","","","","","","","","","","","","","",""
"","html-keyboard-response","74","250959","0.0-5.0-2.0-0.15","5f13a4ac3263a43c3511749c","5f13a4ac3263a43c3511749c","63a36e1df1afd18b014794e9","63a38d2147e8f8af27593f09","rsvp1-task","false","0","","","","","null","
					<div style='width: 900px;'>
					<div style='float: center;'><img src=img/nontarget_distractor75.jpeg  ></img>
					</div>
					","null","rsvp1","practice0","","","","","","","","","1","","","","","img/nontarget_distractor75.jpeg"
"","html-keyboard-response","75","250964","0.0-5.0-2.0-1.15","5f13a4ac3263a43c3511749c","5f13a4ac3263a43c3511749c","63a36e1df1afd18b014794e9","63a38d2147e8f8af27593f09","rsvp1-task","false","0","","","","","null","<span></span>","null","iti","","","","","","","","","","","","","","",""
"","html-keyboard-response","76","251076","0.0-5.0-2.0-0.16","5f13a4ac3263a43c3511749c","5f13a4ac3263a43c3511749c","63a36e1df1afd18b014794e9","63a38d2147e8f8af27593f09","rsvp1-task","false","0","","","","","null","
					<div style='width: 900px;'>
					<div style='float: center;'><img src=img/nontarget_distractor76.jpeg  ></img>
					</div>
					","null","rsvp1","practice0","","","","","","","","","1","","","","","img/nontarget_distractor76.jpeg"
"","html-keyboard-response","77","251082","0.0-5.0-2.0-1.16","5f13a4ac3263a43c3511749c","5f13a4ac3263a43c3511749c","63a36e1df1afd18b014794e9","63a38d2147e8f8af27593f09","rsvp1-task","false","0","","","","","null","<span></span>","null","iti","","","","","","","","","","","","","","",""
"","html-keyboard-response","78","251810","0.0-5.0-3.0-0.0","5f13a4ac3263a43c3511749c","5f13a4ac3263a43c3511749c","63a36e1df1afd18b014794e9","63a38d2147e8f8af27593f09","rsvp1-task","false","0","","","","","727","<div class=""rsvp""> Was the rotated image rotated left (1 key) or right (0 key)?</div>","1","response","practice0","1","1","neutral","img/nontarget_distractor155.jpeg","img/nontarget_distractor67.jpeg","8","2","10","1","true","true","true","",""
"","html-keyboard-response","79","252824","0.0-5.0-4.0","5f13a4ac3263a43c3511749c","5f13a4ac3263a43c3511749c","63a36e1df1afd18b014794e9","63a38d2147e8f8af27593f09","rsvp1-task","false","0","","","","","null","Correct! </p> <p>  </p><p> ","null","","","","","","","","","","","","","","","main_T1_ITI",""
"","html-keyboard-response","80","254832","0.0-5.0-5.0","5f13a4ac3263a43c3511749c","5f13a4ac3263a43c3511749c","63a36e1df1afd18b014794e9","63a38d2147e8f8af27593f09","rsvp1-task","false","0","","","","","null","<div class=""rsvp"">+</div>","null","fixation","","","","","","","","","","","","","","",""
"","html-keyboard-response","81","255090","0.0-5.0-6.0","5f13a4ac3263a43c3511749c","5f13a4ac3263a43c3511749c","63a36e1df1afd18b014794e9","63a38d2147e8f8af27593f09","rsvp1-task","false","0","","","","","null","<div class=""rsvp"" ></div>","null","blank","","","","","","","","","","","","","","",""
"","html-keyboard-response","82","255198","0.0-5.0-7.0-0.0","5f13a4ac3263a43c3511749c","5f13a4ac3263a43c3511749c","63a36e1df1afd18b014794e9","63a38d2147e8f8af27593f09","rsvp1-task","false","0","","","","","null","
					<div style='width: 900px;'>
					<div style='float: center;'><img src=img/nontarget_distractor53.jpeg  ></img>
					</div>
					","null","rsvp1","practice0","","","","","","","","","2","","","","","img/nontarget_distractor53.jpeg"
"","html-keyboard-response","83","255204","0.0-5.0-7.0-1.0","5f13a4ac3263a43c3511749c","5f13a4ac3263a43c3511749c","63a36e1df1afd18b014794e9","63a38d2147e8f8af27593f09","rsvp1-task","false","0","","","","","null","<span></span>","null","iti","","","","","","","","","","","","","","",""
"","html-keyboard-response","84","255316","0.0-5.0-7.0-0.1","5f13a4ac3263a43c3511749c","5f13a4ac3263a43c3511749c","63a36e1df1afd18b014794e9","63a38d2147e8f8af27593f09","rsvp1-task","false","0","","","","","null","
					<div style='width: 900px;'>
					<div style='float: center;'><img src=img/nontarget_distractor118.jpeg  ></img>
					</div>
					","null","rsvp1","practice0","","","","","","","","","2","","","","","img/nontarget_distractor118.jpeg"
"","html-keyboard-response","85","255321","0.0-5.0-7.0-1.1","5f13a4ac3263a43c3511749c","5f13a4ac3263a43c3511749c","63a36e1df1afd18b014794e9","63a38d2147e8f8af27593f09","rsvp1-task","false","0","","","","","null","<span></span>","null","iti","","","","","","","","","","","","","","",""
"","html-keyboard-response","86","255434","0.0-5.0-7.0-0.2","5f13a4ac3263a43c3511749c","5f13a4ac3263a43c3511749c","63a36e1df1afd18b014794e9","63a38d2147e8f8af27593f09","rsvp1-task","false","0","","","","","null","
					<div style='width: 900px;'>
					<div style='float: center;'><img src=img/nontarget_distractor239.jpeg  ></img>
					</div>
					","null","rsvp1","practice0","","","","","","","","","2","","","","","img/nontarget_distractor239.jpeg"
"","html-keyboard-response","87","255440","0.0-5.0-7.0-1.2","5f13a4ac3263a43c3511749c","5f13a4ac3263a43c3511749c","63a36e1df1afd18b014794e9","63a38d2147e8f8af27593f09","rsvp1-task","false","0","","","","","null","<span></span>","null","iti","","","","","","","","","","","","","","",""
"","html-keyboard-response","88","255543","0.0-5.0-7.0-0.3","5f13a4ac3263a43c3511749c","5f13a4ac3263a43c3511749c","63a36e1df1afd18b014794e9","63a38d2147e8f8af27593f09","rsvp1-task","false","0","","","","","null","
					<div style='width: 900px;'>
					<div style='float: center;'><img src=img/nontarget_distractor213.jpeg  ></img>
					</div>
					","null","rsvp1","practice0","","","","","","","","","2","","","","","img/nontarget_distractor213.jpeg"
"","html-keyboard-response","89","255549","0.0-5.0-7.0-1.3","5f13a4ac3263a43c3511749c","5f13a4ac3263a43c3511749c","63a36e1df1afd18b014794e9","63a38d2147e8f8af27593f09","rsvp1-task","false","0","","","","","null","<span></span>","null","iti","","","","","","","","","","","","","","",""
"","html-keyboard-response","90","255654","0.0-5.0-7.0-0.4","5f13a4ac3263a43c3511749c","5f13a4ac3263a43c3511749c","63a36e1df1afd18b014794e9","63a38d2147e8f8af27593f09","rsvp1-task","false","0","","","","","null","
					<div style='width: 900px;'>
					<div style='float: center;'><img src=img/nontarget_distractor160.jpeg  ></img>
					</div>
					","null","rsvp1","practice0","","","","","","","","","2","","","","","img/nontarget_distractor160.jpeg"
"","html-keyboard-response","91","255659","0.0-5.0-7.0-1.4","5f13a4ac3263a43c3511749c","5f13a4ac3263a43c3511749c","63a36e1df1afd18b014794e9","63a38d2147e8f8af27593f09","rsvp1-task","false","0","","","","","null","<span></span>","null","iti","","","","","","","","","","","","","","",""
"","html-keyboard-response","92","255760","0.0-5.0-7.0-0.5","5f13a4ac3263a43c3511749c","5f13a4ac3263a43c3511749c","63a36e1df1afd18b014794e9","63a38d2147e8f8af27593f09","rsvp1-task","false","0","","","","","null","
					<div style='width: 900px;'>
					<div style='float: center;'><img src=img/nontarget_distractor253.jpeg  ></img>
					</div>
					","null","rsvp1","practice0","","","","","","","","","2","","","","","img/nontarget_distractor253.jpeg"
"","html-keyboard-response","93","255765","0.0-5.0-7.0-1.5","5f13a4ac3263a43c3511749c","5f13a4ac3263a43c3511749c","63a36e1df1afd18b014794e9","63a38d2147e8f8af27593f09","rsvp1-task","false","0","","","","","null","<span></span>","null","iti","","","","","","","","","","","","","","",""
"","html-keyboard-response","94","255886","0.0-5.0-7.0-0.6","5f13a4ac3263a43c3511749c","5f13a4ac3263a43c3511749c","63a36e1df1afd18b014794e9","63a38d2147e8f8af27593f09","rsvp1-task","false","0","","","","","null","
					<div style='width: 900px;'>
					<div style='float: center;'><img src=img/nontarget_distractor3.jpeg  ></img>
					</div>
					","null","rsvp1","practice0","","","","","","","","","2","","","","","img/nontarget_distractor3.jpeg"
"","html-keyboard-response","95","255892","0.0-5.0-7.0-1.6","5f13a4ac3263a43c3511749c","5f13a4ac3263a43c3511749c","63a36e1df1afd18b014794e9","63a38d2147e8f8af27593f09","rsvp1-task","false","0","","","","","null","<span></span>","null","iti","","","","","","","","","","","","","","",""
"","html-keyboard-response","96","256003","0.0-5.0-7.0-0.7","5f13a4ac3263a43c3511749c","5f13a4ac3263a43c3511749c","63a36e1df1afd18b014794e9","63a38d2147e8f8af27593f09","rsvp1-task","false","0","","","","","null","
					<div style='width: 900px;'>
					<div style='float: center;'><img src=img/nontarget_distractor120.jpeg  ></img>
					</div>
					","null","rsvp1","practice0","","","","","","","","","2","","","","","img/nontarget_distractor120.jpeg"
"","html-keyboard-response","97","256009","0.0-5.0-7.0-1.7","5f13a4ac3263a43c3511749c","5f13a4ac3263a43c3511749c","63a36e1df1afd18b014794e9","63a38d2147e8f8af27593f09","rsvp1-task","false","0","","","","","null","<span></span>","null","iti","","","","","","","","","","","","","","",""
"","html-keyboard-response","98","256118","0.0-5.0-7.0-0.8","5f13a4ac3263a43c3511749c","5f13a4ac3263a43c3511749c","63a36e1df1afd18b014794e9","63a38d2147e8f8af27593f09","rsvp1-task","false","0","","","","","null","
					<div style='width: 900px;'>
					<div style='float: center;'><img src=img/t2_targets10.jpeg class=""rotateimgR""  ></img>
					</div>
					","null","rsvp1","practice0","","","","","","","","","2","","","","","img/t2_targets10.jpeg class=""rotateimgR"""
"","html-keyboard-response","99","256123","0.0-5.0-7.0-1.8","5f13a4ac3263a43c3511749c","5f13a4ac3263a43c3511749c","63a36e1df1afd18b014794e9","63a38d2147e8f8af27593f09","rsvp1-task","false","0","","","","","null","<span></span>","null","iti","","","","","","","","","","","","","","",""
"","html-keyboard-response","100","256236","0.0-5.0-7.0-0.9","5f13a4ac3263a43c3511749c","5f13a4ac3263a43c3511749c","63a36e1df1afd18b014794e9","63a38d2147e8f8af27593f09","rsvp1-task","false","0","","","","","null","
					<div style='width: 900px;'>
					<div style='float: center;'><img src=img/nontarget_distractor224.jpeg  ></img>
					</div>
					","null","rsvp1","practice0","","","","","","","","","2","","","","","img/nontarget_distractor224.jpeg"
"","html-keyboard-response","101","256242","0.0-5.0-7.0-1.9","5f13a4ac3263a43c3511749c","5f13a4ac3263a43c3511749c","63a36e1df1afd18b014794e9","63a38d2147e8f8af27593f09","rsvp1-task","false","0","","","","","null","<span></span>","null","iti","","","","","","","","","","","","","","",""
"","html-keyboard-response","102","256353","0.0-5.0-7.0-0.10","5f13a4ac3263a43c3511749c","5f13a4ac3263a43c3511749c","63a36e1df1afd18b014794e9","63a38d2147e8f8af27593f09","rsvp1-task","false","0","","","","","null","
					<div style='width: 900px;'>
					<div style='float: center;'><img src=img/nontarget_distractor132.jpeg  ></img>
					</div>
					","null","rsvp1","practice0","","","","","","","","","2","","","","","img/nontarget_distractor132.jpeg"
"","html-keyboard-response","103","256358","0.0-5.0-7.0-1.10","5f13a4ac3263a43c3511749c","5f13a4ac3263a43c3511749c","63a36e1df1afd18b014794e9","63a38d2147e8f8af27593f09","rsvp1-task","false","0","","","","","null","<span></span>","null","iti","","","","","","","","","","","","","","",""
"","html-keyboard-response","104","256471","0.0-5.0-7.0-0.11","5f13a4ac3263a43c3511749c","5f13a4ac3263a43c3511749c","63a36e1df1afd18b014794e9","63a38d2147e8f8af27593f09","rsvp1-task","false","0","","","","","null","
					<div style='width: 900px;'>
					<div style='float: center;'><img src=img/nontarget_distractor136.jpeg  ></img>
					</div>
					","null","rsvp1","practice0","","","","","","","","","2","","","","","img/nontarget_distractor136.jpeg"
"","html-keyboard-response","105","256476","0.0-5.0-7.0-1.11","5f13a4ac3263a43c3511749c","5f13a4ac3263a43c3511749c","63a36e1df1afd18b014794e9","63a38d2147e8f8af27593f09","rsvp1-task","false","0","","","","","null","<span></span>","null","iti","","","","","","","","","","","","","","",""
"","html-keyboard-response","106","256585","0.0-5.0-7.0-0.12","5f13a4ac3263a43c3511749c","5f13a4ac3263a43c3511749c","63a36e1df1afd18b014794e9","63a38d2147e8f8af27593f09","rsvp1-task","false","0","","","","","null","
					<div style='width: 900px;'>
					<div style='float: center;'><img src=img/nontarget_distractor251.jpeg  ></img>
					</div>
					","null","rsvp1","practice0","","","","","","","","","2","","","","","img/nontarget_distractor251.jpeg"
"","html-keyboard-response","107","256591","0.0-5.0-7.0-1.12","5f13a4ac3263a43c3511749c","5f13a4ac3263a43c3511749c","63a36e1df1afd18b014794e9","63a38d2147e8f8af27593f09","rsvp1-task","false","0","","","","","null","<span></span>","null","iti","","","","","","","","","","","","","","",""
"","html-keyboard-response","108","256703","0.0-5.0-7.0-0.13","5f13a4ac3263a43c3511749c","5f13a4ac3263a43c3511749c","63a36e1df1afd18b014794e9","63a38d2147e8f8af27593f09","rsvp1-task","false","0","","","","","null","
					<div style='width: 900px;'>
					<div style='float: center;'><img src=img/nontarget_distractor194.jpeg  ></img>
					</div>
					","null","rsvp1","practice0","","","","","","","","","2","","","","","img/nontarget_distractor194.jpeg"
"","html-keyboard-response","109","256709","0.0-5.0-7.0-1.13","5f13a4ac3263a43c3511749c","5f13a4ac3263a43c3511749c","63a36e1df1afd18b014794e9","63a38d2147e8f8af27593f09","rsvp1-task","false","0","","","","","null","<span></span>","null","iti","","","","","","","","","","","","","","",""
"","html-keyboard-response","110","256820","0.0-5.0-7.0-0.14","5f13a4ac3263a43c3511749c","5f13a4ac3263a43c3511749c","63a36e1df1afd18b014794e9","63a38d2147e8f8af27593f09","rsvp1-task","false","0","","","","","null","
					<div style='width: 900px;'>
					<div style='float: center;'><img src=img/nontarget_distractor36.jpeg  ></img>
					</div>
					","null","rsvp1","practice0","","","","","","","","","2","","","","","img/nontarget_distractor36.jpeg"
"","html-keyboard-response","111","256826","0.0-5.0-7.0-1.14","5f13a4ac3263a43c3511749c","5f13a4ac3263a43c3511749c","63a36e1df1afd18b014794e9","63a38d2147e8f8af27593f09","rsvp1-task","false","0","","","","","null","<span></span>","null","iti","","","","","","","","","","","","","","",""
"","html-keyboard-response","112","256937","0.0-5.0-7.0-0.15","5f13a4ac3263a43c3511749c","5f13a4ac3263a43c3511749c","63a36e1df1afd18b014794e9","63a38d2147e8f8af27593f09","rsvp1-task","false","0","","","","","null","
					<div style='width: 900px;'>
					<div style='float: center;'><img src=img/nontarget_distractor51.jpeg  ></img>
					</div>
					","null","rsvp1","practice0","","","","","","","","","2","","","","","img/nontarget_distractor51.jpeg"
"","html-keyboard-response","113","256943","0.0-5.0-7.0-1.15","5f13a4ac3263a43c3511749c","5f13a4ac3263a43c3511749c","63a36e1df1afd18b014794e9","63a38d2147e8f8af27593f09","rsvp1-task","false","0","","","","","null","<span></span>","null","iti","","","","","","","","","","","","","","",""
"","html-keyboard-response","114","257055","0.0-5.0-7.0-0.16","5f13a4ac3263a43c3511749c","5f13a4ac3263a43c3511749c","63a36e1df1afd18b014794e9","63a38d2147e8f8af27593f09","rsvp1-task","false","0","","","","","null","
					<div style='width: 900px;'>
					<div style='float: center;'><img src=img/nontarget_distractor2.jpeg  ></img>
					</div>
					","null","rsvp1","practice0","","","","","","","","","2","","","","","img/nontarget_distractor2.jpeg"
"","html-keyboard-response","115","257061","0.0-5.0-7.0-1.16","5f13a4ac3263a43c3511749c","5f13a4ac3263a43c3511749c","63a36e1df1afd18b014794e9","63a38d2147e8f8af27593f09","rsvp1-task","false","0","","","","","null","<span></span>","null","iti","","","","","","","","","","","","","","",""
"","html-keyboard-response","116","257585","0.0-5.0-8.0-0.0","5f13a4ac3263a43c3511749c","5f13a4ac3263a43c3511749c","63a36e1df1afd18b014794e9","63a38d2147e8f8af27593f09","rsvp1-task","false","0","","","","","522.8000000119209","<div class=""rsvp""> Was the rotated image rotated left (1 key) or right (0 key)?</div>","0","response","practice0","0","0","neutral","img/nontarget_distractor120.jpeg","img/nontarget_distractor224.jpeg","8","1","9","2","true","true","true","",""
"","html-keyboard-response","117","258599","0.0-5.0-9.0","5f13a4ac3263a43c3511749c","5f13a4ac3263a43c3511749c","63a36e1df1afd18b014794e9","63a38d2147e8f8af27593f09","rsvp1-task","false","0","","","","","null","Correct! </p> <p>  </p><p> ","null","","","","","","","","","","","","","","","main_T1_ITI",""
"","html-keyboard-response","118","260608","0.0-5.0-10.0","5f13a4ac3263a43c3511749c","5f13a4ac3263a43c3511749c","63a36e1df1afd18b014794e9","63a38d2147e8f8af27593f09","rsvp1-task","false","0","","","","","null","<div class=""rsvp"">+</div>","null","fixation","","","","","","","","","","","","","","",""
"","html-keyboard-response","119","260867","0.0-5.0-11.0","5f13a4ac3263a43c3511749c","5f13a4ac3263a43c3511749c","63a36e1df1afd18b014794e9","63a38d2147e8f8af27593f09","rsvp1-task","false","0","","","","","null","<div class=""rsvp"" ></div>","null","blank","","","","","","","","","","","","","","",""
"","html-keyboard-response","120","260977","0.0-5.0-12.0-0.0","5f13a4ac3263a43c3511749c","5f13a4ac3263a43c3511749c","63a36e1df1afd18b014794e9","63a38d2147e8f8af27593f09","rsvp1-task","false","0","","","","","null","
					<div style='width: 900px;'>
					<div style='float: center;'><img src=img/nontarget_distractor185.jpeg  ></img>
					</div>
					","null","rsvp1","practice0","","","","","","","","","3","","","","","img/nontarget_distractor185.jpeg"
"","html-keyboard-response","121","260981","0.0-5.0-12.0-1.0","5f13a4ac3263a43c3511749c","5f13a4ac3263a43c3511749c","63a36e1df1afd18b014794e9","63a38d2147e8f8af27593f09","rsvp1-task","false","0","","","","","null","<span></span>","null","iti","","","","","","","","","","","","","","",""
"","html-keyboard-response","122","261094","0.0-5.0-12.0-0.1","5f13a4ac3263a43c3511749c","5f13a4ac3263a43c3511749c","63a36e1df1afd18b014794e9","63a38d2147e8f8af27593f09","rsvp1-task","false","0","","","","","null","
					<div style='width: 900px;'>
					<div style='float: center;'><img src=img/nontarget_distractor254.jpeg  ></img>
					</div>
					","null","rsvp1","practice0","","","","","","","","","3","","","","","img/nontarget_distractor254.jpeg"
"","html-keyboard-response","123","261100","0.0-5.0-12.0-1.1","5f13a4ac3263a43c3511749c","5f13a4ac3263a43c3511749c","63a36e1df1afd18b014794e9","63a38d2147e8f8af27593f09","rsvp1-task","false","0","","","","","null","<span></span>","null","iti","","","","","","","","","","","","","","",""
"","html-keyboard-response","124","261211","0.0-5.0-12.0-0.2","5f13a4ac3263a43c3511749c","5f13a4ac3263a43c3511749c","63a36e1df1afd18b014794e9","63a38d2147e8f8af27593f09","rsvp1-task","false","0","","","","","null","
					<div style='width: 900px;'>
					<div style='float: center;'><img src=img/nontarget_distractor72.jpeg  ></img>
					</div>
					","null","rsvp1","practice0","","","","","","","","","3","","","","","img/nontarget_distractor72.jpeg"
"","html-keyboard-response","125","261218","0.0-5.0-12.0-1.2","5f13a4ac3263a43c3511749c","5f13a4ac3263a43c3511749c","63a36e1df1afd18b014794e9","63a38d2147e8f8af27593f09","rsvp1-task","false","0","","","","","null","<span></span>","null","iti","","","","","","","","","","","","","","",""
"","html-keyboard-response","126","261329","0.0-5.0-12.0-0.3","5f13a4ac3263a43c3511749c","5f13a4ac3263a43c3511749c","63a36e1df1afd18b014794e9","63a38d2147e8f8af27593f09","rsvp1-task","false","0","","","","","null","
					<div style='width: 900px;'>
					<div style='float: center;'><img src=img/nontarget_distractor77.jpeg  ></img>
					</div>
					","null","rsvp1","practice0","","","","","","","","","3","","","","","img/nontarget_distractor77.jpeg"
"","html-keyboard-response","127","261335","0.0-5.0-12.0-1.3","5f13a4ac3263a43c3511749c","5f13a4ac3263a43c3511749c","63a36e1df1afd18b014794e9","63a38d2147e8f8af27593f09","rsvp1-task","false","0","","","","","null","<span></span>","null","iti","","","","","","","","","","","","","","",""
"","html-keyboard-response","128","261446","0.0-5.0-12.0-0.4","5f13a4ac3263a43c3511749c","5f13a4ac3263a43c3511749c","63a36e1df1afd18b014794e9","63a38d2147e8f8af27593f09","rsvp1-task","false","0","","","","","null","
					<div style='width: 900px;'>
					<div style='float: center;'><img src=img/nontarget_distractor181.jpeg  ></img>
					</div>
					","null","rsvp1","practice0","","","","","","","","","3","","","","","img/nontarget_distractor181.jpeg"
"","html-keyboard-response","129","261452","0.0-5.0-12.0-1.4","5f13a4ac3263a43c3511749c","5f13a4ac3263a43c3511749c","63a36e1df1afd18b014794e9","63a38d2147e8f8af27593f09","rsvp1-task","false","0","","","","","null","<span></span>","null","iti","","","","","","","","","","","","","","",""
"","html-keyboard-response","130","261564","0.0-5.0-12.0-0.5","5f13a4ac3263a43c3511749c","5f13a4ac3263a43c3511749c","63a36e1df1afd18b014794e9","63a38d2147e8f8af27593f09","rsvp1-task","false","0","","","","","null","
					<div style='width: 900px;'>
					<div style='float: center;'><img src=img/nontarget_distractor27.jpeg  ></img>
					</div>
					","null","rsvp1","practice0","","","","","","","","","3","","","","","img/nontarget_distractor27.jpeg"
"","html-keyboard-response","131","261570","0.0-5.0-12.0-1.5","5f13a4ac3263a43c3511749c","5f13a4ac3263a43c3511749c","63a36e1df1afd18b014794e9","63a38d2147e8f8af27593f09","rsvp1-task","false","0","","","","","null","<span></span>","null","iti","","","","","","","","","","","","","","",""
"","html-keyboard-response","132","261680","0.0-5.0-12.0-0.6","5f13a4ac3263a43c3511749c","5f13a4ac3263a43c3511749c","63a36e1df1afd18b014794e9","63a38d2147e8f8af27593f09","rsvp1-task","false","0","","","","","null","
					<div style='width: 900px;'>
					<div style='float: center;'><img src=img/nontarget_distractor82.jpeg  ></img>
					</div>
					","null","rsvp1","practice0","","","","","","","","","3","","","","","img/nontarget_distractor82.jpeg"
"","html-keyboard-response","133","261686","0.0-5.0-12.0-1.6","5f13a4ac3263a43c3511749c","5f13a4ac3263a43c3511749c","63a36e1df1afd18b014794e9","63a38d2147e8f8af27593f09","rsvp1-task","false","0","","","","","null","<span></span>","null","iti","","","","","","","","","","","","","","",""
"","html-keyboard-response","134","261798","0.0-5.0-12.0-0.7","5f13a4ac3263a43c3511749c","5f13a4ac3263a43c3511749c","63a36e1df1afd18b014794e9","63a38d2147e8f8af27593f09","rsvp1-task","false","0","","","","","null","
					<div style='width: 900px;'>
					<div style='float: center;'><img src=img/nontarget_distractor136.jpeg  ></img>
					</div>
					","null","rsvp1","practice0","","","","","","","","","3","","","","","img/nontarget_distractor136.jpeg"
"","html-keyboard-response","135","261804","0.0-5.0-12.0-1.7","5f13a4ac3263a43c3511749c","5f13a4ac3263a43c3511749c","63a36e1df1afd18b014794e9","63a38d2147e8f8af27593f09","rsvp1-task","false","0","","","","","null","<span></span>","null","iti","","","","","","","","","","","","","","",""
"","html-keyboard-response","136","261913","0.0-5.0-12.0-0.8","5f13a4ac3263a43c3511749c","5f13a4ac3263a43c3511749c","63a36e1df1afd18b014794e9","63a38d2147e8f8af27593f09","rsvp1-task","false","0","","","","","null","
					<div style='width: 900px;'>
					<div style='float: center;'><img src=img/nontarget_distractor113.jpeg  ></img>
					</div>
					","null","rsvp1","practice0","","","","","","","","","3","","","","","img/nontarget_distractor113.jpeg"
"","html-keyboard-response","137","261918","0.0-5.0-12.0-1.8","5f13a4ac3263a43c3511749c","5f13a4ac3263a43c3511749c","63a36e1df1afd18b014794e9","63a38d2147e8f8af27593f09","rsvp1-task","false","0","","","","","null","<span></span>","null","iti","","","","","","","","","","","","","","",""
"","html-keyboard-response","138","262029","0.0-5.0-12.0-0.9","5f13a4ac3263a43c3511749c","5f13a4ac3263a43c3511749c","63a36e1df1afd18b014794e9","63a38d2147e8f8af27593f09","rsvp1-task","false","0","","","","","null","
					<div style='width: 900px;'>
					<div style='float: center;'><img src=img/nontarget_distractor188.jpeg  ></img>
					</div>
					","null","rsvp1","practice0","","","","","","","","","3","","","","","img/nontarget_distractor188.jpeg"
"","html-keyboard-response","139","262036","0.0-5.0-12.0-1.9","5f13a4ac3263a43c3511749c","5f13a4ac3263a43c3511749c","63a36e1df1afd18b014794e9","63a38d2147e8f8af27593f09","rsvp1-task","false","0","","","","","null","<span></span>","null","iti","","","","","","","","","","","","","","",""
"","html-keyboard-response","140","262147","0.0-5.0-12.0-0.10","5f13a4ac3263a43c3511749c","5f13a4ac3263a43c3511749c","63a36e1df1afd18b014794e9","63a38d2147e8f8af27593f09","rsvp1-task","false","0","","","","","null","
					<div style='width: 900px;'>
					<div style='float: center;'><img src=img/nontarget_distractor171.jpeg  ></img>
					</div>
					","null","rsvp1","practice0","","","","","","","","","3","","","","","img/nontarget_distractor171.jpeg"
"","html-keyboard-response","141","262153","0.0-5.0-12.0-1.10","5f13a4ac3263a43c3511749c","5f13a4ac3263a43c3511749c","63a36e1df1afd18b014794e9","63a38d2147e8f8af27593f09","rsvp1-task","false","0","","","","","null","<span></span>","null","iti","","","","","","","","","","","","","","",""
"","html-keyboard-response","142","262265","0.0-5.0-12.0-0.11","5f13a4ac3263a43c3511749c","5f13a4ac3263a43c3511749c","63a36e1df1afd18b014794e9","63a38d2147e8f8af27593f09","rsvp1-task","false","0","","","","","null","
					<div style='width: 900px;'>
					<div style='float: center;'><img src=img/nontarget_distractor106.jpeg  ></img>
					</div>
					","null","rsvp1","practice0","","","","","","","","","3","","","","","img/nontarget_distractor106.jpeg"
"","html-keyboard-response","143","262271","0.0-5.0-12.0-1.11","5f13a4ac3263a43c3511749c","5f13a4ac3263a43c3511749c","63a36e1df1afd18b014794e9","63a38d2147e8f8af27593f09","rsvp1-task","false","0","","","","","null","<span></span>","null","iti","","","","","","","","","","","","","","",""
"","html-keyboard-response","144","262381","0.0-5.0-12.0-0.12","5f13a4ac3263a43c3511749c","5f13a4ac3263a43c3511749c","63a36e1df1afd18b014794e9","63a38d2147e8f8af27593f09","rsvp1-task","false","0","","","","","null","
					<div style='width: 900px;'>
					<div style='float: center;'><img src=img/nontarget_distractor204.jpeg  ></img>
					</div>
					","null","rsvp1","practice0","","","","","","","","","3","","","","","img/nontarget_distractor204.jpeg"
"","html-keyboard-response","145","262387","0.0-5.0-12.0-1.12","5f13a4ac3263a43c3511749c","5f13a4ac3263a43c3511749c","63a36e1df1afd18b014794e9","63a38d2147e8f8af27593f09","rsvp1-task","false","0","","","","","null","<span></span>","null","iti","","","","","","","","","","","","","","",""
"","html-keyboard-response","146","262497","0.0-5.0-12.0-0.13","5f13a4ac3263a43c3511749c","5f13a4ac3263a43c3511749c","63a36e1df1afd18b014794e9","63a38d2147e8f8af27593f09","rsvp1-task","false","0","","","","","null","
					<div style='width: 900px;'>
					<div style='float: center;'><img src=img/nontarget_distractor46.jpeg  ></img>
					</div>
					","null","rsvp1","practice0","","","","","","","","","3","","","","","img/nontarget_distractor46.jpeg"
"","html-keyboard-response","147","262502","0.0-5.0-12.0-1.13","5f13a4ac3263a43c3511749c","5f13a4ac3263a43c3511749c","63a36e1df1afd18b014794e9","63a38d2147e8f8af27593f09","rsvp1-task","false","0","","","","","null","<span></span>","null","iti","","","","","","","","","","","","","","",""
"","html-keyboard-response","148","262615","0.0-5.0-12.0-0.14","5f13a4ac3263a43c3511749c","5f13a4ac3263a43c3511749c","63a36e1df1afd18b014794e9","63a38d2147e8f8af27593f09","rsvp1-task","false","0","","","","","null","
					<div style='width: 900px;'>
					<div style='float: center;'><img src=img/nontarget_distractor150.jpeg  ></img>
					</div>
					","null","rsvp1","practice0","","","","","","","","","3","","","","","img/nontarget_distractor150.jpeg"
"","html-keyboard-response","149","262620","0.0-5.0-12.0-1.14","5f13a4ac3263a43c3511749c","5f13a4ac3263a43c3511749c","63a36e1df1afd18b014794e9","63a38d2147e8f8af27593f09","rsvp1-task","false","0","","","","","null","<span></span>","null","iti","","","","","","","","","","","","","","",""
"","html-keyboard-response","150","262733","0.0-5.0-12.0-0.15","5f13a4ac3263a43c3511749c","5f13a4ac3263a43c3511749c","63a36e1df1afd18b014794e9","63a38d2147e8f8af27593f09","rsvp1-task","false","0","","","","","null","
					<div style='width: 900px;'>
					<div style='float: center;'><img src=img/t2_targets108.jpeg class=""rotateimgL""  ></img>
					</div>
					","null","rsvp1","practice0","","","","","","","","","3","","","","","img/t2_targets108.jpeg class=""rotateimgL"""
"","html-keyboard-response","151","262738","0.0-5.0-12.0-1.15","5f13a4ac3263a43c3511749c","5f13a4ac3263a43c3511749c","63a36e1df1afd18b014794e9","63a38d2147e8f8af27593f09","rsvp1-task","false","0","","","","","null","<span></span>","null","iti","","","","","","","","","","","","","","",""
"","html-keyboard-response","152","262849","0.0-5.0-12.0-0.16","5f13a4ac3263a43c3511749c","5f13a4ac3263a43c3511749c","63a36e1df1afd18b014794e9","63a38d2147e8f8af27593f09","rsvp1-task","false","0","","","","","null","
					<div style='width: 900px;'>
					<div style='float: center;'><img src=img/nontarget_distractor5.jpeg  ></img>
					</div>
					","null","rsvp1","practice0","","","","","","","","","3","","","","","img/nontarget_distractor5.jpeg"
"","html-keyboard-response","153","262854","0.0-5.0-12.0-1.16","5f13a4ac3263a43c3511749c","5f13a4ac3263a43c3511749c","63a36e1df1afd18b014794e9","63a38d2147e8f8af27593f09","rsvp1-task","false","0","","","","","null","<span></span>","null","iti","","","","","","","","","","","","","","",""
"","html-keyboard-response","154","264001","0.0-5.0-13.0-0.0","5f13a4ac3263a43c3511749c","5f13a4ac3263a43c3511749c","63a36e1df1afd18b014794e9","63a38d2147e8f8af27593f09","rsvp1-task","false","0","","","","","1145.6000000238419","<div class=""rsvp""> Was the rotated image rotated left (1 key) or right (0 key)?</div>","1","response","practice0","1","1","neutral","img/nontarget_distractor136.jpeg","img/nontarget_distractor5.jpeg","8","8","16","3","true","true","true","",""
"","html-keyboard-response","155","265015","0.0-5.0-14.0","5f13a4ac3263a43c3511749c","5f13a4ac3263a43c3511749c","63a36e1df1afd18b014794e9","63a38d2147e8f8af27593f09","rsvp1-task","false","0","","","","","null","Correct! </p> <p>  </p><p> ","null","","","","","","","","","","","","","","","main_T1_ITI",""
"","html-keyboard-response","156","267038","0.0-5.0-15.0","5f13a4ac3263a43c3511749c","5f13a4ac3263a43c3511749c","63a36e1df1afd18b014794e9","63a38d2147e8f8af27593f09","rsvp1-task","false","0","","","","","null","<div class=""rsvp"">+</div>","null","fixation","","","","","","","","","","","","","","",""
"","html-keyboard-response","157","267296","0.0-5.0-16.0","5f13a4ac3263a43c3511749c","5f13a4ac3263a43c3511749c","63a36e1df1afd18b014794e9","63a38d2147e8f8af27593f09","rsvp1-task","false","0","","","","","null","<div class=""rsvp"" ></div>","null","blank","","","","","","","","","","","","","","",""
"","html-keyboard-response","158","267406","0.0-5.0-17.0-0.0","5f13a4ac3263a43c3511749c","5f13a4ac3263a43c3511749c","63a36e1df1afd18b014794e9","63a38d2147e8f8af27593f09","rsvp1-task","false","0","","","","","null","
					<div style='width: 900px;'>
					<div style='float: center;'><img src=img/nontarget_distractor162.jpeg  ></img>
					</div>
					","null","rsvp1","practice0","","","","","","","","","4","","","","","img/nontarget_distractor162.jpeg"
"","html-keyboard-response","159","267411","0.0-5.0-17.0-1.0","5f13a4ac3263a43c3511749c","5f13a4ac3263a43c3511749c","63a36e1df1afd18b014794e9","63a38d2147e8f8af27593f09","rsvp1-task","false","0","","","","","null","<span></span>","null","iti","","","","","","","","","","","","","","",""
"","html-keyboard-response","160","267524","0.0-5.0-17.0-0.1","5f13a4ac3263a43c3511749c","5f13a4ac3263a43c3511749c","63a36e1df1afd18b014794e9","63a38d2147e8f8af27593f09","rsvp1-task","false","0","","","","","null","
					<div style='width: 900px;'>
					<div style='float: center;'><img src=img/nontarget_distractor122.jpeg  ></img>
					</div>
					","null","rsvp1","practice0","","","","","","","","","4","","","","","img/nontarget_distractor122.jpeg"
"","html-keyboard-response","161","267531","0.0-5.0-17.0-1.1","5f13a4ac3263a43c3511749c","5f13a4ac3263a43c3511749c","63a36e1df1afd18b014794e9","63a38d2147e8f8af27593f09","rsvp1-task","false","0","","","","","null","<span></span>","null","iti","","","","","","","","","","","","","","",""
"","html-keyboard-response","162","267641","0.0-5.0-17.0-0.2","5f13a4ac3263a43c3511749c","5f13a4ac3263a43c3511749c","63a36e1df1afd18b014794e9","63a38d2147e8f8af27593f09","rsvp1-task","false","0","","","","","null","
					<div style='width: 900px;'>
					<div style='float: center;'><img src=img/nontarget_distractor39.jpeg  ></img>
					</div>
					","null","rsvp1","practice0","","","","","","","","","4","","","","","img/nontarget_distractor39.jpeg"
"","html-keyboard-response","163","267647","0.0-5.0-17.0-1.2","5f13a4ac3263a43c3511749c","5f13a4ac3263a43c3511749c","63a36e1df1afd18b014794e9","63a38d2147e8f8af27593f09","rsvp1-task","false","0","","","","","null","<span></span>","null","iti","","","","","","","","","","","","","","",""
"","html-keyboard-response","164","267758","0.0-5.0-17.0-0.3","5f13a4ac3263a43c3511749c","5f13a4ac3263a43c3511749c","63a36e1df1afd18b014794e9","63a38d2147e8f8af27593f09","rsvp1-task","false","0","","","","","null","
					<div style='width: 900px;'>
					<div style='float: center;'><img src=img/nontarget_distractor40.jpeg  ></img>
					</div>
					","null","rsvp1","practice0","","","","","","","","","4","","","","","img/nontarget_distractor40.jpeg"
"","html-keyboard-response","165","267763","0.0-5.0-17.0-1.3","5f13a4ac3263a43c3511749c","5f13a4ac3263a43c3511749c","63a36e1df1afd18b014794e9","63a38d2147e8f8af27593f09","rsvp1-task","false","0","","","","","null","<span></span>","null","iti","","","","","","","","","","","","","","",""
"","html-keyboard-response","166","267875","0.0-5.0-17.0-0.4","5f13a4ac3263a43c3511749c","5f13a4ac3263a43c3511749c","63a36e1df1afd18b014794e9","63a38d2147e8f8af27593f09","rsvp1-task","false","0","","","","","null","
					<div style='width: 900px;'>
					<div style='float: center;'><img src=img/nontarget_distractor170.jpeg  ></img>
					</div>
					","null","rsvp1","practice0","","","","","","","","","4","","","","","img/nontarget_distractor170.jpeg"
"","html-keyboard-response","167","267881","0.0-5.0-17.0-1.4","5f13a4ac3263a43c3511749c","5f13a4ac3263a43c3511749c","63a36e1df1afd18b014794e9","63a38d2147e8f8af27593f09","rsvp1-task","false","0","","","","","null","<span></span>","null","iti","","","","","","","","","","","","","","",""
"","html-keyboard-response","168","267992","0.0-5.0-17.0-0.5","5f13a4ac3263a43c3511749c","5f13a4ac3263a43c3511749c","63a36e1df1afd18b014794e9","63a38d2147e8f8af27593f09","rsvp1-task","false","0","","","","","null","
					<div style='width: 900px;'>
					<div style='float: center;'><img src=img/nontarget_distractor125.jpeg  ></img>
					</div>
					","null","rsvp1","practice0","","","","","","","","","4","","","","","img/nontarget_distractor125.jpeg"
"","html-keyboard-response","169","267997","0.0-5.0-17.0-1.5","5f13a4ac3263a43c3511749c","5f13a4ac3263a43c3511749c","63a36e1df1afd18b014794e9","63a38d2147e8f8af27593f09","rsvp1-task","false","0","","","","","null","<span></span>","null","iti","","","","","","","","","","","","","","",""
"","html-keyboard-response","170","268108","0.0-5.0-17.0-0.6","5f13a4ac3263a43c3511749c","5f13a4ac3263a43c3511749c","63a36e1df1afd18b014794e9","63a38d2147e8f8af27593f09","rsvp1-task","false","0","","","","","null","
					<div style='width: 900px;'>
					<div style='float: center;'><img src=img/nontarget_distractor114.jpeg  ></img>
					</div>
					","null","rsvp1","practice0","","","","","","","","","4","","","","","img/nontarget_distractor114.jpeg"
"","html-keyboard-response","171","268114","0.0-5.0-17.0-1.6","5f13a4ac3263a43c3511749c","5f13a4ac3263a43c3511749c","63a36e1df1afd18b014794e9","63a38d2147e8f8af27593f09","rsvp1-task","false","0","","","","","null","<span></span>","null","iti","","","","","","","","","","","","","","",""
"","html-keyboard-response","172","268226","0.0-5.0-17.0-0.7","5f13a4ac3263a43c3511749c","5f13a4ac3263a43c3511749c","63a36e1df1afd18b014794e9","63a38d2147e8f8af27593f09","rsvp1-task","false","0","","","","","null","
					<div style='width: 900px;'>
					<div style='float: center;'><img src=img/nontarget_distractor11.jpeg  ></img>
					</div>
					","null","rsvp1","practice0","","","","","","","","","4","","","","","img/nontarget_distractor11.jpeg"
"","html-keyboard-response","173","268233","0.0-5.0-17.0-1.7","5f13a4ac3263a43c3511749c","5f13a4ac3263a43c3511749c","63a36e1df1afd18b014794e9","63a38d2147e8f8af27593f09","rsvp1-task","false","0","","","","","null","<span></span>","null","iti","","","","","","","","","","","","","","",""
"","html-keyboard-response","174","268343","0.0-5.0-17.0-0.8","5f13a4ac3263a43c3511749c","5f13a4ac3263a43c3511749c","63a36e1df1afd18b014794e9","63a38d2147e8f8af27593f09","rsvp1-task","false","0","","","","","null","
					<div style='width: 900px;'>
					<div style='float: center;'><img src=img/nontarget_distractor203.jpeg  ></img>
					</div>
					","null","rsvp1","practice0","","","","","","","","","4","","","","","img/nontarget_distractor203.jpeg"
"","html-keyboard-response","175","268348","0.0-5.0-17.0-1.8","5f13a4ac3263a43c3511749c","5f13a4ac3263a43c3511749c","63a36e1df1afd18b014794e9","63a38d2147e8f8af27593f09","rsvp1-task","false","0","","","","","null","<span></span>","null","iti","","","","","","","","","","","","","","",""
"","html-keyboard-response","176","268460","0.0-5.0-17.0-0.9","5f13a4ac3263a43c3511749c","5f13a4ac3263a43c3511749c","63a36e1df1afd18b014794e9","63a38d2147e8f8af27593f09","rsvp1-task","false","0","","","","","null","
					<div style='width: 900px;'>
					<div style='float: center;'><img src=img/nontarget_distractor76.jpeg  ></img>
					</div>
					","null","rsvp1","practice0","","","","","","","","","4","","","","","img/nontarget_distractor76.jpeg"
"","html-keyboard-response","177","268466","0.0-5.0-17.0-1.9","5f13a4ac3263a43c3511749c","5f13a4ac3263a43c3511749c","63a36e1df1afd18b014794e9","63a38d2147e8f8af27593f09","rsvp1-task","false","0","","","","","null","<span></span>","null","iti","","","","","","","","","","","","","","",""
"","html-keyboard-response","178","268577","0.0-5.0-17.0-0.10","5f13a4ac3263a43c3511749c","5f13a4ac3263a43c3511749c","63a36e1df1afd18b014794e9","63a38d2147e8f8af27593f09","rsvp1-task","false","0","","","","","null","
					<div style='width: 900px;'>
					<div style='float: center;'><img src=img/nontarget_distractor65.jpeg  ></img>
					</div>
					","null","rsvp1","practice0","","","","","","","","","4","","","","","img/nontarget_distractor65.jpeg"
"","html-keyboard-response","179","268583","0.0-5.0-17.0-1.10","5f13a4ac3263a43c3511749c","5f13a4ac3263a43c3511749c","63a36e1df1afd18b014794e9","63a38d2147e8f8af27593f09","rsvp1-task","false","0","","","","","null","<span></span>","null","iti","","","","","","","","","","","","","","",""
"","html-keyboard-response","180","268694","0.0-5.0-17.0-0.11","5f13a4ac3263a43c3511749c","5f13a4ac3263a43c3511749c","63a36e1df1afd18b014794e9","63a38d2147e8f8af27593f09","rsvp1-task","false","0","","","","","null","
					<div style='width: 900px;'>
					<div style='float: center;'><img src=img/nontarget_distractor51.jpeg  ></img>
					</div>
					","null","rsvp1","practice0","","","","","","","","","4","","","","","img/nontarget_distractor51.jpeg"
"","html-keyboard-response","181","268699","0.0-5.0-17.0-1.11","5f13a4ac3263a43c3511749c","5f13a4ac3263a43c3511749c","63a36e1df1afd18b014794e9","63a38d2147e8f8af27593f09","rsvp1-task","false","0","","","","","null","<span></span>","null","iti","","","","","","","","","","","","","","",""
"","html-keyboard-response","182","268811","0.0-5.0-17.0-0.12","5f13a4ac3263a43c3511749c","5f13a4ac3263a43c3511749c","63a36e1df1afd18b014794e9","63a38d2147e8f8af27593f09","rsvp1-task","false","0","","","","","null","
					<div style='width: 900px;'>
					<div style='float: center;'><img src=img/nontarget_distractor107.jpeg  ></img>
					</div>
					","null","rsvp1","practice0","","","","","","","","","4","","","","","img/nontarget_distractor107.jpeg"
"","html-keyboard-response","183","268817","0.0-5.0-17.0-1.12","5f13a4ac3263a43c3511749c","5f13a4ac3263a43c3511749c","63a36e1df1afd18b014794e9","63a38d2147e8f8af27593f09","rsvp1-task","false","0","","","","","null","<span></span>","null","iti","","","","","","","","","","","","","","",""
"","html-keyboard-response","184","268927","0.0-5.0-17.0-0.13","5f13a4ac3263a43c3511749c","5f13a4ac3263a43c3511749c","63a36e1df1afd18b014794e9","63a38d2147e8f8af27593f09","rsvp1-task","false","0","","","","","null","
					<div style='width: 900px;'>
					<div style='float: center;'><img src=img/nontarget_distractor61.jpeg  ></img>
					</div>
					","null","rsvp1","practice0","","","","","","","","","4","","","","","img/nontarget_distractor61.jpeg"
"","html-keyboard-response","185","268934","0.0-5.0-17.0-1.13","5f13a4ac3263a43c3511749c","5f13a4ac3263a43c3511749c","63a36e1df1afd18b014794e9","63a38d2147e8f8af27593f09","rsvp1-task","false","0","","","","","null","<span></span>","null","iti","","","","","","","","","","","","","","",""
"","html-keyboard-response","186","269045","0.0-5.0-17.0-0.14","5f13a4ac3263a43c3511749c","5f13a4ac3263a43c3511749c","63a36e1df1afd18b014794e9","63a38d2147e8f8af27593f09","rsvp1-task","false","0","","","","","null","
					<div style='width: 900px;'>
					<div style='float: center;'><img src=img/nontarget_distractor211.jpeg  ></img>
					</div>
					","null","rsvp1","practice0","","","","","","","","","4","","","","","img/nontarget_distractor211.jpeg"
"","html-keyboard-response","187","269051","0.0-5.0-17.0-1.14","5f13a4ac3263a43c3511749c","5f13a4ac3263a43c3511749c","63a36e1df1afd18b014794e9","63a38d2147e8f8af27593f09","rsvp1-task","false","0","","","","","null","<span></span>","null","iti","","","","","","","","","","","","","","",""
"","html-keyboard-response","188","269161","0.0-5.0-17.0-0.15","5f13a4ac3263a43c3511749c","5f13a4ac3263a43c3511749c","63a36e1df1afd18b014794e9","63a38d2147e8f8af27593f09","rsvp1-task","false","0","","","","","null","
					<div style='width: 900px;'>
					<div style='float: center;'><img src=img/t2_targets125.jpeg class=""rotateimgR""  ></img>
					</div>
					","null","rsvp1","practice0","","","","","","","","","4","","","","","img/t2_targets125.jpeg class=""rotateimgR"""
"","html-keyboard-response","189","269167","0.0-5.0-17.0-1.15","5f13a4ac3263a43c3511749c","5f13a4ac3263a43c3511749c","63a36e1df1afd18b014794e9","63a38d2147e8f8af27593f09","rsvp1-task","false","0","","","","","null","<span></span>","null","iti","","","","","","","","","","","","","","",""
"","html-keyboard-response","190","269278","0.0-5.0-17.0-0.16","5f13a4ac3263a43c3511749c","5f13a4ac3263a43c3511749c","63a36e1df1afd18b014794e9","63a38d2147e8f8af27593f09","rsvp1-task","false","0","","","","","null","
					<div style='width: 900px;'>
					<div style='float: center;'><img src=img/nontarget_distractor130.jpeg  ></img>
					</div>
					","null","rsvp1","practice0","","","","","","","","","4","","","","","img/nontarget_distractor130.jpeg"
"","html-keyboard-response","191","269284","0.0-5.0-17.0-1.16","5f13a4ac3263a43c3511749c","5f13a4ac3263a43c3511749c","63a36e1df1afd18b014794e9","63a38d2147e8f8af27593f09","rsvp1-task","false","0","","","","","null","<span></span>","null","iti","","","","","","","","","","","","","","",""
"","html-keyboard-response","192","270738","0.0-5.0-18.0-0.0","5f13a4ac3263a43c3511749c","5f13a4ac3263a43c3511749c","63a36e1df1afd18b014794e9","63a38d2147e8f8af27593f09","rsvp1-task","false","0","","","","","1452.6000000238419","<div class=""rsvp""> Was the rotated image rotated left (1 key) or right (0 key)?</div>","0","response","practice0","0","0","neutral","img/nontarget_distractor11.jpeg","img/nontarget_distractor130.jpeg","8","8","16","4","true","true","true","",""
"","html-keyboard-response","193","271744","0.0-5.0-19.0","5f13a4ac3263a43c3511749c","5f13a4ac3263a43c3511749c","63a36e1df1afd18b014794e9","63a38d2147e8f8af27593f09","rsvp1-task","false","0","","","","","null","Correct! </p> <p>  </p><p> ","null","","","","","","","","","","","","","","","main_T1_ITI",""
"","html-keyboard-response","194","273753","0.0-5.0-20.0","5f13a4ac3263a43c3511749c","5f13a4ac3263a43c3511749c","63a36e1df1afd18b014794e9","63a38d2147e8f8af27593f09","rsvp1-task","false","0","","","","","null","<div class=""rsvp"">+</div>","null","fixation","","","","","","","","","","","","","","",""
"","html-keyboard-response","195","274012","0.0-5.0-21.0","5f13a4ac3263a43c3511749c","5f13a4ac3263a43c3511749c","63a36e1df1afd18b014794e9","63a38d2147e8f8af27593f09","rsvp1-task","false","0","","","","","null","<div class=""rsvp"" ></div>","null","blank","","","","","","","","","","","","","","",""
"","html-keyboard-response","196","274135","0.0-5.0-22.0-0.0","5f13a4ac3263a43c3511749c","5f13a4ac3263a43c3511749c","63a36e1df1afd18b014794e9","63a38d2147e8f8af27593f09","rsvp1-task","false","0","","","","","null","
					<div style='width: 900px;'>
					<div style='float: center;'><img src=img/nontarget_distractor57.jpeg  ></img>
					</div>
					","null","rsvp1","practice0","","","","","","","","","5","","","","","img/nontarget_distractor57.jpeg"
"","html-keyboard-response","197","274142","0.0-5.0-22.0-1.0","5f13a4ac3263a43c3511749c","5f13a4ac3263a43c3511749c","63a36e1df1afd18b014794e9","63a38d2147e8f8af27593f09","rsvp1-task","false","0","","","","","null","<span></span>","null","iti","","","","","","","","","","","","","","",""
"","html-keyboard-response","198","274254","0.0-5.0-22.0-0.1","5f13a4ac3263a43c3511749c","5f13a4ac3263a43c3511749c","63a36e1df1afd18b014794e9","63a38d2147e8f8af27593f09","rsvp1-task","false","0","","","","","null","
					<div style='width: 900px;'>
					<div style='float: center;'><img src=img/nontarget_distractor189.jpeg  ></img>
					</div>
					","null","rsvp1","practice0","","","","","","","","","5","","","","","img/nontarget_distractor189.jpeg"
"","html-keyboard-response","199","274259","0.0-5.0-22.0-1.1","5f13a4ac3263a43c3511749c","5f13a4ac3263a43c3511749c","63a36e1df1afd18b014794e9","63a38d2147e8f8af27593f09","rsvp1-task","false","0","","","","","null","<span></span>","null","iti","","","","","","","","","","","","","","",""
"","html-keyboard-response","200","274371","0.0-5.0-22.0-0.2","5f13a4ac3263a43c3511749c","5f13a4ac3263a43c3511749c","63a36e1df1afd18b014794e9","63a38d2147e8f8af27593f09","rsvp1-task","false","0","","","","","null","
					<div style='width: 900px;'>
					<div style='float: center;'><img src=img/nontarget_distractor154.jpeg  ></img>
					</div>
					","null","rsvp1","practice0","","","","","","","","","5","","","","","img/nontarget_distractor154.jpeg"
"","html-keyboard-response","201","274377","0.0-5.0-22.0-1.2","5f13a4ac3263a43c3511749c","5f13a4ac3263a43c3511749c","63a36e1df1afd18b014794e9","63a38d2147e8f8af27593f09","rsvp1-task","false","0","","","","","null","<span></span>","null","iti","","","","","","","","","","","","","","",""
"","html-keyboard-response","202","274488","0.0-5.0-22.0-0.3","5f13a4ac3263a43c3511749c","5f13a4ac3263a43c3511749c","63a36e1df1afd18b014794e9","63a38d2147e8f8af27593f09","rsvp1-task","false","0","","","","","null","
					<div style='width: 900px;'>
					<div style='float: center;'><img src=img/nontarget_distractor182.jpeg  ></img>
					</div>
					","null","rsvp1","practice0","","","","","","","","","5","","","","","img/nontarget_distractor182.jpeg"
"","html-keyboard-response","203","274494","0.0-5.0-22.0-1.3","5f13a4ac3263a43c3511749c","5f13a4ac3263a43c3511749c","63a36e1df1afd18b014794e9","63a38d2147e8f8af27593f09","rsvp1-task","false","0","","","","","null","<span></span>","null","iti","","","","","","","","","","","","","","",""
"","html-keyboard-response","204","274605","0.0-5.0-22.0-0.4","5f13a4ac3263a43c3511749c","5f13a4ac3263a43c3511749c","63a36e1df1afd18b014794e9","63a38d2147e8f8af27593f09","rsvp1-task","false","0","","","","","null","
					<div style='width: 900px;'>
					<div style='float: center;'><img src=img/nontarget_distractor41.jpeg  ></img>
					</div>
					","null","rsvp1","practice0","","","","","","","","","5","","","","","img/nontarget_distractor41.jpeg"
"","html-keyboard-response","205","274611","0.0-5.0-22.0-1.4","5f13a4ac3263a43c3511749c","5f13a4ac3263a43c3511749c","63a36e1df1afd18b014794e9","63a38d2147e8f8af27593f09","rsvp1-task","false","0","","","","","null","<span></span>","null","iti","","","","","","","","","","","","","","",""
"","html-keyboard-response","206","274720","0.0-5.0-22.0-0.5","5f13a4ac3263a43c3511749c","5f13a4ac3263a43c3511749c","63a36e1df1afd18b014794e9","63a38d2147e8f8af27593f09","rsvp1-task","false","0","","","","","null","
					<div style='width: 900px;'>
					<div style='float: center;'><img src=img/nontarget_distractor136.jpeg  ></img>
					</div>
					","null","rsvp1","practice0","","","","","","","","","5","","","","","img/nontarget_distractor136.jpeg"
"","html-keyboard-response","207","274726","0.0-5.0-22.0-1.5","5f13a4ac3263a43c3511749c","5f13a4ac3263a43c3511749c","63a36e1df1afd18b014794e9","63a38d2147e8f8af27593f09","rsvp1-task","false","0","","","","","null","<span></span>","null","iti","","","","","","","","","","","","","","",""
"","html-keyboard-response","208","274836","0.0-5.0-22.0-0.6","5f13a4ac3263a43c3511749c","5f13a4ac3263a43c3511749c","63a36e1df1afd18b014794e9","63a38d2147e8f8af27593f09","rsvp1-task","false","0","","","","","null","
					<div style='width: 900px;'>
					<div style='float: center;'><img src=img/nontarget_distractor75.jpeg  ></img>
					</div>
					","null","rsvp1","practice0","","","","","","","","","5","","","","","img/nontarget_distractor75.jpeg"
"","html-keyboard-response","209","274842","0.0-5.0-22.0-1.6","5f13a4ac3263a43c3511749c","5f13a4ac3263a43c3511749c","63a36e1df1afd18b014794e9","63a38d2147e8f8af27593f09","rsvp1-task","false","0","","","","","null","<span></span>","null","iti","","","","","","","","","","","","","","",""
"","html-keyboard-response","210","274955","0.0-5.0-22.0-0.7","5f13a4ac3263a43c3511749c","5f13a4ac3263a43c3511749c","63a36e1df1afd18b014794e9","63a38d2147e8f8af27593f09","rsvp1-task","false","0","","","","","null","
					<div style='width: 900px;'>
					<div style='float: center;'><img src=img/nontarget_distractor47.jpeg  ></img>
					</div>
					","null","rsvp1","practice0","","","","","","","","","5","","","","","img/nontarget_distractor47.jpeg"
"","html-keyboard-response","211","274961","0.0-5.0-22.0-1.7","5f13a4ac3263a43c3511749c","5f13a4ac3263a43c3511749c","63a36e1df1afd18b014794e9","63a38d2147e8f8af27593f09","rsvp1-task","false","0","","","","","null","<span></span>","null","iti","","","","","","","","","","","","","","",""
"","html-keyboard-response","212","275072","0.0-5.0-22.0-0.8","5f13a4ac3263a43c3511749c","5f13a4ac3263a43c3511749c","63a36e1df1afd18b014794e9","63a38d2147e8f8af27593f09","rsvp1-task","false","0","","","","","null","
					<div style='width: 900px;'>
					<div style='float: center;'><img src=img/nontarget_distractor228.jpeg  ></img>
					</div>
					","null","rsvp1","practice0","","","","","","","","","5","","","","","img/nontarget_distractor228.jpeg"
"","html-keyboard-response","213","275079","0.0-5.0-22.0-1.8","5f13a4ac3263a43c3511749c","5f13a4ac3263a43c3511749c","63a36e1df1afd18b014794e9","63a38d2147e8f8af27593f09","rsvp1-task","false","0","","","","","null","<span></span>","null","iti","","","","","","","","","","","","","","",""
"","html-keyboard-response","214","275188","0.0-5.0-22.0-0.9","5f13a4ac3263a43c3511749c","5f13a4ac3263a43c3511749c","63a36e1df1afd18b014794e9","63a38d2147e8f8af27593f09","rsvp1-task","false","0","","","","","null","
					<div style='width: 900px;'>
					<div style='float: center;'><img src=img/t2_targets44.jpeg class=""rotateimgR""  ></img>
					</div>
					","null","rsvp1","practice0","","","","","","","","","5","","","","","img/t2_targets44.jpeg class=""rotateimgR"""
"","html-keyboard-response","215","275194","0.0-5.0-22.0-1.9","5f13a4ac3263a43c3511749c","5f13a4ac3263a43c3511749c","63a36e1df1afd18b014794e9","63a38d2147e8f8af27593f09","rsvp1-task","false","0","","","","","null","<span></span>","null","iti","","","","","","","","","","","","","","",""
"","html-keyboard-response","216","275306","0.0-5.0-22.0-0.10","5f13a4ac3263a43c3511749c","5f13a4ac3263a43c3511749c","63a36e1df1afd18b014794e9","63a38d2147e8f8af27593f09","rsvp1-task","false","0","","","","","null","
					<div style='width: 900px;'>
					<div style='float: center;'><img src=img/nontarget_distractor231.jpeg  ></img>
					</div>
					","null","rsvp1","practice0","","","","","","","","","5","","","","","img/nontarget_distractor231.jpeg"
"","html-keyboard-response","217","275312","0.0-5.0-22.0-1.10","5f13a4ac3263a43c3511749c","5f13a4ac3263a43c3511749c","63a36e1df1afd18b014794e9","63a38d2147e8f8af27593f09","rsvp1-task","false","0","","","","","null","<span></span>","null","iti","","","","","","","","","","","","","","",""
"","html-keyboard-response","218","275423","0.0-5.0-22.0-0.11","5f13a4ac3263a43c3511749c","5f13a4ac3263a43c3511749c","63a36e1df1afd18b014794e9","63a38d2147e8f8af27593f09","rsvp1-task","false","0","","","","","null","
					<div style='width: 900px;'>
					<div style='float: center;'><img src=img/nontarget_distractor240.jpeg  ></img>
					</div>
					","null","rsvp1","practice0","","","","","","","","","5","","","","","img/nontarget_distractor240.jpeg"
"","html-keyboard-response","219","275429","0.0-5.0-22.0-1.11","5f13a4ac3263a43c3511749c","5f13a4ac3263a43c3511749c","63a36e1df1afd18b014794e9","63a38d2147e8f8af27593f09","rsvp1-task","false","0","","","","","null","<span></span>","null","iti","","","","","","","","","","","","","","",""
"","html-keyboard-response","220","275541","0.0-5.0-22.0-0.12","5f13a4ac3263a43c3511749c","5f13a4ac3263a43c3511749c","63a36e1df1afd18b014794e9","63a38d2147e8f8af27593f09","rsvp1-task","false","0","","","","","null","
					<div style='width: 900px;'>
					<div style='float: center;'><img src=img/nontarget_distractor214.jpeg  ></img>
					</div>
					","null","rsvp1","practice0","","","","","","","","","5","","","","","img/nontarget_distractor214.jpeg"
"","html-keyboard-response","221","275546","0.0-5.0-22.0-1.12","5f13a4ac3263a43c3511749c","5f13a4ac3263a43c3511749c","63a36e1df1afd18b014794e9","63a38d2147e8f8af27593f09","rsvp1-task","false","0","","","","","null","<span></span>","null","iti","","","","","","","","","","","","","","",""
"","html-keyboard-response","222","275658","0.0-5.0-22.0-0.13","5f13a4ac3263a43c3511749c","5f13a4ac3263a43c3511749c","63a36e1df1afd18b014794e9","63a38d2147e8f8af27593f09","rsvp1-task","false","0","","","","","null","
					<div style='width: 900px;'>
					<div style='float: center;'><img src=img/nontarget_distractor239.jpeg  ></img>
					</div>
					","null","rsvp1","practice0","","","","","","","","","5","","","","","img/nontarget_distractor239.jpeg"
"","html-keyboard-response","223","275664","0.0-5.0-22.0-1.13","5f13a4ac3263a43c3511749c","5f13a4ac3263a43c3511749c","63a36e1df1afd18b014794e9","63a38d2147e8f8af27593f09","rsvp1-task","false","0","","","","","null","<span></span>","null","iti","","","","","","","","","","","","","","",""
"","html-keyboard-response","224","275774","0.0-5.0-22.0-0.14","5f13a4ac3263a43c3511749c","5f13a4ac3263a43c3511749c","63a36e1df1afd18b014794e9","63a38d2147e8f8af27593f09","rsvp1-task","false","0","","","","","null","
					<div style='width: 900px;'>
					<div style='float: center;'><img src=img/nontarget_distractor66.jpeg  ></img>
					</div>
					","null","rsvp1","practice0","","","","","","","","","5","","","","","img/nontarget_distractor66.jpeg"
"","html-keyboard-response","225","275781","0.0-5.0-22.0-1.14","5f13a4ac3263a43c3511749c","5f13a4ac3263a43c3511749c","63a36e1df1afd18b014794e9","63a38d2147e8f8af27593f09","rsvp1-task","false","0","","","","","null","<span></span>","null","iti","","","","","","","","","","","","","","",""
"","html-keyboard-response","226","275892","0.0-5.0-22.0-0.15","5f13a4ac3263a43c3511749c","5f13a4ac3263a43c3511749c","63a36e1df1afd18b014794e9","63a38d2147e8f8af27593f09","rsvp1-task","false","0","","","","","null","
					<div style='width: 900px;'>
					<div style='float: center;'><img src=img/nontarget_distractor20.jpeg  ></img>
					</div>
					","null","rsvp1","practice0","","","","","","","","","5","","","","","img/nontarget_distractor20.jpeg"
"","html-keyboard-response","227","275897","0.0-5.0-22.0-1.15","5f13a4ac3263a43c3511749c","5f13a4ac3263a43c3511749c","63a36e1df1afd18b014794e9","63a38d2147e8f8af27593f09","rsvp1-task","false","0","","","","","null","<span></span>","null","iti","","","","","","","","","","","","","","",""
"","html-keyboard-response","228","276008","0.0-5.0-22.0-0.16","5f13a4ac3263a43c3511749c","5f13a4ac3263a43c3511749c","63a36e1df1afd18b014794e9","63a38d2147e8f8af27593f09","rsvp1-task","false","0","","","","","null","
					<div style='width: 900px;'>
					<div style='float: center;'><img src=img/nontarget_distractor16.jpeg  ></img>
					</div>
					","null","rsvp1","practice0","","","","","","","","","5","","","","","img/nontarget_distractor16.jpeg"
"","html-keyboard-response","229","276013","0.0-5.0-22.0-1.16","5f13a4ac3263a43c3511749c","5f13a4ac3263a43c3511749c","63a36e1df1afd18b014794e9","63a38d2147e8f8af27593f09","rsvp1-task","false","0","","","","","null","<span></span>","null","iti","","","","","","","","","","","","","","",""
"","html-keyboard-response","230","277122","0.0-5.0-23.0-0.0","5f13a4ac3263a43c3511749c","5f13a4ac3263a43c3511749c","63a36e1df1afd18b014794e9","63a38d2147e8f8af27593f09","rsvp1-task","false","0","","","","","1106.8999999761581","<div class=""rsvp""> Was the rotated image rotated left (1 key) or right (0 key)?</div>","0","response","practice0","0","0","neutral","img/nontarget_distractor47.jpeg","img/nontarget_distractor231.jpeg","8","2","10","5","true","true","true","",""
"","html-keyboard-response","231","278138","0.0-5.0-24.0","5f13a4ac3263a43c3511749c","5f13a4ac3263a43c3511749c","63a36e1df1afd18b014794e9","63a38d2147e8f8af27593f09","rsvp1-task","false","0","","","","","null","Correct! </p> <p>  </p><p> ","null","","","","","","","","","","","","","","","main_T1_ITI",""
"","html-keyboard-response","232","280147","0.0-5.0-25.0","5f13a4ac3263a43c3511749c","5f13a4ac3263a43c3511749c","63a36e1df1afd18b014794e9","63a38d2147e8f8af27593f09","rsvp1-task","false","0","","","","","null","<div class=""rsvp"">+</div>","null","fixation","","","","","","","","","","","","","","",""
"","html-keyboard-response","233","280404","0.0-5.0-26.0","5f13a4ac3263a43c3511749c","5f13a4ac3263a43c3511749c","63a36e1df1afd18b014794e9","63a38d2147e8f8af27593f09","rsvp1-task","false","0","","","","","null","<div class=""rsvp"" ></div>","null","blank","","","","","","","","","","","","","","",""
"","html-keyboard-response","234","280515","0.0-5.0-27.0-0.0","5f13a4ac3263a43c3511749c","5f13a4ac3263a43c3511749c","63a36e1df1afd18b014794e9","63a38d2147e8f8af27593f09","rsvp1-task","false","0","","","","","null","
					<div style='width: 900px;'>
					<div style='float: center;'><img src=img/nontarget_distractor54.jpeg  ></img>
					</div>
					","null","rsvp1","practice0","","","","","","","","","6","","","","","img/nontarget_distractor54.jpeg"
"","html-keyboard-response","235","280522","0.0-5.0-27.0-1.0","5f13a4ac3263a43c3511749c","5f13a4ac3263a43c3511749c","63a36e1df1afd18b014794e9","63a38d2147e8f8af27593f09","rsvp1-task","false","0","","","","","null","<span></span>","null","iti","","","","","","","","","","","","","","",""
"","html-keyboard-response","236","280633","0.0-5.0-27.0-0.1","5f13a4ac3263a43c3511749c","5f13a4ac3263a43c3511749c","63a36e1df1afd18b014794e9","63a38d2147e8f8af27593f09","rsvp1-task","false","0","","","","","null","
					<div style='width: 900px;'>
					<div style='float: center;'><img src=img/nontarget_distractor56.jpeg  ></img>
					</div>
					","null","rsvp1","practice0","","","","","","","","","6","","","","","img/nontarget_distractor56.jpeg"
"","html-keyboard-response","237","280640","0.0-5.0-27.0-1.1","5f13a4ac3263a43c3511749c","5f13a4ac3263a43c3511749c","63a36e1df1afd18b014794e9","63a38d2147e8f8af27593f09","rsvp1-task","false","0","","","","","null","<span></span>","null","iti","","","","","","","","","","","","","","",""
"","html-keyboard-response","238","280749","0.0-5.0-27.0-0.2","5f13a4ac3263a43c3511749c","5f13a4ac3263a43c3511749c","63a36e1df1afd18b014794e9","63a38d2147e8f8af27593f09","rsvp1-task","false","0","","","","","null","
					<div style='width: 900px;'>
					<div style='float: center;'><img src=img/nontarget_distractor187.jpeg  ></img>
					</div>
					","null","rsvp1","practice0","","","","","","","","","6","","","","","img/nontarget_distractor187.jpeg"
"","html-keyboard-response","239","280755","0.0-5.0-27.0-1.2","5f13a4ac3263a43c3511749c","5f13a4ac3263a43c3511749c","63a36e1df1afd18b014794e9","63a38d2147e8f8af27593f09","rsvp1-task","false","0","","","","","null","<span></span>","null","iti","","","","","","","","","","","","","","",""
"","html-keyboard-response","240","280867","0.0-5.0-27.0-0.3","5f13a4ac3263a43c3511749c","5f13a4ac3263a43c3511749c","63a36e1df1afd18b014794e9","63a38d2147e8f8af27593f09","rsvp1-task","false","0","","","","","null","
					<div style='width: 900px;'>
					<div style='float: center;'><img src=img/nontarget_distractor155.jpeg  ></img>
					</div>
					","null","rsvp1","practice0","","","","","","","","","6","","","","","img/nontarget_distractor155.jpeg"
"","html-keyboard-response","241","280873","0.0-5.0-27.0-1.3","5f13a4ac3263a43c3511749c","5f13a4ac3263a43c3511749c","63a36e1df1afd18b014794e9","63a38d2147e8f8af27593f09","rsvp1-task","false","0","","","","","null","<span></span>","null","iti","","","","","","","","","","","","","","",""
"","html-keyboard-response","242","280983","0.0-5.0-27.0-0.4","5f13a4ac3263a43c3511749c","5f13a4ac3263a43c3511749c","63a36e1df1afd18b014794e9","63a38d2147e8f8af27593f09","rsvp1-task","false","0","","","","","null","
					<div style='width: 900px;'>
					<div style='float: center;'><img src=img/nontarget_distractor40.jpeg  ></img>
					</div>
					","null","rsvp1","practice0","","","","","","","","","6","","","","","img/nontarget_distractor40.jpeg"
"","html-keyboard-response","243","280989","0.0-5.0-27.0-1.4","5f13a4ac3263a43c3511749c","5f13a4ac3263a43c3511749c","63a36e1df1afd18b014794e9","63a38d2147e8f8af27593f09","rsvp1-task","false","0","","","","","null","<span></span>","null","iti","","","","","","","","","","","","","","",""
"","html-keyboard-response","244","281101","0.0-5.0-27.0-0.5","5f13a4ac3263a43c3511749c","5f13a4ac3263a43c3511749c","63a36e1df1afd18b014794e9","63a38d2147e8f8af27593f09","rsvp1-task","false","0","","","","","null","
					<div style='width: 900px;'>
					<div style='float: center;'><img src=img/nontarget_distractor194.jpeg  ></img>
					</div>
					","null","rsvp1","practice0","","","","","","","","","6","","","","","img/nontarget_distractor194.jpeg"
"","html-keyboard-response","245","281107","0.0-5.0-27.0-1.5","5f13a4ac3263a43c3511749c","5f13a4ac3263a43c3511749c","63a36e1df1afd18b014794e9","63a38d2147e8f8af27593f09","rsvp1-task","false","0","","","","","null","<span></span>","null","iti","","","","","","","","","","","","","","",""
"","html-keyboard-response","246","281219","0.0-5.0-27.0-0.6","5f13a4ac3263a43c3511749c","5f13a4ac3263a43c3511749c","63a36e1df1afd18b014794e9","63a38d2147e8f8af27593f09","rsvp1-task","false","0","","","","","null","
					<div style='width: 900px;'>
					<div style='float: center;'><img src=img/nontarget_distractor157.jpeg  ></img>
					</div>
					","null","rsvp1","practice0","","","","","","","","","6","","","","","img/nontarget_distractor157.jpeg"
"","html-keyboard-response","247","281224","0.0-5.0-27.0-1.6","5f13a4ac3263a43c3511749c","5f13a4ac3263a43c3511749c","63a36e1df1afd18b014794e9","63a38d2147e8f8af27593f09","rsvp1-task","false","0","","","","","null","<span></span>","null","iti","","","","","","","","","","","","","","",""
"","html-keyboard-response","248","281334","0.0-5.0-27.0-0.7","5f13a4ac3263a43c3511749c","5f13a4ac3263a43c3511749c","63a36e1df1afd18b014794e9","63a38d2147e8f8af27593f09","rsvp1-task","false","0","","","","","null","
					<div style='width: 900px;'>
					<div style='float: center;'><img src=img/nontarget_distractor212.jpeg  ></img>
					</div>
					","null","rsvp1","practice0","","","","","","","","","6","","","","","img/nontarget_distractor212.jpeg"
"","html-keyboard-response","249","281340","0.0-5.0-27.0-1.7","5f13a4ac3263a43c3511749c","5f13a4ac3263a43c3511749c","63a36e1df1afd18b014794e9","63a38d2147e8f8af27593f09","rsvp1-task","false","0","","","","","null","<span></span>","null","iti","","","","","","","","","","","","","","",""
"","html-keyboard-response","250","281451","0.0-5.0-27.0-0.8","5f13a4ac3263a43c3511749c","5f13a4ac3263a43c3511749c","63a36e1df1afd18b014794e9","63a38d2147e8f8af27593f09","rsvp1-task","false","0","","","","","null","
					<div style='width: 900px;'>
					<div style='float: center;'><img src=img/nontarget_distractor206.jpeg  ></img>
					</div>
					","null","rsvp1","practice0","","","","","","","","","6","","","","","img/nontarget_distractor206.jpeg"
"","html-keyboard-response","251","281457","0.0-5.0-27.0-1.8","5f13a4ac3263a43c3511749c","5f13a4ac3263a43c3511749c","63a36e1df1afd18b014794e9","63a38d2147e8f8af27593f09","rsvp1-task","false","0","","","","","null","<span></span>","null","iti","","","","","","","","","","","","","","",""
"","html-keyboard-response","252","281568","0.0-5.0-27.0-0.9","5f13a4ac3263a43c3511749c","5f13a4ac3263a43c3511749c","63a36e1df1afd18b014794e9","63a38d2147e8f8af27593f09","rsvp1-task","false","0","","","","","null","
					<div style='width: 900px;'>
					<div style='float: center;'><img src=img/nontarget_distractor166.jpeg  ></img>
					</div>
					","null","rsvp1","practice0","","","","","","","","","6","","","","","img/nontarget_distractor166.jpeg"
"","html-keyboard-response","253","281575","0.0-5.0-27.0-1.9","5f13a4ac3263a43c3511749c","5f13a4ac3263a43c3511749c","63a36e1df1afd18b014794e9","63a38d2147e8f8af27593f09","rsvp1-task","false","0","","","","","null","<span></span>","null","iti","","","","","","","","","","","","","","",""
"","html-keyboard-response","254","281685","0.0-5.0-27.0-0.10","5f13a4ac3263a43c3511749c","5f13a4ac3263a43c3511749c","63a36e1df1afd18b014794e9","63a38d2147e8f8af27593f09","rsvp1-task","false","0","","","","","null","
					<div style='width: 900px;'>
					<div style='float: center;'><img src=img/nontarget_distractor161.jpeg  ></img>
					</div>
					","null","rsvp1","practice0","","","","","","","","","6","","","","","img/nontarget_distractor161.jpeg"
"","html-keyboard-response","255","281691","0.0-5.0-27.0-1.10","5f13a4ac3263a43c3511749c","5f13a4ac3263a43c3511749c","63a36e1df1afd18b014794e9","63a38d2147e8f8af27593f09","rsvp1-task","false","0","","","","","null","<span></span>","null","iti","","","","","","","","","","","","","","",""
"","html-keyboard-response","256","281803","0.0-5.0-27.0-0.11","5f13a4ac3263a43c3511749c","5f13a4ac3263a43c3511749c","63a36e1df1afd18b014794e9","63a38d2147e8f8af27593f09","rsvp1-task","false","0","","","","","null","
					<div style='width: 900px;'>
					<div style='float: center;'><img src=img/t2_targets98.jpeg class=""rotateimgL""  ></img>
					</div>
					","null","rsvp1","practice0","","","","","","","","","6","","","","","img/t2_targets98.jpeg class=""rotateimgL"""
"","html-keyboard-response","257","281810","0.0-5.0-27.0-1.11","5f13a4ac3263a43c3511749c","5f13a4ac3263a43c3511749c","63a36e1df1afd18b014794e9","63a38d2147e8f8af27593f09","rsvp1-task","false","0","","","","","null","<span></span>","null","iti","","","","","","","","","","","","","","",""
"","html-keyboard-response","258","281919","0.0-5.0-27.0-0.12","5f13a4ac3263a43c3511749c","5f13a4ac3263a43c3511749c","63a36e1df1afd18b014794e9","63a38d2147e8f8af27593f09","rsvp1-task","false","0","","","","","null","
					<div style='width: 900px;'>
					<div style='float: center;'><img src=img/nontarget_distractor48.jpeg  ></img>
					</div>
					","null","rsvp1","practice0","","","","","","","","","6","","","","","img/nontarget_distractor48.jpeg"
"","html-keyboard-response","259","281924","0.0-5.0-27.0-1.12","5f13a4ac3263a43c3511749c","5f13a4ac3263a43c3511749c","63a36e1df1afd18b014794e9","63a38d2147e8f8af27593f09","rsvp1-task","false","0","","","","","null","<span></span>","null","iti","","","","","","","","","","","","","","",""
"","html-keyboard-response","260","282036","0.0-5.0-27.0-0.13","5f13a4ac3263a43c3511749c","5f13a4ac3263a43c3511749c","63a36e1df1afd18b014794e9","63a38d2147e8f8af27593f09","rsvp1-task","false","0","","","","","null","
					<div style='width: 900px;'>
					<div style='float: center;'><img src=img/nontarget_distractor13.jpeg  ></img>
					</div>
					","null","rsvp1","practice0","","","","","","","","","6","","","","","img/nontarget_distractor13.jpeg"
"","html-keyboard-response","261","282042","0.0-5.0-27.0-1.13","5f13a4ac3263a43c3511749c","5f13a4ac3263a43c3511749c","63a36e1df1afd18b014794e9","63a38d2147e8f8af27593f09","rsvp1-task","false","0","","","","","null","<span></span>","null","iti","","","","","","","","","","","","","","",""
"","html-keyboard-response","262","282153","0.0-5.0-27.0-0.14","5f13a4ac3263a43c3511749c","5f13a4ac3263a43c3511749c","63a36e1df1afd18b014794e9","63a38d2147e8f8af27593f09","rsvp1-task","false","0","","","","","null","
					<div style='width: 900px;'>
					<div style='float: center;'><img src=img/nontarget_distractor213.jpeg  ></img>
					</div>
					","null","rsvp1","practice0","","","","","","","","","6","","","","","img/nontarget_distractor213.jpeg"
"","html-keyboard-response","263","282159","0.0-5.0-27.0-1.14","5f13a4ac3263a43c3511749c","5f13a4ac3263a43c3511749c","63a36e1df1afd18b014794e9","63a38d2147e8f8af27593f09","rsvp1-task","false","0","","","","","null","<span></span>","null","iti","","","","","","","","","","","","","","",""
"","html-keyboard-response","264","282270","0.0-5.0-27.0-0.15","5f13a4ac3263a43c3511749c","5f13a4ac3263a43c3511749c","63a36e1df1afd18b014794e9","63a38d2147e8f8af27593f09","rsvp1-task","false","0","","","","","null","
					<div style='width: 900px;'>
					<div style='float: center;'><img src=img/nontarget_distractor82.jpeg  ></img>
					</div>
					","null","rsvp1","practice0","","","","","","","","","6","","","","","img/nontarget_distractor82.jpeg"
"","html-keyboard-response","265","282276","0.0-5.0-27.0-1.15","5f13a4ac3263a43c3511749c","5f13a4ac3263a43c3511749c","63a36e1df1afd18b014794e9","63a38d2147e8f8af27593f09","rsvp1-task","false","0","","","","","null","<span></span>","null","iti","","","","","","","","","","","","","","",""
"","html-keyboard-response","266","282387","0.0-5.0-27.0-0.16","5f13a4ac3263a43c3511749c","5f13a4ac3263a43c3511749c","63a36e1df1afd18b014794e9","63a38d2147e8f8af27593f09","rsvp1-task","false","0","","","","","null","
					<div style='width: 900px;'>
					<div style='float: center;'><img src=img/nontarget_distractor14.jpeg  ></img>
					</div>
					","null","rsvp1","practice0","","","","","","","","","6","","","","","img/nontarget_distractor14.jpeg"
"","html-keyboard-response","267","282393","0.0-5.0-27.0-1.16","5f13a4ac3263a43c3511749c","5f13a4ac3263a43c3511749c","63a36e1df1afd18b014794e9","63a38d2147e8f8af27593f09","rsvp1-task","false","0","","","","","null","<span></span>","null","iti","","","","","","","","","","","","","","",""
"","html-keyboard-response","268","282963","0.0-5.0-28.0-0.0","5f13a4ac3263a43c3511749c","5f13a4ac3263a43c3511749c","63a36e1df1afd18b014794e9","63a38d2147e8f8af27593f09","rsvp1-task","false","0","","","","","567.6999999880791","<div class=""rsvp""> Was the rotated image rotated left (1 key) or right (0 key)?</div>","1","response","practice0","1","1","neutral","img/nontarget_distractor212.jpeg","img/nontarget_distractor48.jpeg","8","4","12","6","true","true","true","",""
"","html-keyboard-response","269","283983","0.0-5.0-29.0","5f13a4ac3263a43c3511749c","5f13a4ac3263a43c3511749c","63a36e1df1afd18b014794e9","63a38d2147e8f8af27593f09","rsvp1-task","false","0","","","","","null","Correct! </p> <p>  </p><p> ","null","","","","","","","","","","","","","","","main_T1_ITI",""
