"success","trial_type","trial_index","time_elapsed","internal_node_id","subject_id","subjectID","study_id","session_id","exp_id","full_screen","focus_shifts","timeout","failed_images","failed_audio","failed_video","rt","stimulus","key_press","test_part","phase","correct_responses","correct_response","t1_type","t1_image","t2_image","t1_location","lag","t2_location","trial_number","correct","t1_correct","t2_correct","task","stim"
"true","fullscreen","0","9736","0.0-0.0","5fc423afc5dad58229f0c1c0","5fc423afc5dad58229f0c1c0","63a36e1df1afd18b014794e9","63a385d872a5348c60de328b","rsvp1-task","true","0","","","","","","","","","","","","","","","","","","","","","","",""
"true","preload","1","12614","0.0-1.0","5fc423afc5dad58229f0c1c0","5fc423afc5dad58229f0c1c0","63a36e1df1afd18b014794e9","63a385d872a5348c60de328b","rsvp1-task","true","0","false","[]","[]","[]","","","","","","","","","","","","","","","","","","",""
"","html-keyboard-response","2","40781","0.0-2.0","5fc423afc5dad58229f0c1c0","5fc423afc5dad58229f0c1c0","63a36e1df1afd18b014794e9","63a385d872a5348c60de328b","rsvp1-task","true","0","","","","","28165","<div class='instructions'><p>You will see a series of scene images rapidly appearing on the computer screen. One of the scene images will be ROTATED, either to the left or to the right.</p><p>When the series ends, you have to respond to the question ‘Which way was the scene rotated?’</p><p>If the scene was rotated left, you will press the 1 key. If the scene was rotated right, press the 0 key. </p><p>Press any key to see an example of the task.</p></div>"," ","instructions","","","","","","","","","","","","","","",""
"","html-keyboard-response","3","43785","0.0-3.0-0.0","5fc423afc5dad58229f0c1c0","5fc423afc5dad58229f0c1c0","63a36e1df1afd18b014794e9","63a385d872a5348c60de328b","rsvp1-task","true","0","","","","","null","<div class=""rsvp"">+</div>","null","fixation","","","","","","","","","","","","","","",""
"","html-keyboard-response","4","44039","0.0-3.0-1.0","5fc423afc5dad58229f0c1c0","5fc423afc5dad58229f0c1c0","63a36e1df1afd18b014794e9","63a385d872a5348c60de328b","rsvp1-task","true","0","","","","","null","<div class=""rsvp"" ></div>","null","blank","","","","","","","","","","","","","","",""
"","html-keyboard-response","5","44259","0.0-3.0-2.0-0.0","5fc423afc5dad58229f0c1c0","5fc423afc5dad58229f0c1c0","63a36e1df1afd18b014794e9","63a385d872a5348c60de328b","rsvp1-task","true","0","","","","","null","
					<div style='width: 900px;'>
					<div style='float: center;'><img src=img/nontarget_distractor55.jpeg  ></img>
					</div>
					","null","","","","","","","","","","","","","","","",""
"","html-keyboard-response","6","44351","0.0-3.0-2.0-1.0","5fc423afc5dad58229f0c1c0","5fc423afc5dad58229f0c1c0","63a36e1df1afd18b014794e9","63a385d872a5348c60de328b","rsvp1-task","true","0","","","","","null","<span></span>","null","iti","","","","","","","","","","","","","","",""
"","html-keyboard-response","7","44571","0.0-3.0-2.0-0.1","5fc423afc5dad58229f0c1c0","5fc423afc5dad58229f0c1c0","63a36e1df1afd18b014794e9","63a385d872a5348c60de328b","rsvp1-task","true","0","","","","","null","
					<div style='width: 900px;'>
					<div style='float: center;'><img src=img/nontarget_distractor170.jpeg  ></img>
					</div>
					","null","","","","","","","","","","","","","","","",""
"","html-keyboard-response","8","44663","0.0-3.0-2.0-1.1","5fc423afc5dad58229f0c1c0","5fc423afc5dad58229f0c1c0","63a36e1df1afd18b014794e9","63a385d872a5348c60de328b","rsvp1-task","true","0","","","","","null","<span></span>","null","iti","","","","","","","","","","","","","","",""
"","html-keyboard-response","9","44882","0.0-3.0-2.0-0.2","5fc423afc5dad58229f0c1c0","5fc423afc5dad58229f0c1c0","63a36e1df1afd18b014794e9","63a385d872a5348c60de328b","rsvp1-task","true","0","","","","","null","
					<div style='width: 900px;'>
					<div style='float: center;'><img src=img/nontarget_distractor17.jpeg  ></img>
					</div>
					","null","","","","","","","","","","","","","","","",""
"","html-keyboard-response","10","44974","0.0-3.0-2.0-1.2","5fc423afc5dad58229f0c1c0","5fc423afc5dad58229f0c1c0","63a36e1df1afd18b014794e9","63a385d872a5348c60de328b","rsvp1-task","true","0","","","","","null","<span></span>","null","iti","","","","","","","","","","","","","","",""
"","html-keyboard-response","11","45193","0.0-3.0-2.0-0.3","5fc423afc5dad58229f0c1c0","5fc423afc5dad58229f0c1c0","63a36e1df1afd18b014794e9","63a385d872a5348c60de328b","rsvp1-task","true","0","","","","","null","
					<div style='width: 900px;'>
					<div style='float: center;'><img src=img/nontarget_distractor79.jpeg  ></img>
					</div>
					","null","","","","","","","","","","","","","","","",""
"","html-keyboard-response","12","45285","0.0-3.0-2.0-1.3","5fc423afc5dad58229f0c1c0","5fc423afc5dad58229f0c1c0","63a36e1df1afd18b014794e9","63a385d872a5348c60de328b","rsvp1-task","true","0","","","","","null","<span></span>","null","iti","","","","","","","","","","","","","","",""
"","html-keyboard-response","13","45503","0.0-3.0-2.0-0.4","5fc423afc5dad58229f0c1c0","5fc423afc5dad58229f0c1c0","63a36e1df1afd18b014794e9","63a385d872a5348c60de328b","rsvp1-task","true","0","","","","","null","
					<div style='width: 900px;'>
					<div style='float: center;'><img src=img/nontarget_distractor146.jpeg  ></img>
					</div>
					","null","","","","","","","","","","","","","","","",""
"","html-keyboard-response","14","45596","0.0-3.0-2.0-1.4","5fc423afc5dad58229f0c1c0","5fc423afc5dad58229f0c1c0","63a36e1df1afd18b014794e9","63a385d872a5348c60de328b","rsvp1-task","true","0","","","","","null","<span></span>","null","iti","","","","","","","","","","","","","","",""
"","html-keyboard-response","15","45815","0.0-3.0-2.0-0.5","5fc423afc5dad58229f0c1c0","5fc423afc5dad58229f0c1c0","63a36e1df1afd18b014794e9","63a385d872a5348c60de328b","rsvp1-task","true","0","","","","","null","
					<div style='width: 900px;'>
					<div style='float: center;'><img src=img/nontarget_distractor137.jpeg  ></img>
					</div>
					","null","","","","","","","","","","","","","","","",""
"","html-keyboard-response","16","45908","0.0-3.0-2.0-1.5","5fc423afc5dad58229f0c1c0","5fc423afc5dad58229f0c1c0","63a36e1df1afd18b014794e9","63a385d872a5348c60de328b","rsvp1-task","true","0","","","","","null","<span></span>","null","iti","","","","","","","","","","","","","","",""
"","html-keyboard-response","17","46127","0.0-3.0-2.0-0.6","5fc423afc5dad58229f0c1c0","5fc423afc5dad58229f0c1c0","63a36e1df1afd18b014794e9","63a385d872a5348c60de328b","rsvp1-task","true","0","","","","","null","
					<div style='width: 900px;'>
					<div style='float: center;'><img src=img/nontarget_distractor86.jpeg  ></img>
					</div>
					","null","","","","","","","","","","","","","","","",""
"","html-keyboard-response","18","46220","0.0-3.0-2.0-1.6","5fc423afc5dad58229f0c1c0","5fc423afc5dad58229f0c1c0","63a36e1df1afd18b014794e9","63a385d872a5348c60de328b","rsvp1-task","true","0","","","","","null","<span></span>","null","iti","","","","","","","","","","","","","","",""
"","html-keyboard-response","19","46439","0.0-3.0-2.0-0.7","5fc423afc5dad58229f0c1c0","5fc423afc5dad58229f0c1c0","63a36e1df1afd18b014794e9","63a385d872a5348c60de328b","rsvp1-task","true","0","","","","","null","
					<div style='width: 900px;'>
					<div style='float: center;'><img src=img/nontarget_distractor172.jpeg  ></img>
					</div>
					","null","","","","","","","","","","","","","","","",""
"","html-keyboard-response","20","46532","0.0-3.0-2.0-1.7","5fc423afc5dad58229f0c1c0","5fc423afc5dad58229f0c1c0","63a36e1df1afd18b014794e9","63a385d872a5348c60de328b","rsvp1-task","true","0","","","","","null","<span></span>","null","iti","","","","","","","","","","","","","","",""
"","html-keyboard-response","21","46751","0.0-3.0-2.0-0.8","5fc423afc5dad58229f0c1c0","5fc423afc5dad58229f0c1c0","63a36e1df1afd18b014794e9","63a385d872a5348c60de328b","rsvp1-task","true","0","","","","","null","
					<div style='width: 900px;'>
					<div style='float: center;'><img src=img/nontarget_distractor4.jpeg  ></img>
					</div>
					","null","","","","","","","","","","","","","","","",""
"","html-keyboard-response","22","46843","0.0-3.0-2.0-1.8","5fc423afc5dad58229f0c1c0","5fc423afc5dad58229f0c1c0","63a36e1df1afd18b014794e9","63a385d872a5348c60de328b","rsvp1-task","true","0","","","","","null","<span></span>","null","iti","","","","","","","","","","","","","","",""
"","html-keyboard-response","23","47062","0.0-3.0-2.0-0.9","5fc423afc5dad58229f0c1c0","5fc423afc5dad58229f0c1c0","63a36e1df1afd18b014794e9","63a385d872a5348c60de328b","rsvp1-task","true","0","","","","","null","
					<div style='width: 900px;'>
					<div style='float: center;'><img src=img/t2_targets57.jpeg class=""rotateimgL""  ></img>
					</div>
					","null","","","","","","","","","","","","","","","",""
"","html-keyboard-response","24","47155","0.0-3.0-2.0-1.9","5fc423afc5dad58229f0c1c0","5fc423afc5dad58229f0c1c0","63a36e1df1afd18b014794e9","63a385d872a5348c60de328b","rsvp1-task","true","0","","","","","null","<span></span>","null","iti","","","","","","","","","","","","","","",""
"","html-keyboard-response","25","47375","0.0-3.0-2.0-0.10","5fc423afc5dad58229f0c1c0","5fc423afc5dad58229f0c1c0","63a36e1df1afd18b014794e9","63a385d872a5348c60de328b","rsvp1-task","true","0","","","","","null","
					<div style='width: 900px;'>
					<div style='float: center;'><img src=img/nontarget_distractor153.jpeg  ></img>
					</div>
					","null","","","","","","","","","","","","","","","",""
"","html-keyboard-response","26","47468","0.0-3.0-2.0-1.10","5fc423afc5dad58229f0c1c0","5fc423afc5dad58229f0c1c0","63a36e1df1afd18b014794e9","63a385d872a5348c60de328b","rsvp1-task","true","0","","","","","null","<span></span>","null","iti","","","","","","","","","","","","","","",""
"","html-keyboard-response","27","47687","0.0-3.0-2.0-0.11","5fc423afc5dad58229f0c1c0","5fc423afc5dad58229f0c1c0","63a36e1df1afd18b014794e9","63a385d872a5348c60de328b","rsvp1-task","true","0","","","","","null","
					<div style='width: 900px;'>
					<div style='float: center;'><img src=img/nontarget_distractor189.jpeg  ></img>
					</div>
					","null","","","","","","","","","","","","","","","",""
"","html-keyboard-response","28","47780","0.0-3.0-2.0-1.11","5fc423afc5dad58229f0c1c0","5fc423afc5dad58229f0c1c0","63a36e1df1afd18b014794e9","63a385d872a5348c60de328b","rsvp1-task","true","0","","","","","null","<span></span>","null","iti","","","","","","","","","","","","","","",""
"","html-keyboard-response","29","47999","0.0-3.0-2.0-0.12","5fc423afc5dad58229f0c1c0","5fc423afc5dad58229f0c1c0","63a36e1df1afd18b014794e9","63a385d872a5348c60de328b","rsvp1-task","true","0","","","","","null","
					<div style='width: 900px;'>
					<div style='float: center;'><img src=img/nontarget_distractor54.jpeg  ></img>
					</div>
					","null","","","","","","","","","","","","","","","",""
"","html-keyboard-response","30","48092","0.0-3.0-2.0-1.12","5fc423afc5dad58229f0c1c0","5fc423afc5dad58229f0c1c0","63a36e1df1afd18b014794e9","63a385d872a5348c60de328b","rsvp1-task","true","0","","","","","null","<span></span>","null","iti","","","","","","","","","","","","","","",""
"","html-keyboard-response","31","48309","0.0-3.0-2.0-0.13","5fc423afc5dad58229f0c1c0","5fc423afc5dad58229f0c1c0","63a36e1df1afd18b014794e9","63a385d872a5348c60de328b","rsvp1-task","true","0","","","","","null","
					<div style='width: 900px;'>
					<div style='float: center;'><img src=img/nontarget_distractor120.jpeg  ></img>
					</div>
					","null","","","","","","","","","","","","","","","",""
"","html-keyboard-response","32","48401","0.0-3.0-2.0-1.13","5fc423afc5dad58229f0c1c0","5fc423afc5dad58229f0c1c0","63a36e1df1afd18b014794e9","63a385d872a5348c60de328b","rsvp1-task","true","0","","","","","null","<span></span>","null","iti","","","","","","","","","","","","","","",""
"","html-keyboard-response","33","48620","0.0-3.0-2.0-0.14","5fc423afc5dad58229f0c1c0","5fc423afc5dad58229f0c1c0","63a36e1df1afd18b014794e9","63a385d872a5348c60de328b","rsvp1-task","true","0","","","","","null","
					<div style='width: 900px;'>
					<div style='float: center;'><img src=img/nontarget_distractor95.jpeg  ></img>
					</div>
					","null","","","","","","","","","","","","","","","",""
"","html-keyboard-response","34","48713","0.0-3.0-2.0-1.14","5fc423afc5dad58229f0c1c0","5fc423afc5dad58229f0c1c0","63a36e1df1afd18b014794e9","63a385d872a5348c60de328b","rsvp1-task","true","0","","","","","null","<span></span>","null","iti","","","","","","","","","","","","","","",""
"","html-keyboard-response","35","48933","0.0-3.0-2.0-0.15","5fc423afc5dad58229f0c1c0","5fc423afc5dad58229f0c1c0","63a36e1df1afd18b014794e9","63a385d872a5348c60de328b","rsvp1-task","true","0","","","","","null","
					<div style='width: 900px;'>
					<div style='float: center;'><img src=img/nontarget_distractor74.jpeg  ></img>
					</div>
					","null","","","","","","","","","","","","","","","",""
"","html-keyboard-response","36","49026","0.0-3.0-2.0-1.15","5fc423afc5dad58229f0c1c0","5fc423afc5dad58229f0c1c0","63a36e1df1afd18b014794e9","63a385d872a5348c60de328b","rsvp1-task","true","0","","","","","null","<span></span>","null","iti","","","","","","","","","","","","","","",""
"","html-keyboard-response","37","49245","0.0-3.0-2.0-0.16","5fc423afc5dad58229f0c1c0","5fc423afc5dad58229f0c1c0","63a36e1df1afd18b014794e9","63a385d872a5348c60de328b","rsvp1-task","true","0","","","","","null","
					<div style='width: 900px;'>
					<div style='float: center;'><img src=img/nontarget_distractor66.jpeg  ></img>
					</div>
					","null","","","","","","","","","","","","","","","",""
"","html-keyboard-response","38","49338","0.0-3.0-2.0-1.16","5fc423afc5dad58229f0c1c0","5fc423afc5dad58229f0c1c0","63a36e1df1afd18b014794e9","63a385d872a5348c60de328b","rsvp1-task","true","0","","","","","null","<span></span>","null","iti","","","","","","","","","","","","","","",""
"","html-keyboard-response","39","50376","0.0-3.0-3.0-0.0","5fc423afc5dad58229f0c1c0","5fc423afc5dad58229f0c1c0","63a36e1df1afd18b014794e9","63a385d872a5348c60de328b","rsvp1-task","true","0","","","","","1034","<div class=""rsvp""> Was the rotated image rotated left (1 key) or right (0 key)?</div>","1","response","instructions","1","1","neutral","img/nontarget_distractor170.jpeg","img/nontarget_distractor153.jpeg","2","8","10","1","true","true","true","",""
"","html-keyboard-response","40","51379","0.0-3.0-4.0","5fc423afc5dad58229f0c1c0","5fc423afc5dad58229f0c1c0","63a36e1df1afd18b014794e9","63a385d872a5348c60de328b","rsvp1-task","true","0","","","","","null","Correct! </p> <p>  </p><p> ","null","","","","","","","","","","","","","","","main_T1_ITI",""
"","html-keyboard-response","41","68388","0.0-4.0","5fc423afc5dad58229f0c1c0","5fc423afc5dad58229f0c1c0","63a36e1df1afd18b014794e9","63a385d872a5348c60de328b","rsvp1-task","true","0","","","","","17005.999999999993","<div class='instructions'><p>In the example you just saw, the images appeared quite slowly.</p><p>The real task is more challenging, as the images will appear much more rapidly. This will feel much harder! </p> First, you will complete a practice block. </p><p> <strong>You need to respond correctly on at least 75% of the practice trials to advance, so pay close attention! </strong> </p><p>Press any key to start the practice.</p></div>"," ","instructions_2","","","","","","","","","","","","","","",""
"","html-keyboard-response","42","71391","0.0-5.0-0.0","5fc423afc5dad58229f0c1c0","5fc423afc5dad58229f0c1c0","63a36e1df1afd18b014794e9","63a385d872a5348c60de328b","rsvp1-task","true","0","","","","","null","<div class=""rsvp"">+</div>","null","fixation","","","","","","","","","","","","","","",""
"","html-keyboard-response","43","71645","0.0-5.0-1.0","5fc423afc5dad58229f0c1c0","5fc423afc5dad58229f0c1c0","63a36e1df1afd18b014794e9","63a385d872a5348c60de328b","rsvp1-task","true","0","","","","","null","<div class=""rsvp"" ></div>","null","blank","","","","","","","","","","","","","","",""
"","html-keyboard-response","44","71753","0.0-5.0-2.0-0.0","5fc423afc5dad58229f0c1c0","5fc423afc5dad58229f0c1c0","63a36e1df1afd18b014794e9","63a385d872a5348c60de328b","rsvp1-task","true","0","","","","","null","
					<div style='width: 900px;'>
					<div style='float: center;'><img src=img/nontarget_distractor118.jpeg  ></img>
					</div>
					","null","rsvp1","practice0","","","","","","","","","1","","","","","img/nontarget_distractor118.jpeg"
"","html-keyboard-response","45","71754","0.0-5.0-2.0-1.0","5fc423afc5dad58229f0c1c0","5fc423afc5dad58229f0c1c0","63a36e1df1afd18b014794e9","63a385d872a5348c60de328b","rsvp1-task","true","0","","","","","null","<span></span>","null","iti","","","","","","","","","","","","","","",""
"","html-keyboard-response","46","71862","0.0-5.0-2.0-0.1","5fc423afc5dad58229f0c1c0","5fc423afc5dad58229f0c1c0","63a36e1df1afd18b014794e9","63a385d872a5348c60de328b","rsvp1-task","true","0","","","","","null","
					<div style='width: 900px;'>
					<div style='float: center;'><img src=img/nontarget_distractor113.jpeg  ></img>
					</div>
					","null","rsvp1","practice0","","","","","","","","","1","","","","","img/nontarget_distractor113.jpeg"
"","html-keyboard-response","47","71864","0.0-5.0-2.0-1.1","5fc423afc5dad58229f0c1c0","5fc423afc5dad58229f0c1c0","63a36e1df1afd18b014794e9","63a385d872a5348c60de328b","rsvp1-task","true","0","","","","","null","<span></span>","null","iti","","","","","","","","","","","","","","",""
"","html-keyboard-response","48","71971","0.0-5.0-2.0-0.2","5fc423afc5dad58229f0c1c0","5fc423afc5dad58229f0c1c0","63a36e1df1afd18b014794e9","63a385d872a5348c60de328b","rsvp1-task","true","0","","","","","null","
					<div style='width: 900px;'>
					<div style='float: center;'><img src=img/nontarget_distractor88.jpeg  ></img>
					</div>
					","null","rsvp1","practice0","","","","","","","","","1","","","","","img/nontarget_distractor88.jpeg"
"","html-keyboard-response","49","71972","0.0-5.0-2.0-1.2","5fc423afc5dad58229f0c1c0","5fc423afc5dad58229f0c1c0","63a36e1df1afd18b014794e9","63a385d872a5348c60de328b","rsvp1-task","true","0","","","","","null","<span></span>","null","iti","","","","","","","","","","","","","","",""
"","html-keyboard-response","50","72078","0.0-5.0-2.0-0.3","5fc423afc5dad58229f0c1c0","5fc423afc5dad58229f0c1c0","63a36e1df1afd18b014794e9","63a385d872a5348c60de328b","rsvp1-task","true","0","","","","","null","
					<div style='width: 900px;'>
					<div style='float: center;'><img src=img/nontarget_distractor237.jpeg  ></img>
					</div>
					","null","rsvp1","practice0","","","","","","","","","1","","","","","img/nontarget_distractor237.jpeg"
"","html-keyboard-response","51","72084","0.0-5.0-2.0-1.3","5fc423afc5dad58229f0c1c0","5fc423afc5dad58229f0c1c0","63a36e1df1afd18b014794e9","63a385d872a5348c60de328b","rsvp1-task","true","0","","","","","null","<span></span>","null","iti","","","","","","","","","","","","","","",""
"","html-keyboard-response","52","72192","0.0-5.0-2.0-0.4","5fc423afc5dad58229f0c1c0","5fc423afc5dad58229f0c1c0","63a36e1df1afd18b014794e9","63a385d872a5348c60de328b","rsvp1-task","true","0","","","","","null","
					<div style='width: 900px;'>
					<div style='float: center;'><img src=img/nontarget_distractor246.jpeg  ></img>
					</div>
					","null","rsvp1","practice0","","","","","","","","","1","","","","","img/nontarget_distractor246.jpeg"
"","html-keyboard-response","53","72197","0.0-5.0-2.0-1.4","5fc423afc5dad58229f0c1c0","5fc423afc5dad58229f0c1c0","63a36e1df1afd18b014794e9","63a385d872a5348c60de328b","rsvp1-task","true","0","","","","","null","<span></span>","null","iti","","","","","","","","","","","","","","",""
"","html-keyboard-response","54","72303","0.0-5.0-2.0-0.5","5fc423afc5dad58229f0c1c0","5fc423afc5dad58229f0c1c0","63a36e1df1afd18b014794e9","63a385d872a5348c60de328b","rsvp1-task","true","0","","","","","null","
					<div style='width: 900px;'>
					<div style='float: center;'><img src=img/nontarget_distractor32.jpeg  ></img>
					</div>
					","null","rsvp1","practice0","","","","","","","","","1","","","","","img/nontarget_distractor32.jpeg"
"","html-keyboard-response","55","72308","0.0-5.0-2.0-1.5","5fc423afc5dad58229f0c1c0","5fc423afc5dad58229f0c1c0","63a36e1df1afd18b014794e9","63a385d872a5348c60de328b","rsvp1-task","true","0","","","","","null","<span></span>","null","iti","","","","","","","","","","","","","","",""
"","html-keyboard-response","56","72414","0.0-5.0-2.0-0.6","5fc423afc5dad58229f0c1c0","5fc423afc5dad58229f0c1c0","63a36e1df1afd18b014794e9","63a385d872a5348c60de328b","rsvp1-task","true","0","","","","","null","
					<div style='width: 900px;'>
					<div style='float: center;'><img src=img/nontarget_distractor75.jpeg  ></img>
					</div>
					","null","rsvp1","practice0","","","","","","","","","1","","","","","img/nontarget_distractor75.jpeg"
"","html-keyboard-response","57","72419","0.0-5.0-2.0-1.6","5fc423afc5dad58229f0c1c0","5fc423afc5dad58229f0c1c0","63a36e1df1afd18b014794e9","63a385d872a5348c60de328b","rsvp1-task","true","0","","","","","null","<span></span>","null","iti","","","","","","","","","","","","","","",""
"","html-keyboard-response","58","72522","0.0-5.0-2.0-0.7","5fc423afc5dad58229f0c1c0","5fc423afc5dad58229f0c1c0","63a36e1df1afd18b014794e9","63a385d872a5348c60de328b","rsvp1-task","true","0","","","","","null","
					<div style='width: 900px;'>
					<div style='float: center;'><img src=img/nontarget_distractor189.jpeg  ></img>
					</div>
					","null","rsvp1","practice0","","","","","","","","","1","","","","","img/nontarget_distractor189.jpeg"
"","html-keyboard-response","59","72527","0.0-5.0-2.0-1.7","5fc423afc5dad58229f0c1c0","5fc423afc5dad58229f0c1c0","63a36e1df1afd18b014794e9","63a385d872a5348c60de328b","rsvp1-task","true","0","","","","","null","<span></span>","null","iti","","","","","","","","","","","","","","",""
"","html-keyboard-response","60","72633","0.0-5.0-2.0-0.8","5fc423afc5dad58229f0c1c0","5fc423afc5dad58229f0c1c0","63a36e1df1afd18b014794e9","63a385d872a5348c60de328b","rsvp1-task","true","0","","","","","null","
					<div style='width: 900px;'>
					<div style='float: center;'><img src=img/nontarget_distractor34.jpeg  ></img>
					</div>
					","null","rsvp1","practice0","","","","","","","","","1","","","","","img/nontarget_distractor34.jpeg"
"","html-keyboard-response","61","72639","0.0-5.0-2.0-1.8","5fc423afc5dad58229f0c1c0","5fc423afc5dad58229f0c1c0","63a36e1df1afd18b014794e9","63a385d872a5348c60de328b","rsvp1-task","true","0","","","","","null","<span></span>","null","iti","","","","","","","","","","","","","","",""
"","html-keyboard-response","62","72745","0.0-5.0-2.0-0.9","5fc423afc5dad58229f0c1c0","5fc423afc5dad58229f0c1c0","63a36e1df1afd18b014794e9","63a385d872a5348c60de328b","rsvp1-task","true","0","","","","","null","
					<div style='width: 900px;'>
					<div style='float: center;'><img src=img/nontarget_distractor95.jpeg  ></img>
					</div>
					","null","rsvp1","practice0","","","","","","","","","1","","","","","img/nontarget_distractor95.jpeg"
"","html-keyboard-response","63","72750","0.0-5.0-2.0-1.9","5fc423afc5dad58229f0c1c0","5fc423afc5dad58229f0c1c0","63a36e1df1afd18b014794e9","63a385d872a5348c60de328b","rsvp1-task","true","0","","","","","null","<span></span>","null","iti","","","","","","","","","","","","","","",""
"","html-keyboard-response","64","72856","0.0-5.0-2.0-0.10","5fc423afc5dad58229f0c1c0","5fc423afc5dad58229f0c1c0","63a36e1df1afd18b014794e9","63a385d872a5348c60de328b","rsvp1-task","true","0","","","","","null","
					<div style='width: 900px;'>
					<div style='float: center;'><img src=img/nontarget_distractor197.jpeg  ></img>
					</div>
					","null","rsvp1","practice0","","","","","","","","","1","","","","","img/nontarget_distractor197.jpeg"
"","html-keyboard-response","65","72861","0.0-5.0-2.0-1.10","5fc423afc5dad58229f0c1c0","5fc423afc5dad58229f0c1c0","63a36e1df1afd18b014794e9","63a385d872a5348c60de328b","rsvp1-task","true","0","","","","","null","<span></span>","null","iti","","","","","","","","","","","","","","",""
"","html-keyboard-response","66","72968","0.0-5.0-2.0-0.11","5fc423afc5dad58229f0c1c0","5fc423afc5dad58229f0c1c0","63a36e1df1afd18b014794e9","63a385d872a5348c60de328b","rsvp1-task","true","0","","","","","null","
					<div style='width: 900px;'>
					<div style='float: center;'><img src=img/nontarget_distractor49.jpeg  ></img>
					</div>
					","null","rsvp1","practice0","","","","","","","","","1","","","","","img/nontarget_distractor49.jpeg"
"","html-keyboard-response","67","72973","0.0-5.0-2.0-1.11","5fc423afc5dad58229f0c1c0","5fc423afc5dad58229f0c1c0","63a36e1df1afd18b014794e9","63a385d872a5348c60de328b","rsvp1-task","true","0","","","","","null","<span></span>","null","iti","","","","","","","","","","","","","","",""
"","html-keyboard-response","68","73078","0.0-5.0-2.0-0.12","5fc423afc5dad58229f0c1c0","5fc423afc5dad58229f0c1c0","63a36e1df1afd18b014794e9","63a385d872a5348c60de328b","rsvp1-task","true","0","","","","","null","
					<div style='width: 900px;'>
					<div style='float: center;'><img src=img/nontarget_distractor46.jpeg  ></img>
					</div>
					","null","rsvp1","practice0","","","","","","","","","1","","","","","img/nontarget_distractor46.jpeg"
"","html-keyboard-response","69","73083","0.0-5.0-2.0-1.12","5fc423afc5dad58229f0c1c0","5fc423afc5dad58229f0c1c0","63a36e1df1afd18b014794e9","63a385d872a5348c60de328b","rsvp1-task","true","0","","","","","null","<span></span>","null","iti","","","","","","","","","","","","","","",""
"","html-keyboard-response","70","73189","0.0-5.0-2.0-0.13","5fc423afc5dad58229f0c1c0","5fc423afc5dad58229f0c1c0","63a36e1df1afd18b014794e9","63a385d872a5348c60de328b","rsvp1-task","true","0","","","","","null","
					<div style='width: 900px;'>
					<div style='float: center;'><img src=img/t2_targets161.jpeg class=""rotateimgL""  ></img>
					</div>
					","null","rsvp1","practice0","","","","","","","","","1","","","","","img/t2_targets161.jpeg class=""rotateimgL"""
"","html-keyboard-response","71","73194","0.0-5.0-2.0-1.13","5fc423afc5dad58229f0c1c0","5fc423afc5dad58229f0c1c0","63a36e1df1afd18b014794e9","63a385d872a5348c60de328b","rsvp1-task","true","0","","","","","null","<span></span>","null","iti","","","","","","","","","","","","","","",""
"","html-keyboard-response","72","73300","0.0-5.0-2.0-0.14","5fc423afc5dad58229f0c1c0","5fc423afc5dad58229f0c1c0","63a36e1df1afd18b014794e9","63a385d872a5348c60de328b","rsvp1-task","true","0","","","","","null","
					<div style='width: 900px;'>
					<div style='float: center;'><img src=img/nontarget_distractor188.jpeg  ></img>
					</div>
					","null","rsvp1","practice0","","","","","","","","","1","","","","","img/nontarget_distractor188.jpeg"
"","html-keyboard-response","73","73305","0.0-5.0-2.0-1.14","5fc423afc5dad58229f0c1c0","5fc423afc5dad58229f0c1c0","63a36e1df1afd18b014794e9","63a385d872a5348c60de328b","rsvp1-task","true","0","","","","","null","<span></span>","null","iti","","","","","","","","","","","","","","",""
"","html-keyboard-response","74","73411","0.0-5.0-2.0-0.15","5fc423afc5dad58229f0c1c0","5fc423afc5dad58229f0c1c0","63a36e1df1afd18b014794e9","63a385d872a5348c60de328b","rsvp1-task","true","0","","","","","null","
					<div style='width: 900px;'>
					<div style='float: center;'><img src=img/nontarget_distractor231.jpeg  ></img>
					</div>
					","null","rsvp1","practice0","","","","","","","","","1","","","","","img/nontarget_distractor231.jpeg"
"","html-keyboard-response","75","73416","0.0-5.0-2.0-1.15","5fc423afc5dad58229f0c1c0","5fc423afc5dad58229f0c1c0","63a36e1df1afd18b014794e9","63a385d872a5348c60de328b","rsvp1-task","true","0","","","","","null","<span></span>","null","iti","","","","","","","","","","","","","","",""
"","html-keyboard-response","76","73523","0.0-5.0-2.0-0.16","5fc423afc5dad58229f0c1c0","5fc423afc5dad58229f0c1c0","63a36e1df1afd18b014794e9","63a385d872a5348c60de328b","rsvp1-task","true","0","","","","","null","
					<div style='width: 900px;'>
					<div style='float: center;'><img src=img/nontarget_distractor85.jpeg  ></img>
					</div>
					","null","rsvp1","practice0","","","","","","","","","1","","","","","img/nontarget_distractor85.jpeg"
"","html-keyboard-response","77","73528","0.0-5.0-2.0-1.16","5fc423afc5dad58229f0c1c0","5fc423afc5dad58229f0c1c0","63a36e1df1afd18b014794e9","63a385d872a5348c60de328b","rsvp1-task","true","0","","","","","null","<span></span>","null","iti","","","","","","","","","","","","","","",""
"","html-keyboard-response","78","75201","0.0-5.0-3.0-0.0","5fc423afc5dad58229f0c1c0","5fc423afc5dad58229f0c1c0","63a36e1df1afd18b014794e9","63a385d872a5348c60de328b","rsvp1-task","true","0","","","","","1672","<div class=""rsvp""> Was the rotated image rotated left (1 key) or right (0 key)?</div>","1","response","practice0","1","1","neutral","img/nontarget_distractor189.jpeg","img/nontarget_distractor188.jpeg","8","6","14","1","true","true","true","",""
"","html-keyboard-response","79","76204","0.0-5.0-4.0","5fc423afc5dad58229f0c1c0","5fc423afc5dad58229f0c1c0","63a36e1df1afd18b014794e9","63a385d872a5348c60de328b","rsvp1-task","true","0","","","","","null","Correct! </p> <p>  </p><p> ","null","","","","","","","","","","","","","","","main_T1_ITI",""
"","html-keyboard-response","80","78207","0.0-5.0-5.0","5fc423afc5dad58229f0c1c0","5fc423afc5dad58229f0c1c0","63a36e1df1afd18b014794e9","63a385d872a5348c60de328b","rsvp1-task","true","0","","","","","null","<div class=""rsvp"">+</div>","null","fixation","","","","","","","","","","","","","","",""
"","html-keyboard-response","81","78460","0.0-5.0-6.0","5fc423afc5dad58229f0c1c0","5fc423afc5dad58229f0c1c0","63a36e1df1afd18b014794e9","63a385d872a5348c60de328b","rsvp1-task","true","0","","","","","null","<div class=""rsvp"" ></div>","null","blank","","","","","","","","","","","","","","",""
"","html-keyboard-response","82","78569","0.0-5.0-7.0-0.0","5fc423afc5dad58229f0c1c0","5fc423afc5dad58229f0c1c0","63a36e1df1afd18b014794e9","63a385d872a5348c60de328b","rsvp1-task","true","0","","","","","null","
					<div style='width: 900px;'>
					<div style='float: center;'><img src=img/nontarget_distractor217.jpeg  ></img>
					</div>
					","null","rsvp1","practice0","","","","","","","","","2","","","","","img/nontarget_distractor217.jpeg"
"","html-keyboard-response","83","78570","0.0-5.0-7.0-1.0","5fc423afc5dad58229f0c1c0","5fc423afc5dad58229f0c1c0","63a36e1df1afd18b014794e9","63a385d872a5348c60de328b","rsvp1-task","true","0","","","","","null","<span></span>","null","iti","","","","","","","","","","","","","","",""
"","html-keyboard-response","84","78676","0.0-5.0-7.0-0.1","5fc423afc5dad58229f0c1c0","5fc423afc5dad58229f0c1c0","63a36e1df1afd18b014794e9","63a385d872a5348c60de328b","rsvp1-task","true","0","","","","","null","
					<div style='width: 900px;'>
					<div style='float: center;'><img src=img/nontarget_distractor69.jpeg  ></img>
					</div>
					","null","rsvp1","practice0","","","","","","","","","2","","","","","img/nontarget_distractor69.jpeg"
"","html-keyboard-response","85","78677","0.0-5.0-7.0-1.1","5fc423afc5dad58229f0c1c0","5fc423afc5dad58229f0c1c0","63a36e1df1afd18b014794e9","63a385d872a5348c60de328b","rsvp1-task","true","0","","","","","null","<span></span>","null","iti","","","","","","","","","","","","","","",""
"","html-keyboard-response","86","78785","0.0-5.0-7.0-0.2","5fc423afc5dad58229f0c1c0","5fc423afc5dad58229f0c1c0","63a36e1df1afd18b014794e9","63a385d872a5348c60de328b","rsvp1-task","true","0","","","","","null","
					<div style='width: 900px;'>
					<div style='float: center;'><img src=img/nontarget_distractor144.jpeg  ></img>
					</div>
					","null","rsvp1","practice0","","","","","","","","","2","","","","","img/nontarget_distractor144.jpeg"
"","html-keyboard-response","87","78786","0.0-5.0-7.0-1.2","5fc423afc5dad58229f0c1c0","5fc423afc5dad58229f0c1c0","63a36e1df1afd18b014794e9","63a385d872a5348c60de328b","rsvp1-task","true","0","","","","","null","<span></span>","null","iti","","","","","","","","","","","","","","",""
"","html-keyboard-response","88","78892","0.0-5.0-7.0-0.3","5fc423afc5dad58229f0c1c0","5fc423afc5dad58229f0c1c0","63a36e1df1afd18b014794e9","63a385d872a5348c60de328b","rsvp1-task","true","0","","","","","null","
					<div style='width: 900px;'>
					<div style='float: center;'><img src=img/nontarget_distractor70.jpeg  ></img>
					</div>
					","null","rsvp1","practice0","","","","","","","","","2","","","","","img/nontarget_distractor70.jpeg"
"","html-keyboard-response","89","78897","0.0-5.0-7.0-1.3","5fc423afc5dad58229f0c1c0","5fc423afc5dad58229f0c1c0","63a36e1df1afd18b014794e9","63a385d872a5348c60de328b","rsvp1-task","true","0","","","","","null","<span></span>","null","iti","","","","","","","","","","","","","","",""
"","html-keyboard-response","90","79004","0.0-5.0-7.0-0.4","5fc423afc5dad58229f0c1c0","5fc423afc5dad58229f0c1c0","63a36e1df1afd18b014794e9","63a385d872a5348c60de328b","rsvp1-task","true","0","","","","","null","
					<div style='width: 900px;'>
					<div style='float: center;'><img src=img/nontarget_distractor236.jpeg  ></img>
					</div>
					","null","rsvp1","practice0","","","","","","","","","2","","","","","img/nontarget_distractor236.jpeg"
"","html-keyboard-response","91","79009","0.0-5.0-7.0-1.4","5fc423afc5dad58229f0c1c0","5fc423afc5dad58229f0c1c0","63a36e1df1afd18b014794e9","63a385d872a5348c60de328b","rsvp1-task","true","0","","","","","null","<span></span>","null","iti","","","","","","","","","","","","","","",""
"","html-keyboard-response","92","79115","0.0-5.0-7.0-0.5","5fc423afc5dad58229f0c1c0","5fc423afc5dad58229f0c1c0","63a36e1df1afd18b014794e9","63a385d872a5348c60de328b","rsvp1-task","true","0","","","","","null","
					<div style='width: 900px;'>
					<div style='float: center;'><img src=img/nontarget_distractor227.jpeg  ></img>
					</div>
					","null","rsvp1","practice0","","","","","","","","","2","","","","","img/nontarget_distractor227.jpeg"
"","html-keyboard-response","93","79120","0.0-5.0-7.0-1.5","5fc423afc5dad58229f0c1c0","5fc423afc5dad58229f0c1c0","63a36e1df1afd18b014794e9","63a385d872a5348c60de328b","rsvp1-task","true","0","","","","","null","<span></span>","null","iti","","","","","","","","","","","","","","",""
"","html-keyboard-response","94","79227","0.0-5.0-7.0-0.6","5fc423afc5dad58229f0c1c0","5fc423afc5dad58229f0c1c0","63a36e1df1afd18b014794e9","63a385d872a5348c60de328b","rsvp1-task","true","0","","","","","null","
					<div style='width: 900px;'>
					<div style='float: center;'><img src=img/nontarget_distractor61.jpeg  ></img>
					</div>
					","null","rsvp1","practice0","","","","","","","","","2","","","","","img/nontarget_distractor61.jpeg"
"","html-keyboard-response","95","79232","0.0-5.0-7.0-1.6","5fc423afc5dad58229f0c1c0","5fc423afc5dad58229f0c1c0","63a36e1df1afd18b014794e9","63a385d872a5348c60de328b","rsvp1-task","true","0","","","","","null","<span></span>","null","iti","","","","","","","","","","","","","","",""
"","html-keyboard-response","96","79339","0.0-5.0-7.0-0.7","5fc423afc5dad58229f0c1c0","5fc423afc5dad58229f0c1c0","63a36e1df1afd18b014794e9","63a385d872a5348c60de328b","rsvp1-task","true","0","","","","","null","
					<div style='width: 900px;'>
					<div style='float: center;'><img src=img/nontarget_distractor213.jpeg  ></img>
					</div>
					","null","rsvp1","practice0","","","","","","","","","2","","","","","img/nontarget_distractor213.jpeg"
"","html-keyboard-response","97","79344","0.0-5.0-7.0-1.7","5fc423afc5dad58229f0c1c0","5fc423afc5dad58229f0c1c0","63a36e1df1afd18b014794e9","63a385d872a5348c60de328b","rsvp1-task","true","0","","","","","null","<span></span>","null","iti","","","","","","","","","","","","","","",""
"","html-keyboard-response","98","79450","0.0-5.0-7.0-0.8","5fc423afc5dad58229f0c1c0","5fc423afc5dad58229f0c1c0","63a36e1df1afd18b014794e9","63a385d872a5348c60de328b","rsvp1-task","true","0","","","","","null","
					<div style='width: 900px;'>
					<div style='float: center;'><img src=img/nontarget_distractor36.jpeg  ></img>
					</div>
					","null","rsvp1","practice0","","","","","","","","","2","","","","","img/nontarget_distractor36.jpeg"
"","html-keyboard-response","99","79459","0.0-5.0-7.0-1.8","5fc423afc5dad58229f0c1c0","5fc423afc5dad58229f0c1c0","63a36e1df1afd18b014794e9","63a385d872a5348c60de328b","rsvp1-task","true","0","","","","","null","<span></span>","null","iti","","","","","","","","","","","","","","",""
"","html-keyboard-response","100","79565","0.0-5.0-7.0-0.9","5fc423afc5dad58229f0c1c0","5fc423afc5dad58229f0c1c0","63a36e1df1afd18b014794e9","63a385d872a5348c60de328b","rsvp1-task","true","0","","","","","null","
					<div style='width: 900px;'>
					<div style='float: center;'><img src=img/nontarget_distractor132.jpeg  ></img>
					</div>
					","null","rsvp1","practice0","","","","","","","","","2","","","","","img/nontarget_distractor132.jpeg"
"","html-keyboard-response","101","79570","0.0-5.0-7.0-1.9","5fc423afc5dad58229f0c1c0","5fc423afc5dad58229f0c1c0","63a36e1df1afd18b014794e9","63a385d872a5348c60de328b","rsvp1-task","true","0","","","","","null","<span></span>","null","iti","","","","","","","","","","","","","","",""
"","html-keyboard-response","102","79676","0.0-5.0-7.0-0.10","5fc423afc5dad58229f0c1c0","5fc423afc5dad58229f0c1c0","63a36e1df1afd18b014794e9","63a385d872a5348c60de328b","rsvp1-task","true","0","","","","","null","
					<div style='width: 900px;'>
					<div style='float: center;'><img src=img/nontarget_distractor164.jpeg  ></img>
					</div>
					","null","rsvp1","practice0","","","","","","","","","2","","","","","img/nontarget_distractor164.jpeg"
"","html-keyboard-response","103","79681","0.0-5.0-7.0-1.10","5fc423afc5dad58229f0c1c0","5fc423afc5dad58229f0c1c0","63a36e1df1afd18b014794e9","63a385d872a5348c60de328b","rsvp1-task","true","0","","","","","null","<span></span>","null","iti","","","","","","","","","","","","","","",""
"","html-keyboard-response","104","79788","0.0-5.0-7.0-0.11","5fc423afc5dad58229f0c1c0","5fc423afc5dad58229f0c1c0","63a36e1df1afd18b014794e9","63a385d872a5348c60de328b","rsvp1-task","true","0","","","","","null","
					<div style='width: 900px;'>
					<div style='float: center;'><img src=img/nontarget_distractor230.jpeg  ></img>
					</div>
					","null","rsvp1","practice0","","","","","","","","","2","","","","","img/nontarget_distractor230.jpeg"
"","html-keyboard-response","105","79794","0.0-5.0-7.0-1.11","5fc423afc5dad58229f0c1c0","5fc423afc5dad58229f0c1c0","63a36e1df1afd18b014794e9","63a385d872a5348c60de328b","rsvp1-task","true","0","","","","","null","<span></span>","null","iti","","","","","","","","","","","","","","",""
"","html-keyboard-response","106","79900","0.0-5.0-7.0-0.12","5fc423afc5dad58229f0c1c0","5fc423afc5dad58229f0c1c0","63a36e1df1afd18b014794e9","63a385d872a5348c60de328b","rsvp1-task","true","0","","","","","null","
					<div style='width: 900px;'>
					<div style='float: center;'><img src=img/nontarget_distractor128.jpeg  ></img>
					</div>
					","null","rsvp1","practice0","","","","","","","","","2","","","","","img/nontarget_distractor128.jpeg"
"","html-keyboard-response","107","79905","0.0-5.0-7.0-1.12","5fc423afc5dad58229f0c1c0","5fc423afc5dad58229f0c1c0","63a36e1df1afd18b014794e9","63a385d872a5348c60de328b","rsvp1-task","true","0","","","","","null","<span></span>","null","iti","","","","","","","","","","","","","","",""
"","html-keyboard-response","108","80011","0.0-5.0-7.0-0.13","5fc423afc5dad58229f0c1c0","5fc423afc5dad58229f0c1c0","63a36e1df1afd18b014794e9","63a385d872a5348c60de328b","rsvp1-task","true","0","","","","","null","
					<div style='width: 900px;'>
					<div style='float: center;'><img src=img/nontarget_distractor18.jpeg  ></img>
					</div>
					","null","rsvp1","practice0","","","","","","","","","2","","","","","img/nontarget_distractor18.jpeg"
"","html-keyboard-response","109","80016","0.0-5.0-7.0-1.13","5fc423afc5dad58229f0c1c0","5fc423afc5dad58229f0c1c0","63a36e1df1afd18b014794e9","63a385d872a5348c60de328b","rsvp1-task","true","0","","","","","null","<span></span>","null","iti","","","","","","","","","","","","","","",""
"","html-keyboard-response","110","80124","0.0-5.0-7.0-0.14","5fc423afc5dad58229f0c1c0","5fc423afc5dad58229f0c1c0","63a36e1df1afd18b014794e9","63a385d872a5348c60de328b","rsvp1-task","true","0","","","","","null","
					<div style='width: 900px;'>
					<div style='float: center;'><img src=img/t2_targets168.jpeg class=""rotateimgL""  ></img>
					</div>
					","null","rsvp1","practice0","","","","","","","","","2","","","","","img/t2_targets168.jpeg class=""rotateimgL"""
"","html-keyboard-response","111","80130","0.0-5.0-7.0-1.14","5fc423afc5dad58229f0c1c0","5fc423afc5dad58229f0c1c0","63a36e1df1afd18b014794e9","63a385d872a5348c60de328b","rsvp1-task","true","0","","","","","null","<span></span>","null","iti","","","","","","","","","","","","","","",""
"","html-keyboard-response","112","80236","0.0-5.0-7.0-0.15","5fc423afc5dad58229f0c1c0","5fc423afc5dad58229f0c1c0","63a36e1df1afd18b014794e9","63a385d872a5348c60de328b","rsvp1-task","true","0","","","","","null","
					<div style='width: 900px;'>
					<div style='float: center;'><img src=img/nontarget_distractor43.jpeg  ></img>
					</div>
					","null","rsvp1","practice0","","","","","","","","","2","","","","","img/nontarget_distractor43.jpeg"
"","html-keyboard-response","113","80244","0.0-5.0-7.0-1.15","5fc423afc5dad58229f0c1c0","5fc423afc5dad58229f0c1c0","63a36e1df1afd18b014794e9","63a385d872a5348c60de328b","rsvp1-task","true","0","","","","","null","<span></span>","null","iti","","","","","","","","","","","","","","",""
"","html-keyboard-response","114","80349","0.0-5.0-7.0-0.16","5fc423afc5dad58229f0c1c0","5fc423afc5dad58229f0c1c0","63a36e1df1afd18b014794e9","63a385d872a5348c60de328b","rsvp1-task","true","0","","","","","null","
					<div style='width: 900px;'>
					<div style='float: center;'><img src=img/nontarget_distractor134.jpeg  ></img>
					</div>
					","null","rsvp1","practice0","","","","","","","","","2","","","","","img/nontarget_distractor134.jpeg"
"","html-keyboard-response","115","80354","0.0-5.0-7.0-1.16","5fc423afc5dad58229f0c1c0","5fc423afc5dad58229f0c1c0","63a36e1df1afd18b014794e9","63a385d872a5348c60de328b","rsvp1-task","true","0","","","","","null","<span></span>","null","iti","","","","","","","","","","","","","","",""
"","html-keyboard-response","116","81081","0.0-5.0-8.0-0.0","5fc423afc5dad58229f0c1c0","5fc423afc5dad58229f0c1c0","63a36e1df1afd18b014794e9","63a385d872a5348c60de328b","rsvp1-task","true","0","","","","","724.9999999999854","<div class=""rsvp""> Was the rotated image rotated left (1 key) or right (0 key)?</div>","1","response","practice0","1","1","neutral","img/nontarget_distractor213.jpeg","img/nontarget_distractor43.jpeg","8","7","15","2","true","true","true","",""
"","html-keyboard-response","117","82083","0.0-5.0-9.0","5fc423afc5dad58229f0c1c0","5fc423afc5dad58229f0c1c0","63a36e1df1afd18b014794e9","63a385d872a5348c60de328b","rsvp1-task","true","0","","","","","null","Correct! </p> <p>  </p><p> ","null","","","","","","","","","","","","","","","main_T1_ITI",""
"","html-keyboard-response","118","84085","0.0-5.0-10.0","5fc423afc5dad58229f0c1c0","5fc423afc5dad58229f0c1c0","63a36e1df1afd18b014794e9","63a385d872a5348c60de328b","rsvp1-task","true","0","","","","","null","<div class=""rsvp"">+</div>","null","fixation","","","","","","","","","","","","","","",""
"","html-keyboard-response","119","84337","0.0-5.0-11.0","5fc423afc5dad58229f0c1c0","5fc423afc5dad58229f0c1c0","63a36e1df1afd18b014794e9","63a385d872a5348c60de328b","rsvp1-task","true","0","","","","","null","<div class=""rsvp"" ></div>","null","blank","","","","","","","","","","","","","","",""
"","html-keyboard-response","120","84447","0.0-5.0-12.0-0.0","5fc423afc5dad58229f0c1c0","5fc423afc5dad58229f0c1c0","63a36e1df1afd18b014794e9","63a385d872a5348c60de328b","rsvp1-task","true","0","","","","","null","
					<div style='width: 900px;'>
					<div style='float: center;'><img src=img/nontarget_distractor166.jpeg  ></img>
					</div>
					","null","rsvp1","practice0","","","","","","","","","3","","","","","img/nontarget_distractor166.jpeg"
"","html-keyboard-response","121","84448","0.0-5.0-12.0-1.0","5fc423afc5dad58229f0c1c0","5fc423afc5dad58229f0c1c0","63a36e1df1afd18b014794e9","63a385d872a5348c60de328b","rsvp1-task","true","0","","","","","null","<span></span>","null","iti","","","","","","","","","","","","","","",""
"","html-keyboard-response","122","84555","0.0-5.0-12.0-0.1","5fc423afc5dad58229f0c1c0","5fc423afc5dad58229f0c1c0","63a36e1df1afd18b014794e9","63a385d872a5348c60de328b","rsvp1-task","true","0","","","","","null","
					<div style='width: 900px;'>
					<div style='float: center;'><img src=img/nontarget_distractor248.jpeg  ></img>
					</div>
					","null","rsvp1","practice0","","","","","","","","","3","","","","","img/nontarget_distractor248.jpeg"
"","html-keyboard-response","123","84556","0.0-5.0-12.0-1.1","5fc423afc5dad58229f0c1c0","5fc423afc5dad58229f0c1c0","63a36e1df1afd18b014794e9","63a385d872a5348c60de328b","rsvp1-task","true","0","","","","","null","<span></span>","null","iti","","","","","","","","","","","","","","",""
"","html-keyboard-response","124","84663","0.0-5.0-12.0-0.2","5fc423afc5dad58229f0c1c0","5fc423afc5dad58229f0c1c0","63a36e1df1afd18b014794e9","63a385d872a5348c60de328b","rsvp1-task","true","0","","","","","null","
					<div style='width: 900px;'>
					<div style='float: center;'><img src=img/nontarget_distractor154.jpeg  ></img>
					</div>
					","null","rsvp1","practice0","","","","","","","","","3","","","","","img/nontarget_distractor154.jpeg"
"","html-keyboard-response","125","84664","0.0-5.0-12.0-1.2","5fc423afc5dad58229f0c1c0","5fc423afc5dad58229f0c1c0","63a36e1df1afd18b014794e9","63a385d872a5348c60de328b","rsvp1-task","true","0","","","","","null","<span></span>","null","iti","","","","","","","","","","","","","","",""
"","html-keyboard-response","126","84771","0.0-5.0-12.0-0.3","5fc423afc5dad58229f0c1c0","5fc423afc5dad58229f0c1c0","63a36e1df1afd18b014794e9","63a385d872a5348c60de328b","rsvp1-task","true","0","","","","","null","
					<div style='width: 900px;'>
					<div style='float: center;'><img src=img/nontarget_distractor237.jpeg  ></img>
					</div>
					","null","rsvp1","practice0","","","","","","","","","3","","","","","img/nontarget_distractor237.jpeg"
"","html-keyboard-response","127","84779","0.0-5.0-12.0-1.3","5fc423afc5dad58229f0c1c0","5fc423afc5dad58229f0c1c0","63a36e1df1afd18b014794e9","63a385d872a5348c60de328b","rsvp1-task","true","0","","","","","null","<span></span>","null","iti","","","","","","","","","","","","","","",""
"","html-keyboard-response","128","84884","0.0-5.0-12.0-0.4","5fc423afc5dad58229f0c1c0","5fc423afc5dad58229f0c1c0","63a36e1df1afd18b014794e9","63a385d872a5348c60de328b","rsvp1-task","true","0","","","","","null","
					<div style='width: 900px;'>
					<div style='float: center;'><img src=img/nontarget_distractor79.jpeg  ></img>
					</div>
					","null","rsvp1","practice0","","","","","","","","","3","","","","","img/nontarget_distractor79.jpeg"
"","html-keyboard-response","129","84889","0.0-5.0-12.0-1.4","5fc423afc5dad58229f0c1c0","5fc423afc5dad58229f0c1c0","63a36e1df1afd18b014794e9","63a385d872a5348c60de328b","rsvp1-task","true","0","","","","","null","<span></span>","null","iti","","","","","","","","","","","","","","",""
"","html-keyboard-response","130","84995","0.0-5.0-12.0-0.5","5fc423afc5dad58229f0c1c0","5fc423afc5dad58229f0c1c0","63a36e1df1afd18b014794e9","63a385d872a5348c60de328b","rsvp1-task","true","0","","","","","null","
					<div style='width: 900px;'>
					<div style='float: center;'><img src=img/nontarget_distractor156.jpeg  ></img>
					</div>
					","null","rsvp1","practice0","","","","","","","","","3","","","","","img/nontarget_distractor156.jpeg"
"","html-keyboard-response","131","85000","0.0-5.0-12.0-1.5","5fc423afc5dad58229f0c1c0","5fc423afc5dad58229f0c1c0","63a36e1df1afd18b014794e9","63a385d872a5348c60de328b","rsvp1-task","true","0","","","","","null","<span></span>","null","iti","","","","","","","","","","","","","","",""
"","html-keyboard-response","132","85107","0.0-5.0-12.0-0.6","5fc423afc5dad58229f0c1c0","5fc423afc5dad58229f0c1c0","63a36e1df1afd18b014794e9","63a385d872a5348c60de328b","rsvp1-task","true","0","","","","","null","
					<div style='width: 900px;'>
					<div style='float: center;'><img src=img/nontarget_distractor123.jpeg  ></img>
					</div>
					","null","rsvp1","practice0","","","","","","","","","3","","","","","img/nontarget_distractor123.jpeg"
"","html-keyboard-response","133","85115","0.0-5.0-12.0-1.6","5fc423afc5dad58229f0c1c0","5fc423afc5dad58229f0c1c0","63a36e1df1afd18b014794e9","63a385d872a5348c60de328b","rsvp1-task","true","0","","","","","null","<span></span>","null","iti","","","","","","","","","","","","","","",""
"","html-keyboard-response","134","85221","0.0-5.0-12.0-0.7","5fc423afc5dad58229f0c1c0","5fc423afc5dad58229f0c1c0","63a36e1df1afd18b014794e9","63a385d872a5348c60de328b","rsvp1-task","true","0","","","","","null","
					<div style='width: 900px;'>
					<div style='float: center;'><img src=img/nontarget_distractor85.jpeg  ></img>
					</div>
					","null","rsvp1","practice0","","","","","","","","","3","","","","","img/nontarget_distractor85.jpeg"
"","html-keyboard-response","135","85227","0.0-5.0-12.0-1.7","5fc423afc5dad58229f0c1c0","5fc423afc5dad58229f0c1c0","63a36e1df1afd18b014794e9","63a385d872a5348c60de328b","rsvp1-task","true","0","","","","","null","<span></span>","null","iti","","","","","","","","","","","","","","",""
"","html-keyboard-response","136","85334","0.0-5.0-12.0-0.8","5fc423afc5dad58229f0c1c0","5fc423afc5dad58229f0c1c0","63a36e1df1afd18b014794e9","63a385d872a5348c60de328b","rsvp1-task","true","0","","","","","null","
					<div style='width: 900px;'>
					<div style='float: center;'><img src=img/nontarget_distractor41.jpeg  ></img>
					</div>
					","null","rsvp1","practice0","","","","","","","","","3","","","","","img/nontarget_distractor41.jpeg"
"","html-keyboard-response","137","85341","0.0-5.0-12.0-1.8","5fc423afc5dad58229f0c1c0","5fc423afc5dad58229f0c1c0","63a36e1df1afd18b014794e9","63a385d872a5348c60de328b","rsvp1-task","true","0","","","","","null","<span></span>","null","iti","","","","","","","","","","","","","","",""
"","html-keyboard-response","138","85447","0.0-5.0-12.0-0.9","5fc423afc5dad58229f0c1c0","5fc423afc5dad58229f0c1c0","63a36e1df1afd18b014794e9","63a385d872a5348c60de328b","rsvp1-task","true","0","","","","","null","
					<div style='width: 900px;'>
					<div style='float: center;'><img src=img/t2_targets37.jpeg class=""rotateimgR""  ></img>
					</div>
					","null","rsvp1","practice0","","","","","","","","","3","","","","","img/t2_targets37.jpeg class=""rotateimgR"""
"","html-keyboard-response","139","85453","0.0-5.0-12.0-1.9","5fc423afc5dad58229f0c1c0","5fc423afc5dad58229f0c1c0","63a36e1df1afd18b014794e9","63a385d872a5348c60de328b","rsvp1-task","true","0","","","","","null","<span></span>","null","iti","","","","","","","","","","","","","","",""
"","html-keyboard-response","140","85560","0.0-5.0-12.0-0.10","5fc423afc5dad58229f0c1c0","5fc423afc5dad58229f0c1c0","63a36e1df1afd18b014794e9","63a385d872a5348c60de328b","rsvp1-task","true","0","","","","","null","
					<div style='width: 900px;'>
					<div style='float: center;'><img src=img/nontarget_distractor25.jpeg  ></img>
					</div>
					","null","rsvp1","practice0","","","","","","","","","3","","","","","img/nontarget_distractor25.jpeg"
"","html-keyboard-response","141","85565","0.0-5.0-12.0-1.10","5fc423afc5dad58229f0c1c0","5fc423afc5dad58229f0c1c0","63a36e1df1afd18b014794e9","63a385d872a5348c60de328b","rsvp1-task","true","0","","","","","null","<span></span>","null","iti","","","","","","","","","","","","","","",""
"","html-keyboard-response","142","85672","0.0-5.0-12.0-0.11","5fc423afc5dad58229f0c1c0","5fc423afc5dad58229f0c1c0","63a36e1df1afd18b014794e9","63a385d872a5348c60de328b","rsvp1-task","true","0","","","","","null","
					<div style='width: 900px;'>
					<div style='float: center;'><img src=img/nontarget_distractor164.jpeg  ></img>
					</div>
					","null","rsvp1","practice0","","","","","","","","","3","","","","","img/nontarget_distractor164.jpeg"
"","html-keyboard-response","143","85677","0.0-5.0-12.0-1.11","5fc423afc5dad58229f0c1c0","5fc423afc5dad58229f0c1c0","63a36e1df1afd18b014794e9","63a385d872a5348c60de328b","rsvp1-task","true","0","","","","","null","<span></span>","null","iti","","","","","","","","","","","","","","",""
"","html-keyboard-response","144","85784","0.0-5.0-12.0-0.12","5fc423afc5dad58229f0c1c0","5fc423afc5dad58229f0c1c0","63a36e1df1afd18b014794e9","63a385d872a5348c60de328b","rsvp1-task","true","0","","","","","null","
					<div style='width: 900px;'>
					<div style='float: center;'><img src=img/nontarget_distractor93.jpeg  ></img>
					</div>
					","null","rsvp1","practice0","","","","","","","","","3","","","","","img/nontarget_distractor93.jpeg"
"","html-keyboard-response","145","85789","0.0-5.0-12.0-1.12","5fc423afc5dad58229f0c1c0","5fc423afc5dad58229f0c1c0","63a36e1df1afd18b014794e9","63a385d872a5348c60de328b","rsvp1-task","true","0","","","","","null","<span></span>","null","iti","","","","","","","","","","","","","","",""
"","html-keyboard-response","146","85897","0.0-5.0-12.0-0.13","5fc423afc5dad58229f0c1c0","5fc423afc5dad58229f0c1c0","63a36e1df1afd18b014794e9","63a385d872a5348c60de328b","rsvp1-task","true","0","","","","","null","
					<div style='width: 900px;'>
					<div style='float: center;'><img src=img/nontarget_distractor77.jpeg  ></img>
					</div>
					","null","rsvp1","practice0","","","","","","","","","3","","","","","img/nontarget_distractor77.jpeg"
"","html-keyboard-response","147","85903","0.0-5.0-12.0-1.13","5fc423afc5dad58229f0c1c0","5fc423afc5dad58229f0c1c0","63a36e1df1afd18b014794e9","63a385d872a5348c60de328b","rsvp1-task","true","0","","","","","null","<span></span>","null","iti","","","","","","","","","","","","","","",""
"","html-keyboard-response","148","86009","0.0-5.0-12.0-0.14","5fc423afc5dad58229f0c1c0","5fc423afc5dad58229f0c1c0","63a36e1df1afd18b014794e9","63a385d872a5348c60de328b","rsvp1-task","true","0","","","","","null","
					<div style='width: 900px;'>
					<div style='float: center;'><img src=img/nontarget_distractor120.jpeg  ></img>
					</div>
					","null","rsvp1","practice0","","","","","","","","","3","","","","","img/nontarget_distractor120.jpeg"
"","html-keyboard-response","149","86014","0.0-5.0-12.0-1.14","5fc423afc5dad58229f0c1c0","5fc423afc5dad58229f0c1c0","63a36e1df1afd18b014794e9","63a385d872a5348c60de328b","rsvp1-task","true","0","","","","","null","<span></span>","null","iti","","","","","","","","","","","","","","",""
"","html-keyboard-response","150","86121","0.0-5.0-12.0-0.15","5fc423afc5dad58229f0c1c0","5fc423afc5dad58229f0c1c0","63a36e1df1afd18b014794e9","63a385d872a5348c60de328b","rsvp1-task","true","0","","","","","null","
					<div style='width: 900px;'>
					<div style='float: center;'><img src=img/nontarget_distractor247.jpeg  ></img>
					</div>
					","null","rsvp1","practice0","","","","","","","","","3","","","","","img/nontarget_distractor247.jpeg"
"","html-keyboard-response","151","86126","0.0-5.0-12.0-1.15","5fc423afc5dad58229f0c1c0","5fc423afc5dad58229f0c1c0","63a36e1df1afd18b014794e9","63a385d872a5348c60de328b","rsvp1-task","true","0","","","","","null","<span></span>","null","iti","","","","","","","","","","","","","","",""
"","html-keyboard-response","152","86232","0.0-5.0-12.0-0.16","5fc423afc5dad58229f0c1c0","5fc423afc5dad58229f0c1c0","63a36e1df1afd18b014794e9","63a385d872a5348c60de328b","rsvp1-task","true","0","","","","","null","
					<div style='width: 900px;'>
					<div style='float: center;'><img src=img/nontarget_distractor116.jpeg  ></img>
					</div>
					","null","rsvp1","practice0","","","","","","","","","3","","","","","img/nontarget_distractor116.jpeg"
"","html-keyboard-response","153","86237","0.0-5.0-12.0-1.16","5fc423afc5dad58229f0c1c0","5fc423afc5dad58229f0c1c0","63a36e1df1afd18b014794e9","63a385d872a5348c60de328b","rsvp1-task","true","0","","","","","null","<span></span>","null","iti","","","","","","","","","","","","","","",""
"","html-keyboard-response","154","86722","0.0-5.0-13.0-0.0","5fc423afc5dad58229f0c1c0","5fc423afc5dad58229f0c1c0","63a36e1df1afd18b014794e9","63a385d872a5348c60de328b","rsvp1-task","true","0","","","","","483.00000000001455","<div class=""rsvp""> Was the rotated image rotated left (1 key) or right (0 key)?</div>","0","response","practice0","0","0","neutral","img/nontarget_distractor85.jpeg","img/nontarget_distractor25.jpeg","8","2","10","3","true","true","true","",""
"","html-keyboard-response","155","87726","0.0-5.0-14.0","5fc423afc5dad58229f0c1c0","5fc423afc5dad58229f0c1c0","63a36e1df1afd18b014794e9","63a385d872a5348c60de328b","rsvp1-task","true","0","","","","","null","Correct! </p> <p>  </p><p> ","null","","","","","","","","","","","","","","","main_T1_ITI",""
"","html-keyboard-response","156","89729","0.0-5.0-15.0","5fc423afc5dad58229f0c1c0","5fc423afc5dad58229f0c1c0","63a36e1df1afd18b014794e9","63a385d872a5348c60de328b","rsvp1-task","true","0","","","","","null","<div class=""rsvp"">+</div>","null","fixation","","","","","","","","","","","","","","",""
"","html-keyboard-response","157","89981","0.0-5.0-16.0","5fc423afc5dad58229f0c1c0","5fc423afc5dad58229f0c1c0","63a36e1df1afd18b014794e9","63a385d872a5348c60de328b","rsvp1-task","true","0","","","","","null","<div class=""rsvp"" ></div>","null","blank","","","","","","","","","","","","","","",""
"","html-keyboard-response","158","90091","0.0-5.0-17.0-0.0","5fc423afc5dad58229f0c1c0","5fc423afc5dad58229f0c1c0","63a36e1df1afd18b014794e9","63a385d872a5348c60de328b","rsvp1-task","true","0","","","","","null","
					<div style='width: 900px;'>
					<div style='float: center;'><img src=img/nontarget_distractor130.jpeg  ></img>
					</div>
					","null","rsvp1","practice0","","","","","","","","","4","","","","","img/nontarget_distractor130.jpeg"
"","html-keyboard-response","159","90092","0.0-5.0-17.0-1.0","5fc423afc5dad58229f0c1c0","5fc423afc5dad58229f0c1c0","63a36e1df1afd18b014794e9","63a385d872a5348c60de328b","rsvp1-task","true","0","","","","","null","<span></span>","null","iti","","","","","","","","","","","","","","",""
"","html-keyboard-response","160","90199","0.0-5.0-17.0-0.1","5fc423afc5dad58229f0c1c0","5fc423afc5dad58229f0c1c0","63a36e1df1afd18b014794e9","63a385d872a5348c60de328b","rsvp1-task","true","0","","","","","null","
					<div style='width: 900px;'>
					<div style='float: center;'><img src=img/nontarget_distractor97.jpeg  ></img>
					</div>
					","null","rsvp1","practice0","","","","","","","","","4","","","","","img/nontarget_distractor97.jpeg"
"","html-keyboard-response","161","90200","0.0-5.0-17.0-1.1","5fc423afc5dad58229f0c1c0","5fc423afc5dad58229f0c1c0","63a36e1df1afd18b014794e9","63a385d872a5348c60de328b","rsvp1-task","true","0","","","","","null","<span></span>","null","iti","","","","","","","","","","","","","","",""
"","html-keyboard-response","162","90307","0.0-5.0-17.0-0.2","5fc423afc5dad58229f0c1c0","5fc423afc5dad58229f0c1c0","63a36e1df1afd18b014794e9","63a385d872a5348c60de328b","rsvp1-task","true","0","","","","","null","
					<div style='width: 900px;'>
					<div style='float: center;'><img src=img/nontarget_distractor30.jpeg  ></img>
					</div>
					","null","rsvp1","practice0","","","","","","","","","4","","","","","img/nontarget_distractor30.jpeg"
"","html-keyboard-response","163","90309","0.0-5.0-17.0-1.2","5fc423afc5dad58229f0c1c0","5fc423afc5dad58229f0c1c0","63a36e1df1afd18b014794e9","63a385d872a5348c60de328b","rsvp1-task","true","0","","","","","null","<span></span>","null","iti","","","","","","","","","","","","","","",""
"","html-keyboard-response","164","90416","0.0-5.0-17.0-0.3","5fc423afc5dad58229f0c1c0","5fc423afc5dad58229f0c1c0","63a36e1df1afd18b014794e9","63a385d872a5348c60de328b","rsvp1-task","true","0","","","","","null","
					<div style='width: 900px;'>
					<div style='float: center;'><img src=img/nontarget_distractor87.jpeg  ></img>
					</div>
					","null","rsvp1","practice0","","","","","","","","","4","","","","","img/nontarget_distractor87.jpeg"
"","html-keyboard-response","165","90421","0.0-5.0-17.0-1.3","5fc423afc5dad58229f0c1c0","5fc423afc5dad58229f0c1c0","63a36e1df1afd18b014794e9","63a385d872a5348c60de328b","rsvp1-task","true","0","","","","","null","<span></span>","null","iti","","","","","","","","","","","","","","",""
"","html-keyboard-response","166","90527","0.0-5.0-17.0-0.4","5fc423afc5dad58229f0c1c0","5fc423afc5dad58229f0c1c0","63a36e1df1afd18b014794e9","63a385d872a5348c60de328b","rsvp1-task","true","0","","","","","null","
					<div style='width: 900px;'>
					<div style='float: center;'><img src=img/nontarget_distractor245.jpeg  ></img>
					</div>
					","null","rsvp1","practice0","","","","","","","","","4","","","","","img/nontarget_distractor245.jpeg"
"","html-keyboard-response","167","90532","0.0-5.0-17.0-1.4","5fc423afc5dad58229f0c1c0","5fc423afc5dad58229f0c1c0","63a36e1df1afd18b014794e9","63a385d872a5348c60de328b","rsvp1-task","true","0","","","","","null","<span></span>","null","iti","","","","","","","","","","","","","","",""
"","html-keyboard-response","168","90639","0.0-5.0-17.0-0.5","5fc423afc5dad58229f0c1c0","5fc423afc5dad58229f0c1c0","63a36e1df1afd18b014794e9","63a385d872a5348c60de328b","rsvp1-task","true","0","","","","","null","
					<div style='width: 900px;'>
					<div style='float: center;'><img src=img/nontarget_distractor85.jpeg  ></img>
					</div>
					","null","rsvp1","practice0","","","","","","","","","4","","","","","img/nontarget_distractor85.jpeg"
"","html-keyboard-response","169","90644","0.0-5.0-17.0-1.5","5fc423afc5dad58229f0c1c0","5fc423afc5dad58229f0c1c0","63a36e1df1afd18b014794e9","63a385d872a5348c60de328b","rsvp1-task","true","0","","","","","null","<span></span>","null","iti","","","","","","","","","","","","","","",""
"","html-keyboard-response","170","90751","0.0-5.0-17.0-0.6","5fc423afc5dad58229f0c1c0","5fc423afc5dad58229f0c1c0","63a36e1df1afd18b014794e9","63a385d872a5348c60de328b","rsvp1-task","true","0","","","","","null","
					<div style='width: 900px;'>
					<div style='float: center;'><img src=img/nontarget_distractor255.jpeg  ></img>
					</div>
					","null","rsvp1","practice0","","","","","","","","","4","","","","","img/nontarget_distractor255.jpeg"
"","html-keyboard-response","171","90756","0.0-5.0-17.0-1.6","5fc423afc5dad58229f0c1c0","5fc423afc5dad58229f0c1c0","63a36e1df1afd18b014794e9","63a385d872a5348c60de328b","rsvp1-task","true","0","","","","","null","<span></span>","null","iti","","","","","","","","","","","","","","",""
"","html-keyboard-response","172","90863","0.0-5.0-17.0-0.7","5fc423afc5dad58229f0c1c0","5fc423afc5dad58229f0c1c0","63a36e1df1afd18b014794e9","63a385d872a5348c60de328b","rsvp1-task","true","0","","","","","null","
					<div style='width: 900px;'>
					<div style='float: center;'><img src=img/nontarget_distractor71.jpeg  ></img>
					</div>
					","null","rsvp1","practice0","","","","","","","","","4","","","","","img/nontarget_distractor71.jpeg"
"","html-keyboard-response","173","90869","0.0-5.0-17.0-1.7","5fc423afc5dad58229f0c1c0","5fc423afc5dad58229f0c1c0","63a36e1df1afd18b014794e9","63a385d872a5348c60de328b","rsvp1-task","true","0","","","","","null","<span></span>","null","iti","","","","","","","","","","","","","","",""
"","html-keyboard-response","174","90976","0.0-5.0-17.0-0.8","5fc423afc5dad58229f0c1c0","5fc423afc5dad58229f0c1c0","63a36e1df1afd18b014794e9","63a385d872a5348c60de328b","rsvp1-task","true","0","","","","","null","
					<div style='width: 900px;'>
					<div style='float: center;'><img src=img/nontarget_distractor252.jpeg  ></img>
					</div>
					","null","rsvp1","practice0","","","","","","","","","4","","","","","img/nontarget_distractor252.jpeg"
"","html-keyboard-response","175","90981","0.0-5.0-17.0-1.8","5fc423afc5dad58229f0c1c0","5fc423afc5dad58229f0c1c0","63a36e1df1afd18b014794e9","63a385d872a5348c60de328b","rsvp1-task","true","0","","","","","null","<span></span>","null","iti","","","","","","","","","","","","","","",""
"","html-keyboard-response","176","91089","0.0-5.0-17.0-0.9","5fc423afc5dad58229f0c1c0","5fc423afc5dad58229f0c1c0","63a36e1df1afd18b014794e9","63a385d872a5348c60de328b","rsvp1-task","true","0","","","","","null","
					<div style='width: 900px;'>
					<div style='float: center;'><img src=img/nontarget_distractor124.jpeg  ></img>
					</div>
					","null","rsvp1","practice0","","","","","","","","","4","","","","","img/nontarget_distractor124.jpeg"
"","html-keyboard-response","177","91094","0.0-5.0-17.0-1.9","5fc423afc5dad58229f0c1c0","5fc423afc5dad58229f0c1c0","63a36e1df1afd18b014794e9","63a385d872a5348c60de328b","rsvp1-task","true","0","","","","","null","<span></span>","null","iti","","","","","","","","","","","","","","",""
"","html-keyboard-response","178","91200","0.0-5.0-17.0-0.10","5fc423afc5dad58229f0c1c0","5fc423afc5dad58229f0c1c0","63a36e1df1afd18b014794e9","63a385d872a5348c60de328b","rsvp1-task","true","0","","","","","null","
					<div style='width: 900px;'>
					<div style='float: center;'><img src=img/nontarget_distractor20.jpeg  ></img>
					</div>
					","null","rsvp1","practice0","","","","","","","","","4","","","","","img/nontarget_distractor20.jpeg"
"","html-keyboard-response","179","91205","0.0-5.0-17.0-1.10","5fc423afc5dad58229f0c1c0","5fc423afc5dad58229f0c1c0","63a36e1df1afd18b014794e9","63a385d872a5348c60de328b","rsvp1-task","true","0","","","","","null","<span></span>","null","iti","","","","","","","","","","","","","","",""
"","html-keyboard-response","180","91312","0.0-5.0-17.0-0.11","5fc423afc5dad58229f0c1c0","5fc423afc5dad58229f0c1c0","63a36e1df1afd18b014794e9","63a385d872a5348c60de328b","rsvp1-task","true","0","","","","","null","
					<div style='width: 900px;'>
					<div style='float: center;'><img src=img/nontarget_distractor86.jpeg  ></img>
					</div>
					","null","rsvp1","practice0","","","","","","","","","4","","","","","img/nontarget_distractor86.jpeg"
"","html-keyboard-response","181","91318","0.0-5.0-17.0-1.11","5fc423afc5dad58229f0c1c0","5fc423afc5dad58229f0c1c0","63a36e1df1afd18b014794e9","63a385d872a5348c60de328b","rsvp1-task","true","0","","","","","null","<span></span>","null","iti","","","","","","","","","","","","","","",""
"","html-keyboard-response","182","91424","0.0-5.0-17.0-0.12","5fc423afc5dad58229f0c1c0","5fc423afc5dad58229f0c1c0","63a36e1df1afd18b014794e9","63a385d872a5348c60de328b","rsvp1-task","true","0","","","","","null","
					<div style='width: 900px;'>
					<div style='float: center;'><img src=img/nontarget_distractor189.jpeg  ></img>
					</div>
					","null","rsvp1","practice0","","","","","","","","","4","","","","","img/nontarget_distractor189.jpeg"
"","html-keyboard-response","183","91430","0.0-5.0-17.0-1.12","5fc423afc5dad58229f0c1c0","5fc423afc5dad58229f0c1c0","63a36e1df1afd18b014794e9","63a385d872a5348c60de328b","rsvp1-task","true","0","","","","","null","<span></span>","null","iti","","","","","","","","","","","","","","",""
"","html-keyboard-response","184","91536","0.0-5.0-17.0-0.13","5fc423afc5dad58229f0c1c0","5fc423afc5dad58229f0c1c0","63a36e1df1afd18b014794e9","63a385d872a5348c60de328b","rsvp1-task","true","0","","","","","null","
					<div style='width: 900px;'>
					<div style='float: center;'><img src=img/nontarget_distractor229.jpeg  ></img>
					</div>
					","null","rsvp1","practice0","","","","","","","","","4","","","","","img/nontarget_distractor229.jpeg"
"","html-keyboard-response","185","91541","0.0-5.0-17.0-1.13","5fc423afc5dad58229f0c1c0","5fc423afc5dad58229f0c1c0","63a36e1df1afd18b014794e9","63a385d872a5348c60de328b","rsvp1-task","true","0","","","","","null","<span></span>","null","iti","","","","","","","","","","","","","","",""
"","html-keyboard-response","186","91647","0.0-5.0-17.0-0.14","5fc423afc5dad58229f0c1c0","5fc423afc5dad58229f0c1c0","63a36e1df1afd18b014794e9","63a385d872a5348c60de328b","rsvp1-task","true","0","","","","","null","
					<div style='width: 900px;'>
					<div style='float: center;'><img src=img/t2_targets66.jpeg class=""rotateimgR""  ></img>
					</div>
					","null","rsvp1","practice0","","","","","","","","","4","","","","","img/t2_targets66.jpeg class=""rotateimgR"""
"","html-keyboard-response","187","91653","0.0-5.0-17.0-1.14","5fc423afc5dad58229f0c1c0","5fc423afc5dad58229f0c1c0","63a36e1df1afd18b014794e9","63a385d872a5348c60de328b","rsvp1-task","true","0","","","","","null","<span></span>","null","iti","","","","","","","","","","","","","","",""
"","html-keyboard-response","188","91760","0.0-5.0-17.0-0.15","5fc423afc5dad58229f0c1c0","5fc423afc5dad58229f0c1c0","63a36e1df1afd18b014794e9","63a385d872a5348c60de328b","rsvp1-task","true","0","","","","","null","
					<div style='width: 900px;'>
					<div style='float: center;'><img src=img/nontarget_distractor32.jpeg  ></img>
					</div>
					","null","rsvp1","practice0","","","","","","","","","4","","","","","img/nontarget_distractor32.jpeg"
"","html-keyboard-response","189","91765","0.0-5.0-17.0-1.15","5fc423afc5dad58229f0c1c0","5fc423afc5dad58229f0c1c0","63a36e1df1afd18b014794e9","63a385d872a5348c60de328b","rsvp1-task","true","0","","","","","null","<span></span>","null","iti","","","","","","","","","","","","","","",""
"","html-keyboard-response","190","91871","0.0-5.0-17.0-0.16","5fc423afc5dad58229f0c1c0","5fc423afc5dad58229f0c1c0","63a36e1df1afd18b014794e9","63a385d872a5348c60de328b","rsvp1-task","true","0","","","","","null","
					<div style='width: 900px;'>
					<div style='float: center;'><img src=img/nontarget_distractor175.jpeg  ></img>
					</div>
					","null","rsvp1","practice0","","","","","","","","","4","","","","","img/nontarget_distractor175.jpeg"
"","html-keyboard-response","191","91876","0.0-5.0-17.0-1.16","5fc423afc5dad58229f0c1c0","5fc423afc5dad58229f0c1c0","63a36e1df1afd18b014794e9","63a385d872a5348c60de328b","rsvp1-task","true","0","","","","","null","<span></span>","null","iti","","","","","","","","","","","","","","",""
"","html-keyboard-response","192","93029","0.0-5.0-18.0-0.0","5fc423afc5dad58229f0c1c0","5fc423afc5dad58229f0c1c0","63a36e1df1afd18b014794e9","63a385d872a5348c60de328b","rsvp1-task","true","0","","","","","1152.9999999999854","<div class=""rsvp""> Was the rotated image rotated left (1 key) or right (0 key)?</div>","0","response","practice0","0","0","neutral","img/nontarget_distractor71.jpeg","img/nontarget_distractor32.jpeg","8","7","15","4","true","true","true","",""
"","html-keyboard-response","193","94032","0.0-5.0-19.0","5fc423afc5dad58229f0c1c0","5fc423afc5dad58229f0c1c0","63a36e1df1afd18b014794e9","63a385d872a5348c60de328b","rsvp1-task","true","0","","","","","null","Correct! </p> <p>  </p><p> ","null","","","","","","","","","","","","","","","main_T1_ITI",""
"","html-keyboard-response","194","96035","0.0-5.0-20.0","5fc423afc5dad58229f0c1c0","5fc423afc5dad58229f0c1c0","63a36e1df1afd18b014794e9","63a385d872a5348c60de328b","rsvp1-task","true","0","","","","","null","<div class=""rsvp"">+</div>","null","fixation","","","","","","","","","","","","","","",""
"","html-keyboard-response","195","96287","0.0-5.0-21.0","5fc423afc5dad58229f0c1c0","5fc423afc5dad58229f0c1c0","63a36e1df1afd18b014794e9","63a385d872a5348c60de328b","rsvp1-task","true","0","","","","","null","<div class=""rsvp"" ></div>","null","blank","","","","","","","","","","","","","","",""
"","html-keyboard-response","196","96395","0.0-5.0-22.0-0.0","5fc423afc5dad58229f0c1c0","5fc423afc5dad58229f0c1c0","63a36e1df1afd18b014794e9","63a385d872a5348c60de328b","rsvp1-task","true","0","","","","","null","
					<div style='width: 900px;'>
					<div style='float: center;'><img src=img/nontarget_distractor173.jpeg  ></img>
					</div>
					","null","rsvp1","practice0","","","","","","","","","5","","","","","img/nontarget_distractor173.jpeg"
"","html-keyboard-response","197","96396","0.0-5.0-22.0-1.0","5fc423afc5dad58229f0c1c0","5fc423afc5dad58229f0c1c0","63a36e1df1afd18b014794e9","63a385d872a5348c60de328b","rsvp1-task","true","0","","","","","null","<span></span>","null","iti","","","","","","","","","","","","","","",""
"","html-keyboard-response","198","96502","0.0-5.0-22.0-0.1","5fc423afc5dad58229f0c1c0","5fc423afc5dad58229f0c1c0","63a36e1df1afd18b014794e9","63a385d872a5348c60de328b","rsvp1-task","true","0","","","","","null","
					<div style='width: 900px;'>
					<div style='float: center;'><img src=img/nontarget_distractor245.jpeg  ></img>
					</div>
					","null","rsvp1","practice0","","","","","","","","","5","","","","","img/nontarget_distractor245.jpeg"
"","html-keyboard-response","199","96503","0.0-5.0-22.0-1.1","5fc423afc5dad58229f0c1c0","5fc423afc5dad58229f0c1c0","63a36e1df1afd18b014794e9","63a385d872a5348c60de328b","rsvp1-task","true","0","","","","","null","<span></span>","null","iti","","","","","","","","","","","","","","",""
"","html-keyboard-response","200","96610","0.0-5.0-22.0-0.2","5fc423afc5dad58229f0c1c0","5fc423afc5dad58229f0c1c0","63a36e1df1afd18b014794e9","63a385d872a5348c60de328b","rsvp1-task","true","0","","","","","null","
					<div style='width: 900px;'>
					<div style='float: center;'><img src=img/nontarget_distractor252.jpeg  ></img>
					</div>
					","null","rsvp1","practice0","","","","","","","","","5","","","","","img/nontarget_distractor252.jpeg"
"","html-keyboard-response","201","96611","0.0-5.0-22.0-1.2","5fc423afc5dad58229f0c1c0","5fc423afc5dad58229f0c1c0","63a36e1df1afd18b014794e9","63a385d872a5348c60de328b","rsvp1-task","true","0","","","","","null","<span></span>","null","iti","","","","","","","","","","","","","","",""
"","html-keyboard-response","202","96717","0.0-5.0-22.0-0.3","5fc423afc5dad58229f0c1c0","5fc423afc5dad58229f0c1c0","63a36e1df1afd18b014794e9","63a385d872a5348c60de328b","rsvp1-task","true","0","","","","","null","
					<div style='width: 900px;'>
					<div style='float: center;'><img src=img/nontarget_distractor226.jpeg  ></img>
					</div>
					","null","rsvp1","practice0","","","","","","","","","5","","","","","img/nontarget_distractor226.jpeg"
"","html-keyboard-response","203","96722","0.0-5.0-22.0-1.3","5fc423afc5dad58229f0c1c0","5fc423afc5dad58229f0c1c0","63a36e1df1afd18b014794e9","63a385d872a5348c60de328b","rsvp1-task","true","0","","","","","null","<span></span>","null","iti","","","","","","","","","","","","","","",""
"","html-keyboard-response","204","96829","0.0-5.0-22.0-0.4","5fc423afc5dad58229f0c1c0","5fc423afc5dad58229f0c1c0","63a36e1df1afd18b014794e9","63a385d872a5348c60de328b","rsvp1-task","true","0","","","","","null","
					<div style='width: 900px;'>
					<div style='float: center;'><img src=img/nontarget_distractor35.jpeg  ></img>
					</div>
					","null","rsvp1","practice0","","","","","","","","","5","","","","","img/nontarget_distractor35.jpeg"
"","html-keyboard-response","205","96836","0.0-5.0-22.0-1.4","5fc423afc5dad58229f0c1c0","5fc423afc5dad58229f0c1c0","63a36e1df1afd18b014794e9","63a385d872a5348c60de328b","rsvp1-task","true","0","","","","","null","<span></span>","null","iti","","","","","","","","","","","","","","",""
"","html-keyboard-response","206","96942","0.0-5.0-22.0-0.5","5fc423afc5dad58229f0c1c0","5fc423afc5dad58229f0c1c0","63a36e1df1afd18b014794e9","63a385d872a5348c60de328b","rsvp1-task","true","0","","","","","null","
					<div style='width: 900px;'>
					<div style='float: center;'><img src=img/nontarget_distractor202.jpeg  ></img>
					</div>
					","null","rsvp1","practice0","","","","","","","","","5","","","","","img/nontarget_distractor202.jpeg"
"","html-keyboard-response","207","96948","0.0-5.0-22.0-1.5","5fc423afc5dad58229f0c1c0","5fc423afc5dad58229f0c1c0","63a36e1df1afd18b014794e9","63a385d872a5348c60de328b","rsvp1-task","true","0","","","","","null","<span></span>","null","iti","","","","","","","","","","","","","","",""
"","html-keyboard-response","208","97052","0.0-5.0-22.0-0.6","5fc423afc5dad58229f0c1c0","5fc423afc5dad58229f0c1c0","63a36e1df1afd18b014794e9","63a385d872a5348c60de328b","rsvp1-task","true","0","","","","","null","
					<div style='width: 900px;'>
					<div style='float: center;'><img src=img/nontarget_distractor223.jpeg  ></img>
					</div>
					","null","rsvp1","practice0","","","","","","","","","5","","","","","img/nontarget_distractor223.jpeg"
"","html-keyboard-response","209","97059","0.0-5.0-22.0-1.6","5fc423afc5dad58229f0c1c0","5fc423afc5dad58229f0c1c0","63a36e1df1afd18b014794e9","63a385d872a5348c60de328b","rsvp1-task","true","0","","","","","null","<span></span>","null","iti","","","","","","","","","","","","","","",""
"","html-keyboard-response","210","97165","0.0-5.0-22.0-0.7","5fc423afc5dad58229f0c1c0","5fc423afc5dad58229f0c1c0","63a36e1df1afd18b014794e9","63a385d872a5348c60de328b","rsvp1-task","true","0","","","","","null","
					<div style='width: 900px;'>
					<div style='float: center;'><img src=img/nontarget_distractor42.jpeg  ></img>
					</div>
					","null","rsvp1","practice0","","","","","","","","","5","","","","","img/nontarget_distractor42.jpeg"
"","html-keyboard-response","211","97170","0.0-5.0-22.0-1.7","5fc423afc5dad58229f0c1c0","5fc423afc5dad58229f0c1c0","63a36e1df1afd18b014794e9","63a385d872a5348c60de328b","rsvp1-task","true","0","","","","","null","<span></span>","null","iti","","","","","","","","","","","","","","",""
"","html-keyboard-response","212","97277","0.0-5.0-22.0-0.8","5fc423afc5dad58229f0c1c0","5fc423afc5dad58229f0c1c0","63a36e1df1afd18b014794e9","63a385d872a5348c60de328b","rsvp1-task","true","0","","","","","null","
					<div style='width: 900px;'>
					<div style='float: center;'><img src=img/nontarget_distractor148.jpeg  ></img>
					</div>
					","null","rsvp1","practice0","","","","","","","","","5","","","","","img/nontarget_distractor148.jpeg"
"","html-keyboard-response","213","97282","0.0-5.0-22.0-1.8","5fc423afc5dad58229f0c1c0","5fc423afc5dad58229f0c1c0","63a36e1df1afd18b014794e9","63a385d872a5348c60de328b","rsvp1-task","true","0","","","","","null","<span></span>","null","iti","","","","","","","","","","","","","","",""
"","html-keyboard-response","214","97388","0.0-5.0-22.0-0.9","5fc423afc5dad58229f0c1c0","5fc423afc5dad58229f0c1c0","63a36e1df1afd18b014794e9","63a385d872a5348c60de328b","rsvp1-task","true","0","","","","","null","
					<div style='width: 900px;'>
					<div style='float: center;'><img src=img/nontarget_distractor10.jpeg  ></img>
					</div>
					","null","rsvp1","practice0","","","","","","","","","5","","","","","img/nontarget_distractor10.jpeg"
"","html-keyboard-response","215","97393","0.0-5.0-22.0-1.9","5fc423afc5dad58229f0c1c0","5fc423afc5dad58229f0c1c0","63a36e1df1afd18b014794e9","63a385d872a5348c60de328b","rsvp1-task","true","0","","","","","null","<span></span>","null","iti","","","","","","","","","","","","","","",""
"","html-keyboard-response","216","97498","0.0-5.0-22.0-0.10","5fc423afc5dad58229f0c1c0","5fc423afc5dad58229f0c1c0","63a36e1df1afd18b014794e9","63a385d872a5348c60de328b","rsvp1-task","true","0","","","","","null","
					<div style='width: 900px;'>
					<div style='float: center;'><img src=img/nontarget_distractor196.jpeg  ></img>
					</div>
					","null","rsvp1","practice0","","","","","","","","","5","","","","","img/nontarget_distractor196.jpeg"
"","html-keyboard-response","217","97503","0.0-5.0-22.0-1.10","5fc423afc5dad58229f0c1c0","5fc423afc5dad58229f0c1c0","63a36e1df1afd18b014794e9","63a385d872a5348c60de328b","rsvp1-task","true","0","","","","","null","<span></span>","null","iti","","","","","","","","","","","","","","",""
"","html-keyboard-response","218","97611","0.0-5.0-22.0-0.11","5fc423afc5dad58229f0c1c0","5fc423afc5dad58229f0c1c0","63a36e1df1afd18b014794e9","63a385d872a5348c60de328b","rsvp1-task","true","0","","","","","null","
					<div style='width: 900px;'>
					<div style='float: center;'><img src=img/t2_targets138.jpeg class=""rotateimgR""  ></img>
					</div>
					","null","rsvp1","practice0","","","","","","","","","5","","","","","img/t2_targets138.jpeg class=""rotateimgR"""
"","html-keyboard-response","219","97616","0.0-5.0-22.0-1.11","5fc423afc5dad58229f0c1c0","5fc423afc5dad58229f0c1c0","63a36e1df1afd18b014794e9","63a385d872a5348c60de328b","rsvp1-task","true","0","","","","","null","<span></span>","null","iti","","","","","","","","","","","","","","",""
"","html-keyboard-response","220","97724","0.0-5.0-22.0-0.12","5fc423afc5dad58229f0c1c0","5fc423afc5dad58229f0c1c0","63a36e1df1afd18b014794e9","63a385d872a5348c60de328b","rsvp1-task","true","0","","","","","null","
					<div style='width: 900px;'>
					<div style='float: center;'><img src=img/nontarget_distractor163.jpeg  ></img>
					</div>
					","null","rsvp1","practice0","","","","","","","","","5","","","","","img/nontarget_distractor163.jpeg"
"","html-keyboard-response","221","97729","0.0-5.0-22.0-1.12","5fc423afc5dad58229f0c1c0","5fc423afc5dad58229f0c1c0","63a36e1df1afd18b014794e9","63a385d872a5348c60de328b","rsvp1-task","true","0","","","","","null","<span></span>","null","iti","","","","","","","","","","","","","","",""
"","html-keyboard-response","222","97836","0.0-5.0-22.0-0.13","5fc423afc5dad58229f0c1c0","5fc423afc5dad58229f0c1c0","63a36e1df1afd18b014794e9","63a385d872a5348c60de328b","rsvp1-task","true","0","","","","","null","
					<div style='width: 900px;'>
					<div style='float: center;'><img src=img/nontarget_distractor209.jpeg  ></img>
					</div>
					","null","rsvp1","practice0","","","","","","","","","5","","","","","img/nontarget_distractor209.jpeg"
"","html-keyboard-response","223","97843","0.0-5.0-22.0-1.13","5fc423afc5dad58229f0c1c0","5fc423afc5dad58229f0c1c0","63a36e1df1afd18b014794e9","63a385d872a5348c60de328b","rsvp1-task","true","0","","","","","null","<span></span>","null","iti","","","","","","","","","","","","","","",""
"","html-keyboard-response","224","97950","0.0-5.0-22.0-0.14","5fc423afc5dad58229f0c1c0","5fc423afc5dad58229f0c1c0","63a36e1df1afd18b014794e9","63a385d872a5348c60de328b","rsvp1-task","true","0","","","","","null","
					<div style='width: 900px;'>
					<div style='float: center;'><img src=img/nontarget_distractor51.jpeg  ></img>
					</div>
					","null","rsvp1","practice0","","","","","","","","","5","","","","","img/nontarget_distractor51.jpeg"
"","html-keyboard-response","225","97955","0.0-5.0-22.0-1.14","5fc423afc5dad58229f0c1c0","5fc423afc5dad58229f0c1c0","63a36e1df1afd18b014794e9","63a385d872a5348c60de328b","rsvp1-task","true","0","","","","","null","<span></span>","null","iti","","","","","","","","","","","","","","",""
"","html-keyboard-response","226","98063","0.0-5.0-22.0-0.15","5fc423afc5dad58229f0c1c0","5fc423afc5dad58229f0c1c0","63a36e1df1afd18b014794e9","63a385d872a5348c60de328b","rsvp1-task","true","0","","","","","null","
					<div style='width: 900px;'>
					<div style='float: center;'><img src=img/nontarget_distractor215.jpeg  ></img>
					</div>
					","null","rsvp1","practice0","","","","","","","","","5","","","","","img/nontarget_distractor215.jpeg"
"","html-keyboard-response","227","98071","0.0-5.0-22.0-1.15","5fc423afc5dad58229f0c1c0","5fc423afc5dad58229f0c1c0","63a36e1df1afd18b014794e9","63a385d872a5348c60de328b","rsvp1-task","true","0","","","","","null","<span></span>","null","iti","","","","","","","","","","","","","","",""
"","html-keyboard-response","228","98178","0.0-5.0-22.0-0.16","5fc423afc5dad58229f0c1c0","5fc423afc5dad58229f0c1c0","63a36e1df1afd18b014794e9","63a385d872a5348c60de328b","rsvp1-task","true","0","","","","","null","
					<div style='width: 900px;'>
					<div style='float: center;'><img src=img/nontarget_distractor207.jpeg  ></img>
					</div>
					","null","rsvp1","practice0","","","","","","","","","5","","","","","img/nontarget_distractor207.jpeg"
"","html-keyboard-response","229","98184","0.0-5.0-22.0-1.16","5fc423afc5dad58229f0c1c0","5fc423afc5dad58229f0c1c0","63a36e1df1afd18b014794e9","63a385d872a5348c60de328b","rsvp1-task","true","0","","","","","null","<span></span>","null","iti","","","","","","","","","","","","","","",""
"","html-keyboard-response","230","98659","0.0-5.0-23.0-0.0","5fc423afc5dad58229f0c1c0","5fc423afc5dad58229f0c1c0","63a36e1df1afd18b014794e9","63a385d872a5348c60de328b","rsvp1-task","true","0","","","","","473","<div class=""rsvp""> Was the rotated image rotated left (1 key) or right (0 key)?</div>","0","response","practice0","0","0","neutral","img/nontarget_distractor42.jpeg","img/nontarget_distractor163.jpeg","8","4","12","5","true","true","true","",""
"","html-keyboard-response","231","99662","0.0-5.0-24.0","5fc423afc5dad58229f0c1c0","5fc423afc5dad58229f0c1c0","63a36e1df1afd18b014794e9","63a385d872a5348c60de328b","rsvp1-task","true","0","","","","","null","Correct! </p> <p>  </p><p> ","null","","","","","","","","","","","","","","","main_T1_ITI",""
"","html-keyboard-response","232","101664","0.0-5.0-25.0","5fc423afc5dad58229f0c1c0","5fc423afc5dad58229f0c1c0","63a36e1df1afd18b014794e9","63a385d872a5348c60de328b","rsvp1-task","true","0","","","","","null","<div class=""rsvp"">+</div>","null","fixation","","","","","","","","","","","","","","",""
"","html-keyboard-response","233","101917","0.0-5.0-26.0","5fc423afc5dad58229f0c1c0","5fc423afc5dad58229f0c1c0","63a36e1df1afd18b014794e9","63a385d872a5348c60de328b","rsvp1-task","true","0","","","","","null","<div class=""rsvp"" ></div>","null","blank","","","","","","","","","","","","","","",""
"","html-keyboard-response","234","102026","0.0-5.0-27.0-0.0","5fc423afc5dad58229f0c1c0","5fc423afc5dad58229f0c1c0","63a36e1df1afd18b014794e9","63a385d872a5348c60de328b","rsvp1-task","true","0","","","","","null","
					<div style='width: 900px;'>
					<div style='float: center;'><img src=img/nontarget_distractor226.jpeg  ></img>
					</div>
					","null","rsvp1","practice0","","","","","","","","","6","","","","","img/nontarget_distractor226.jpeg"
"","html-keyboard-response","235","102027","0.0-5.0-27.0-1.0","5fc423afc5dad58229f0c1c0","5fc423afc5dad58229f0c1c0","63a36e1df1afd18b014794e9","63a385d872a5348c60de328b","rsvp1-task","true","0","","","","","null","<span></span>","null","iti","","","","","","","","","","","","","","",""
"","html-keyboard-response","236","102133","0.0-5.0-27.0-0.1","5fc423afc5dad58229f0c1c0","5fc423afc5dad58229f0c1c0","63a36e1df1afd18b014794e9","63a385d872a5348c60de328b","rsvp1-task","true","0","","","","","null","
					<div style='width: 900px;'>
					<div style='float: center;'><img src=img/nontarget_distractor135.jpeg  ></img>
					</div>
					","null","rsvp1","practice0","","","","","","","","","6","","","","","img/nontarget_distractor135.jpeg"
"","html-keyboard-response","237","102134","0.0-5.0-27.0-1.1","5fc423afc5dad58229f0c1c0","5fc423afc5dad58229f0c1c0","63a36e1df1afd18b014794e9","63a385d872a5348c60de328b","rsvp1-task","true","0","","","","","null","<span></span>","null","iti","","","","","","","","","","","","","","",""
"","html-keyboard-response","238","102240","0.0-5.0-27.0-0.2","5fc423afc5dad58229f0c1c0","5fc423afc5dad58229f0c1c0","63a36e1df1afd18b014794e9","63a385d872a5348c60de328b","rsvp1-task","true","0","","","","","null","
					<div style='width: 900px;'>
					<div style='float: center;'><img src=img/nontarget_distractor68.jpeg  ></img>
					</div>
					","null","rsvp1","practice0","","","","","","","","","6","","","","","img/nontarget_distractor68.jpeg"
"","html-keyboard-response","239","102241","0.0-5.0-27.0-1.2","5fc423afc5dad58229f0c1c0","5fc423afc5dad58229f0c1c0","63a36e1df1afd18b014794e9","63a385d872a5348c60de328b","rsvp1-task","true","0","","","","","null","<span></span>","null","iti","","","","","","","","","","","","","","",""
"","html-keyboard-response","240","102349","0.0-5.0-27.0-0.3","5fc423afc5dad58229f0c1c0","5fc423afc5dad58229f0c1c0","63a36e1df1afd18b014794e9","63a385d872a5348c60de328b","rsvp1-task","true","0","","","","","null","
					<div style='width: 900px;'>
					<div style='float: center;'><img src=img/nontarget_distractor115.jpeg  ></img>
					</div>
					","null","rsvp1","practice0","","","","","","","","","6","","","","","img/nontarget_distractor115.jpeg"
"","html-keyboard-response","241","102356","0.0-5.0-27.0-1.3","5fc423afc5dad58229f0c1c0","5fc423afc5dad58229f0c1c0","63a36e1df1afd18b014794e9","63a385d872a5348c60de328b","rsvp1-task","true","0","","","","","null","<span></span>","null","iti","","","","","","","","","","","","","","",""
"","html-keyboard-response","242","102462","0.0-5.0-27.0-0.4","5fc423afc5dad58229f0c1c0","5fc423afc5dad58229f0c1c0","63a36e1df1afd18b014794e9","63a385d872a5348c60de328b","rsvp1-task","true","0","","","","","null","
					<div style='width: 900px;'>
					<div style='float: center;'><img src=img/nontarget_distractor132.jpeg  ></img>
					</div>
					","null","rsvp1","practice0","","","","","","","","","6","","","","","img/nontarget_distractor132.jpeg"
"","html-keyboard-response","243","102471","0.0-5.0-27.0-1.4","5fc423afc5dad58229f0c1c0","5fc423afc5dad58229f0c1c0","63a36e1df1afd18b014794e9","63a385d872a5348c60de328b","rsvp1-task","true","0","","","","","null","<span></span>","null","iti","","","","","","","","","","","","","","",""
"","html-keyboard-response","244","102578","0.0-5.0-27.0-0.5","5fc423afc5dad58229f0c1c0","5fc423afc5dad58229f0c1c0","63a36e1df1afd18b014794e9","63a385d872a5348c60de328b","rsvp1-task","true","0","","","","","null","
					<div style='width: 900px;'>
					<div style='float: center;'><img src=img/nontarget_distractor152.jpeg  ></img>
					</div>
					","null","rsvp1","practice0","","","","","","","","","6","","","","","img/nontarget_distractor152.jpeg"
"","html-keyboard-response","245","102582","0.0-5.0-27.0-1.5","5fc423afc5dad58229f0c1c0","5fc423afc5dad58229f0c1c0","63a36e1df1afd18b014794e9","63a385d872a5348c60de328b","rsvp1-task","true","0","","","","","null","<span></span>","null","iti","","","","","","","","","","","","","","",""
"","html-keyboard-response","246","102689","0.0-5.0-27.0-0.6","5fc423afc5dad58229f0c1c0","5fc423afc5dad58229f0c1c0","63a36e1df1afd18b014794e9","63a385d872a5348c60de328b","rsvp1-task","true","0","","","","","null","
					<div style='width: 900px;'>
					<div style='float: center;'><img src=img/nontarget_distractor110.jpeg  ></img>
					</div>
					","null","rsvp1","practice0","","","","","","","","","6","","","","","img/nontarget_distractor110.jpeg"
"","html-keyboard-response","247","102697","0.0-5.0-27.0-1.6","5fc423afc5dad58229f0c1c0","5fc423afc5dad58229f0c1c0","63a36e1df1afd18b014794e9","63a385d872a5348c60de328b","rsvp1-task","true","0","","","","","null","<span></span>","null","iti","","","","","","","","","","","","","","",""
"","html-keyboard-response","248","102803","0.0-5.0-27.0-0.7","5fc423afc5dad58229f0c1c0","5fc423afc5dad58229f0c1c0","63a36e1df1afd18b014794e9","63a385d872a5348c60de328b","rsvp1-task","true","0","","","","","null","
					<div style='width: 900px;'>
					<div style='float: center;'><img src=img/nontarget_distractor31.jpeg  ></img>
					</div>
					","null","rsvp1","practice0","","","","","","","","","6","","","","","img/nontarget_distractor31.jpeg"
"","html-keyboard-response","249","102808","0.0-5.0-27.0-1.7","5fc423afc5dad58229f0c1c0","5fc423afc5dad58229f0c1c0","63a36e1df1afd18b014794e9","63a385d872a5348c60de328b","rsvp1-task","true","0","","","","","null","<span></span>","null","iti","","","","","","","","","","","","","","",""
"","html-keyboard-response","250","102914","0.0-5.0-27.0-0.8","5fc423afc5dad58229f0c1c0","5fc423afc5dad58229f0c1c0","63a36e1df1afd18b014794e9","63a385d872a5348c60de328b","rsvp1-task","true","0","","","","","null","
					<div style='width: 900px;'>
					<div style='float: center;'><img src=img/nontarget_distractor204.jpeg  ></img>
					</div>
					","null","rsvp1","practice0","","","","","","","","","6","","","","","img/nontarget_distractor204.jpeg"
"","html-keyboard-response","251","102922","0.0-5.0-27.0-1.8","5fc423afc5dad58229f0c1c0","5fc423afc5dad58229f0c1c0","63a36e1df1afd18b014794e9","63a385d872a5348c60de328b","rsvp1-task","true","0","","","","","null","<span></span>","null","iti","","","","","","","","","","","","","","",""
"","html-keyboard-response","252","103029","0.0-5.0-27.0-0.9","5fc423afc5dad58229f0c1c0","5fc423afc5dad58229f0c1c0","63a36e1df1afd18b014794e9","63a385d872a5348c60de328b","rsvp1-task","true","0","","","","","null","
					<div style='width: 900px;'>
					<div style='float: center;'><img src=img/nontarget_distractor94.jpeg  ></img>
					</div>
					","null","rsvp1","practice0","","","","","","","","","6","","","","","img/nontarget_distractor94.jpeg"
"","html-keyboard-response","253","103034","0.0-5.0-27.0-1.9","5fc423afc5dad58229f0c1c0","5fc423afc5dad58229f0c1c0","63a36e1df1afd18b014794e9","63a385d872a5348c60de328b","rsvp1-task","true","0","","","","","null","<span></span>","null","iti","","","","","","","","","","","","","","",""
"","html-keyboard-response","254","103144","0.0-5.0-27.0-0.10","5fc423afc5dad58229f0c1c0","5fc423afc5dad58229f0c1c0","63a36e1df1afd18b014794e9","63a385d872a5348c60de328b","rsvp1-task","true","0","","","","","null","
					<div style='width: 900px;'>
					<div style='float: center;'><img src=img/t2_targets159.jpeg class=""rotateimgR""  ></img>
					</div>
					","null","rsvp1","practice0","","","","","","","","","6","","","","","img/t2_targets159.jpeg class=""rotateimgR"""
"","html-keyboard-response","255","103153","0.0-5.0-27.0-1.10","5fc423afc5dad58229f0c1c0","5fc423afc5dad58229f0c1c0","63a36e1df1afd18b014794e9","63a385d872a5348c60de328b","rsvp1-task","true","0","","","","","null","<span></span>","null","iti","","","","","","","","","","","","","","",""
"","html-keyboard-response","256","103259","0.0-5.0-27.0-0.11","5fc423afc5dad58229f0c1c0","5fc423afc5dad58229f0c1c0","63a36e1df1afd18b014794e9","63a385d872a5348c60de328b","rsvp1-task","true","0","","","","","null","
					<div style='width: 900px;'>
					<div style='float: center;'><img src=img/nontarget_distractor11.jpeg  ></img>
					</div>
					","null","rsvp1","practice0","","","","","","","","","6","","","","","img/nontarget_distractor11.jpeg"
"","html-keyboard-response","257","103266","0.0-5.0-27.0-1.11","5fc423afc5dad58229f0c1c0","5fc423afc5dad58229f0c1c0","63a36e1df1afd18b014794e9","63a385d872a5348c60de328b","rsvp1-task","true","0","","","","","null","<span></span>","null","iti","","","","","","","","","","","","","","",""
"","html-keyboard-response","258","103372","0.0-5.0-27.0-0.12","5fc423afc5dad58229f0c1c0","5fc423afc5dad58229f0c1c0","63a36e1df1afd18b014794e9","63a385d872a5348c60de328b","rsvp1-task","true","0","","","","","null","
					<div style='width: 900px;'>
					<div style='float: center;'><img src=img/nontarget_distractor8.jpeg  ></img>
					</div>
					","null","rsvp1","practice0","","","","","","","","","6","","","","","img/nontarget_distractor8.jpeg"
"","html-keyboard-response","259","103379","0.0-5.0-27.0-1.12","5fc423afc5dad58229f0c1c0","5fc423afc5dad58229f0c1c0","63a36e1df1afd18b014794e9","63a385d872a5348c60de328b","rsvp1-task","true","0","","","","","null","<span></span>","null","iti","","","","","","","","","","","","","","",""
"","html-keyboard-response","260","103484","0.0-5.0-27.0-0.13","5fc423afc5dad58229f0c1c0","5fc423afc5dad58229f0c1c0","63a36e1df1afd18b014794e9","63a385d872a5348c60de328b","rsvp1-task","true","0","","","","","null","
					<div style='width: 900px;'>
					<div style='float: center;'><img src=img/nontarget_distractor147.jpeg  ></img>
					</div>
					","null","rsvp1","practice0","","","","","","","","","6","","","","","img/nontarget_distractor147.jpeg"
"","html-keyboard-response","261","103492","0.0-5.0-27.0-1.13","5fc423afc5dad58229f0c1c0","5fc423afc5dad58229f0c1c0","63a36e1df1afd18b014794e9","63a385d872a5348c60de328b","rsvp1-task","true","0","","","","","null","<span></span>","null","iti","","","","","","","","","","","","","","",""
"","html-keyboard-response","262","103599","0.0-5.0-27.0-0.14","5fc423afc5dad58229f0c1c0","5fc423afc5dad58229f0c1c0","63a36e1df1afd18b014794e9","63a385d872a5348c60de328b","rsvp1-task","true","0","","","","","null","
					<div style='width: 900px;'>
					<div style='float: center;'><img src=img/nontarget_distractor236.jpeg  ></img>
					</div>
					","null","rsvp1","practice0","","","","","","","","","6","","","","","img/nontarget_distractor236.jpeg"
"","html-keyboard-response","263","103605","0.0-5.0-27.0-1.14","5fc423afc5dad58229f0c1c0","5fc423afc5dad58229f0c1c0","63a36e1df1afd18b014794e9","63a385d872a5348c60de328b","rsvp1-task","true","0","","","","","null","<span></span>","null","iti","","","","","","","","","","","","","","",""
"","html-keyboard-response","264","103711","0.0-5.0-27.0-0.15","5fc423afc5dad58229f0c1c0","5fc423afc5dad58229f0c1c0","63a36e1df1afd18b014794e9","63a385d872a5348c60de328b","rsvp1-task","true","0","","","","","null","
					<div style='width: 900px;'>
					<div style='float: center;'><img src=img/nontarget_distractor34.jpeg  ></img>
					</div>
					","null","rsvp1","practice0","","","","","","","","","6","","","","","img/nontarget_distractor34.jpeg"
"","html-keyboard-response","265","103720","0.0-5.0-27.0-1.15","5fc423afc5dad58229f0c1c0","5fc423afc5dad58229f0c1c0","63a36e1df1afd18b014794e9","63a385d872a5348c60de328b","rsvp1-task","true","0","","","","","null","<span></span>","null","iti","","","","","","","","","","","","","","",""
"","html-keyboard-response","266","103826","0.0-5.0-27.0-0.16","5fc423afc5dad58229f0c1c0","5fc423afc5dad58229f0c1c0","63a36e1df1afd18b014794e9","63a385d872a5348c60de328b","rsvp1-task","true","0","","","","","null","
					<div style='width: 900px;'>
					<div style='float: center;'><img src=img/nontarget_distractor241.jpeg  ></img>
					</div>
					","null","rsvp1","practice0","","","","","","","","","6","","","","","img/nontarget_distractor241.jpeg"
"","html-keyboard-response","267","103831","0.0-5.0-27.0-1.16","5fc423afc5dad58229f0c1c0","5fc423afc5dad58229f0c1c0","63a36e1df1afd18b014794e9","63a385d872a5348c60de328b","rsvp1-task","true","0","","","","","null","<span></span>","null","iti","","","","","","","","","","","","","","",""
"","html-keyboard-response","268","104273","0.0-5.0-28.0-0.0","5fc423afc5dad58229f0c1c0","5fc423afc5dad58229f0c1c0","63a36e1df1afd18b014794e9","63a385d872a5348c60de328b","rsvp1-task","true","0","","","","","441","<div class=""rsvp""> Was the rotated image rotated left (1 key) or right (0 key)?</div>","0","response","practice0","0","0","neutral","img/nontarget_distractor31.jpeg","img/nontarget_distractor11.jpeg","8","3","11","6","true","true","true","",""
"","html-keyboard-response","269","105275","0.0-5.0-29.0","5fc423afc5dad58229f0c1c0","5fc423afc5dad58229f0c1c0","63a36e1df1afd18b014794e9","63a385d872a5348c60de328b","rsvp1-task","true","0","","","","","null","Correct! </p> <p>  </p><p> ","null","","","","","","","","","","","","","","","main_T1_ITI",""
"","html-keyboard-response","270","107278","0.0-5.0-30.0","5fc423afc5dad58229f0c1c0","5fc423afc5dad58229f0c1c0","63a36e1df1afd18b014794e9","63a385d872a5348c60de328b","rsvp1-task","true","0","","","","","null","<div class=""rsvp"">+</div>","null","fixation","","","","","","","","","","","","","","",""
"","html-keyboard-response","271","107531","0.0-5.0-31.0","5fc423afc5dad58229f0c1c0","5fc423afc5dad58229f0c1c0","63a36e1df1afd18b014794e9","63a385d872a5348c60de328b","rsvp1-task","true","0","","","","","null","<div class=""rsvp"" ></div>","null","blank","","","","","","","","","","","","","","",""
