"success","trial_type","trial_index","time_elapsed","internal_node_id","subject_id","subjectID","study_id","session_id","exp_id","full_screen","focus_shifts","timeout","failed_images","failed_audio","failed_video","rt","stimulus","key_press","test_part","phase","correct_responses","correct_response","t1_type","t1_image","t2_image","t1_location","lag","t2_location","trial_number","correct","t1_correct","t2_correct","task","stim"
"true","fullscreen","0","14902","0.0-0.0","60fcd954f5ff1656599b53c9","60fcd954f5ff1656599b53c9","63a36e1df1afd18b014794e9","63a38e8fef0621c8004241bc","rsvp1-task","true","1","","","","","","","","","","","","","","","","","","","","","","",""
"true","preload","1","33497","0.0-1.0","60fcd954f5ff1656599b53c9","60fcd954f5ff1656599b53c9","63a36e1df1afd18b014794e9","63a38e8fef0621c8004241bc","rsvp1-task","true","0","false","[]","[]","[]","","","","","","","","","","","","","","","","","","",""
"","html-keyboard-response","2","51310","0.0-2.0","60fcd954f5ff1656599b53c9","60fcd954f5ff1656599b53c9","63a36e1df1afd18b014794e9","63a38e8fef0621c8004241bc","rsvp1-task","true","0","","","","","17605","<div class='instructions'><p>You will see a series of scene images rapidly appearing on the computer screen. One of the scene images will be ROTATED, either to the left or to the right.</p><p>When the series ends, you have to respond to the question ‘Which way was the scene rotated?’</p><p>If the scene was rotated left, you will press the 1 key. If the scene was rotated right, press the 0 key. </p><p>Press any key to see an example of the task.</p></div>"," ","instructions","","","","","","","","","","","","","","",""
"","html-keyboard-response","3","54329","0.0-3.0-0.0","60fcd954f5ff1656599b53c9","60fcd954f5ff1656599b53c9","63a36e1df1afd18b014794e9","63a38e8fef0621c8004241bc","rsvp1-task","true","0","","","","","null","<div class=""rsvp"">+</div>","null","fixation","","","","","","","","","","","","","","",""
"","html-keyboard-response","4","54594","0.0-3.0-1.0","60fcd954f5ff1656599b53c9","60fcd954f5ff1656599b53c9","63a36e1df1afd18b014794e9","63a38e8fef0621c8004241bc","rsvp1-task","true","0","","","","","null","<div class=""rsvp"" ></div>","null","blank","","","","","","","","","","","","","","",""
"","html-keyboard-response","5","54815","0.0-3.0-2.0-0.0","60fcd954f5ff1656599b53c9","60fcd954f5ff1656599b53c9","63a36e1df1afd18b014794e9","63a38e8fef0621c8004241bc","rsvp1-task","true","0","","","","","null","
					<div style='width: 900px;'>
					<div style='float: center;'><img src=img/nontarget_distractor46.jpeg  ></img>
					</div>
					","null","","","","","","","","","","","","","","","",""
"","html-keyboard-response","6","54907","0.0-3.0-2.0-1.0","60fcd954f5ff1656599b53c9","60fcd954f5ff1656599b53c9","63a36e1df1afd18b014794e9","63a38e8fef0621c8004241bc","rsvp1-task","true","0","","","","","null","<span></span>","null","iti","","","","","","","","","","","","","","",""
"","html-keyboard-response","7","55126","0.0-3.0-2.0-0.1","60fcd954f5ff1656599b53c9","60fcd954f5ff1656599b53c9","63a36e1df1afd18b014794e9","63a38e8fef0621c8004241bc","rsvp1-task","true","0","","","","","null","
					<div style='width: 900px;'>
					<div style='float: center;'><img src=img/nontarget_distractor126.jpeg  ></img>
					</div>
					","null","","","","","","","","","","","","","","","",""
"","html-keyboard-response","8","55224","0.0-3.0-2.0-1.1","60fcd954f5ff1656599b53c9","60fcd954f5ff1656599b53c9","63a36e1df1afd18b014794e9","63a38e8fef0621c8004241bc","rsvp1-task","true","0","","","","","null","<span></span>","null","iti","","","","","","","","","","","","","","",""
"","html-keyboard-response","9","55454","0.0-3.0-2.0-0.2","60fcd954f5ff1656599b53c9","60fcd954f5ff1656599b53c9","63a36e1df1afd18b014794e9","63a38e8fef0621c8004241bc","rsvp1-task","true","0","","","","","null","
					<div style='width: 900px;'>
					<div style='float: center;'><img src=img/nontarget_distractor27.jpeg  ></img>
					</div>
					","null","","","","","","","","","","","","","","","",""
"","html-keyboard-response","10","55548","0.0-3.0-2.0-1.2","60fcd954f5ff1656599b53c9","60fcd954f5ff1656599b53c9","63a36e1df1afd18b014794e9","63a38e8fef0621c8004241bc","rsvp1-task","true","0","","","","","null","<span></span>","null","iti","","","","","","","","","","","","","","",""
"","html-keyboard-response","11","55766","0.0-3.0-2.0-0.3","60fcd954f5ff1656599b53c9","60fcd954f5ff1656599b53c9","63a36e1df1afd18b014794e9","63a38e8fef0621c8004241bc","rsvp1-task","true","0","","","","","null","
					<div style='width: 900px;'>
					<div style='float: center;'><img src=img/nontarget_distractor133.jpeg  ></img>
					</div>
					","null","","","","","","","","","","","","","","","",""
"","html-keyboard-response","12","55860","0.0-3.0-2.0-1.3","60fcd954f5ff1656599b53c9","60fcd954f5ff1656599b53c9","63a36e1df1afd18b014794e9","63a38e8fef0621c8004241bc","rsvp1-task","true","0","","","","","null","<span></span>","null","iti","","","","","","","","","","","","","","",""
"","html-keyboard-response","13","56083","0.0-3.0-2.0-0.4","60fcd954f5ff1656599b53c9","60fcd954f5ff1656599b53c9","63a36e1df1afd18b014794e9","63a38e8fef0621c8004241bc","rsvp1-task","true","0","","","","","null","
					<div style='width: 900px;'>
					<div style='float: center;'><img src=img/nontarget_distractor171.jpeg  ></img>
					</div>
					","null","","","","","","","","","","","","","","","",""
"","html-keyboard-response","14","56176","0.0-3.0-2.0-1.4","60fcd954f5ff1656599b53c9","60fcd954f5ff1656599b53c9","63a36e1df1afd18b014794e9","63a38e8fef0621c8004241bc","rsvp1-task","true","0","","","","","null","<span></span>","null","iti","","","","","","","","","","","","","","",""
"","html-keyboard-response","15","56398","0.0-3.0-2.0-0.5","60fcd954f5ff1656599b53c9","60fcd954f5ff1656599b53c9","63a36e1df1afd18b014794e9","63a38e8fef0621c8004241bc","rsvp1-task","true","0","","","","","null","
					<div style='width: 900px;'>
					<div style='float: center;'><img src=img/nontarget_distractor246.jpeg  ></img>
					</div>
					","null","","","","","","","","","","","","","","","",""
"","html-keyboard-response","16","56488","0.0-3.0-2.0-1.5","60fcd954f5ff1656599b53c9","60fcd954f5ff1656599b53c9","63a36e1df1afd18b014794e9","63a38e8fef0621c8004241bc","rsvp1-task","true","0","","","","","null","<span></span>","null","iti","","","","","","","","","","","","","","",""
"","html-keyboard-response","17","56708","0.0-3.0-2.0-0.6","60fcd954f5ff1656599b53c9","60fcd954f5ff1656599b53c9","63a36e1df1afd18b014794e9","63a38e8fef0621c8004241bc","rsvp1-task","true","0","","","","","null","
					<div style='width: 900px;'>
					<div style='float: center;'><img src=img/nontarget_distractor164.jpeg  ></img>
					</div>
					","null","","","","","","","","","","","","","","","",""
"","html-keyboard-response","18","56801","0.0-3.0-2.0-1.6","60fcd954f5ff1656599b53c9","60fcd954f5ff1656599b53c9","63a36e1df1afd18b014794e9","63a38e8fef0621c8004241bc","rsvp1-task","true","0","","","","","null","<span></span>","null","iti","","","","","","","","","","","","","","",""
"","html-keyboard-response","19","57020","0.0-3.0-2.0-0.7","60fcd954f5ff1656599b53c9","60fcd954f5ff1656599b53c9","63a36e1df1afd18b014794e9","63a38e8fef0621c8004241bc","rsvp1-task","true","0","","","","","null","
					<div style='width: 900px;'>
					<div style='float: center;'><img src=img/nontarget_distractor33.jpeg  ></img>
					</div>
					","null","","","","","","","","","","","","","","","",""
"","html-keyboard-response","20","57114","0.0-3.0-2.0-1.7","60fcd954f5ff1656599b53c9","60fcd954f5ff1656599b53c9","63a36e1df1afd18b014794e9","63a38e8fef0621c8004241bc","rsvp1-task","true","0","","","","","null","<span></span>","null","iti","","","","","","","","","","","","","","",""
"","html-keyboard-response","21","57333","0.0-3.0-2.0-0.8","60fcd954f5ff1656599b53c9","60fcd954f5ff1656599b53c9","63a36e1df1afd18b014794e9","63a38e8fef0621c8004241bc","rsvp1-task","true","0","","","","","null","
					<div style='width: 900px;'>
					<div style='float: center;'><img src=img/nontarget_distractor185.jpeg  ></img>
					</div>
					","null","","","","","","","","","","","","","","","",""
"","html-keyboard-response","22","57426","0.0-3.0-2.0-1.8","60fcd954f5ff1656599b53c9","60fcd954f5ff1656599b53c9","63a36e1df1afd18b014794e9","63a38e8fef0621c8004241bc","rsvp1-task","true","0","","","","","null","<span></span>","null","iti","","","","","","","","","","","","","","",""
"","html-keyboard-response","23","57647","0.0-3.0-2.0-0.9","60fcd954f5ff1656599b53c9","60fcd954f5ff1656599b53c9","63a36e1df1afd18b014794e9","63a38e8fef0621c8004241bc","rsvp1-task","true","0","","","","","null","
					<div style='width: 900px;'>
					<div style='float: center;'><img src=img/t2_targets9.jpeg class=""rotateimgL""  ></img>
					</div>
					","null","","","","","","","","","","","","","","","",""
"","html-keyboard-response","24","57738","0.0-3.0-2.0-1.9","60fcd954f5ff1656599b53c9","60fcd954f5ff1656599b53c9","63a36e1df1afd18b014794e9","63a38e8fef0621c8004241bc","rsvp1-task","true","0","","","","","null","<span></span>","null","iti","","","","","","","","","","","","","","",""
"","html-keyboard-response","25","57960","0.0-3.0-2.0-0.10","60fcd954f5ff1656599b53c9","60fcd954f5ff1656599b53c9","63a36e1df1afd18b014794e9","63a38e8fef0621c8004241bc","rsvp1-task","true","0","","","","","null","
					<div style='width: 900px;'>
					<div style='float: center;'><img src=img/nontarget_distractor87.jpeg  ></img>
					</div>
					","null","","","","","","","","","","","","","","","",""
"","html-keyboard-response","26","58067","0.0-3.0-2.0-1.10","60fcd954f5ff1656599b53c9","60fcd954f5ff1656599b53c9","63a36e1df1afd18b014794e9","63a38e8fef0621c8004241bc","rsvp1-task","true","0","","","","","null","<span></span>","null","iti","","","","","","","","","","","","","","",""
"","html-keyboard-response","27","58287","0.0-3.0-2.0-0.11","60fcd954f5ff1656599b53c9","60fcd954f5ff1656599b53c9","63a36e1df1afd18b014794e9","63a38e8fef0621c8004241bc","rsvp1-task","true","0","","","","","null","
					<div style='width: 900px;'>
					<div style='float: center;'><img src=img/nontarget_distractor203.jpeg  ></img>
					</div>
					","null","","","","","","","","","","","","","","","",""
"","html-keyboard-response","28","58380","0.0-3.0-2.0-1.11","60fcd954f5ff1656599b53c9","60fcd954f5ff1656599b53c9","63a36e1df1afd18b014794e9","63a38e8fef0621c8004241bc","rsvp1-task","true","0","","","","","null","<span></span>","null","iti","","","","","","","","","","","","","","",""
"","html-keyboard-response","29","58599","0.0-3.0-2.0-0.12","60fcd954f5ff1656599b53c9","60fcd954f5ff1656599b53c9","63a36e1df1afd18b014794e9","63a38e8fef0621c8004241bc","rsvp1-task","true","0","","","","","null","
					<div style='width: 900px;'>
					<div style='float: center;'><img src=img/nontarget_distractor210.jpeg  ></img>
					</div>
					","null","","","","","","","","","","","","","","","",""
"","html-keyboard-response","30","58692","0.0-3.0-2.0-1.12","60fcd954f5ff1656599b53c9","60fcd954f5ff1656599b53c9","63a36e1df1afd18b014794e9","63a38e8fef0621c8004241bc","rsvp1-task","true","0","","","","","null","<span></span>","null","iti","","","","","","","","","","","","","","",""
"","html-keyboard-response","31","58912","0.0-3.0-2.0-0.13","60fcd954f5ff1656599b53c9","60fcd954f5ff1656599b53c9","63a36e1df1afd18b014794e9","63a38e8fef0621c8004241bc","rsvp1-task","true","0","","","","","null","
					<div style='width: 900px;'>
					<div style='float: center;'><img src=img/nontarget_distractor2.jpeg  ></img>
					</div>
					","null","","","","","","","","","","","","","","","",""
"","html-keyboard-response","32","59005","0.0-3.0-2.0-1.13","60fcd954f5ff1656599b53c9","60fcd954f5ff1656599b53c9","63a36e1df1afd18b014794e9","63a38e8fef0621c8004241bc","rsvp1-task","true","0","","","","","null","<span></span>","null","iti","","","","","","","","","","","","","","",""
"","html-keyboard-response","33","59225","0.0-3.0-2.0-0.14","60fcd954f5ff1656599b53c9","60fcd954f5ff1656599b53c9","63a36e1df1afd18b014794e9","63a38e8fef0621c8004241bc","rsvp1-task","true","0","","","","","null","
					<div style='width: 900px;'>
					<div style='float: center;'><img src=img/nontarget_distractor193.jpeg  ></img>
					</div>
					","null","","","","","","","","","","","","","","","",""
"","html-keyboard-response","34","59317","0.0-3.0-2.0-1.14","60fcd954f5ff1656599b53c9","60fcd954f5ff1656599b53c9","63a36e1df1afd18b014794e9","63a38e8fef0621c8004241bc","rsvp1-task","true","0","","","","","null","<span></span>","null","iti","","","","","","","","","","","","","","",""
"","html-keyboard-response","35","59536","0.0-3.0-2.0-0.15","60fcd954f5ff1656599b53c9","60fcd954f5ff1656599b53c9","63a36e1df1afd18b014794e9","63a38e8fef0621c8004241bc","rsvp1-task","true","0","","","","","null","
					<div style='width: 900px;'>
					<div style='float: center;'><img src=img/nontarget_distractor68.jpeg  ></img>
					</div>
					","null","","","","","","","","","","","","","","","",""
"","html-keyboard-response","36","59629","0.0-3.0-2.0-1.15","60fcd954f5ff1656599b53c9","60fcd954f5ff1656599b53c9","63a36e1df1afd18b014794e9","63a38e8fef0621c8004241bc","rsvp1-task","true","0","","","","","null","<span></span>","null","iti","","","","","","","","","","","","","","",""
"","html-keyboard-response","37","59849","0.0-3.0-2.0-0.16","60fcd954f5ff1656599b53c9","60fcd954f5ff1656599b53c9","63a36e1df1afd18b014794e9","63a38e8fef0621c8004241bc","rsvp1-task","true","0","","","","","null","
					<div style='width: 900px;'>
					<div style='float: center;'><img src=img/nontarget_distractor221.jpeg  ></img>
					</div>
					","null","","","","","","","","","","","","","","","",""
"","html-keyboard-response","38","59943","0.0-3.0-2.0-1.16","60fcd954f5ff1656599b53c9","60fcd954f5ff1656599b53c9","63a36e1df1afd18b014794e9","63a38e8fef0621c8004241bc","rsvp1-task","true","0","","","","","null","<span></span>","null","iti","","","","","","","","","","","","","","",""
"","html-keyboard-response","39","67780","0.0-3.0-3.0-0.0","60fcd954f5ff1656599b53c9","60fcd954f5ff1656599b53c9","63a36e1df1afd18b014794e9","63a38e8fef0621c8004241bc","rsvp1-task","true","0","","","","","7830","<div class=""rsvp""> Was the rotated image rotated left (1 key) or right (0 key)?</div>","1","response","instructions","1","1","neutral","img/nontarget_distractor126.jpeg","img/nontarget_distractor87.jpeg","2","8","10","1","true","true","true","",""
"","html-keyboard-response","40","68795","0.0-3.0-4.0","60fcd954f5ff1656599b53c9","60fcd954f5ff1656599b53c9","63a36e1df1afd18b014794e9","63a38e8fef0621c8004241bc","rsvp1-task","true","0","","","","","null","Correct! </p> <p>  </p><p> ","null","","","","","","","","","","","","","","","main_T1_ITI",""
"","html-keyboard-response","41","78779","0.0-4.0","60fcd954f5ff1656599b53c9","60fcd954f5ff1656599b53c9","63a36e1df1afd18b014794e9","63a38e8fef0621c8004241bc","rsvp1-task","true","0","","","","","9982","<div class='instructions'><p>In the example you just saw, the images appeared quite slowly.</p><p>The real task is more challenging, as the images will appear much more rapidly. This will feel much harder! </p> First, you will complete a practice block. </p><p> <strong>You need to respond correctly on at least 75% of the practice trials to advance, so pay close attention! </strong> </p><p>Press any key to start the practice.</p></div>"," ","instructions_2","","","","","","","","","","","","","","",""
"","html-keyboard-response","42","81812","0.0-5.0-0.0","60fcd954f5ff1656599b53c9","60fcd954f5ff1656599b53c9","63a36e1df1afd18b014794e9","63a38e8fef0621c8004241bc","rsvp1-task","true","0","","","","","null","<div class=""rsvp"">+</div>","null","fixation","","","","","","","","","","","","","","",""
"","html-keyboard-response","43","82075","0.0-5.0-1.0","60fcd954f5ff1656599b53c9","60fcd954f5ff1656599b53c9","63a36e1df1afd18b014794e9","63a38e8fef0621c8004241bc","rsvp1-task","true","0","","","","","null","<div class=""rsvp"" ></div>","null","blank","","","","","","","","","","","","","","",""
"","html-keyboard-response","44","82189","0.0-5.0-2.0-0.0","60fcd954f5ff1656599b53c9","60fcd954f5ff1656599b53c9","63a36e1df1afd18b014794e9","63a38e8fef0621c8004241bc","rsvp1-task","true","0","","","","","null","
					<div style='width: 900px;'>
					<div style='float: center;'><img src=img/nontarget_distractor79.jpeg  ></img>
					</div>
					","null","rsvp1","practice0","","","","","","","","","1","","","","","img/nontarget_distractor79.jpeg"
"","html-keyboard-response","45","82203","0.0-5.0-2.0-1.0","60fcd954f5ff1656599b53c9","60fcd954f5ff1656599b53c9","63a36e1df1afd18b014794e9","63a38e8fef0621c8004241bc","rsvp1-task","true","0","","","","","null","<span></span>","null","iti","","","","","","","","","","","","","","",""
"","html-keyboard-response","46","82314","0.0-5.0-2.0-0.1","60fcd954f5ff1656599b53c9","60fcd954f5ff1656599b53c9","63a36e1df1afd18b014794e9","63a38e8fef0621c8004241bc","rsvp1-task","true","0","","","","","null","
					<div style='width: 900px;'>
					<div style='float: center;'><img src=img/nontarget_distractor8.jpeg  ></img>
					</div>
					","null","rsvp1","practice0","","","","","","","","","1","","","","","img/nontarget_distractor8.jpeg"
"","html-keyboard-response","47","82330","0.0-5.0-2.0-1.1","60fcd954f5ff1656599b53c9","60fcd954f5ff1656599b53c9","63a36e1df1afd18b014794e9","63a38e8fef0621c8004241bc","rsvp1-task","true","0","","","","","null","<span></span>","null","iti","","","","","","","","","","","","","","",""
"","html-keyboard-response","48","82437","0.0-5.0-2.0-0.2","60fcd954f5ff1656599b53c9","60fcd954f5ff1656599b53c9","63a36e1df1afd18b014794e9","63a38e8fef0621c8004241bc","rsvp1-task","true","0","","","","","null","
					<div style='width: 900px;'>
					<div style='float: center;'><img src=img/nontarget_distractor36.jpeg  ></img>
					</div>
					","null","rsvp1","practice0","","","","","","","","","1","","","","","img/nontarget_distractor36.jpeg"
"","html-keyboard-response","49","82453","0.0-5.0-2.0-1.2","60fcd954f5ff1656599b53c9","60fcd954f5ff1656599b53c9","63a36e1df1afd18b014794e9","63a38e8fef0621c8004241bc","rsvp1-task","true","0","","","","","null","<span></span>","null","iti","","","","","","","","","","","","","","",""
"","html-keyboard-response","50","82563","0.0-5.0-2.0-0.3","60fcd954f5ff1656599b53c9","60fcd954f5ff1656599b53c9","63a36e1df1afd18b014794e9","63a38e8fef0621c8004241bc","rsvp1-task","true","0","","","","","null","
					<div style='width: 900px;'>
					<div style='float: center;'><img src=img/nontarget_distractor155.jpeg  ></img>
					</div>
					","null","rsvp1","practice0","","","","","","","","","1","","","","","img/nontarget_distractor155.jpeg"
"","html-keyboard-response","51","82569","0.0-5.0-2.0-1.3","60fcd954f5ff1656599b53c9","60fcd954f5ff1656599b53c9","63a36e1df1afd18b014794e9","63a38e8fef0621c8004241bc","rsvp1-task","true","0","","","","","null","<span></span>","null","iti","","","","","","","","","","","","","","",""
"","html-keyboard-response","52","82688","0.0-5.0-2.0-0.4","60fcd954f5ff1656599b53c9","60fcd954f5ff1656599b53c9","63a36e1df1afd18b014794e9","63a38e8fef0621c8004241bc","rsvp1-task","true","0","","","","","null","
					<div style='width: 900px;'>
					<div style='float: center;'><img src=img/nontarget_distractor28.jpeg  ></img>
					</div>
					","null","rsvp1","practice0","","","","","","","","","1","","","","","img/nontarget_distractor28.jpeg"
"","html-keyboard-response","53","82704","0.0-5.0-2.0-1.4","60fcd954f5ff1656599b53c9","60fcd954f5ff1656599b53c9","63a36e1df1afd18b014794e9","63a38e8fef0621c8004241bc","rsvp1-task","true","0","","","","","null","<span></span>","null","iti","","","","","","","","","","","","","","",""
"","html-keyboard-response","54","82814","0.0-5.0-2.0-0.5","60fcd954f5ff1656599b53c9","60fcd954f5ff1656599b53c9","63a36e1df1afd18b014794e9","63a38e8fef0621c8004241bc","rsvp1-task","true","0","","","","","null","
					<div style='width: 900px;'>
					<div style='float: center;'><img src=img/nontarget_distractor122.jpeg  ></img>
					</div>
					","null","rsvp1","practice0","","","","","","","","","1","","","","","img/nontarget_distractor122.jpeg"
"","html-keyboard-response","55","82820","0.0-5.0-2.0-1.5","60fcd954f5ff1656599b53c9","60fcd954f5ff1656599b53c9","63a36e1df1afd18b014794e9","63a38e8fef0621c8004241bc","rsvp1-task","true","0","","","","","null","<span></span>","null","iti","","","","","","","","","","","","","","",""
"","html-keyboard-response","56","82923","0.0-5.0-2.0-0.6","60fcd954f5ff1656599b53c9","60fcd954f5ff1656599b53c9","63a36e1df1afd18b014794e9","63a38e8fef0621c8004241bc","rsvp1-task","true","0","","","","","null","
					<div style='width: 900px;'>
					<div style='float: center;'><img src=img/nontarget_distractor243.jpeg  ></img>
					</div>
					","null","rsvp1","practice0","","","","","","","","","1","","","","","img/nontarget_distractor243.jpeg"
"","html-keyboard-response","57","82943","0.0-5.0-2.0-1.6","60fcd954f5ff1656599b53c9","60fcd954f5ff1656599b53c9","63a36e1df1afd18b014794e9","63a38e8fef0621c8004241bc","rsvp1-task","true","0","","","","","null","<span></span>","null","iti","","","","","","","","","","","","","","",""
"","html-keyboard-response","58","83047","0.0-5.0-2.0-0.7","60fcd954f5ff1656599b53c9","60fcd954f5ff1656599b53c9","63a36e1df1afd18b014794e9","63a38e8fef0621c8004241bc","rsvp1-task","true","0","","","","","null","
					<div style='width: 900px;'>
					<div style='float: center;'><img src=img/nontarget_distractor198.jpeg  ></img>
					</div>
					","null","rsvp1","practice0","","","","","","","","","1","","","","","img/nontarget_distractor198.jpeg"
"","html-keyboard-response","59","83062","0.0-5.0-2.0-1.7","60fcd954f5ff1656599b53c9","60fcd954f5ff1656599b53c9","63a36e1df1afd18b014794e9","63a38e8fef0621c8004241bc","rsvp1-task","true","0","","","","","null","<span></span>","null","iti","","","","","","","","","","","","","","",""
"","html-keyboard-response","60","83172","0.0-5.0-2.0-0.8","60fcd954f5ff1656599b53c9","60fcd954f5ff1656599b53c9","63a36e1df1afd18b014794e9","63a38e8fef0621c8004241bc","rsvp1-task","true","0","","","","","null","
					<div style='width: 900px;'>
					<div style='float: center;'><img src=img/nontarget_distractor27.jpeg  ></img>
					</div>
					","null","rsvp1","practice0","","","","","","","","","1","","","","","img/nontarget_distractor27.jpeg"
"","html-keyboard-response","61","83179","0.0-5.0-2.0-1.8","60fcd954f5ff1656599b53c9","60fcd954f5ff1656599b53c9","63a36e1df1afd18b014794e9","63a38e8fef0621c8004241bc","rsvp1-task","true","0","","","","","null","<span></span>","null","iti","","","","","","","","","","","","","","",""
"","html-keyboard-response","62","83298","0.0-5.0-2.0-0.9","60fcd954f5ff1656599b53c9","60fcd954f5ff1656599b53c9","63a36e1df1afd18b014794e9","63a38e8fef0621c8004241bc","rsvp1-task","true","0","","","","","null","
					<div style='width: 900px;'>
					<div style='float: center;'><img src=img/nontarget_distractor32.jpeg  ></img>
					</div>
					","null","rsvp1","practice0","","","","","","","","","1","","","","","img/nontarget_distractor32.jpeg"
"","html-keyboard-response","63","83304","0.0-5.0-2.0-1.9","60fcd954f5ff1656599b53c9","60fcd954f5ff1656599b53c9","63a36e1df1afd18b014794e9","63a38e8fef0621c8004241bc","rsvp1-task","true","0","","","","","null","<span></span>","null","iti","","","","","","","","","","","","","","",""
"","html-keyboard-response","64","83408","0.0-5.0-2.0-0.10","60fcd954f5ff1656599b53c9","60fcd954f5ff1656599b53c9","63a36e1df1afd18b014794e9","63a38e8fef0621c8004241bc","rsvp1-task","true","0","","","","","null","
					<div style='width: 900px;'>
					<div style='float: center;'><img src=img/t2_targets87.jpeg class=""rotateimgL""  ></img>
					</div>
					","null","rsvp1","practice0","","","","","","","","","1","","","","","img/t2_targets87.jpeg class=""rotateimgL"""
"","html-keyboard-response","65","83422","0.0-5.0-2.0-1.10","60fcd954f5ff1656599b53c9","60fcd954f5ff1656599b53c9","63a36e1df1afd18b014794e9","63a38e8fef0621c8004241bc","rsvp1-task","true","0","","","","","null","<span></span>","null","iti","","","","","","","","","","","","","","",""
"","html-keyboard-response","66","83532","0.0-5.0-2.0-0.11","60fcd954f5ff1656599b53c9","60fcd954f5ff1656599b53c9","63a36e1df1afd18b014794e9","63a38e8fef0621c8004241bc","rsvp1-task","true","0","","","","","null","
					<div style='width: 900px;'>
					<div style='float: center;'><img src=img/nontarget_distractor134.jpeg  ></img>
					</div>
					","null","rsvp1","practice0","","","","","","","","","1","","","","","img/nontarget_distractor134.jpeg"
"","html-keyboard-response","67","83541","0.0-5.0-2.0-1.11","60fcd954f5ff1656599b53c9","60fcd954f5ff1656599b53c9","63a36e1df1afd18b014794e9","63a38e8fef0621c8004241bc","rsvp1-task","true","0","","","","","null","<span></span>","null","iti","","","","","","","","","","","","","","",""
"","html-keyboard-response","68","83658","0.0-5.0-2.0-0.12","60fcd954f5ff1656599b53c9","60fcd954f5ff1656599b53c9","63a36e1df1afd18b014794e9","63a38e8fef0621c8004241bc","rsvp1-task","true","0","","","","","null","
					<div style='width: 900px;'>
					<div style='float: center;'><img src=img/nontarget_distractor207.jpeg  ></img>
					</div>
					","null","rsvp1","practice0","","","","","","","","","1","","","","","img/nontarget_distractor207.jpeg"
"","html-keyboard-response","69","83673","0.0-5.0-2.0-1.12","60fcd954f5ff1656599b53c9","60fcd954f5ff1656599b53c9","63a36e1df1afd18b014794e9","63a38e8fef0621c8004241bc","rsvp1-task","true","0","","","","","null","<span></span>","null","iti","","","","","","","","","","","","","","",""
"","html-keyboard-response","70","83782","0.0-5.0-2.0-0.13","60fcd954f5ff1656599b53c9","60fcd954f5ff1656599b53c9","63a36e1df1afd18b014794e9","63a38e8fef0621c8004241bc","rsvp1-task","true","0","","","","","null","
					<div style='width: 900px;'>
					<div style='float: center;'><img src=img/nontarget_distractor149.jpeg  ></img>
					</div>
					","null","rsvp1","practice0","","","","","","","","","1","","","","","img/nontarget_distractor149.jpeg"
"","html-keyboard-response","71","83800","0.0-5.0-2.0-1.13","60fcd954f5ff1656599b53c9","60fcd954f5ff1656599b53c9","63a36e1df1afd18b014794e9","63a38e8fef0621c8004241bc","rsvp1-task","true","0","","","","","null","<span></span>","null","iti","","","","","","","","","","","","","","",""
"","html-keyboard-response","72","83907","0.0-5.0-2.0-0.14","60fcd954f5ff1656599b53c9","60fcd954f5ff1656599b53c9","63a36e1df1afd18b014794e9","63a38e8fef0621c8004241bc","rsvp1-task","true","0","","","","","null","
					<div style='width: 900px;'>
					<div style='float: center;'><img src=img/nontarget_distractor53.jpeg  ></img>
					</div>
					","null","rsvp1","practice0","","","","","","","","","1","","","","","img/nontarget_distractor53.jpeg"
"","html-keyboard-response","73","83922","0.0-5.0-2.0-1.14","60fcd954f5ff1656599b53c9","60fcd954f5ff1656599b53c9","63a36e1df1afd18b014794e9","63a38e8fef0621c8004241bc","rsvp1-task","true","0","","","","","null","<span></span>","null","iti","","","","","","","","","","","","","","",""
"","html-keyboard-response","74","84032","0.0-5.0-2.0-0.15","60fcd954f5ff1656599b53c9","60fcd954f5ff1656599b53c9","63a36e1df1afd18b014794e9","63a38e8fef0621c8004241bc","rsvp1-task","true","0","","","","","null","
					<div style='width: 900px;'>
					<div style='float: center;'><img src=img/nontarget_distractor156.jpeg  ></img>
					</div>
					","null","rsvp1","practice0","","","","","","","","","1","","","","","img/nontarget_distractor156.jpeg"
"","html-keyboard-response","75","84055","0.0-5.0-2.0-1.15","60fcd954f5ff1656599b53c9","60fcd954f5ff1656599b53c9","63a36e1df1afd18b014794e9","63a38e8fef0621c8004241bc","rsvp1-task","true","0","","","","","null","<span></span>","null","iti","","","","","","","","","","","","","","",""
"","html-keyboard-response","76","84159","0.0-5.0-2.0-0.16","60fcd954f5ff1656599b53c9","60fcd954f5ff1656599b53c9","63a36e1df1afd18b014794e9","63a38e8fef0621c8004241bc","rsvp1-task","true","0","","","","","null","
					<div style='width: 900px;'>
					<div style='float: center;'><img src=img/nontarget_distractor93.jpeg  ></img>
					</div>
					","null","rsvp1","practice0","","","","","","","","","1","","","","","img/nontarget_distractor93.jpeg"
"","html-keyboard-response","77","84165","0.0-5.0-2.0-1.16","60fcd954f5ff1656599b53c9","60fcd954f5ff1656599b53c9","63a36e1df1afd18b014794e9","63a38e8fef0621c8004241bc","rsvp1-task","true","0","","","","","null","<span></span>","null","iti","","","","","","","","","","","","","","",""
"","html-keyboard-response","78","88575","0.0-5.0-3.0-0.0","60fcd954f5ff1656599b53c9","60fcd954f5ff1656599b53c9","63a36e1df1afd18b014794e9","63a38e8fef0621c8004241bc","rsvp1-task","true","0","","","","","4405","<div class=""rsvp""> Was the rotated image rotated left (1 key) or right (0 key)?</div>","1","response","practice0","1","1","neutral","img/nontarget_distractor198.jpeg","img/nontarget_distractor134.jpeg","8","3","11","1","true","true","true","",""
"","html-keyboard-response","79","89581","0.0-5.0-4.0","60fcd954f5ff1656599b53c9","60fcd954f5ff1656599b53c9","63a36e1df1afd18b014794e9","63a38e8fef0621c8004241bc","rsvp1-task","true","0","","","","","null","Correct! </p> <p>  </p><p> ","null","","","","","","","","","","","","","","","main_T1_ITI",""
"","html-keyboard-response","80","91593","0.0-5.0-5.0","60fcd954f5ff1656599b53c9","60fcd954f5ff1656599b53c9","63a36e1df1afd18b014794e9","63a38e8fef0621c8004241bc","rsvp1-task","true","0","","","","","null","<div class=""rsvp"">+</div>","null","fixation","","","","","","","","","","","","","","",""
"","html-keyboard-response","81","91860","0.0-5.0-6.0","60fcd954f5ff1656599b53c9","60fcd954f5ff1656599b53c9","63a36e1df1afd18b014794e9","63a38e8fef0621c8004241bc","rsvp1-task","true","0","","","","","null","<div class=""rsvp"" ></div>","null","blank","","","","","","","","","","","","","","",""
"","html-keyboard-response","82","91969","0.0-5.0-7.0-0.0","60fcd954f5ff1656599b53c9","60fcd954f5ff1656599b53c9","63a36e1df1afd18b014794e9","63a38e8fef0621c8004241bc","rsvp1-task","true","0","","","","","null","
					<div style='width: 900px;'>
					<div style='float: center;'><img src=img/nontarget_distractor215.jpeg  ></img>
					</div>
					","null","rsvp1","practice0","","","","","","","","","2","","","","","img/nontarget_distractor215.jpeg"
"","html-keyboard-response","83","91975","0.0-5.0-7.0-1.0","60fcd954f5ff1656599b53c9","60fcd954f5ff1656599b53c9","63a36e1df1afd18b014794e9","63a38e8fef0621c8004241bc","rsvp1-task","true","0","","","","","null","<span></span>","null","iti","","","","","","","","","","","","","","",""
"","html-keyboard-response","84","92078","0.0-5.0-7.0-0.1","60fcd954f5ff1656599b53c9","60fcd954f5ff1656599b53c9","63a36e1df1afd18b014794e9","63a38e8fef0621c8004241bc","rsvp1-task","true","0","","","","","null","
					<div style='width: 900px;'>
					<div style='float: center;'><img src=img/nontarget_distractor15.jpeg  ></img>
					</div>
					","null","rsvp1","practice0","","","","","","","","","2","","","","","img/nontarget_distractor15.jpeg"
"","html-keyboard-response","85","92084","0.0-5.0-7.0-1.1","60fcd954f5ff1656599b53c9","60fcd954f5ff1656599b53c9","63a36e1df1afd18b014794e9","63a38e8fef0621c8004241bc","rsvp1-task","true","0","","","","","null","<span></span>","null","iti","","","","","","","","","","","","","","",""
"","html-keyboard-response","86","92187","0.0-5.0-7.0-0.2","60fcd954f5ff1656599b53c9","60fcd954f5ff1656599b53c9","63a36e1df1afd18b014794e9","63a38e8fef0621c8004241bc","rsvp1-task","true","0","","","","","null","
					<div style='width: 900px;'>
					<div style='float: center;'><img src=img/nontarget_distractor46.jpeg  ></img>
					</div>
					","null","rsvp1","practice0","","","","","","","","","2","","","","","img/nontarget_distractor46.jpeg"
"","html-keyboard-response","87","92194","0.0-5.0-7.0-1.2","60fcd954f5ff1656599b53c9","60fcd954f5ff1656599b53c9","63a36e1df1afd18b014794e9","63a38e8fef0621c8004241bc","rsvp1-task","true","0","","","","","null","<span></span>","null","iti","","","","","","","","","","","","","","",""
"","html-keyboard-response","88","92309","0.0-5.0-7.0-0.3","60fcd954f5ff1656599b53c9","60fcd954f5ff1656599b53c9","63a36e1df1afd18b014794e9","63a38e8fef0621c8004241bc","rsvp1-task","true","0","","","","","null","
					<div style='width: 900px;'>
					<div style='float: center;'><img src=img/nontarget_distractor184.jpeg  ></img>
					</div>
					","null","rsvp1","practice0","","","","","","","","","2","","","","","img/nontarget_distractor184.jpeg"
"","html-keyboard-response","89","92314","0.0-5.0-7.0-1.3","60fcd954f5ff1656599b53c9","60fcd954f5ff1656599b53c9","63a36e1df1afd18b014794e9","63a38e8fef0621c8004241bc","rsvp1-task","true","0","","","","","null","<span></span>","null","iti","","","","","","","","","","","","","","",""
"","html-keyboard-response","90","92418","0.0-5.0-7.0-0.4","60fcd954f5ff1656599b53c9","60fcd954f5ff1656599b53c9","63a36e1df1afd18b014794e9","63a38e8fef0621c8004241bc","rsvp1-task","true","0","","","","","null","
					<div style='width: 900px;'>
					<div style='float: center;'><img src=img/nontarget_distractor30.jpeg  ></img>
					</div>
					","null","rsvp1","practice0","","","","","","","","","2","","","","","img/nontarget_distractor30.jpeg"
"","html-keyboard-response","91","92436","0.0-5.0-7.0-1.4","60fcd954f5ff1656599b53c9","60fcd954f5ff1656599b53c9","63a36e1df1afd18b014794e9","63a38e8fef0621c8004241bc","rsvp1-task","true","0","","","","","null","<span></span>","null","iti","","","","","","","","","","","","","","",""
"","html-keyboard-response","92","92544","0.0-5.0-7.0-0.5","60fcd954f5ff1656599b53c9","60fcd954f5ff1656599b53c9","63a36e1df1afd18b014794e9","63a38e8fef0621c8004241bc","rsvp1-task","true","0","","","","","null","
					<div style='width: 900px;'>
					<div style='float: center;'><img src=img/nontarget_distractor206.jpeg  ></img>
					</div>
					","null","rsvp1","practice0","","","","","","","","","2","","","","","img/nontarget_distractor206.jpeg"
"","html-keyboard-response","93","92559","0.0-5.0-7.0-1.5","60fcd954f5ff1656599b53c9","60fcd954f5ff1656599b53c9","63a36e1df1afd18b014794e9","63a38e8fef0621c8004241bc","rsvp1-task","true","0","","","","","null","<span></span>","null","iti","","","","","","","","","","","","","","",""
"","html-keyboard-response","94","92669","0.0-5.0-7.0-0.6","60fcd954f5ff1656599b53c9","60fcd954f5ff1656599b53c9","63a36e1df1afd18b014794e9","63a38e8fef0621c8004241bc","rsvp1-task","true","0","","","","","null","
					<div style='width: 900px;'>
					<div style='float: center;'><img src=img/nontarget_distractor3.jpeg  ></img>
					</div>
					","null","rsvp1","practice0","","","","","","","","","2","","","","","img/nontarget_distractor3.jpeg"
"","html-keyboard-response","95","92687","0.0-5.0-7.0-1.6","60fcd954f5ff1656599b53c9","60fcd954f5ff1656599b53c9","63a36e1df1afd18b014794e9","63a38e8fef0621c8004241bc","rsvp1-task","true","0","","","","","null","<span></span>","null","iti","","","","","","","","","","","","","","",""
"","html-keyboard-response","96","92795","0.0-5.0-7.0-0.7","60fcd954f5ff1656599b53c9","60fcd954f5ff1656599b53c9","63a36e1df1afd18b014794e9","63a38e8fef0621c8004241bc","rsvp1-task","true","0","","","","","null","
					<div style='width: 900px;'>
					<div style='float: center;'><img src=img/nontarget_distractor51.jpeg  ></img>
					</div>
					","null","rsvp1","practice0","","","","","","","","","2","","","","","img/nontarget_distractor51.jpeg"
"","html-keyboard-response","97","92809","0.0-5.0-7.0-1.7","60fcd954f5ff1656599b53c9","60fcd954f5ff1656599b53c9","63a36e1df1afd18b014794e9","63a38e8fef0621c8004241bc","rsvp1-task","true","0","","","","","null","<span></span>","null","iti","","","","","","","","","","","","","","",""
"","html-keyboard-response","98","92919","0.0-5.0-7.0-0.8","60fcd954f5ff1656599b53c9","60fcd954f5ff1656599b53c9","63a36e1df1afd18b014794e9","63a38e8fef0621c8004241bc","rsvp1-task","true","0","","","","","null","
					<div style='width: 900px;'>
					<div style='float: center;'><img src=img/nontarget_distractor71.jpeg  ></img>
					</div>
					","null","rsvp1","practice0","","","","","","","","","2","","","","","img/nontarget_distractor71.jpeg"
"","html-keyboard-response","99","92926","0.0-5.0-7.0-1.8","60fcd954f5ff1656599b53c9","60fcd954f5ff1656599b53c9","63a36e1df1afd18b014794e9","63a38e8fef0621c8004241bc","rsvp1-task","true","0","","","","","null","<span></span>","null","iti","","","","","","","","","","","","","","",""
"","html-keyboard-response","100","93044","0.0-5.0-7.0-0.9","60fcd954f5ff1656599b53c9","60fcd954f5ff1656599b53c9","63a36e1df1afd18b014794e9","63a38e8fef0621c8004241bc","rsvp1-task","true","0","","","","","null","
					<div style='width: 900px;'>
					<div style='float: center;'><img src=img/nontarget_distractor216.jpeg  ></img>
					</div>
					","null","rsvp1","practice0","","","","","","","","","2","","","","","img/nontarget_distractor216.jpeg"
"","html-keyboard-response","101","93050","0.0-5.0-7.0-1.9","60fcd954f5ff1656599b53c9","60fcd954f5ff1656599b53c9","63a36e1df1afd18b014794e9","63a38e8fef0621c8004241bc","rsvp1-task","true","0","","","","","null","<span></span>","null","iti","","","","","","","","","","","","","","",""
"","html-keyboard-response","102","93168","0.0-5.0-7.0-0.10","60fcd954f5ff1656599b53c9","60fcd954f5ff1656599b53c9","63a36e1df1afd18b014794e9","63a38e8fef0621c8004241bc","rsvp1-task","true","0","","","","","null","
					<div style='width: 900px;'>
					<div style='float: center;'><img src=img/t2_targets163.jpeg class=""rotateimgR""  ></img>
					</div>
					","null","rsvp1","practice0","","","","","","","","","2","","","","","img/t2_targets163.jpeg class=""rotateimgR"""
"","html-keyboard-response","103","93184","0.0-5.0-7.0-1.10","60fcd954f5ff1656599b53c9","60fcd954f5ff1656599b53c9","63a36e1df1afd18b014794e9","63a38e8fef0621c8004241bc","rsvp1-task","true","0","","","","","null","<span></span>","null","iti","","","","","","","","","","","","","","",""
"","html-keyboard-response","104","93293","0.0-5.0-7.0-0.11","60fcd954f5ff1656599b53c9","60fcd954f5ff1656599b53c9","63a36e1df1afd18b014794e9","63a38e8fef0621c8004241bc","rsvp1-task","true","0","","","","","null","
					<div style='width: 900px;'>
					<div style='float: center;'><img src=img/nontarget_distractor144.jpeg  ></img>
					</div>
					","null","rsvp1","practice0","","","","","","","","","2","","","","","img/nontarget_distractor144.jpeg"
"","html-keyboard-response","105","93309","0.0-5.0-7.0-1.11","60fcd954f5ff1656599b53c9","60fcd954f5ff1656599b53c9","63a36e1df1afd18b014794e9","63a38e8fef0621c8004241bc","rsvp1-task","true","0","","","","","null","<span></span>","null","iti","","","","","","","","","","","","","","",""
"","html-keyboard-response","106","93418","0.0-5.0-7.0-0.12","60fcd954f5ff1656599b53c9","60fcd954f5ff1656599b53c9","63a36e1df1afd18b014794e9","63a38e8fef0621c8004241bc","rsvp1-task","true","0","","","","","null","
					<div style='width: 900px;'>
					<div style='float: center;'><img src=img/nontarget_distractor91.jpeg  ></img>
					</div>
					","null","rsvp1","practice0","","","","","","","","","2","","","","","img/nontarget_distractor91.jpeg"
"","html-keyboard-response","107","93424","0.0-5.0-7.0-1.12","60fcd954f5ff1656599b53c9","60fcd954f5ff1656599b53c9","63a36e1df1afd18b014794e9","63a38e8fef0621c8004241bc","rsvp1-task","true","0","","","","","null","<span></span>","null","iti","","","","","","","","","","","","","","",""
"","html-keyboard-response","108","93528","0.0-5.0-7.0-0.13","60fcd954f5ff1656599b53c9","60fcd954f5ff1656599b53c9","63a36e1df1afd18b014794e9","63a38e8fef0621c8004241bc","rsvp1-task","true","0","","","","","null","
					<div style='width: 900px;'>
					<div style='float: center;'><img src=img/nontarget_distractor24.jpeg  ></img>
					</div>
					","null","rsvp1","practice0","","","","","","","","","2","","","","","img/nontarget_distractor24.jpeg"
"","html-keyboard-response","109","93534","0.0-5.0-7.0-1.13","60fcd954f5ff1656599b53c9","60fcd954f5ff1656599b53c9","63a36e1df1afd18b014794e9","63a38e8fef0621c8004241bc","rsvp1-task","true","0","","","","","null","<span></span>","null","iti","","","","","","","","","","","","","","",""
"","html-keyboard-response","110","93638","0.0-5.0-7.0-0.14","60fcd954f5ff1656599b53c9","60fcd954f5ff1656599b53c9","63a36e1df1afd18b014794e9","63a38e8fef0621c8004241bc","rsvp1-task","true","0","","","","","null","
					<div style='width: 900px;'>
					<div style='float: center;'><img src=img/nontarget_distractor28.jpeg  ></img>
					</div>
					","null","rsvp1","practice0","","","","","","","","","2","","","","","img/nontarget_distractor28.jpeg"
"","html-keyboard-response","111","93668","0.0-5.0-7.0-1.14","60fcd954f5ff1656599b53c9","60fcd954f5ff1656599b53c9","63a36e1df1afd18b014794e9","63a38e8fef0621c8004241bc","rsvp1-task","true","0","","","","","null","<span></span>","null","iti","","","","","","","","","","","","","","",""
"","html-keyboard-response","112","93778","0.0-5.0-7.0-0.15","60fcd954f5ff1656599b53c9","60fcd954f5ff1656599b53c9","63a36e1df1afd18b014794e9","63a38e8fef0621c8004241bc","rsvp1-task","true","0","","","","","null","
					<div style='width: 900px;'>
					<div style='float: center;'><img src=img/nontarget_distractor249.jpeg  ></img>
					</div>
					","null","rsvp1","practice0","","","","","","","","","2","","","","","img/nontarget_distractor249.jpeg"
"","html-keyboard-response","113","93785","0.0-5.0-7.0-1.15","60fcd954f5ff1656599b53c9","60fcd954f5ff1656599b53c9","63a36e1df1afd18b014794e9","63a38e8fef0621c8004241bc","rsvp1-task","true","0","","","","","null","<span></span>","null","iti","","","","","","","","","","","","","","",""
"","html-keyboard-response","114","93887","0.0-5.0-7.0-0.16","60fcd954f5ff1656599b53c9","60fcd954f5ff1656599b53c9","63a36e1df1afd18b014794e9","63a38e8fef0621c8004241bc","rsvp1-task","true","0","","","","","null","
					<div style='width: 900px;'>
					<div style='float: center;'><img src=img/nontarget_distractor203.jpeg  ></img>
					</div>
					","null","rsvp1","practice0","","","","","","","","","2","","","","","img/nontarget_distractor203.jpeg"
"","html-keyboard-response","115","93893","0.0-5.0-7.0-1.16","60fcd954f5ff1656599b53c9","60fcd954f5ff1656599b53c9","63a36e1df1afd18b014794e9","63a38e8fef0621c8004241bc","rsvp1-task","true","0","","","","","null","<span></span>","null","iti","","","","","","","","","","","","","","",""
"","html-keyboard-response","116","95509","0.0-5.0-8.0-0.0","60fcd954f5ff1656599b53c9","60fcd954f5ff1656599b53c9","63a36e1df1afd18b014794e9","63a38e8fef0621c8004241bc","rsvp1-task","true","0","","","","","1611","<div class=""rsvp""> Was the rotated image rotated left (1 key) or right (0 key)?</div>","1","response","practice0","0","0","neutral","img/nontarget_distractor51.jpeg","img/nontarget_distractor144.jpeg","8","3","11","2","false","false","false","",""
"","html-keyboard-response","117","96517","0.0-5.0-9.0","60fcd954f5ff1656599b53c9","60fcd954f5ff1656599b53c9","63a36e1df1afd18b014794e9","63a38e8fef0621c8004241bc","rsvp1-task","true","0","","","","","null","Wrong. </p> <p>  </p><p> ","null","","","","","","","","","","","","","","","main_T1_ITI",""
"","html-keyboard-response","118","98529","0.0-5.0-10.0","60fcd954f5ff1656599b53c9","60fcd954f5ff1656599b53c9","63a36e1df1afd18b014794e9","63a38e8fef0621c8004241bc","rsvp1-task","true","0","","","","","null","<div class=""rsvp"">+</div>","null","fixation","","","","","","","","","","","","","","",""
"","html-keyboard-response","119","98788","0.0-5.0-11.0","60fcd954f5ff1656599b53c9","60fcd954f5ff1656599b53c9","63a36e1df1afd18b014794e9","63a38e8fef0621c8004241bc","rsvp1-task","true","0","","","","","null","<div class=""rsvp"" ></div>","null","blank","","","","","","","","","","","","","","",""
"","html-keyboard-response","120","98898","0.0-5.0-12.0-0.0","60fcd954f5ff1656599b53c9","60fcd954f5ff1656599b53c9","63a36e1df1afd18b014794e9","63a38e8fef0621c8004241bc","rsvp1-task","true","0","","","","","null","
					<div style='width: 900px;'>
					<div style='float: center;'><img src=img/nontarget_distractor134.jpeg  ></img>
					</div>
					","null","rsvp1","practice0","","","","","","","","","3","","","","","img/nontarget_distractor134.jpeg"
"","html-keyboard-response","121","98904","0.0-5.0-12.0-1.0","60fcd954f5ff1656599b53c9","60fcd954f5ff1656599b53c9","63a36e1df1afd18b014794e9","63a38e8fef0621c8004241bc","rsvp1-task","true","0","","","","","null","<span></span>","null","iti","","","","","","","","","","","","","","",""
"","html-keyboard-response","122","99008","0.0-5.0-12.0-0.1","60fcd954f5ff1656599b53c9","60fcd954f5ff1656599b53c9","63a36e1df1afd18b014794e9","63a38e8fef0621c8004241bc","rsvp1-task","true","0","","","","","null","
					<div style='width: 900px;'>
					<div style='float: center;'><img src=img/nontarget_distractor105.jpeg  ></img>
					</div>
					","null","rsvp1","practice0","","","","","","","","","3","","","","","img/nontarget_distractor105.jpeg"
"","html-keyboard-response","123","99022","0.0-5.0-12.0-1.1","60fcd954f5ff1656599b53c9","60fcd954f5ff1656599b53c9","63a36e1df1afd18b014794e9","63a38e8fef0621c8004241bc","rsvp1-task","true","0","","","","","null","<span></span>","null","iti","","","","","","","","","","","","","","",""
"","html-keyboard-response","124","99133","0.0-5.0-12.0-0.2","60fcd954f5ff1656599b53c9","60fcd954f5ff1656599b53c9","63a36e1df1afd18b014794e9","63a38e8fef0621c8004241bc","rsvp1-task","true","0","","","","","null","
					<div style='width: 900px;'>
					<div style='float: center;'><img src=img/nontarget_distractor11.jpeg  ></img>
					</div>
					","null","rsvp1","practice0","","","","","","","","","3","","","","","img/nontarget_distractor11.jpeg"
"","html-keyboard-response","125","99140","0.0-5.0-12.0-1.2","60fcd954f5ff1656599b53c9","60fcd954f5ff1656599b53c9","63a36e1df1afd18b014794e9","63a38e8fef0621c8004241bc","rsvp1-task","true","0","","","","","null","<span></span>","null","iti","","","","","","","","","","","","","","",""
"","html-keyboard-response","126","99242","0.0-5.0-12.0-0.3","60fcd954f5ff1656599b53c9","60fcd954f5ff1656599b53c9","63a36e1df1afd18b014794e9","63a38e8fef0621c8004241bc","rsvp1-task","true","0","","","","","null","
					<div style='width: 900px;'>
					<div style='float: center;'><img src=img/nontarget_distractor60.jpeg  ></img>
					</div>
					","null","rsvp1","practice0","","","","","","","","","3","","","","","img/nontarget_distractor60.jpeg"
"","html-keyboard-response","127","99257","0.0-5.0-12.0-1.3","60fcd954f5ff1656599b53c9","60fcd954f5ff1656599b53c9","63a36e1df1afd18b014794e9","63a38e8fef0621c8004241bc","rsvp1-task","true","0","","","","","null","<span></span>","null","iti","","","","","","","","","","","","","","",""
"","html-keyboard-response","128","99368","0.0-5.0-12.0-0.4","60fcd954f5ff1656599b53c9","60fcd954f5ff1656599b53c9","63a36e1df1afd18b014794e9","63a38e8fef0621c8004241bc","rsvp1-task","true","0","","","","","null","
					<div style='width: 900px;'>
					<div style='float: center;'><img src=img/nontarget_distractor17.jpeg  ></img>
					</div>
					","null","rsvp1","practice0","","","","","","","","","3","","","","","img/nontarget_distractor17.jpeg"
"","html-keyboard-response","129","99374","0.0-5.0-12.0-1.4","60fcd954f5ff1656599b53c9","60fcd954f5ff1656599b53c9","63a36e1df1afd18b014794e9","63a38e8fef0621c8004241bc","rsvp1-task","true","0","","","","","null","<span></span>","null","iti","","","","","","","","","","","","","","",""
"","html-keyboard-response","130","99477","0.0-5.0-12.0-0.5","60fcd954f5ff1656599b53c9","60fcd954f5ff1656599b53c9","63a36e1df1afd18b014794e9","63a38e8fef0621c8004241bc","rsvp1-task","true","0","","","","","null","
					<div style='width: 900px;'>
					<div style='float: center;'><img src=img/nontarget_distractor91.jpeg  ></img>
					</div>
					","null","rsvp1","practice0","","","","","","","","","3","","","","","img/nontarget_distractor91.jpeg"
"","html-keyboard-response","131","99483","0.0-5.0-12.0-1.5","60fcd954f5ff1656599b53c9","60fcd954f5ff1656599b53c9","63a36e1df1afd18b014794e9","63a38e8fef0621c8004241bc","rsvp1-task","true","0","","","","","null","<span></span>","null","iti","","","","","","","","","","","","","","",""
"","html-keyboard-response","132","99586","0.0-5.0-12.0-0.6","60fcd954f5ff1656599b53c9","60fcd954f5ff1656599b53c9","63a36e1df1afd18b014794e9","63a38e8fef0621c8004241bc","rsvp1-task","true","0","","","","","null","
					<div style='width: 900px;'>
					<div style='float: center;'><img src=img/nontarget_distractor166.jpeg  ></img>
					</div>
					","null","rsvp1","practice0","","","","","","","","","3","","","","","img/nontarget_distractor166.jpeg"
"","html-keyboard-response","133","99607","0.0-5.0-12.0-1.6","60fcd954f5ff1656599b53c9","60fcd954f5ff1656599b53c9","63a36e1df1afd18b014794e9","63a38e8fef0621c8004241bc","rsvp1-task","true","0","","","","","null","<span></span>","null","iti","","","","","","","","","","","","","","",""
"","html-keyboard-response","134","99710","0.0-5.0-12.0-0.7","60fcd954f5ff1656599b53c9","60fcd954f5ff1656599b53c9","63a36e1df1afd18b014794e9","63a38e8fef0621c8004241bc","rsvp1-task","true","0","","","","","null","
					<div style='width: 900px;'>
					<div style='float: center;'><img src=img/nontarget_distractor129.jpeg  ></img>
					</div>
					","null","rsvp1","practice0","","","","","","","","","3","","","","","img/nontarget_distractor129.jpeg"
"","html-keyboard-response","135","99720","0.0-5.0-12.0-1.7","60fcd954f5ff1656599b53c9","60fcd954f5ff1656599b53c9","63a36e1df1afd18b014794e9","63a38e8fef0621c8004241bc","rsvp1-task","true","0","","","","","null","<span></span>","null","iti","","","","","","","","","","","","","","",""
"","html-keyboard-response","136","99836","0.0-5.0-12.0-0.8","60fcd954f5ff1656599b53c9","60fcd954f5ff1656599b53c9","63a36e1df1afd18b014794e9","63a38e8fef0621c8004241bc","rsvp1-task","true","0","","","","","null","
					<div style='width: 900px;'>
					<div style='float: center;'><img src=img/nontarget_distractor120.jpeg  ></img>
					</div>
					","null","rsvp1","practice0","","","","","","","","","3","","","","","img/nontarget_distractor120.jpeg"
"","html-keyboard-response","137","99851","0.0-5.0-12.0-1.8","60fcd954f5ff1656599b53c9","60fcd954f5ff1656599b53c9","63a36e1df1afd18b014794e9","63a38e8fef0621c8004241bc","rsvp1-task","true","0","","","","","null","<span></span>","null","iti","","","","","","","","","","","","","","",""
"","html-keyboard-response","138","99965","0.0-5.0-12.0-0.9","60fcd954f5ff1656599b53c9","60fcd954f5ff1656599b53c9","63a36e1df1afd18b014794e9","63a38e8fef0621c8004241bc","rsvp1-task","true","0","","","","","null","
					<div style='width: 900px;'>
					<div style='float: center;'><img src=img/nontarget_distractor99.jpeg  ></img>
					</div>
					","null","rsvp1","practice0","","","","","","","","","3","","","","","img/nontarget_distractor99.jpeg"
"","html-keyboard-response","139","99976","0.0-5.0-12.0-1.9","60fcd954f5ff1656599b53c9","60fcd954f5ff1656599b53c9","63a36e1df1afd18b014794e9","63a38e8fef0621c8004241bc","rsvp1-task","true","0","","","","","null","<span></span>","null","iti","","","","","","","","","","","","","","",""
"","html-keyboard-response","140","100081","0.0-5.0-12.0-0.10","60fcd954f5ff1656599b53c9","60fcd954f5ff1656599b53c9","63a36e1df1afd18b014794e9","63a38e8fef0621c8004241bc","rsvp1-task","true","0","","","","","null","
					<div style='width: 900px;'>
					<div style='float: center;'><img src=img/nontarget_distractor2.jpeg  ></img>
					</div>
					","null","rsvp1","practice0","","","","","","","","","3","","","","","img/nontarget_distractor2.jpeg"
"","html-keyboard-response","141","100102","0.0-5.0-12.0-1.10","60fcd954f5ff1656599b53c9","60fcd954f5ff1656599b53c9","63a36e1df1afd18b014794e9","63a38e8fef0621c8004241bc","rsvp1-task","true","0","","","","","null","<span></span>","null","iti","","","","","","","","","","","","","","",""
"","html-keyboard-response","142","100218","0.0-5.0-12.0-0.11","60fcd954f5ff1656599b53c9","60fcd954f5ff1656599b53c9","63a36e1df1afd18b014794e9","63a38e8fef0621c8004241bc","rsvp1-task","true","0","","","","","null","
					<div style='width: 900px;'>
					<div style='float: center;'><img src=img/t2_targets68.jpeg class=""rotateimgR""  ></img>
					</div>
					","null","rsvp1","practice0","","","","","","","","","3","","","","","img/t2_targets68.jpeg class=""rotateimgR"""
"","html-keyboard-response","143","100224","0.0-5.0-12.0-1.11","60fcd954f5ff1656599b53c9","60fcd954f5ff1656599b53c9","63a36e1df1afd18b014794e9","63a38e8fef0621c8004241bc","rsvp1-task","true","0","","","","","null","<span></span>","null","iti","","","","","","","","","","","","","","",""
"","html-keyboard-response","144","100328","0.0-5.0-12.0-0.12","60fcd954f5ff1656599b53c9","60fcd954f5ff1656599b53c9","63a36e1df1afd18b014794e9","63a38e8fef0621c8004241bc","rsvp1-task","true","0","","","","","null","
					<div style='width: 900px;'>
					<div style='float: center;'><img src=img/nontarget_distractor81.jpeg  ></img>
					</div>
					","null","rsvp1","practice0","","","","","","","","","3","","","","","img/nontarget_distractor81.jpeg"
"","html-keyboard-response","145","100335","0.0-5.0-12.0-1.12","60fcd954f5ff1656599b53c9","60fcd954f5ff1656599b53c9","63a36e1df1afd18b014794e9","63a38e8fef0621c8004241bc","rsvp1-task","true","0","","","","","null","<span></span>","null","iti","","","","","","","","","","","","","","",""
"","html-keyboard-response","146","100452","0.0-5.0-12.0-0.13","60fcd954f5ff1656599b53c9","60fcd954f5ff1656599b53c9","63a36e1df1afd18b014794e9","63a38e8fef0621c8004241bc","rsvp1-task","true","0","","","","","null","
					<div style='width: 900px;'>
					<div style='float: center;'><img src=img/nontarget_distractor116.jpeg  ></img>
					</div>
					","null","rsvp1","practice0","","","","","","","","","3","","","","","img/nontarget_distractor116.jpeg"
"","html-keyboard-response","147","100471","0.0-5.0-12.0-1.13","60fcd954f5ff1656599b53c9","60fcd954f5ff1656599b53c9","63a36e1df1afd18b014794e9","63a38e8fef0621c8004241bc","rsvp1-task","true","0","","","","","null","<span></span>","null","iti","","","","","","","","","","","","","","",""
"","html-keyboard-response","148","100591","0.0-5.0-12.0-0.14","60fcd954f5ff1656599b53c9","60fcd954f5ff1656599b53c9","63a36e1df1afd18b014794e9","63a38e8fef0621c8004241bc","rsvp1-task","true","0","","","","","null","
					<div style='width: 900px;'>
					<div style='float: center;'><img src=img/nontarget_distractor71.jpeg  ></img>
					</div>
					","null","rsvp1","practice0","","","","","","","","","3","","","","","img/nontarget_distractor71.jpeg"
"","html-keyboard-response","149","100605","0.0-5.0-12.0-1.14","60fcd954f5ff1656599b53c9","60fcd954f5ff1656599b53c9","63a36e1df1afd18b014794e9","63a38e8fef0621c8004241bc","rsvp1-task","true","0","","","","","null","<span></span>","null","iti","","","","","","","","","","","","","","",""
"","html-keyboard-response","150","100718","0.0-5.0-12.0-0.15","60fcd954f5ff1656599b53c9","60fcd954f5ff1656599b53c9","63a36e1df1afd18b014794e9","63a38e8fef0621c8004241bc","rsvp1-task","true","0","","","","","null","
					<div style='width: 900px;'>
					<div style='float: center;'><img src=img/nontarget_distractor100.jpeg  ></img>
					</div>
					","null","rsvp1","practice0","","","","","","","","","3","","","","","img/nontarget_distractor100.jpeg"
"","html-keyboard-response","151","100736","0.0-5.0-12.0-1.15","60fcd954f5ff1656599b53c9","60fcd954f5ff1656599b53c9","63a36e1df1afd18b014794e9","63a38e8fef0621c8004241bc","rsvp1-task","true","0","","","","","null","<span></span>","null","iti","","","","","","","","","","","","","","",""
"","html-keyboard-response","152","100844","0.0-5.0-12.0-0.16","60fcd954f5ff1656599b53c9","60fcd954f5ff1656599b53c9","63a36e1df1afd18b014794e9","63a38e8fef0621c8004241bc","rsvp1-task","true","0","","","","","null","
					<div style='width: 900px;'>
					<div style='float: center;'><img src=img/nontarget_distractor78.jpeg  ></img>
					</div>
					","null","rsvp1","practice0","","","","","","","","","3","","","","","img/nontarget_distractor78.jpeg"
"","html-keyboard-response","153","100850","0.0-5.0-12.0-1.16","60fcd954f5ff1656599b53c9","60fcd954f5ff1656599b53c9","63a36e1df1afd18b014794e9","63a38e8fef0621c8004241bc","rsvp1-task","true","0","","","","","null","<span></span>","null","iti","","","","","","","","","","","","","","",""
"","html-keyboard-response","154","102075","0.0-5.0-13.0-0.0","60fcd954f5ff1656599b53c9","60fcd954f5ff1656599b53c9","63a36e1df1afd18b014794e9","63a38e8fef0621c8004241bc","rsvp1-task","true","0","","","","","1223","<div class=""rsvp""> Was the rotated image rotated left (1 key) or right (0 key)?</div>","0","response","practice0","0","0","neutral","img/nontarget_distractor129.jpeg","img/nontarget_distractor81.jpeg","8","4","12","3","true","true","true","",""
"","html-keyboard-response","155","103087","0.0-5.0-14.0","60fcd954f5ff1656599b53c9","60fcd954f5ff1656599b53c9","63a36e1df1afd18b014794e9","63a38e8fef0621c8004241bc","rsvp1-task","true","0","","","","","null","Correct! </p> <p>  </p><p> ","null","","","","","","","","","","","","","","","main_T1_ITI",""
"","html-keyboard-response","156","105099","0.0-5.0-15.0","60fcd954f5ff1656599b53c9","60fcd954f5ff1656599b53c9","63a36e1df1afd18b014794e9","63a38e8fef0621c8004241bc","rsvp1-task","true","0","","","","","null","<div class=""rsvp"">+</div>","null","fixation","","","","","","","","","","","","","","",""
"","html-keyboard-response","157","105350","0.0-5.0-16.0","60fcd954f5ff1656599b53c9","60fcd954f5ff1656599b53c9","63a36e1df1afd18b014794e9","63a38e8fef0621c8004241bc","rsvp1-task","true","0","","","","","null","<div class=""rsvp"" ></div>","null","blank","","","","","","","","","","","","","","",""
"","html-keyboard-response","158","105455","0.0-5.0-17.0-0.0","60fcd954f5ff1656599b53c9","60fcd954f5ff1656599b53c9","63a36e1df1afd18b014794e9","63a38e8fef0621c8004241bc","rsvp1-task","true","0","","","","","null","
					<div style='width: 900px;'>
					<div style='float: center;'><img src=img/nontarget_distractor142.jpeg  ></img>
					</div>
					","null","rsvp1","practice0","","","","","","","","","4","","","","","img/nontarget_distractor142.jpeg"
"","html-keyboard-response","159","105471","0.0-5.0-17.0-1.0","60fcd954f5ff1656599b53c9","60fcd954f5ff1656599b53c9","63a36e1df1afd18b014794e9","63a38e8fef0621c8004241bc","rsvp1-task","true","0","","","","","null","<span></span>","null","iti","","","","","","","","","","","","","","",""
"","html-keyboard-response","160","105580","0.0-5.0-17.0-0.1","60fcd954f5ff1656599b53c9","60fcd954f5ff1656599b53c9","63a36e1df1afd18b014794e9","63a38e8fef0621c8004241bc","rsvp1-task","true","0","","","","","null","
					<div style='width: 900px;'>
					<div style='float: center;'><img src=img/nontarget_distractor152.jpeg  ></img>
					</div>
					","null","rsvp1","practice0","","","","","","","","","4","","","","","img/nontarget_distractor152.jpeg"
"","html-keyboard-response","161","105587","0.0-5.0-17.0-1.1","60fcd954f5ff1656599b53c9","60fcd954f5ff1656599b53c9","63a36e1df1afd18b014794e9","63a38e8fef0621c8004241bc","rsvp1-task","true","0","","","","","null","<span></span>","null","iti","","","","","","","","","","","","","","",""
"","html-keyboard-response","162","105689","0.0-5.0-17.0-0.2","60fcd954f5ff1656599b53c9","60fcd954f5ff1656599b53c9","63a36e1df1afd18b014794e9","63a38e8fef0621c8004241bc","rsvp1-task","true","0","","","","","null","
					<div style='width: 900px;'>
					<div style='float: center;'><img src=img/nontarget_distractor68.jpeg  ></img>
					</div>
					","null","rsvp1","practice0","","","","","","","","","4","","","","","img/nontarget_distractor68.jpeg"
"","html-keyboard-response","163","105696","0.0-5.0-17.0-1.2","60fcd954f5ff1656599b53c9","60fcd954f5ff1656599b53c9","63a36e1df1afd18b014794e9","63a38e8fef0621c8004241bc","rsvp1-task","true","0","","","","","null","<span></span>","null","iti","","","","","","","","","","","","","","",""
"","html-keyboard-response","164","105799","0.0-5.0-17.0-0.3","60fcd954f5ff1656599b53c9","60fcd954f5ff1656599b53c9","63a36e1df1afd18b014794e9","63a38e8fef0621c8004241bc","rsvp1-task","true","0","","","","","null","
					<div style='width: 900px;'>
					<div style='float: center;'><img src=img/nontarget_distractor51.jpeg  ></img>
					</div>
					","null","rsvp1","practice0","","","","","","","","","4","","","","","img/nontarget_distractor51.jpeg"
"","html-keyboard-response","165","105808","0.0-5.0-17.0-1.3","60fcd954f5ff1656599b53c9","60fcd954f5ff1656599b53c9","63a36e1df1afd18b014794e9","63a38e8fef0621c8004241bc","rsvp1-task","true","0","","","","","null","<span></span>","null","iti","","","","","","","","","","","","","","",""
"","html-keyboard-response","166","105925","0.0-5.0-17.0-0.4","60fcd954f5ff1656599b53c9","60fcd954f5ff1656599b53c9","63a36e1df1afd18b014794e9","63a38e8fef0621c8004241bc","rsvp1-task","true","0","","","","","null","
					<div style='width: 900px;'>
					<div style='float: center;'><img src=img/nontarget_distractor11.jpeg  ></img>
					</div>
					","null","rsvp1","practice0","","","","","","","","","4","","","","","img/nontarget_distractor11.jpeg"
"","html-keyboard-response","167","105931","0.0-5.0-17.0-1.4","60fcd954f5ff1656599b53c9","60fcd954f5ff1656599b53c9","63a36e1df1afd18b014794e9","63a38e8fef0621c8004241bc","rsvp1-task","true","0","","","","","null","<span></span>","null","iti","","","","","","","","","","","","","","",""
"","html-keyboard-response","168","106049","0.0-5.0-17.0-0.5","60fcd954f5ff1656599b53c9","60fcd954f5ff1656599b53c9","63a36e1df1afd18b014794e9","63a38e8fef0621c8004241bc","rsvp1-task","true","0","","","","","null","
					<div style='width: 900px;'>
					<div style='float: center;'><img src=img/nontarget_distractor208.jpeg  ></img>
					</div>
					","null","rsvp1","practice0","","","","","","","","","4","","","","","img/nontarget_distractor208.jpeg"
"","html-keyboard-response","169","106065","0.0-5.0-17.0-1.5","60fcd954f5ff1656599b53c9","60fcd954f5ff1656599b53c9","63a36e1df1afd18b014794e9","63a38e8fef0621c8004241bc","rsvp1-task","true","0","","","","","null","<span></span>","null","iti","","","","","","","","","","","","","","",""
"","html-keyboard-response","170","106180","0.0-5.0-17.0-0.6","60fcd954f5ff1656599b53c9","60fcd954f5ff1656599b53c9","63a36e1df1afd18b014794e9","63a38e8fef0621c8004241bc","rsvp1-task","true","0","","","","","null","
					<div style='width: 900px;'>
					<div style='float: center;'><img src=img/nontarget_distractor48.jpeg  ></img>
					</div>
					","null","rsvp1","practice0","","","","","","","","","4","","","","","img/nontarget_distractor48.jpeg"
"","html-keyboard-response","171","106188","0.0-5.0-17.0-1.6","60fcd954f5ff1656599b53c9","60fcd954f5ff1656599b53c9","63a36e1df1afd18b014794e9","63a38e8fef0621c8004241bc","rsvp1-task","true","0","","","","","null","<span></span>","null","iti","","","","","","","","","","","","","","",""
"","html-keyboard-response","172","106305","0.0-5.0-17.0-0.7","60fcd954f5ff1656599b53c9","60fcd954f5ff1656599b53c9","63a36e1df1afd18b014794e9","63a38e8fef0621c8004241bc","rsvp1-task","true","0","","","","","null","
					<div style='width: 900px;'>
					<div style='float: center;'><img src=img/nontarget_distractor250.jpeg  ></img>
					</div>
					","null","rsvp1","practice0","","","","","","","","","4","","","","","img/nontarget_distractor250.jpeg"
"","html-keyboard-response","173","106320","0.0-5.0-17.0-1.7","60fcd954f5ff1656599b53c9","60fcd954f5ff1656599b53c9","63a36e1df1afd18b014794e9","63a38e8fef0621c8004241bc","rsvp1-task","true","0","","","","","null","<span></span>","null","iti","","","","","","","","","","","","","","",""
"","html-keyboard-response","174","106430","0.0-5.0-17.0-0.8","60fcd954f5ff1656599b53c9","60fcd954f5ff1656599b53c9","63a36e1df1afd18b014794e9","63a38e8fef0621c8004241bc","rsvp1-task","true","0","","","","","null","
					<div style='width: 900px;'>
					<div style='float: center;'><img src=img/nontarget_distractor127.jpeg  ></img>
					</div>
					","null","rsvp1","practice0","","","","","","","","","4","","","","","img/nontarget_distractor127.jpeg"
"","html-keyboard-response","175","106445","0.0-5.0-17.0-1.8","60fcd954f5ff1656599b53c9","60fcd954f5ff1656599b53c9","63a36e1df1afd18b014794e9","63a38e8fef0621c8004241bc","rsvp1-task","true","0","","","","","null","<span></span>","null","iti","","","","","","","","","","","","","","",""
"","html-keyboard-response","176","106555","0.0-5.0-17.0-0.9","60fcd954f5ff1656599b53c9","60fcd954f5ff1656599b53c9","63a36e1df1afd18b014794e9","63a38e8fef0621c8004241bc","rsvp1-task","true","0","","","","","null","
					<div style='width: 900px;'>
					<div style='float: center;'><img src=img/nontarget_distractor50.jpeg  ></img>
					</div>
					","null","rsvp1","practice0","","","","","","","","","4","","","","","img/nontarget_distractor50.jpeg"
"","html-keyboard-response","177","106561","0.0-5.0-17.0-1.9","60fcd954f5ff1656599b53c9","60fcd954f5ff1656599b53c9","63a36e1df1afd18b014794e9","63a38e8fef0621c8004241bc","rsvp1-task","true","0","","","","","null","<span></span>","null","iti","","","","","","","","","","","","","","",""
"","html-keyboard-response","178","106664","0.0-5.0-17.0-0.10","60fcd954f5ff1656599b53c9","60fcd954f5ff1656599b53c9","63a36e1df1afd18b014794e9","63a38e8fef0621c8004241bc","rsvp1-task","true","0","","","","","null","
					<div style='width: 900px;'>
					<div style='float: center;'><img src=img/nontarget_distractor213.jpeg  ></img>
					</div>
					","null","rsvp1","practice0","","","","","","","","","4","","","","","img/nontarget_distractor213.jpeg"
"","html-keyboard-response","179","106680","0.0-5.0-17.0-1.10","60fcd954f5ff1656599b53c9","60fcd954f5ff1656599b53c9","63a36e1df1afd18b014794e9","63a38e8fef0621c8004241bc","rsvp1-task","true","0","","","","","null","<span></span>","null","iti","","","","","","","","","","","","","","",""
"","html-keyboard-response","180","106789","0.0-5.0-17.0-0.11","60fcd954f5ff1656599b53c9","60fcd954f5ff1656599b53c9","63a36e1df1afd18b014794e9","63a38e8fef0621c8004241bc","rsvp1-task","true","0","","","","","null","
					<div style='width: 900px;'>
					<div style='float: center;'><img src=img/nontarget_distractor118.jpeg  ></img>
					</div>
					","null","rsvp1","practice0","","","","","","","","","4","","","","","img/nontarget_distractor118.jpeg"
"","html-keyboard-response","181","106796","0.0-5.0-17.0-1.11","60fcd954f5ff1656599b53c9","60fcd954f5ff1656599b53c9","63a36e1df1afd18b014794e9","63a38e8fef0621c8004241bc","rsvp1-task","true","0","","","","","null","<span></span>","null","iti","","","","","","","","","","","","","","",""
"","html-keyboard-response","182","106915","0.0-5.0-17.0-0.12","60fcd954f5ff1656599b53c9","60fcd954f5ff1656599b53c9","63a36e1df1afd18b014794e9","63a38e8fef0621c8004241bc","rsvp1-task","true","0","","","","","null","
					<div style='width: 900px;'>
					<div style='float: center;'><img src=img/t2_targets31.jpeg class=""rotateimgR""  ></img>
					</div>
					","null","rsvp1","practice0","","","","","","","","","4","","","","","img/t2_targets31.jpeg class=""rotateimgR"""
"","html-keyboard-response","183","106929","0.0-5.0-17.0-1.12","60fcd954f5ff1656599b53c9","60fcd954f5ff1656599b53c9","63a36e1df1afd18b014794e9","63a38e8fef0621c8004241bc","rsvp1-task","true","0","","","","","null","<span></span>","null","iti","","","","","","","","","","","","","","",""
"","html-keyboard-response","184","107040","0.0-5.0-17.0-0.13","60fcd954f5ff1656599b53c9","60fcd954f5ff1656599b53c9","63a36e1df1afd18b014794e9","63a38e8fef0621c8004241bc","rsvp1-task","true","0","","","","","null","
					<div style='width: 900px;'>
					<div style='float: center;'><img src=img/nontarget_distractor18.jpeg  ></img>
					</div>
					","null","rsvp1","practice0","","","","","","","","","4","","","","","img/nontarget_distractor18.jpeg"
"","html-keyboard-response","185","107045","0.0-5.0-17.0-1.13","60fcd954f5ff1656599b53c9","60fcd954f5ff1656599b53c9","63a36e1df1afd18b014794e9","63a38e8fef0621c8004241bc","rsvp1-task","true","0","","","","","null","<span></span>","null","iti","","","","","","","","","","","","","","",""
"","html-keyboard-response","186","107149","0.0-5.0-17.0-0.14","60fcd954f5ff1656599b53c9","60fcd954f5ff1656599b53c9","63a36e1df1afd18b014794e9","63a38e8fef0621c8004241bc","rsvp1-task","true","0","","","","","null","
					<div style='width: 900px;'>
					<div style='float: center;'><img src=img/nontarget_distractor119.jpeg  ></img>
					</div>
					","null","rsvp1","practice0","","","","","","","","","4","","","","","img/nontarget_distractor119.jpeg"
"","html-keyboard-response","187","107158","0.0-5.0-17.0-1.14","60fcd954f5ff1656599b53c9","60fcd954f5ff1656599b53c9","63a36e1df1afd18b014794e9","63a38e8fef0621c8004241bc","rsvp1-task","true","0","","","","","null","<span></span>","null","iti","","","","","","","","","","","","","","",""
"","html-keyboard-response","188","107274","0.0-5.0-17.0-0.15","60fcd954f5ff1656599b53c9","60fcd954f5ff1656599b53c9","63a36e1df1afd18b014794e9","63a38e8fef0621c8004241bc","rsvp1-task","true","0","","","","","null","
					<div style='width: 900px;'>
					<div style='float: center;'><img src=img/nontarget_distractor91.jpeg  ></img>
					</div>
					","null","rsvp1","practice0","","","","","","","","","4","","","","","img/nontarget_distractor91.jpeg"
"","html-keyboard-response","189","107288","0.0-5.0-17.0-1.15","60fcd954f5ff1656599b53c9","60fcd954f5ff1656599b53c9","63a36e1df1afd18b014794e9","63a38e8fef0621c8004241bc","rsvp1-task","true","0","","","","","null","<span></span>","null","iti","","","","","","","","","","","","","","",""
"","html-keyboard-response","190","107398","0.0-5.0-17.0-0.16","60fcd954f5ff1656599b53c9","60fcd954f5ff1656599b53c9","63a36e1df1afd18b014794e9","63a38e8fef0621c8004241bc","rsvp1-task","true","0","","","","","null","
					<div style='width: 900px;'>
					<div style='float: center;'><img src=img/nontarget_distractor242.jpeg  ></img>
					</div>
					","null","rsvp1","practice0","","","","","","","","","4","","","","","img/nontarget_distractor242.jpeg"
"","html-keyboard-response","191","107418","0.0-5.0-17.0-1.16","60fcd954f5ff1656599b53c9","60fcd954f5ff1656599b53c9","63a36e1df1afd18b014794e9","63a38e8fef0621c8004241bc","rsvp1-task","true","0","","","","","null","<span></span>","null","iti","","","","","","","","","","","","","","",""
"","html-keyboard-response","192","111441","0.0-5.0-18.0-0.0","60fcd954f5ff1656599b53c9","60fcd954f5ff1656599b53c9","63a36e1df1afd18b014794e9","63a38e8fef0621c8004241bc","rsvp1-task","true","0","","","","","4023","<div class=""rsvp""> Was the rotated image rotated left (1 key) or right (0 key)?</div>","1","response","practice0","0","0","neutral","img/nontarget_distractor250.jpeg","img/nontarget_distractor18.jpeg","8","5","13","4","false","false","false","",""
"","html-keyboard-response","193","112454","0.0-5.0-19.0","60fcd954f5ff1656599b53c9","60fcd954f5ff1656599b53c9","63a36e1df1afd18b014794e9","63a38e8fef0621c8004241bc","rsvp1-task","true","0","","","","","null","Wrong. </p> <p>  </p><p> ","null","","","","","","","","","","","","","","","main_T1_ITI",""
"","html-keyboard-response","194","114466","0.0-5.0-20.0","60fcd954f5ff1656599b53c9","60fcd954f5ff1656599b53c9","63a36e1df1afd18b014794e9","63a38e8fef0621c8004241bc","rsvp1-task","true","0","","","","","null","<div class=""rsvp"">+</div>","null","fixation","","","","","","","","","","","","","","",""
"","html-keyboard-response","195","114733","0.0-5.0-21.0","60fcd954f5ff1656599b53c9","60fcd954f5ff1656599b53c9","63a36e1df1afd18b014794e9","63a38e8fef0621c8004241bc","rsvp1-task","true","0","","","","","null","<div class=""rsvp"" ></div>","null","blank","","","","","","","","","","","","","","",""
"","html-keyboard-response","196","114838","0.0-5.0-22.0-0.0","60fcd954f5ff1656599b53c9","60fcd954f5ff1656599b53c9","63a36e1df1afd18b014794e9","63a38e8fef0621c8004241bc","rsvp1-task","true","0","","","","","null","
					<div style='width: 900px;'>
					<div style='float: center;'><img src=img/nontarget_distractor103.jpeg  ></img>
					</div>
					","null","rsvp1","practice0","","","","","","","","","5","","","","","img/nontarget_distractor103.jpeg"
"","html-keyboard-response","197","114854","0.0-5.0-22.0-1.0","60fcd954f5ff1656599b53c9","60fcd954f5ff1656599b53c9","63a36e1df1afd18b014794e9","63a38e8fef0621c8004241bc","rsvp1-task","true","0","","","","","null","<span></span>","null","iti","","","","","","","","","","","","","","",""
"","html-keyboard-response","198","114963","0.0-5.0-22.0-0.1","60fcd954f5ff1656599b53c9","60fcd954f5ff1656599b53c9","63a36e1df1afd18b014794e9","63a38e8fef0621c8004241bc","rsvp1-task","true","0","","","","","null","
					<div style='width: 900px;'>
					<div style='float: center;'><img src=img/nontarget_distractor158.jpeg  ></img>
					</div>
					","null","rsvp1","practice0","","","","","","","","","5","","","","","img/nontarget_distractor158.jpeg"
"","html-keyboard-response","199","114969","0.0-5.0-22.0-1.1","60fcd954f5ff1656599b53c9","60fcd954f5ff1656599b53c9","63a36e1df1afd18b014794e9","63a38e8fef0621c8004241bc","rsvp1-task","true","0","","","","","null","<span></span>","null","iti","","","","","","","","","","","","","","",""
"","html-keyboard-response","200","115071","0.0-5.0-22.0-0.2","60fcd954f5ff1656599b53c9","60fcd954f5ff1656599b53c9","63a36e1df1afd18b014794e9","63a38e8fef0621c8004241bc","rsvp1-task","true","0","","","","","null","
					<div style='width: 900px;'>
					<div style='float: center;'><img src=img/nontarget_distractor55.jpeg  ></img>
					</div>
					","null","rsvp1","practice0","","","","","","","","","5","","","","","img/nontarget_distractor55.jpeg"
"","html-keyboard-response","201","115077","0.0-5.0-22.0-1.2","60fcd954f5ff1656599b53c9","60fcd954f5ff1656599b53c9","63a36e1df1afd18b014794e9","63a38e8fef0621c8004241bc","rsvp1-task","true","0","","","","","null","<span></span>","null","iti","","","","","","","","","","","","","","",""
"","html-keyboard-response","202","115185","0.0-5.0-22.0-0.3","60fcd954f5ff1656599b53c9","60fcd954f5ff1656599b53c9","63a36e1df1afd18b014794e9","63a38e8fef0621c8004241bc","rsvp1-task","true","0","","","","","null","
					<div style='width: 900px;'>
					<div style='float: center;'><img src=img/nontarget_distractor21.jpeg  ></img>
					</div>
					","null","rsvp1","practice0","","","","","","","","","5","","","","","img/nontarget_distractor21.jpeg"
"","html-keyboard-response","203","115197","0.0-5.0-22.0-1.3","60fcd954f5ff1656599b53c9","60fcd954f5ff1656599b53c9","63a36e1df1afd18b014794e9","63a38e8fef0621c8004241bc","rsvp1-task","true","0","","","","","null","<span></span>","null","iti","","","","","","","","","","","","","","",""
"","html-keyboard-response","204","115308","0.0-5.0-22.0-0.4","60fcd954f5ff1656599b53c9","60fcd954f5ff1656599b53c9","63a36e1df1afd18b014794e9","63a38e8fef0621c8004241bc","rsvp1-task","true","0","","","","","null","
					<div style='width: 900px;'>
					<div style='float: center;'><img src=img/nontarget_distractor180.jpeg  ></img>
					</div>
					","null","rsvp1","practice0","","","","","","","","","5","","","","","img/nontarget_distractor180.jpeg"
"","html-keyboard-response","205","115321","0.0-5.0-22.0-1.4","60fcd954f5ff1656599b53c9","60fcd954f5ff1656599b53c9","63a36e1df1afd18b014794e9","63a38e8fef0621c8004241bc","rsvp1-task","true","0","","","","","null","<span></span>","null","iti","","","","","","","","","","","","","","",""
"","html-keyboard-response","206","115433","0.0-5.0-22.0-0.5","60fcd954f5ff1656599b53c9","60fcd954f5ff1656599b53c9","63a36e1df1afd18b014794e9","63a38e8fef0621c8004241bc","rsvp1-task","true","0","","","","","null","
					<div style='width: 900px;'>
					<div style='float: center;'><img src=img/nontarget_distractor63.jpeg  ></img>
					</div>
					","null","rsvp1","practice0","","","","","","","","","5","","","","","img/nontarget_distractor63.jpeg"
"","html-keyboard-response","207","115448","0.0-5.0-22.0-1.5","60fcd954f5ff1656599b53c9","60fcd954f5ff1656599b53c9","63a36e1df1afd18b014794e9","63a38e8fef0621c8004241bc","rsvp1-task","true","0","","","","","null","<span></span>","null","iti","","","","","","","","","","","","","","",""
"","html-keyboard-response","208","115557","0.0-5.0-22.0-0.6","60fcd954f5ff1656599b53c9","60fcd954f5ff1656599b53c9","63a36e1df1afd18b014794e9","63a38e8fef0621c8004241bc","rsvp1-task","true","0","","","","","null","
					<div style='width: 900px;'>
					<div style='float: center;'><img src=img/nontarget_distractor139.jpeg  ></img>
					</div>
					","null","rsvp1","practice0","","","","","","","","","5","","","","","img/nontarget_distractor139.jpeg"
"","html-keyboard-response","209","115565","0.0-5.0-22.0-1.6","60fcd954f5ff1656599b53c9","60fcd954f5ff1656599b53c9","63a36e1df1afd18b014794e9","63a38e8fef0621c8004241bc","rsvp1-task","true","0","","","","","null","<span></span>","null","iti","","","","","","","","","","","","","","",""
"","html-keyboard-response","210","115683","0.0-5.0-22.0-0.7","60fcd954f5ff1656599b53c9","60fcd954f5ff1656599b53c9","63a36e1df1afd18b014794e9","63a38e8fef0621c8004241bc","rsvp1-task","true","0","","","","","null","
					<div style='width: 900px;'>
					<div style='float: center;'><img src=img/nontarget_distractor136.jpeg  ></img>
					</div>
					","null","rsvp1","practice0","","","","","","","","","5","","","","","img/nontarget_distractor136.jpeg"
"","html-keyboard-response","211","115698","0.0-5.0-22.0-1.7","60fcd954f5ff1656599b53c9","60fcd954f5ff1656599b53c9","63a36e1df1afd18b014794e9","63a38e8fef0621c8004241bc","rsvp1-task","true","0","","","","","null","<span></span>","null","iti","","","","","","","","","","","","","","",""
"","html-keyboard-response","212","115808","0.0-5.0-22.0-0.8","60fcd954f5ff1656599b53c9","60fcd954f5ff1656599b53c9","63a36e1df1afd18b014794e9","63a38e8fef0621c8004241bc","rsvp1-task","true","0","","","","","null","
					<div style='width: 900px;'>
					<div style='float: center;'><img src=img/nontarget_distractor16.jpeg  ></img>
					</div>
					","null","rsvp1","practice0","","","","","","","","","5","","","","","img/nontarget_distractor16.jpeg"
"","html-keyboard-response","213","115826","0.0-5.0-22.0-1.8","60fcd954f5ff1656599b53c9","60fcd954f5ff1656599b53c9","63a36e1df1afd18b014794e9","63a38e8fef0621c8004241bc","rsvp1-task","true","0","","","","","null","<span></span>","null","iti","","","","","","","","","","","","","","",""
"","html-keyboard-response","214","115932","0.0-5.0-22.0-0.9","60fcd954f5ff1656599b53c9","60fcd954f5ff1656599b53c9","63a36e1df1afd18b014794e9","63a38e8fef0621c8004241bc","rsvp1-task","true","0","","","","","null","
					<div style='width: 900px;'>
					<div style='float: center;'><img src=img/t2_targets181.jpeg class=""rotateimgR""  ></img>
					</div>
					","null","rsvp1","practice0","","","","","","","","","5","","","","","img/t2_targets181.jpeg class=""rotateimgR"""
"","html-keyboard-response","215","115947","0.0-5.0-22.0-1.9","60fcd954f5ff1656599b53c9","60fcd954f5ff1656599b53c9","63a36e1df1afd18b014794e9","63a38e8fef0621c8004241bc","rsvp1-task","true","0","","","","","null","<span></span>","null","iti","","","","","","","","","","","","","","",""
"","html-keyboard-response","216","116057","0.0-5.0-22.0-0.10","60fcd954f5ff1656599b53c9","60fcd954f5ff1656599b53c9","63a36e1df1afd18b014794e9","63a38e8fef0621c8004241bc","rsvp1-task","true","0","","","","","null","
					<div style='width: 900px;'>
					<div style='float: center;'><img src=img/nontarget_distractor150.jpeg  ></img>
					</div>
					","null","rsvp1","practice0","","","","","","","","","5","","","","","img/nontarget_distractor150.jpeg"
"","html-keyboard-response","217","116066","0.0-5.0-22.0-1.10","60fcd954f5ff1656599b53c9","60fcd954f5ff1656599b53c9","63a36e1df1afd18b014794e9","63a38e8fef0621c8004241bc","rsvp1-task","true","0","","","","","null","<span></span>","null","iti","","","","","","","","","","","","","","",""
"","html-keyboard-response","218","116183","0.0-5.0-22.0-0.11","60fcd954f5ff1656599b53c9","60fcd954f5ff1656599b53c9","63a36e1df1afd18b014794e9","63a38e8fef0621c8004241bc","rsvp1-task","true","0","","","","","null","
					<div style='width: 900px;'>
					<div style='float: center;'><img src=img/nontarget_distractor214.jpeg  ></img>
					</div>
					","null","rsvp1","practice0","","","","","","","","","5","","","","","img/nontarget_distractor214.jpeg"
"","html-keyboard-response","219","116207","0.0-5.0-22.0-1.11","60fcd954f5ff1656599b53c9","60fcd954f5ff1656599b53c9","63a36e1df1afd18b014794e9","63a38e8fef0621c8004241bc","rsvp1-task","true","0","","","","","null","<span></span>","null","iti","","","","","","","","","","","","","","",""
"","html-keyboard-response","220","116320","0.0-5.0-22.0-0.12","60fcd954f5ff1656599b53c9","60fcd954f5ff1656599b53c9","63a36e1df1afd18b014794e9","63a38e8fef0621c8004241bc","rsvp1-task","true","0","","","","","null","
					<div style='width: 900px;'>
					<div style='float: center;'><img src=img/nontarget_distractor222.jpeg  ></img>
					</div>
					","null","rsvp1","practice0","","","","","","","","","5","","","","","img/nontarget_distractor222.jpeg"
"","html-keyboard-response","221","116337","0.0-5.0-22.0-1.12","60fcd954f5ff1656599b53c9","60fcd954f5ff1656599b53c9","63a36e1df1afd18b014794e9","63a38e8fef0621c8004241bc","rsvp1-task","true","0","","","","","null","<span></span>","null","iti","","","","","","","","","","","","","","",""
"","html-keyboard-response","222","116447","0.0-5.0-22.0-0.13","60fcd954f5ff1656599b53c9","60fcd954f5ff1656599b53c9","63a36e1df1afd18b014794e9","63a38e8fef0621c8004241bc","rsvp1-task","true","0","","","","","null","
					<div style='width: 900px;'>
					<div style='float: center;'><img src=img/nontarget_distractor171.jpeg  ></img>
					</div>
					","null","rsvp1","practice0","","","","","","","","","5","","","","","img/nontarget_distractor171.jpeg"
"","html-keyboard-response","223","116455","0.0-5.0-22.0-1.13","60fcd954f5ff1656599b53c9","60fcd954f5ff1656599b53c9","63a36e1df1afd18b014794e9","63a38e8fef0621c8004241bc","rsvp1-task","true","0","","","","","null","<span></span>","null","iti","","","","","","","","","","","","","","",""
"","html-keyboard-response","224","116571","0.0-5.0-22.0-0.14","60fcd954f5ff1656599b53c9","60fcd954f5ff1656599b53c9","63a36e1df1afd18b014794e9","63a38e8fef0621c8004241bc","rsvp1-task","true","0","","","","","null","
					<div style='width: 900px;'>
					<div style='float: center;'><img src=img/nontarget_distractor240.jpeg  ></img>
					</div>
					","null","rsvp1","practice0","","","","","","","","","5","","","","","img/nontarget_distractor240.jpeg"
"","html-keyboard-response","225","116588","0.0-5.0-22.0-1.14","60fcd954f5ff1656599b53c9","60fcd954f5ff1656599b53c9","63a36e1df1afd18b014794e9","63a38e8fef0621c8004241bc","rsvp1-task","true","0","","","","","null","<span></span>","null","iti","","","","","","","","","","","","","","",""
"","html-keyboard-response","226","116696","0.0-5.0-22.0-0.15","60fcd954f5ff1656599b53c9","60fcd954f5ff1656599b53c9","63a36e1df1afd18b014794e9","63a38e8fef0621c8004241bc","rsvp1-task","true","0","","","","","null","
					<div style='width: 900px;'>
					<div style='float: center;'><img src=img/nontarget_distractor149.jpeg  ></img>
					</div>
					","null","rsvp1","practice0","","","","","","","","","5","","","","","img/nontarget_distractor149.jpeg"
"","html-keyboard-response","227","116703","0.0-5.0-22.0-1.15","60fcd954f5ff1656599b53c9","60fcd954f5ff1656599b53c9","63a36e1df1afd18b014794e9","63a38e8fef0621c8004241bc","rsvp1-task","true","0","","","","","null","<span></span>","null","iti","","","","","","","","","","","","","","",""
"","html-keyboard-response","228","116821","0.0-5.0-22.0-0.16","60fcd954f5ff1656599b53c9","60fcd954f5ff1656599b53c9","63a36e1df1afd18b014794e9","63a38e8fef0621c8004241bc","rsvp1-task","true","0","","","","","null","
					<div style='width: 900px;'>
					<div style='float: center;'><img src=img/nontarget_distractor147.jpeg  ></img>
					</div>
					","null","rsvp1","practice0","","","","","","","","","5","","","","","img/nontarget_distractor147.jpeg"
"","html-keyboard-response","229","116828","0.0-5.0-22.0-1.16","60fcd954f5ff1656599b53c9","60fcd954f5ff1656599b53c9","63a36e1df1afd18b014794e9","63a38e8fef0621c8004241bc","rsvp1-task","true","0","","","","","null","<span></span>","null","iti","","","","","","","","","","","","","","",""
"","html-keyboard-response","230","118285","0.0-5.0-23.0-0.0","60fcd954f5ff1656599b53c9","60fcd954f5ff1656599b53c9","63a36e1df1afd18b014794e9","63a38e8fef0621c8004241bc","rsvp1-task","true","0","","","","","1451","<div class=""rsvp""> Was the rotated image rotated left (1 key) or right (0 key)?</div>","0","response","practice0","0","0","neutral","img/nontarget_distractor136.jpeg","img/nontarget_distractor150.jpeg","8","2","10","5","true","true","true","",""
"","html-keyboard-response","231","119288","0.0-5.0-24.0","60fcd954f5ff1656599b53c9","60fcd954f5ff1656599b53c9","63a36e1df1afd18b014794e9","63a38e8fef0621c8004241bc","rsvp1-task","true","0","","","","","null","Correct! </p> <p>  </p><p> ","null","","","","","","","","","","","","","","","main_T1_ITI",""
"","html-keyboard-response","232","121301","0.0-5.0-25.0","60fcd954f5ff1656599b53c9","60fcd954f5ff1656599b53c9","63a36e1df1afd18b014794e9","63a38e8fef0621c8004241bc","rsvp1-task","true","0","","","","","null","<div class=""rsvp"">+</div>","null","fixation","","","","","","","","","","","","","","",""
"","html-keyboard-response","233","121565","0.0-5.0-26.0","60fcd954f5ff1656599b53c9","60fcd954f5ff1656599b53c9","63a36e1df1afd18b014794e9","63a38e8fef0621c8004241bc","rsvp1-task","true","0","","","","","null","<div class=""rsvp"" ></div>","null","blank","","","","","","","","","","","","","","",""
"","html-keyboard-response","234","121673","0.0-5.0-27.0-0.0","60fcd954f5ff1656599b53c9","60fcd954f5ff1656599b53c9","63a36e1df1afd18b014794e9","63a38e8fef0621c8004241bc","rsvp1-task","true","0","","","","","null","
					<div style='width: 900px;'>
					<div style='float: center;'><img src=img/nontarget_distractor53.jpeg  ></img>
					</div>
					","null","rsvp1","practice0","","","","","","","","","6","","","","","img/nontarget_distractor53.jpeg"
"","html-keyboard-response","235","121691","0.0-5.0-27.0-1.0","60fcd954f5ff1656599b53c9","60fcd954f5ff1656599b53c9","63a36e1df1afd18b014794e9","63a38e8fef0621c8004241bc","rsvp1-task","true","0","","","","","null","<span></span>","null","iti","","","","","","","","","","","","","","",""
"","html-keyboard-response","236","121799","0.0-5.0-27.0-0.1","60fcd954f5ff1656599b53c9","60fcd954f5ff1656599b53c9","63a36e1df1afd18b014794e9","63a38e8fef0621c8004241bc","rsvp1-task","true","0","","","","","null","
					<div style='width: 900px;'>
					<div style='float: center;'><img src=img/nontarget_distractor157.jpeg  ></img>
					</div>
					","null","rsvp1","practice0","","","","","","","","","6","","","","","img/nontarget_distractor157.jpeg"
"","html-keyboard-response","237","121814","0.0-5.0-27.0-1.1","60fcd954f5ff1656599b53c9","60fcd954f5ff1656599b53c9","63a36e1df1afd18b014794e9","63a38e8fef0621c8004241bc","rsvp1-task","true","0","","","","","null","<span></span>","null","iti","","","","","","","","","","","","","","",""
"","html-keyboard-response","238","121923","0.0-5.0-27.0-0.2","60fcd954f5ff1656599b53c9","60fcd954f5ff1656599b53c9","63a36e1df1afd18b014794e9","63a38e8fef0621c8004241bc","rsvp1-task","true","0","","","","","null","
					<div style='width: 900px;'>
					<div style='float: center;'><img src=img/nontarget_distractor169.jpeg  ></img>
					</div>
					","null","rsvp1","practice0","","","","","","","","","6","","","","","img/nontarget_distractor169.jpeg"
"","html-keyboard-response","239","121938","0.0-5.0-27.0-1.2","60fcd954f5ff1656599b53c9","60fcd954f5ff1656599b53c9","63a36e1df1afd18b014794e9","63a38e8fef0621c8004241bc","rsvp1-task","true","0","","","","","null","<span></span>","null","iti","","","","","","","","","","","","","","",""
"","html-keyboard-response","240","122049","0.0-5.0-27.0-0.3","60fcd954f5ff1656599b53c9","60fcd954f5ff1656599b53c9","63a36e1df1afd18b014794e9","63a38e8fef0621c8004241bc","rsvp1-task","true","0","","","","","null","
					<div style='width: 900px;'>
					<div style='float: center;'><img src=img/nontarget_distractor204.jpeg  ></img>
					</div>
					","null","rsvp1","practice0","","","","","","","","","6","","","","","img/nontarget_distractor204.jpeg"
"","html-keyboard-response","241","122064","0.0-5.0-27.0-1.3","60fcd954f5ff1656599b53c9","60fcd954f5ff1656599b53c9","63a36e1df1afd18b014794e9","63a38e8fef0621c8004241bc","rsvp1-task","true","0","","","","","null","<span></span>","null","iti","","","","","","","","","","","","","","",""
"","html-keyboard-response","242","122179","0.0-5.0-27.0-0.4","60fcd954f5ff1656599b53c9","60fcd954f5ff1656599b53c9","63a36e1df1afd18b014794e9","63a38e8fef0621c8004241bc","rsvp1-task","true","0","","","","","null","
					<div style='width: 900px;'>
					<div style='float: center;'><img src=img/nontarget_distractor60.jpeg  ></img>
					</div>
					","null","rsvp1","practice0","","","","","","","","","6","","","","","img/nontarget_distractor60.jpeg"
"","html-keyboard-response","243","122189","0.0-5.0-27.0-1.4","60fcd954f5ff1656599b53c9","60fcd954f5ff1656599b53c9","63a36e1df1afd18b014794e9","63a38e8fef0621c8004241bc","rsvp1-task","true","0","","","","","null","<span></span>","null","iti","","","","","","","","","","","","","","",""
"","html-keyboard-response","244","122296","0.0-5.0-27.0-0.5","60fcd954f5ff1656599b53c9","60fcd954f5ff1656599b53c9","63a36e1df1afd18b014794e9","63a38e8fef0621c8004241bc","rsvp1-task","true","0","","","","","null","
					<div style='width: 900px;'>
					<div style='float: center;'><img src=img/nontarget_distractor111.jpeg  ></img>
					</div>
					","null","rsvp1","practice0","","","","","","","","","6","","","","","img/nontarget_distractor111.jpeg"
"","html-keyboard-response","245","122303","0.0-5.0-27.0-1.5","60fcd954f5ff1656599b53c9","60fcd954f5ff1656599b53c9","63a36e1df1afd18b014794e9","63a38e8fef0621c8004241bc","rsvp1-task","true","0","","","","","null","<span></span>","null","iti","","","","","","","","","","","","","","",""
"","html-keyboard-response","246","122406","0.0-5.0-27.0-0.6","60fcd954f5ff1656599b53c9","60fcd954f5ff1656599b53c9","63a36e1df1afd18b014794e9","63a38e8fef0621c8004241bc","rsvp1-task","true","0","","","","","null","
					<div style='width: 900px;'>
					<div style='float: center;'><img src=img/nontarget_distractor130.jpeg  ></img>
					</div>
					","null","rsvp1","practice0","","","","","","","","","6","","","","","img/nontarget_distractor130.jpeg"
"","html-keyboard-response","247","122422","0.0-5.0-27.0-1.6","60fcd954f5ff1656599b53c9","60fcd954f5ff1656599b53c9","63a36e1df1afd18b014794e9","63a38e8fef0621c8004241bc","rsvp1-task","true","0","","","","","null","<span></span>","null","iti","","","","","","","","","","","","","","",""
"","html-keyboard-response","248","122531","0.0-5.0-27.0-0.7","60fcd954f5ff1656599b53c9","60fcd954f5ff1656599b53c9","63a36e1df1afd18b014794e9","63a38e8fef0621c8004241bc","rsvp1-task","true","0","","","","","null","
					<div style='width: 900px;'>
					<div style='float: center;'><img src=img/nontarget_distractor184.jpeg  ></img>
					</div>
					","null","rsvp1","practice0","","","","","","","","","6","","","","","img/nontarget_distractor184.jpeg"
"","html-keyboard-response","249","122537","0.0-5.0-27.0-1.7","60fcd954f5ff1656599b53c9","60fcd954f5ff1656599b53c9","63a36e1df1afd18b014794e9","63a38e8fef0621c8004241bc","rsvp1-task","true","0","","","","","null","<span></span>","null","iti","","","","","","","","","","","","","","",""
"","html-keyboard-response","250","122656","0.0-5.0-27.0-0.8","60fcd954f5ff1656599b53c9","60fcd954f5ff1656599b53c9","63a36e1df1afd18b014794e9","63a38e8fef0621c8004241bc","rsvp1-task","true","0","","","","","null","
					<div style='width: 900px;'>
					<div style='float: center;'><img src=img/nontarget_distractor192.jpeg  ></img>
					</div>
					","null","rsvp1","practice0","","","","","","","","","6","","","","","img/nontarget_distractor192.jpeg"
"","html-keyboard-response","251","122662","0.0-5.0-27.0-1.8","60fcd954f5ff1656599b53c9","60fcd954f5ff1656599b53c9","63a36e1df1afd18b014794e9","63a38e8fef0621c8004241bc","rsvp1-task","true","0","","","","","null","<span></span>","null","iti","","","","","","","","","","","","","","",""
"","html-keyboard-response","252","122766","0.0-5.0-27.0-0.9","60fcd954f5ff1656599b53c9","60fcd954f5ff1656599b53c9","63a36e1df1afd18b014794e9","63a38e8fef0621c8004241bc","rsvp1-task","true","0","","","","","null","
					<div style='width: 900px;'>
					<div style='float: center;'><img src=img/nontarget_distractor58.jpeg  ></img>
					</div>
					","null","rsvp1","practice0","","","","","","","","","6","","","","","img/nontarget_distractor58.jpeg"
"","html-keyboard-response","253","122791","0.0-5.0-27.0-1.9","60fcd954f5ff1656599b53c9","60fcd954f5ff1656599b53c9","63a36e1df1afd18b014794e9","63a38e8fef0621c8004241bc","rsvp1-task","true","0","","","","","null","<span></span>","null","iti","","","","","","","","","","","","","","",""
"","html-keyboard-response","254","122911","0.0-5.0-27.0-0.10","60fcd954f5ff1656599b53c9","60fcd954f5ff1656599b53c9","63a36e1df1afd18b014794e9","63a38e8fef0621c8004241bc","rsvp1-task","true","0","","","","","null","
					<div style='width: 900px;'>
					<div style='float: center;'><img src=img/nontarget_distractor72.jpeg  ></img>
					</div>
					","null","rsvp1","practice0","","","","","","","","","6","","","","","img/nontarget_distractor72.jpeg"
"","html-keyboard-response","255","122924","0.0-5.0-27.0-1.10","60fcd954f5ff1656599b53c9","60fcd954f5ff1656599b53c9","63a36e1df1afd18b014794e9","63a38e8fef0621c8004241bc","rsvp1-task","true","0","","","","","null","<span></span>","null","iti","","","","","","","","","","","","","","",""
"","html-keyboard-response","256","123030","0.0-5.0-27.0-0.11","60fcd954f5ff1656599b53c9","60fcd954f5ff1656599b53c9","63a36e1df1afd18b014794e9","63a38e8fef0621c8004241bc","rsvp1-task","true","0","","","","","null","
					<div style='width: 900px;'>
					<div style='float: center;'><img src=img/nontarget_distractor124.jpeg  ></img>
					</div>
					","null","rsvp1","practice0","","","","","","","","","6","","","","","img/nontarget_distractor124.jpeg"
"","html-keyboard-response","257","123045","0.0-5.0-27.0-1.11","60fcd954f5ff1656599b53c9","60fcd954f5ff1656599b53c9","63a36e1df1afd18b014794e9","63a38e8fef0621c8004241bc","rsvp1-task","true","0","","","","","null","<span></span>","null","iti","","","","","","","","","","","","","","",""
"","html-keyboard-response","258","123156","0.0-5.0-27.0-0.12","60fcd954f5ff1656599b53c9","60fcd954f5ff1656599b53c9","63a36e1df1afd18b014794e9","63a38e8fef0621c8004241bc","rsvp1-task","true","0","","","","","null","
					<div style='width: 900px;'>
					<div style='float: center;'><img src=img/nontarget_distractor76.jpeg  ></img>
					</div>
					","null","rsvp1","practice0","","","","","","","","","6","","","","","img/nontarget_distractor76.jpeg"
"","html-keyboard-response","259","123171","0.0-5.0-27.0-1.12","60fcd954f5ff1656599b53c9","60fcd954f5ff1656599b53c9","63a36e1df1afd18b014794e9","63a38e8fef0621c8004241bc","rsvp1-task","true","0","","","","","null","<span></span>","null","iti","","","","","","","","","","","","","","",""
"","html-keyboard-response","260","123287","0.0-5.0-27.0-0.13","60fcd954f5ff1656599b53c9","60fcd954f5ff1656599b53c9","63a36e1df1afd18b014794e9","63a38e8fef0621c8004241bc","rsvp1-task","true","0","","","","","null","
					<div style='width: 900px;'>
					<div style='float: center;'><img src=img/nontarget_distractor116.jpeg  ></img>
					</div>
					","null","rsvp1","practice0","","","","","","","","","6","","","","","img/nontarget_distractor116.jpeg"
"","html-keyboard-response","261","123303","0.0-5.0-27.0-1.13","60fcd954f5ff1656599b53c9","60fcd954f5ff1656599b53c9","63a36e1df1afd18b014794e9","63a38e8fef0621c8004241bc","rsvp1-task","true","0","","","","","null","<span></span>","null","iti","","","","","","","","","","","","","","",""
"","html-keyboard-response","262","123427","0.0-5.0-27.0-0.14","60fcd954f5ff1656599b53c9","60fcd954f5ff1656599b53c9","63a36e1df1afd18b014794e9","63a38e8fef0621c8004241bc","rsvp1-task","true","0","","","","","null","
					<div style='width: 900px;'>
					<div style='float: center;'><img src=img/nontarget_distractor137.jpeg  ></img>
					</div>
					","null","rsvp1","practice0","","","","","","","","","6","","","","","img/nontarget_distractor137.jpeg"
"","html-keyboard-response","263","123444","0.0-5.0-27.0-1.14","60fcd954f5ff1656599b53c9","60fcd954f5ff1656599b53c9","63a36e1df1afd18b014794e9","63a38e8fef0621c8004241bc","rsvp1-task","true","0","","","","","null","<span></span>","null","iti","","","","","","","","","","","","","","",""
"","html-keyboard-response","264","123552","0.0-5.0-27.0-0.15","60fcd954f5ff1656599b53c9","60fcd954f5ff1656599b53c9","63a36e1df1afd18b014794e9","63a38e8fef0621c8004241bc","rsvp1-task","true","0","","","","","null","
					<div style='width: 900px;'>
					<div style='float: center;'><img src=img/t2_targets108.jpeg class=""rotateimgL""  ></img>
					</div>
					","null","rsvp1","practice0","","","","","","","","","6","","","","","img/t2_targets108.jpeg class=""rotateimgL"""
"","html-keyboard-response","265","123573","0.0-5.0-27.0-1.15","60fcd954f5ff1656599b53c9","60fcd954f5ff1656599b53c9","63a36e1df1afd18b014794e9","63a38e8fef0621c8004241bc","rsvp1-task","true","0","","","","","null","<span></span>","null","iti","","","","","","","","","","","","","","",""
"","html-keyboard-response","266","123676","0.0-5.0-27.0-0.16","60fcd954f5ff1656599b53c9","60fcd954f5ff1656599b53c9","63a36e1df1afd18b014794e9","63a38e8fef0621c8004241bc","rsvp1-task","true","0","","","","","null","
					<div style='width: 900px;'>
					<div style='float: center;'><img src=img/nontarget_distractor146.jpeg  ></img>
					</div>
					","null","rsvp1","practice0","","","","","","","","","6","","","","","img/nontarget_distractor146.jpeg"
"","html-keyboard-response","267","123692","0.0-5.0-27.0-1.16","60fcd954f5ff1656599b53c9","60fcd954f5ff1656599b53c9","63a36e1df1afd18b014794e9","63a38e8fef0621c8004241bc","rsvp1-task","true","0","","","","","null","<span></span>","null","iti","","","","","","","","","","","","","","",""
"","html-keyboard-response","268","124744","0.0-5.0-28.0-0.0","60fcd954f5ff1656599b53c9","60fcd954f5ff1656599b53c9","63a36e1df1afd18b014794e9","63a38e8fef0621c8004241bc","rsvp1-task","true","0","","","","","1046","<div class=""rsvp""> Was the rotated image rotated left (1 key) or right (0 key)?</div>","0","response","practice0","1","1","neutral","img/nontarget_distractor184.jpeg","img/nontarget_distractor146.jpeg","8","8","16","6","false","false","false","",""
"","html-keyboard-response","269","125755","0.0-5.0-29.0","60fcd954f5ff1656599b53c9","60fcd954f5ff1656599b53c9","63a36e1df1afd18b014794e9","63a38e8fef0621c8004241bc","rsvp1-task","true","0","","","","","null","Wrong. </p> <p>  </p><p> ","null","","","","","","","","","","","","","","","main_T1_ITI",""
"","html-keyboard-response","270","127760","0.0-5.0-30.0","60fcd954f5ff1656599b53c9","60fcd954f5ff1656599b53c9","63a36e1df1afd18b014794e9","63a38e8fef0621c8004241bc","rsvp1-task","true","0","","","","","null","<div class=""rsvp"">+</div>","null","fixation","","","","","","","","","","","","","","",""
"","html-keyboard-response","271","128025","0.0-5.0-31.0","60fcd954f5ff1656599b53c9","60fcd954f5ff1656599b53c9","63a36e1df1afd18b014794e9","63a38e8fef0621c8004241bc","rsvp1-task","true","0","","","","","null","<div class=""rsvp"" ></div>","null","blank","","","","","","","","","","","","","","",""
