"success","trial_type","trial_index","time_elapsed","internal_node_id","subject_id","subjectID","study_id","session_id","exp_id","full_screen","focus_shifts","timeout","failed_images","failed_audio","failed_video","rt","stimulus","key_press","test_part","phase","correct_responses","correct_response","t1_type","t1_image","t2_image","t1_location","lag","t2_location","trial_number","correct","t1_correct","t2_correct","task","stim"
"true","fullscreen","0","9581","0.0-0.0","6101cad0b59a684dcf97be1c","6101cad0b59a684dcf97be1c","63a36e1df1afd18b014794e9","63a38d59f8ae37cdfeb85725","rsvp1-task","true","0","","","","","","","","","","","","","","","","","","","","","","",""
"true","preload","1","18358","0.0-1.0","6101cad0b59a684dcf97be1c","6101cad0b59a684dcf97be1c","63a36e1df1afd18b014794e9","63a38d59f8ae37cdfeb85725","rsvp1-task","true","0","false","[]","[]","[]","","","","","","","","","","","","","","","","","","",""
"","html-keyboard-response","2","65772","0.0-2.0","6101cad0b59a684dcf97be1c","6101cad0b59a684dcf97be1c","63a36e1df1afd18b014794e9","63a38d59f8ae37cdfeb85725","rsvp1-task","true","0","","","","","47411.89999997616","<div class='instructions'><p>You will see a series of scene images rapidly appearing on the computer screen. One of the scene images will be ROTATED, either to the left or to the right.</p><p>When the series ends, you have to respond to the question ‘Which way was the scene rotated?’</p><p>If the scene was rotated left, you will press the 1 key. If the scene was rotated right, press the 0 key. </p><p>Press any key to see an example of the task.</p></div>"," ","instructions","","","","","","","","","","","","","","",""
"","html-keyboard-response","3","68803","0.0-3.0-0.0","6101cad0b59a684dcf97be1c","6101cad0b59a684dcf97be1c","63a36e1df1afd18b014794e9","63a38d59f8ae37cdfeb85725","rsvp1-task","true","0","","","","","null","<div class=""rsvp"">+</div>","null","fixation","","","","","","","","","","","","","","",""
"","html-keyboard-response","4","69070","0.0-3.0-1.0","6101cad0b59a684dcf97be1c","6101cad0b59a684dcf97be1c","63a36e1df1afd18b014794e9","63a38d59f8ae37cdfeb85725","rsvp1-task","true","0","","","","","null","<div class=""rsvp"" ></div>","null","blank","","","","","","","","","","","","","","",""
"","html-keyboard-response","5","69288","0.0-3.0-2.0-0.0","6101cad0b59a684dcf97be1c","6101cad0b59a684dcf97be1c","63a36e1df1afd18b014794e9","63a38d59f8ae37cdfeb85725","rsvp1-task","true","0","","","","","null","
					<div style='width: 900px;'>
					<div style='float: center;'><img src=img/nontarget_distractor61.jpeg  ></img>
					</div>
					","null","","","","","","","","","","","","","","","",""
"","html-keyboard-response","6","69397","0.0-3.0-2.0-1.0","6101cad0b59a684dcf97be1c","6101cad0b59a684dcf97be1c","63a36e1df1afd18b014794e9","63a38d59f8ae37cdfeb85725","rsvp1-task","true","0","","","","","null","<span></span>","null","iti","","","","","","","","","","","","","","",""
"","html-keyboard-response","7","69608","0.0-3.0-2.0-0.1","6101cad0b59a684dcf97be1c","6101cad0b59a684dcf97be1c","63a36e1df1afd18b014794e9","63a38d59f8ae37cdfeb85725","rsvp1-task","true","0","","","","","null","
					<div style='width: 900px;'>
					<div style='float: center;'><img src=img/nontarget_distractor13.jpeg  ></img>
					</div>
					","null","","","","","","","","","","","","","","","",""
"","html-keyboard-response","8","69714","0.0-3.0-2.0-1.1","6101cad0b59a684dcf97be1c","6101cad0b59a684dcf97be1c","63a36e1df1afd18b014794e9","63a38d59f8ae37cdfeb85725","rsvp1-task","true","0","","","","","null","<span></span>","null","iti","","","","","","","","","","","","","","",""
"","html-keyboard-response","9","69939","0.0-3.0-2.0-0.2","6101cad0b59a684dcf97be1c","6101cad0b59a684dcf97be1c","63a36e1df1afd18b014794e9","63a38d59f8ae37cdfeb85725","rsvp1-task","true","0","","","","","null","
					<div style='width: 900px;'>
					<div style='float: center;'><img src=img/nontarget_distractor131.jpeg  ></img>
					</div>
					","null","","","","","","","","","","","","","","","",""
"","html-keyboard-response","10","70046","0.0-3.0-2.0-1.2","6101cad0b59a684dcf97be1c","6101cad0b59a684dcf97be1c","63a36e1df1afd18b014794e9","63a38d59f8ae37cdfeb85725","rsvp1-task","true","0","","","","","null","<span></span>","null","iti","","","","","","","","","","","","","","",""
"","html-keyboard-response","11","70272","0.0-3.0-2.0-0.3","6101cad0b59a684dcf97be1c","6101cad0b59a684dcf97be1c","63a36e1df1afd18b014794e9","63a38d59f8ae37cdfeb85725","rsvp1-task","true","0","","","","","null","
					<div style='width: 900px;'>
					<div style='float: center;'><img src=img/nontarget_distractor84.jpeg  ></img>
					</div>
					","null","","","","","","","","","","","","","","","",""
"","html-keyboard-response","12","70378","0.0-3.0-2.0-1.3","6101cad0b59a684dcf97be1c","6101cad0b59a684dcf97be1c","63a36e1df1afd18b014794e9","63a38d59f8ae37cdfeb85725","rsvp1-task","true","0","","","","","null","<span></span>","null","iti","","","","","","","","","","","","","","",""
"","html-keyboard-response","13","70603","0.0-3.0-2.0-0.4","6101cad0b59a684dcf97be1c","6101cad0b59a684dcf97be1c","63a36e1df1afd18b014794e9","63a38d59f8ae37cdfeb85725","rsvp1-task","true","0","","","","","null","
					<div style='width: 900px;'>
					<div style='float: center;'><img src=img/nontarget_distractor79.jpeg  ></img>
					</div>
					","null","","","","","","","","","","","","","","","",""
"","html-keyboard-response","14","70713","0.0-3.0-2.0-1.4","6101cad0b59a684dcf97be1c","6101cad0b59a684dcf97be1c","63a36e1df1afd18b014794e9","63a38d59f8ae37cdfeb85725","rsvp1-task","true","0","","","","","null","<span></span>","null","iti","","","","","","","","","","","","","","",""
"","html-keyboard-response","15","70939","0.0-3.0-2.0-0.5","6101cad0b59a684dcf97be1c","6101cad0b59a684dcf97be1c","63a36e1df1afd18b014794e9","63a38d59f8ae37cdfeb85725","rsvp1-task","true","0","","","","","null","
					<div style='width: 900px;'>
					<div style='float: center;'><img src=img/nontarget_distractor6.jpeg  ></img>
					</div>
					","null","","","","","","","","","","","","","","","",""
"","html-keyboard-response","16","71047","0.0-3.0-2.0-1.5","6101cad0b59a684dcf97be1c","6101cad0b59a684dcf97be1c","63a36e1df1afd18b014794e9","63a38d59f8ae37cdfeb85725","rsvp1-task","true","0","","","","","null","<span></span>","null","iti","","","","","","","","","","","","","","",""
"","html-keyboard-response","17","71272","0.0-3.0-2.0-0.6","6101cad0b59a684dcf97be1c","6101cad0b59a684dcf97be1c","63a36e1df1afd18b014794e9","63a38d59f8ae37cdfeb85725","rsvp1-task","true","0","","","","","null","
					<div style='width: 900px;'>
					<div style='float: center;'><img src=img/nontarget_distractor197.jpeg  ></img>
					</div>
					","null","","","","","","","","","","","","","","","",""
"","html-keyboard-response","18","71379","0.0-3.0-2.0-1.6","6101cad0b59a684dcf97be1c","6101cad0b59a684dcf97be1c","63a36e1df1afd18b014794e9","63a38d59f8ae37cdfeb85725","rsvp1-task","true","0","","","","","null","<span></span>","null","iti","","","","","","","","","","","","","","",""
"","html-keyboard-response","19","71590","0.0-3.0-2.0-0.7","6101cad0b59a684dcf97be1c","6101cad0b59a684dcf97be1c","63a36e1df1afd18b014794e9","63a38d59f8ae37cdfeb85725","rsvp1-task","true","0","","","","","null","
					<div style='width: 900px;'>
					<div style='float: center;'><img src=img/nontarget_distractor186.jpeg  ></img>
					</div>
					","null","","","","","","","","","","","","","","","",""
"","html-keyboard-response","20","71696","0.0-3.0-2.0-1.7","6101cad0b59a684dcf97be1c","6101cad0b59a684dcf97be1c","63a36e1df1afd18b014794e9","63a38d59f8ae37cdfeb85725","rsvp1-task","true","0","","","","","null","<span></span>","null","iti","","","","","","","","","","","","","","",""
"","html-keyboard-response","21","71921","0.0-3.0-2.0-0.8","6101cad0b59a684dcf97be1c","6101cad0b59a684dcf97be1c","63a36e1df1afd18b014794e9","63a38d59f8ae37cdfeb85725","rsvp1-task","true","0","","","","","null","
					<div style='width: 900px;'>
					<div style='float: center;'><img src=img/nontarget_distractor254.jpeg  ></img>
					</div>
					","null","","","","","","","","","","","","","","","",""
"","html-keyboard-response","22","72014","0.0-3.0-2.0-1.8","6101cad0b59a684dcf97be1c","6101cad0b59a684dcf97be1c","63a36e1df1afd18b014794e9","63a38d59f8ae37cdfeb85725","rsvp1-task","true","0","","","","","null","<span></span>","null","iti","","","","","","","","","","","","","","",""
"","html-keyboard-response","23","72228","0.0-3.0-2.0-0.9","6101cad0b59a684dcf97be1c","6101cad0b59a684dcf97be1c","63a36e1df1afd18b014794e9","63a38d59f8ae37cdfeb85725","rsvp1-task","true","0","","","","","null","
					<div style='width: 900px;'>
					<div style='float: center;'><img src=img/t2_targets71.jpeg class=""rotateimgL""  ></img>
					</div>
					","null","","","","","","","","","","","","","","","",""
"","html-keyboard-response","24","72328","0.0-3.0-2.0-1.9","6101cad0b59a684dcf97be1c","6101cad0b59a684dcf97be1c","63a36e1df1afd18b014794e9","63a38d59f8ae37cdfeb85725","rsvp1-task","true","0","","","","","null","<span></span>","null","iti","","","","","","","","","","","","","","",""
"","html-keyboard-response","25","72553","0.0-3.0-2.0-0.10","6101cad0b59a684dcf97be1c","6101cad0b59a684dcf97be1c","63a36e1df1afd18b014794e9","63a38d59f8ae37cdfeb85725","rsvp1-task","true","0","","","","","null","
					<div style='width: 900px;'>
					<div style='float: center;'><img src=img/nontarget_distractor104.jpeg  ></img>
					</div>
					","null","","","","","","","","","","","","","","","",""
"","html-keyboard-response","26","72663","0.0-3.0-2.0-1.10","6101cad0b59a684dcf97be1c","6101cad0b59a684dcf97be1c","63a36e1df1afd18b014794e9","63a38d59f8ae37cdfeb85725","rsvp1-task","true","0","","","","","null","<span></span>","null","iti","","","","","","","","","","","","","","",""
"","html-keyboard-response","27","72889","0.0-3.0-2.0-0.11","6101cad0b59a684dcf97be1c","6101cad0b59a684dcf97be1c","63a36e1df1afd18b014794e9","63a38d59f8ae37cdfeb85725","rsvp1-task","true","0","","","","","null","
					<div style='width: 900px;'>
					<div style='float: center;'><img src=img/nontarget_distractor18.jpeg  ></img>
					</div>
					","null","","","","","","","","","","","","","","","",""
"","html-keyboard-response","28","72997","0.0-3.0-2.0-1.11","6101cad0b59a684dcf97be1c","6101cad0b59a684dcf97be1c","63a36e1df1afd18b014794e9","63a38d59f8ae37cdfeb85725","rsvp1-task","true","0","","","","","null","<span></span>","null","iti","","","","","","","","","","","","","","",""
"","html-keyboard-response","29","73208","0.0-3.0-2.0-0.12","6101cad0b59a684dcf97be1c","6101cad0b59a684dcf97be1c","63a36e1df1afd18b014794e9","63a38d59f8ae37cdfeb85725","rsvp1-task","true","0","","","","","null","
					<div style='width: 900px;'>
					<div style='float: center;'><img src=img/nontarget_distractor31.jpeg  ></img>
					</div>
					","null","","","","","","","","","","","","","","","",""
"","html-keyboard-response","30","73313","0.0-3.0-2.0-1.12","6101cad0b59a684dcf97be1c","6101cad0b59a684dcf97be1c","63a36e1df1afd18b014794e9","63a38d59f8ae37cdfeb85725","rsvp1-task","true","0","","","","","null","<span></span>","null","iti","","","","","","","","","","","","","","",""
"","html-keyboard-response","31","73537","0.0-3.0-2.0-0.13","6101cad0b59a684dcf97be1c","6101cad0b59a684dcf97be1c","63a36e1df1afd18b014794e9","63a38d59f8ae37cdfeb85725","rsvp1-task","true","0","","","","","null","
					<div style='width: 900px;'>
					<div style='float: center;'><img src=img/nontarget_distractor248.jpeg  ></img>
					</div>
					","null","","","","","","","","","","","","","","","",""
"","html-keyboard-response","32","73646","0.0-3.0-2.0-1.13","6101cad0b59a684dcf97be1c","6101cad0b59a684dcf97be1c","63a36e1df1afd18b014794e9","63a38d59f8ae37cdfeb85725","rsvp1-task","true","0","","","","","null","<span></span>","null","iti","","","","","","","","","","","","","","",""
"","html-keyboard-response","33","73872","0.0-3.0-2.0-0.14","6101cad0b59a684dcf97be1c","6101cad0b59a684dcf97be1c","63a36e1df1afd18b014794e9","63a38d59f8ae37cdfeb85725","rsvp1-task","true","0","","","","","null","
					<div style='width: 900px;'>
					<div style='float: center;'><img src=img/nontarget_distractor112.jpeg  ></img>
					</div>
					","null","","","","","","","","","","","","","","","",""
"","html-keyboard-response","34","73980","0.0-3.0-2.0-1.14","6101cad0b59a684dcf97be1c","6101cad0b59a684dcf97be1c","63a36e1df1afd18b014794e9","63a38d59f8ae37cdfeb85725","rsvp1-task","true","0","","","","","null","<span></span>","null","iti","","","","","","","","","","","","","","",""
"","html-keyboard-response","35","74191","0.0-3.0-2.0-0.15","6101cad0b59a684dcf97be1c","6101cad0b59a684dcf97be1c","63a36e1df1afd18b014794e9","63a38d59f8ae37cdfeb85725","rsvp1-task","true","0","","","","","null","
					<div style='width: 900px;'>
					<div style='float: center;'><img src=img/nontarget_distractor209.jpeg  ></img>
					</div>
					","null","","","","","","","","","","","","","","","",""
"","html-keyboard-response","36","74296","0.0-3.0-2.0-1.15","6101cad0b59a684dcf97be1c","6101cad0b59a684dcf97be1c","63a36e1df1afd18b014794e9","63a38d59f8ae37cdfeb85725","rsvp1-task","true","0","","","","","null","<span></span>","null","iti","","","","","","","","","","","","","","",""
"","html-keyboard-response","37","74522","0.0-3.0-2.0-0.16","6101cad0b59a684dcf97be1c","6101cad0b59a684dcf97be1c","63a36e1df1afd18b014794e9","63a38d59f8ae37cdfeb85725","rsvp1-task","true","0","","","","","null","
					<div style='width: 900px;'>
					<div style='float: center;'><img src=img/nontarget_distractor110.jpeg  ></img>
					</div>
					","null","","","","","","","","","","","","","","","",""
"","html-keyboard-response","38","74630","0.0-3.0-2.0-1.16","6101cad0b59a684dcf97be1c","6101cad0b59a684dcf97be1c","63a36e1df1afd18b014794e9","63a38d59f8ae37cdfeb85725","rsvp1-task","true","0","","","","","null","<span></span>","null","iti","","","","","","","","","","","","","","",""
"","html-keyboard-response","39","78090","0.0-3.0-3.0-0.0","6101cad0b59a684dcf97be1c","6101cad0b59a684dcf97be1c","63a36e1df1afd18b014794e9","63a38d59f8ae37cdfeb85725","rsvp1-task","true","0","","","","","3460","<div class=""rsvp""> Was the rotated image rotated left (1 key) or right (0 key)?</div>","1","response","instructions","1","1","neutral","img/nontarget_distractor13.jpeg","img/nontarget_distractor104.jpeg","2","8","10","1","true","true","true","",""
"","html-keyboard-response","40","79104","0.0-3.0-4.0","6101cad0b59a684dcf97be1c","6101cad0b59a684dcf97be1c","63a36e1df1afd18b014794e9","63a38d59f8ae37cdfeb85725","rsvp1-task","true","0","","","","","null","Correct! </p> <p>  </p><p> ","null","","","","","","","","","","","","","","","main_T1_ITI",""
"","html-keyboard-response","41","92371","0.0-4.0","6101cad0b59a684dcf97be1c","6101cad0b59a684dcf97be1c","63a36e1df1afd18b014794e9","63a38d59f8ae37cdfeb85725","rsvp1-task","true","0","","","","","13266.300000071526","<div class='instructions'><p>In the example you just saw, the images appeared quite slowly.</p><p>The real task is more challenging, as the images will appear much more rapidly. This will feel much harder! </p> First, you will complete a practice block. </p><p> <strong>You need to respond correctly on at least 75% of the practice trials to advance, so pay close attention! </strong> </p><p>Press any key to start the practice.</p></div>"," ","instructions_2","","","","","","","","","","","","","","",""
"","html-keyboard-response","42","95401","0.0-5.0-0.0","6101cad0b59a684dcf97be1c","6101cad0b59a684dcf97be1c","63a36e1df1afd18b014794e9","63a38d59f8ae37cdfeb85725","rsvp1-task","true","0","","","","","null","<div class=""rsvp"">+</div>","null","fixation","","","","","","","","","","","","","","",""
"","html-keyboard-response","43","95669","0.0-5.0-1.0","6101cad0b59a684dcf97be1c","6101cad0b59a684dcf97be1c","63a36e1df1afd18b014794e9","63a38d59f8ae37cdfeb85725","rsvp1-task","true","0","","","","","null","<div class=""rsvp"" ></div>","null","blank","","","","","","","","","","","","","","",""
"","html-keyboard-response","44","95777","0.0-5.0-2.0-0.0","6101cad0b59a684dcf97be1c","6101cad0b59a684dcf97be1c","63a36e1df1afd18b014794e9","63a38d59f8ae37cdfeb85725","rsvp1-task","true","0","","","","","null","
					<div style='width: 900px;'>
					<div style='float: center;'><img src=img/nontarget_distractor146.jpeg  ></img>
					</div>
					","null","rsvp1","practice0","","","","","","","","","1","","","","","img/nontarget_distractor146.jpeg"
"","html-keyboard-response","45","95782","0.0-5.0-2.0-1.0","6101cad0b59a684dcf97be1c","6101cad0b59a684dcf97be1c","63a36e1df1afd18b014794e9","63a38d59f8ae37cdfeb85725","rsvp1-task","true","0","","","","","null","<span></span>","null","iti","","","","","","","","","","","","","","",""
"","html-keyboard-response","46","95894","0.0-5.0-2.0-0.1","6101cad0b59a684dcf97be1c","6101cad0b59a684dcf97be1c","63a36e1df1afd18b014794e9","63a38d59f8ae37cdfeb85725","rsvp1-task","true","0","","","","","null","
					<div style='width: 900px;'>
					<div style='float: center;'><img src=img/nontarget_distractor8.jpeg  ></img>
					</div>
					","null","rsvp1","practice0","","","","","","","","","1","","","","","img/nontarget_distractor8.jpeg"
"","html-keyboard-response","47","95900","0.0-5.0-2.0-1.1","6101cad0b59a684dcf97be1c","6101cad0b59a684dcf97be1c","63a36e1df1afd18b014794e9","63a38d59f8ae37cdfeb85725","rsvp1-task","true","0","","","","","null","<span></span>","null","iti","","","","","","","","","","","","","","",""
"","html-keyboard-response","48","96011","0.0-5.0-2.0-0.2","6101cad0b59a684dcf97be1c","6101cad0b59a684dcf97be1c","63a36e1df1afd18b014794e9","63a38d59f8ae37cdfeb85725","rsvp1-task","true","0","","","","","null","
					<div style='width: 900px;'>
					<div style='float: center;'><img src=img/nontarget_distractor73.jpeg  ></img>
					</div>
					","null","rsvp1","practice0","","","","","","","","","1","","","","","img/nontarget_distractor73.jpeg"
"","html-keyboard-response","49","96016","0.0-5.0-2.0-1.2","6101cad0b59a684dcf97be1c","6101cad0b59a684dcf97be1c","63a36e1df1afd18b014794e9","63a38d59f8ae37cdfeb85725","rsvp1-task","true","0","","","","","null","<span></span>","null","iti","","","","","","","","","","","","","","",""
"","html-keyboard-response","50","96127","0.0-5.0-2.0-0.3","6101cad0b59a684dcf97be1c","6101cad0b59a684dcf97be1c","63a36e1df1afd18b014794e9","63a38d59f8ae37cdfeb85725","rsvp1-task","true","0","","","","","null","
					<div style='width: 900px;'>
					<div style='float: center;'><img src=img/nontarget_distractor18.jpeg  ></img>
					</div>
					","null","rsvp1","practice0","","","","","","","","","1","","","","","img/nontarget_distractor18.jpeg"
"","html-keyboard-response","51","96132","0.0-5.0-2.0-1.3","6101cad0b59a684dcf97be1c","6101cad0b59a684dcf97be1c","63a36e1df1afd18b014794e9","63a38d59f8ae37cdfeb85725","rsvp1-task","true","0","","","","","null","<span></span>","null","iti","","","","","","","","","","","","","","",""
"","html-keyboard-response","52","96245","0.0-5.0-2.0-0.4","6101cad0b59a684dcf97be1c","6101cad0b59a684dcf97be1c","63a36e1df1afd18b014794e9","63a38d59f8ae37cdfeb85725","rsvp1-task","true","0","","","","","null","
					<div style='width: 900px;'>
					<div style='float: center;'><img src=img/nontarget_distractor11.jpeg  ></img>
					</div>
					","null","rsvp1","practice0","","","","","","","","","1","","","","","img/nontarget_distractor11.jpeg"
"","html-keyboard-response","53","96251","0.0-5.0-2.0-1.4","6101cad0b59a684dcf97be1c","6101cad0b59a684dcf97be1c","63a36e1df1afd18b014794e9","63a38d59f8ae37cdfeb85725","rsvp1-task","true","0","","","","","null","<span></span>","null","iti","","","","","","","","","","","","","","",""
"","html-keyboard-response","54","96361","0.0-5.0-2.0-0.5","6101cad0b59a684dcf97be1c","6101cad0b59a684dcf97be1c","63a36e1df1afd18b014794e9","63a38d59f8ae37cdfeb85725","rsvp1-task","true","0","","","","","null","
					<div style='width: 900px;'>
					<div style='float: center;'><img src=img/nontarget_distractor217.jpeg  ></img>
					</div>
					","null","rsvp1","practice0","","","","","","","","","1","","","","","img/nontarget_distractor217.jpeg"
"","html-keyboard-response","55","96366","0.0-5.0-2.0-1.5","6101cad0b59a684dcf97be1c","6101cad0b59a684dcf97be1c","63a36e1df1afd18b014794e9","63a38d59f8ae37cdfeb85725","rsvp1-task","true","0","","","","","null","<span></span>","null","iti","","","","","","","","","","","","","","",""
"","html-keyboard-response","56","96477","0.0-5.0-2.0-0.6","6101cad0b59a684dcf97be1c","6101cad0b59a684dcf97be1c","63a36e1df1afd18b014794e9","63a38d59f8ae37cdfeb85725","rsvp1-task","true","0","","","","","null","
					<div style='width: 900px;'>
					<div style='float: center;'><img src=img/nontarget_distractor51.jpeg  ></img>
					</div>
					","null","rsvp1","practice0","","","","","","","","","1","","","","","img/nontarget_distractor51.jpeg"
"","html-keyboard-response","57","96484","0.0-5.0-2.0-1.6","6101cad0b59a684dcf97be1c","6101cad0b59a684dcf97be1c","63a36e1df1afd18b014794e9","63a38d59f8ae37cdfeb85725","rsvp1-task","true","0","","","","","null","<span></span>","null","iti","","","","","","","","","","","","","","",""
"","html-keyboard-response","58","96596","0.0-5.0-2.0-0.7","6101cad0b59a684dcf97be1c","6101cad0b59a684dcf97be1c","63a36e1df1afd18b014794e9","63a38d59f8ae37cdfeb85725","rsvp1-task","true","0","","","","","null","
					<div style='width: 900px;'>
					<div style='float: center;'><img src=img/nontarget_distractor31.jpeg  ></img>
					</div>
					","null","rsvp1","practice0","","","","","","","","","1","","","","","img/nontarget_distractor31.jpeg"
"","html-keyboard-response","59","96601","0.0-5.0-2.0-1.7","6101cad0b59a684dcf97be1c","6101cad0b59a684dcf97be1c","63a36e1df1afd18b014794e9","63a38d59f8ae37cdfeb85725","rsvp1-task","true","0","","","","","null","<span></span>","null","iti","","","","","","","","","","","","","","",""
"","html-keyboard-response","60","96712","0.0-5.0-2.0-0.8","6101cad0b59a684dcf97be1c","6101cad0b59a684dcf97be1c","63a36e1df1afd18b014794e9","63a38d59f8ae37cdfeb85725","rsvp1-task","true","0","","","","","null","
					<div style='width: 900px;'>
					<div style='float: center;'><img src=img/nontarget_distractor236.jpeg  ></img>
					</div>
					","null","rsvp1","practice0","","","","","","","","","1","","","","","img/nontarget_distractor236.jpeg"
"","html-keyboard-response","61","96716","0.0-5.0-2.0-1.8","6101cad0b59a684dcf97be1c","6101cad0b59a684dcf97be1c","63a36e1df1afd18b014794e9","63a38d59f8ae37cdfeb85725","rsvp1-task","true","0","","","","","null","<span></span>","null","iti","","","","","","","","","","","","","","",""
"","html-keyboard-response","62","96829","0.0-5.0-2.0-0.9","6101cad0b59a684dcf97be1c","6101cad0b59a684dcf97be1c","63a36e1df1afd18b014794e9","63a38d59f8ae37cdfeb85725","rsvp1-task","true","0","","","","","null","
					<div style='width: 900px;'>
					<div style='float: center;'><img src=img/nontarget_distractor201.jpeg  ></img>
					</div>
					","null","rsvp1","practice0","","","","","","","","","1","","","","","img/nontarget_distractor201.jpeg"
"","html-keyboard-response","63","96835","0.0-5.0-2.0-1.9","6101cad0b59a684dcf97be1c","6101cad0b59a684dcf97be1c","63a36e1df1afd18b014794e9","63a38d59f8ae37cdfeb85725","rsvp1-task","true","0","","","","","null","<span></span>","null","iti","","","","","","","","","","","","","","",""
"","html-keyboard-response","64","96947","0.0-5.0-2.0-0.10","6101cad0b59a684dcf97be1c","6101cad0b59a684dcf97be1c","63a36e1df1afd18b014794e9","63a38d59f8ae37cdfeb85725","rsvp1-task","true","0","","","","","null","
					<div style='width: 900px;'>
					<div style='float: center;'><img src=img/nontarget_distractor95.jpeg  ></img>
					</div>
					","null","rsvp1","practice0","","","","","","","","","1","","","","","img/nontarget_distractor95.jpeg"
"","html-keyboard-response","65","96952","0.0-5.0-2.0-1.10","6101cad0b59a684dcf97be1c","6101cad0b59a684dcf97be1c","63a36e1df1afd18b014794e9","63a38d59f8ae37cdfeb85725","rsvp1-task","true","0","","","","","null","<span></span>","null","iti","","","","","","","","","","","","","","",""
"","html-keyboard-response","66","97062","0.0-5.0-2.0-0.11","6101cad0b59a684dcf97be1c","6101cad0b59a684dcf97be1c","63a36e1df1afd18b014794e9","63a38d59f8ae37cdfeb85725","rsvp1-task","true","0","","","","","null","
					<div style='width: 900px;'>
					<div style='float: center;'><img src=img/t2_targets92.jpeg class=""rotateimgR""  ></img>
					</div>
					","null","rsvp1","practice0","","","","","","","","","1","","","","","img/t2_targets92.jpeg class=""rotateimgR"""
"","html-keyboard-response","67","97067","0.0-5.0-2.0-1.11","6101cad0b59a684dcf97be1c","6101cad0b59a684dcf97be1c","63a36e1df1afd18b014794e9","63a38d59f8ae37cdfeb85725","rsvp1-task","true","0","","","","","null","<span></span>","null","iti","","","","","","","","","","","","","","",""
"","html-keyboard-response","68","97180","0.0-5.0-2.0-0.12","6101cad0b59a684dcf97be1c","6101cad0b59a684dcf97be1c","63a36e1df1afd18b014794e9","63a38d59f8ae37cdfeb85725","rsvp1-task","true","0","","","","","null","
					<div style='width: 900px;'>
					<div style='float: center;'><img src=img/nontarget_distractor84.jpeg  ></img>
					</div>
					","null","rsvp1","practice0","","","","","","","","","1","","","","","img/nontarget_distractor84.jpeg"
"","html-keyboard-response","69","97185","0.0-5.0-2.0-1.12","6101cad0b59a684dcf97be1c","6101cad0b59a684dcf97be1c","63a36e1df1afd18b014794e9","63a38d59f8ae37cdfeb85725","rsvp1-task","true","0","","","","","null","<span></span>","null","iti","","","","","","","","","","","","","","",""
"","html-keyboard-response","70","97295","0.0-5.0-2.0-0.13","6101cad0b59a684dcf97be1c","6101cad0b59a684dcf97be1c","63a36e1df1afd18b014794e9","63a38d59f8ae37cdfeb85725","rsvp1-task","true","0","","","","","null","
					<div style='width: 900px;'>
					<div style='float: center;'><img src=img/nontarget_distractor247.jpeg  ></img>
					</div>
					","null","rsvp1","practice0","","","","","","","","","1","","","","","img/nontarget_distractor247.jpeg"
"","html-keyboard-response","71","97300","0.0-5.0-2.0-1.13","6101cad0b59a684dcf97be1c","6101cad0b59a684dcf97be1c","63a36e1df1afd18b014794e9","63a38d59f8ae37cdfeb85725","rsvp1-task","true","0","","","","","null","<span></span>","null","iti","","","","","","","","","","","","","","",""
"","html-keyboard-response","72","97411","0.0-5.0-2.0-0.14","6101cad0b59a684dcf97be1c","6101cad0b59a684dcf97be1c","63a36e1df1afd18b014794e9","63a38d59f8ae37cdfeb85725","rsvp1-task","true","0","","","","","null","
					<div style='width: 900px;'>
					<div style='float: center;'><img src=img/nontarget_distractor188.jpeg  ></img>
					</div>
					","null","rsvp1","practice0","","","","","","","","","1","","","","","img/nontarget_distractor188.jpeg"
"","html-keyboard-response","73","97416","0.0-5.0-2.0-1.14","6101cad0b59a684dcf97be1c","6101cad0b59a684dcf97be1c","63a36e1df1afd18b014794e9","63a38d59f8ae37cdfeb85725","rsvp1-task","true","0","","","","","null","<span></span>","null","iti","","","","","","","","","","","","","","",""
"","html-keyboard-response","74","97529","0.0-5.0-2.0-0.15","6101cad0b59a684dcf97be1c","6101cad0b59a684dcf97be1c","63a36e1df1afd18b014794e9","63a38d59f8ae37cdfeb85725","rsvp1-task","true","0","","","","","null","
					<div style='width: 900px;'>
					<div style='float: center;'><img src=img/nontarget_distractor157.jpeg  ></img>
					</div>
					","null","rsvp1","practice0","","","","","","","","","1","","","","","img/nontarget_distractor157.jpeg"
"","html-keyboard-response","75","97535","0.0-5.0-2.0-1.15","6101cad0b59a684dcf97be1c","6101cad0b59a684dcf97be1c","63a36e1df1afd18b014794e9","63a38d59f8ae37cdfeb85725","rsvp1-task","true","0","","","","","null","<span></span>","null","iti","","","","","","","","","","","","","","",""
"","html-keyboard-response","76","97647","0.0-5.0-2.0-0.16","6101cad0b59a684dcf97be1c","6101cad0b59a684dcf97be1c","63a36e1df1afd18b014794e9","63a38d59f8ae37cdfeb85725","rsvp1-task","true","0","","","","","null","
					<div style='width: 900px;'>
					<div style='float: center;'><img src=img/nontarget_distractor162.jpeg  ></img>
					</div>
					","null","rsvp1","practice0","","","","","","","","","1","","","","","img/nontarget_distractor162.jpeg"
"","html-keyboard-response","77","97652","0.0-5.0-2.0-1.16","6101cad0b59a684dcf97be1c","6101cad0b59a684dcf97be1c","63a36e1df1afd18b014794e9","63a38d59f8ae37cdfeb85725","rsvp1-task","true","0","","","","","null","<span></span>","null","iti","","","","","","","","","","","","","","",""
"","html-keyboard-response","78","98435","0.0-5.0-3.0-0.0","6101cad0b59a684dcf97be1c","6101cad0b59a684dcf97be1c","63a36e1df1afd18b014794e9","63a38d59f8ae37cdfeb85725","rsvp1-task","true","0","","","","","782.6000000238419","<div class=""rsvp""> Was the rotated image rotated left (1 key) or right (0 key)?</div>","0","response","practice0","0","0","neutral","img/nontarget_distractor31.jpeg","img/nontarget_distractor84.jpeg","8","4","12","1","true","true","true","",""
"","html-keyboard-response","79","99452","0.0-5.0-4.0","6101cad0b59a684dcf97be1c","6101cad0b59a684dcf97be1c","63a36e1df1afd18b014794e9","63a38d59f8ae37cdfeb85725","rsvp1-task","true","0","","","","","null","Correct! </p> <p>  </p><p> ","null","","","","","","","","","","","","","","","main_T1_ITI",""
"","html-keyboard-response","80","101469","0.0-5.0-5.0","6101cad0b59a684dcf97be1c","6101cad0b59a684dcf97be1c","63a36e1df1afd18b014794e9","63a38d59f8ae37cdfeb85725","rsvp1-task","true","0","","","","","null","<div class=""rsvp"">+</div>","null","fixation","","","","","","","","","","","","","","",""
"","html-keyboard-response","81","101734","0.0-5.0-6.0","6101cad0b59a684dcf97be1c","6101cad0b59a684dcf97be1c","63a36e1df1afd18b014794e9","63a38d59f8ae37cdfeb85725","rsvp1-task","true","0","","","","","null","<div class=""rsvp"" ></div>","null","blank","","","","","","","","","","","","","","",""
"","html-keyboard-response","82","101845","0.0-5.0-7.0-0.0","6101cad0b59a684dcf97be1c","6101cad0b59a684dcf97be1c","63a36e1df1afd18b014794e9","63a38d59f8ae37cdfeb85725","rsvp1-task","true","0","","","","","null","
					<div style='width: 900px;'>
					<div style='float: center;'><img src=img/nontarget_distractor148.jpeg  ></img>
					</div>
					","null","rsvp1","practice0","","","","","","","","","2","","","","","img/nontarget_distractor148.jpeg"
"","html-keyboard-response","83","101849","0.0-5.0-7.0-1.0","6101cad0b59a684dcf97be1c","6101cad0b59a684dcf97be1c","63a36e1df1afd18b014794e9","63a38d59f8ae37cdfeb85725","rsvp1-task","true","0","","","","","null","<span></span>","null","iti","","","","","","","","","","","","","","",""
"","html-keyboard-response","84","101963","0.0-5.0-7.0-0.1","6101cad0b59a684dcf97be1c","6101cad0b59a684dcf97be1c","63a36e1df1afd18b014794e9","63a38d59f8ae37cdfeb85725","rsvp1-task","true","0","","","","","null","
					<div style='width: 900px;'>
					<div style='float: center;'><img src=img/nontarget_distractor2.jpeg  ></img>
					</div>
					","null","rsvp1","practice0","","","","","","","","","2","","","","","img/nontarget_distractor2.jpeg"
"","html-keyboard-response","85","101969","0.0-5.0-7.0-1.1","6101cad0b59a684dcf97be1c","6101cad0b59a684dcf97be1c","63a36e1df1afd18b014794e9","63a38d59f8ae37cdfeb85725","rsvp1-task","true","0","","","","","null","<span></span>","null","iti","","","","","","","","","","","","","","",""
"","html-keyboard-response","86","102080","0.0-5.0-7.0-0.2","6101cad0b59a684dcf97be1c","6101cad0b59a684dcf97be1c","63a36e1df1afd18b014794e9","63a38d59f8ae37cdfeb85725","rsvp1-task","true","0","","","","","null","
					<div style='width: 900px;'>
					<div style='float: center;'><img src=img/nontarget_distractor120.jpeg  ></img>
					</div>
					","null","rsvp1","practice0","","","","","","","","","2","","","","","img/nontarget_distractor120.jpeg"
"","html-keyboard-response","87","102085","0.0-5.0-7.0-1.2","6101cad0b59a684dcf97be1c","6101cad0b59a684dcf97be1c","63a36e1df1afd18b014794e9","63a38d59f8ae37cdfeb85725","rsvp1-task","true","0","","","","","null","<span></span>","null","iti","","","","","","","","","","","","","","",""
"","html-keyboard-response","88","102195","0.0-5.0-7.0-0.3","6101cad0b59a684dcf97be1c","6101cad0b59a684dcf97be1c","63a36e1df1afd18b014794e9","63a38d59f8ae37cdfeb85725","rsvp1-task","true","0","","","","","null","
					<div style='width: 900px;'>
					<div style='float: center;'><img src=img/nontarget_distractor127.jpeg  ></img>
					</div>
					","null","rsvp1","practice0","","","","","","","","","2","","","","","img/nontarget_distractor127.jpeg"
"","html-keyboard-response","89","102200","0.0-5.0-7.0-1.3","6101cad0b59a684dcf97be1c","6101cad0b59a684dcf97be1c","63a36e1df1afd18b014794e9","63a38d59f8ae37cdfeb85725","rsvp1-task","true","0","","","","","null","<span></span>","null","iti","","","","","","","","","","","","","","",""
"","html-keyboard-response","90","102313","0.0-5.0-7.0-0.4","6101cad0b59a684dcf97be1c","6101cad0b59a684dcf97be1c","63a36e1df1afd18b014794e9","63a38d59f8ae37cdfeb85725","rsvp1-task","true","0","","","","","null","
					<div style='width: 900px;'>
					<div style='float: center;'><img src=img/nontarget_distractor131.jpeg  ></img>
					</div>
					","null","rsvp1","practice0","","","","","","","","","2","","","","","img/nontarget_distractor131.jpeg"
"","html-keyboard-response","91","102318","0.0-5.0-7.0-1.4","6101cad0b59a684dcf97be1c","6101cad0b59a684dcf97be1c","63a36e1df1afd18b014794e9","63a38d59f8ae37cdfeb85725","rsvp1-task","true","0","","","","","null","<span></span>","null","iti","","","","","","","","","","","","","","",""
"","html-keyboard-response","92","102430","0.0-5.0-7.0-0.5","6101cad0b59a684dcf97be1c","6101cad0b59a684dcf97be1c","63a36e1df1afd18b014794e9","63a38d59f8ae37cdfeb85725","rsvp1-task","true","0","","","","","null","
					<div style='width: 900px;'>
					<div style='float: center;'><img src=img/nontarget_distractor48.jpeg  ></img>
					</div>
					","null","rsvp1","practice0","","","","","","","","","2","","","","","img/nontarget_distractor48.jpeg"
"","html-keyboard-response","93","102435","0.0-5.0-7.0-1.5","6101cad0b59a684dcf97be1c","6101cad0b59a684dcf97be1c","63a36e1df1afd18b014794e9","63a38d59f8ae37cdfeb85725","rsvp1-task","true","0","","","","","null","<span></span>","null","iti","","","","","","","","","","","","","","",""
"","html-keyboard-response","94","102545","0.0-5.0-7.0-0.6","6101cad0b59a684dcf97be1c","6101cad0b59a684dcf97be1c","63a36e1df1afd18b014794e9","63a38d59f8ae37cdfeb85725","rsvp1-task","true","0","","","","","null","
					<div style='width: 900px;'>
					<div style='float: center;'><img src=img/nontarget_distractor126.jpeg  ></img>
					</div>
					","null","rsvp1","practice0","","","","","","","","","2","","","","","img/nontarget_distractor126.jpeg"
"","html-keyboard-response","95","102551","0.0-5.0-7.0-1.6","6101cad0b59a684dcf97be1c","6101cad0b59a684dcf97be1c","63a36e1df1afd18b014794e9","63a38d59f8ae37cdfeb85725","rsvp1-task","true","0","","","","","null","<span></span>","null","iti","","","","","","","","","","","","","","",""
"","html-keyboard-response","96","102663","0.0-5.0-7.0-0.7","6101cad0b59a684dcf97be1c","6101cad0b59a684dcf97be1c","63a36e1df1afd18b014794e9","63a38d59f8ae37cdfeb85725","rsvp1-task","true","0","","","","","null","
					<div style='width: 900px;'>
					<div style='float: center;'><img src=img/nontarget_distractor104.jpeg  ></img>
					</div>
					","null","rsvp1","practice0","","","","","","","","","2","","","","","img/nontarget_distractor104.jpeg"
"","html-keyboard-response","97","102668","0.0-5.0-7.0-1.7","6101cad0b59a684dcf97be1c","6101cad0b59a684dcf97be1c","63a36e1df1afd18b014794e9","63a38d59f8ae37cdfeb85725","rsvp1-task","true","0","","","","","null","<span></span>","null","iti","","","","","","","","","","","","","","",""
"","html-keyboard-response","98","102779","0.0-5.0-7.0-0.8","6101cad0b59a684dcf97be1c","6101cad0b59a684dcf97be1c","63a36e1df1afd18b014794e9","63a38d59f8ae37cdfeb85725","rsvp1-task","true","0","","","","","null","
					<div style='width: 900px;'>
					<div style='float: center;'><img src=img/nontarget_distractor161.jpeg  ></img>
					</div>
					","null","rsvp1","practice0","","","","","","","","","2","","","","","img/nontarget_distractor161.jpeg"
"","html-keyboard-response","99","102784","0.0-5.0-7.0-1.8","6101cad0b59a684dcf97be1c","6101cad0b59a684dcf97be1c","63a36e1df1afd18b014794e9","63a38d59f8ae37cdfeb85725","rsvp1-task","true","0","","","","","null","<span></span>","null","iti","","","","","","","","","","","","","","",""
"","html-keyboard-response","100","102896","0.0-5.0-7.0-0.9","6101cad0b59a684dcf97be1c","6101cad0b59a684dcf97be1c","63a36e1df1afd18b014794e9","63a38d59f8ae37cdfeb85725","rsvp1-task","true","0","","","","","null","
					<div style='width: 900px;'>
					<div style='float: center;'><img src=img/nontarget_distractor141.jpeg  ></img>
					</div>
					","null","rsvp1","practice0","","","","","","","","","2","","","","","img/nontarget_distractor141.jpeg"
"","html-keyboard-response","101","102901","0.0-5.0-7.0-1.9","6101cad0b59a684dcf97be1c","6101cad0b59a684dcf97be1c","63a36e1df1afd18b014794e9","63a38d59f8ae37cdfeb85725","rsvp1-task","true","0","","","","","null","<span></span>","null","iti","","","","","","","","","","","","","","",""
"","html-keyboard-response","102","103013","0.0-5.0-7.0-0.10","6101cad0b59a684dcf97be1c","6101cad0b59a684dcf97be1c","63a36e1df1afd18b014794e9","63a38d59f8ae37cdfeb85725","rsvp1-task","true","0","","","","","null","
					<div style='width: 900px;'>
					<div style='float: center;'><img src=img/t2_targets138.jpeg class=""rotateimgL""  ></img>
					</div>
					","null","rsvp1","practice0","","","","","","","","","2","","","","","img/t2_targets138.jpeg class=""rotateimgL"""
"","html-keyboard-response","103","103018","0.0-5.0-7.0-1.10","6101cad0b59a684dcf97be1c","6101cad0b59a684dcf97be1c","63a36e1df1afd18b014794e9","63a38d59f8ae37cdfeb85725","rsvp1-task","true","0","","","","","null","<span></span>","null","iti","","","","","","","","","","","","","","",""
"","html-keyboard-response","104","103130","0.0-5.0-7.0-0.11","6101cad0b59a684dcf97be1c","6101cad0b59a684dcf97be1c","63a36e1df1afd18b014794e9","63a38d59f8ae37cdfeb85725","rsvp1-task","true","0","","","","","null","
					<div style='width: 900px;'>
					<div style='float: center;'><img src=img/nontarget_distractor212.jpeg  ></img>
					</div>
					","null","rsvp1","practice0","","","","","","","","","2","","","","","img/nontarget_distractor212.jpeg"
"","html-keyboard-response","105","103136","0.0-5.0-7.0-1.11","6101cad0b59a684dcf97be1c","6101cad0b59a684dcf97be1c","63a36e1df1afd18b014794e9","63a38d59f8ae37cdfeb85725","rsvp1-task","true","0","","","","","null","<span></span>","null","iti","","","","","","","","","","","","","","",""
"","html-keyboard-response","106","103247","0.0-5.0-7.0-0.12","6101cad0b59a684dcf97be1c","6101cad0b59a684dcf97be1c","63a36e1df1afd18b014794e9","63a38d59f8ae37cdfeb85725","rsvp1-task","true","0","","","","","null","
					<div style='width: 900px;'>
					<div style='float: center;'><img src=img/nontarget_distractor153.jpeg  ></img>
					</div>
					","null","rsvp1","practice0","","","","","","","","","2","","","","","img/nontarget_distractor153.jpeg"
"","html-keyboard-response","107","103252","0.0-5.0-7.0-1.12","6101cad0b59a684dcf97be1c","6101cad0b59a684dcf97be1c","63a36e1df1afd18b014794e9","63a38d59f8ae37cdfeb85725","rsvp1-task","true","0","","","","","null","<span></span>","null","iti","","","","","","","","","","","","","","",""
"","html-keyboard-response","108","103362","0.0-5.0-7.0-0.13","6101cad0b59a684dcf97be1c","6101cad0b59a684dcf97be1c","63a36e1df1afd18b014794e9","63a38d59f8ae37cdfeb85725","rsvp1-task","true","0","","","","","null","
					<div style='width: 900px;'>
					<div style='float: center;'><img src=img/nontarget_distractor172.jpeg  ></img>
					</div>
					","null","rsvp1","practice0","","","","","","","","","2","","","","","img/nontarget_distractor172.jpeg"
"","html-keyboard-response","109","103367","0.0-5.0-7.0-1.13","6101cad0b59a684dcf97be1c","6101cad0b59a684dcf97be1c","63a36e1df1afd18b014794e9","63a38d59f8ae37cdfeb85725","rsvp1-task","true","0","","","","","null","<span></span>","null","iti","","","","","","","","","","","","","","",""
"","html-keyboard-response","110","103480","0.0-5.0-7.0-0.14","6101cad0b59a684dcf97be1c","6101cad0b59a684dcf97be1c","63a36e1df1afd18b014794e9","63a38d59f8ae37cdfeb85725","rsvp1-task","true","0","","","","","null","
					<div style='width: 900px;'>
					<div style='float: center;'><img src=img/nontarget_distractor136.jpeg  ></img>
					</div>
					","null","rsvp1","practice0","","","","","","","","","2","","","","","img/nontarget_distractor136.jpeg"
"","html-keyboard-response","111","103485","0.0-5.0-7.0-1.14","6101cad0b59a684dcf97be1c","6101cad0b59a684dcf97be1c","63a36e1df1afd18b014794e9","63a38d59f8ae37cdfeb85725","rsvp1-task","true","0","","","","","null","<span></span>","null","iti","","","","","","","","","","","","","","",""
"","html-keyboard-response","112","103595","0.0-5.0-7.0-0.15","6101cad0b59a684dcf97be1c","6101cad0b59a684dcf97be1c","63a36e1df1afd18b014794e9","63a38d59f8ae37cdfeb85725","rsvp1-task","true","0","","","","","null","
					<div style='width: 900px;'>
					<div style='float: center;'><img src=img/nontarget_distractor27.jpeg  ></img>
					</div>
					","null","rsvp1","practice0","","","","","","","","","2","","","","","img/nontarget_distractor27.jpeg"
"","html-keyboard-response","113","103600","0.0-5.0-7.0-1.15","6101cad0b59a684dcf97be1c","6101cad0b59a684dcf97be1c","63a36e1df1afd18b014794e9","63a38d59f8ae37cdfeb85725","rsvp1-task","true","0","","","","","null","<span></span>","null","iti","","","","","","","","","","","","","","",""
"","html-keyboard-response","114","103715","0.0-5.0-7.0-0.16","6101cad0b59a684dcf97be1c","6101cad0b59a684dcf97be1c","63a36e1df1afd18b014794e9","63a38d59f8ae37cdfeb85725","rsvp1-task","true","0","","","","","null","
					<div style='width: 900px;'>
					<div style='float: center;'><img src=img/nontarget_distractor112.jpeg  ></img>
					</div>
					","null","rsvp1","practice0","","","","","","","","","2","","","","","img/nontarget_distractor112.jpeg"
"","html-keyboard-response","115","103720","0.0-5.0-7.0-1.16","6101cad0b59a684dcf97be1c","6101cad0b59a684dcf97be1c","63a36e1df1afd18b014794e9","63a38d59f8ae37cdfeb85725","rsvp1-task","true","0","","","","","null","<span></span>","null","iti","","","","","","","","","","","","","","",""
"","html-keyboard-response","116","104147","0.0-5.0-8.0-0.0","6101cad0b59a684dcf97be1c","6101cad0b59a684dcf97be1c","63a36e1df1afd18b014794e9","63a38d59f8ae37cdfeb85725","rsvp1-task","true","0","","","","","426.6999999284744","<div class=""rsvp""> Was the rotated image rotated left (1 key) or right (0 key)?</div>","1","response","practice0","1","1","neutral","img/nontarget_distractor104.jpeg","img/nontarget_distractor212.jpeg","8","3","11","2","true","true","true","",""
"","html-keyboard-response","117","105166","0.0-5.0-9.0","6101cad0b59a684dcf97be1c","6101cad0b59a684dcf97be1c","63a36e1df1afd18b014794e9","63a38d59f8ae37cdfeb85725","rsvp1-task","true","0","","","","","null","Correct! </p> <p>  </p><p> ","null","","","","","","","","","","","","","","","main_T1_ITI",""
"","html-keyboard-response","118","107185","0.0-5.0-10.0","6101cad0b59a684dcf97be1c","6101cad0b59a684dcf97be1c","63a36e1df1afd18b014794e9","63a38d59f8ae37cdfeb85725","rsvp1-task","true","0","","","","","null","<div class=""rsvp"">+</div>","null","fixation","","","","","","","","","","","","","","",""
"","html-keyboard-response","119","107451","0.0-5.0-11.0","6101cad0b59a684dcf97be1c","6101cad0b59a684dcf97be1c","63a36e1df1afd18b014794e9","63a38d59f8ae37cdfeb85725","rsvp1-task","true","0","","","","","null","<div class=""rsvp"" ></div>","null","blank","","","","","","","","","","","","","","",""
"","html-keyboard-response","120","107561","0.0-5.0-12.0-0.0","6101cad0b59a684dcf97be1c","6101cad0b59a684dcf97be1c","63a36e1df1afd18b014794e9","63a38d59f8ae37cdfeb85725","rsvp1-task","true","0","","","","","null","
					<div style='width: 900px;'>
					<div style='float: center;'><img src=img/nontarget_distractor226.jpeg  ></img>
					</div>
					","null","rsvp1","practice0","","","","","","","","","3","","","","","img/nontarget_distractor226.jpeg"
"","html-keyboard-response","121","107566","0.0-5.0-12.0-1.0","6101cad0b59a684dcf97be1c","6101cad0b59a684dcf97be1c","63a36e1df1afd18b014794e9","63a38d59f8ae37cdfeb85725","rsvp1-task","true","0","","","","","null","<span></span>","null","iti","","","","","","","","","","","","","","",""
"","html-keyboard-response","122","107679","0.0-5.0-12.0-0.1","6101cad0b59a684dcf97be1c","6101cad0b59a684dcf97be1c","63a36e1df1afd18b014794e9","63a38d59f8ae37cdfeb85725","rsvp1-task","true","0","","","","","null","
					<div style='width: 900px;'>
					<div style='float: center;'><img src=img/nontarget_distractor85.jpeg  ></img>
					</div>
					","null","rsvp1","practice0","","","","","","","","","3","","","","","img/nontarget_distractor85.jpeg"
"","html-keyboard-response","123","107685","0.0-5.0-12.0-1.1","6101cad0b59a684dcf97be1c","6101cad0b59a684dcf97be1c","63a36e1df1afd18b014794e9","63a38d59f8ae37cdfeb85725","rsvp1-task","true","0","","","","","null","<span></span>","null","iti","","","","","","","","","","","","","","",""
"","html-keyboard-response","124","107796","0.0-5.0-12.0-0.2","6101cad0b59a684dcf97be1c","6101cad0b59a684dcf97be1c","63a36e1df1afd18b014794e9","63a38d59f8ae37cdfeb85725","rsvp1-task","true","0","","","","","null","
					<div style='width: 900px;'>
					<div style='float: center;'><img src=img/nontarget_distractor145.jpeg  ></img>
					</div>
					","null","rsvp1","practice0","","","","","","","","","3","","","","","img/nontarget_distractor145.jpeg"
"","html-keyboard-response","125","107801","0.0-5.0-12.0-1.2","6101cad0b59a684dcf97be1c","6101cad0b59a684dcf97be1c","63a36e1df1afd18b014794e9","63a38d59f8ae37cdfeb85725","rsvp1-task","true","0","","","","","null","<span></span>","null","iti","","","","","","","","","","","","","","",""
"","html-keyboard-response","126","107910","0.0-5.0-12.0-0.3","6101cad0b59a684dcf97be1c","6101cad0b59a684dcf97be1c","63a36e1df1afd18b014794e9","63a38d59f8ae37cdfeb85725","rsvp1-task","true","0","","","","","null","
					<div style='width: 900px;'>
					<div style='float: center;'><img src=img/nontarget_distractor220.jpeg  ></img>
					</div>
					","null","rsvp1","practice0","","","","","","","","","3","","","","","img/nontarget_distractor220.jpeg"
"","html-keyboard-response","127","107915","0.0-5.0-12.0-1.3","6101cad0b59a684dcf97be1c","6101cad0b59a684dcf97be1c","63a36e1df1afd18b014794e9","63a38d59f8ae37cdfeb85725","rsvp1-task","true","0","","","","","null","<span></span>","null","iti","","","","","","","","","","","","","","",""
"","html-keyboard-response","128","108027","0.0-5.0-12.0-0.4","6101cad0b59a684dcf97be1c","6101cad0b59a684dcf97be1c","63a36e1df1afd18b014794e9","63a38d59f8ae37cdfeb85725","rsvp1-task","true","0","","","","","null","
					<div style='width: 900px;'>
					<div style='float: center;'><img src=img/nontarget_distractor250.jpeg  ></img>
					</div>
					","null","rsvp1","practice0","","","","","","","","","3","","","","","img/nontarget_distractor250.jpeg"
"","html-keyboard-response","129","108031","0.0-5.0-12.0-1.4","6101cad0b59a684dcf97be1c","6101cad0b59a684dcf97be1c","63a36e1df1afd18b014794e9","63a38d59f8ae37cdfeb85725","rsvp1-task","true","0","","","","","null","<span></span>","null","iti","","","","","","","","","","","","","","",""
"","html-keyboard-response","130","108143","0.0-5.0-12.0-0.5","6101cad0b59a684dcf97be1c","6101cad0b59a684dcf97be1c","63a36e1df1afd18b014794e9","63a38d59f8ae37cdfeb85725","rsvp1-task","true","0","","","","","null","
					<div style='width: 900px;'>
					<div style='float: center;'><img src=img/nontarget_distractor165.jpeg  ></img>
					</div>
					","null","rsvp1","practice0","","","","","","","","","3","","","","","img/nontarget_distractor165.jpeg"
"","html-keyboard-response","131","108148","0.0-5.0-12.0-1.5","6101cad0b59a684dcf97be1c","6101cad0b59a684dcf97be1c","63a36e1df1afd18b014794e9","63a38d59f8ae37cdfeb85725","rsvp1-task","true","0","","","","","null","<span></span>","null","iti","","","","","","","","","","","","","","",""
"","html-keyboard-response","132","108260","0.0-5.0-12.0-0.6","6101cad0b59a684dcf97be1c","6101cad0b59a684dcf97be1c","63a36e1df1afd18b014794e9","63a38d59f8ae37cdfeb85725","rsvp1-task","true","0","","","","","null","
					<div style='width: 900px;'>
					<div style='float: center;'><img src=img/nontarget_distractor119.jpeg  ></img>
					</div>
					","null","rsvp1","practice0","","","","","","","","","3","","","","","img/nontarget_distractor119.jpeg"
"","html-keyboard-response","133","108265","0.0-5.0-12.0-1.6","6101cad0b59a684dcf97be1c","6101cad0b59a684dcf97be1c","63a36e1df1afd18b014794e9","63a38d59f8ae37cdfeb85725","rsvp1-task","true","0","","","","","null","<span></span>","null","iti","","","","","","","","","","","","","","",""
"","html-keyboard-response","134","108376","0.0-5.0-12.0-0.7","6101cad0b59a684dcf97be1c","6101cad0b59a684dcf97be1c","63a36e1df1afd18b014794e9","63a38d59f8ae37cdfeb85725","rsvp1-task","true","0","","","","","null","
					<div style='width: 900px;'>
					<div style='float: center;'><img src=img/nontarget_distractor55.jpeg  ></img>
					</div>
					","null","rsvp1","practice0","","","","","","","","","3","","","","","img/nontarget_distractor55.jpeg"
"","html-keyboard-response","135","108380","0.0-5.0-12.0-1.7","6101cad0b59a684dcf97be1c","6101cad0b59a684dcf97be1c","63a36e1df1afd18b014794e9","63a38d59f8ae37cdfeb85725","rsvp1-task","true","0","","","","","null","<span></span>","null","iti","","","","","","","","","","","","","","",""
"","html-keyboard-response","136","108493","0.0-5.0-12.0-0.8","6101cad0b59a684dcf97be1c","6101cad0b59a684dcf97be1c","63a36e1df1afd18b014794e9","63a38d59f8ae37cdfeb85725","rsvp1-task","true","0","","","","","null","
					<div style='width: 900px;'>
					<div style='float: center;'><img src=img/t2_targets122.jpeg class=""rotateimgL""  ></img>
					</div>
					","null","rsvp1","practice0","","","","","","","","","3","","","","","img/t2_targets122.jpeg class=""rotateimgL"""
"","html-keyboard-response","137","108498","0.0-5.0-12.0-1.8","6101cad0b59a684dcf97be1c","6101cad0b59a684dcf97be1c","63a36e1df1afd18b014794e9","63a38d59f8ae37cdfeb85725","rsvp1-task","true","0","","","","","null","<span></span>","null","iti","","","","","","","","","","","","","","",""
"","html-keyboard-response","138","108610","0.0-5.0-12.0-0.9","6101cad0b59a684dcf97be1c","6101cad0b59a684dcf97be1c","63a36e1df1afd18b014794e9","63a38d59f8ae37cdfeb85725","rsvp1-task","true","0","","","","","null","
					<div style='width: 900px;'>
					<div style='float: center;'><img src=img/nontarget_distractor168.jpeg  ></img>
					</div>
					","null","rsvp1","practice0","","","","","","","","","3","","","","","img/nontarget_distractor168.jpeg"
"","html-keyboard-response","139","108615","0.0-5.0-12.0-1.9","6101cad0b59a684dcf97be1c","6101cad0b59a684dcf97be1c","63a36e1df1afd18b014794e9","63a38d59f8ae37cdfeb85725","rsvp1-task","true","0","","","","","null","<span></span>","null","iti","","","","","","","","","","","","","","",""
"","html-keyboard-response","140","108727","0.0-5.0-12.0-0.10","6101cad0b59a684dcf97be1c","6101cad0b59a684dcf97be1c","63a36e1df1afd18b014794e9","63a38d59f8ae37cdfeb85725","rsvp1-task","true","0","","","","","null","
					<div style='width: 900px;'>
					<div style='float: center;'><img src=img/nontarget_distractor41.jpeg  ></img>
					</div>
					","null","rsvp1","practice0","","","","","","","","","3","","","","","img/nontarget_distractor41.jpeg"
"","html-keyboard-response","141","108731","0.0-5.0-12.0-1.10","6101cad0b59a684dcf97be1c","6101cad0b59a684dcf97be1c","63a36e1df1afd18b014794e9","63a38d59f8ae37cdfeb85725","rsvp1-task","true","0","","","","","null","<span></span>","null","iti","","","","","","","","","","","","","","",""
"","html-keyboard-response","142","108843","0.0-5.0-12.0-0.11","6101cad0b59a684dcf97be1c","6101cad0b59a684dcf97be1c","63a36e1df1afd18b014794e9","63a38d59f8ae37cdfeb85725","rsvp1-task","true","0","","","","","null","
					<div style='width: 900px;'>
					<div style='float: center;'><img src=img/nontarget_distractor157.jpeg  ></img>
					</div>
					","null","rsvp1","practice0","","","","","","","","","3","","","","","img/nontarget_distractor157.jpeg"
"","html-keyboard-response","143","108848","0.0-5.0-12.0-1.11","6101cad0b59a684dcf97be1c","6101cad0b59a684dcf97be1c","63a36e1df1afd18b014794e9","63a38d59f8ae37cdfeb85725","rsvp1-task","true","0","","","","","null","<span></span>","null","iti","","","","","","","","","","","","","","",""
"","html-keyboard-response","144","108960","0.0-5.0-12.0-0.12","6101cad0b59a684dcf97be1c","6101cad0b59a684dcf97be1c","63a36e1df1afd18b014794e9","63a38d59f8ae37cdfeb85725","rsvp1-task","true","0","","","","","null","
					<div style='width: 900px;'>
					<div style='float: center;'><img src=img/nontarget_distractor236.jpeg  ></img>
					</div>
					","null","rsvp1","practice0","","","","","","","","","3","","","","","img/nontarget_distractor236.jpeg"
"","html-keyboard-response","145","108967","0.0-5.0-12.0-1.12","6101cad0b59a684dcf97be1c","6101cad0b59a684dcf97be1c","63a36e1df1afd18b014794e9","63a38d59f8ae37cdfeb85725","rsvp1-task","true","0","","","","","null","<span></span>","null","iti","","","","","","","","","","","","","","",""
"","html-keyboard-response","146","109075","0.0-5.0-12.0-0.13","6101cad0b59a684dcf97be1c","6101cad0b59a684dcf97be1c","63a36e1df1afd18b014794e9","63a38d59f8ae37cdfeb85725","rsvp1-task","true","0","","","","","null","
					<div style='width: 900px;'>
					<div style='float: center;'><img src=img/nontarget_distractor207.jpeg  ></img>
					</div>
					","null","rsvp1","practice0","","","","","","","","","3","","","","","img/nontarget_distractor207.jpeg"
"","html-keyboard-response","147","109080","0.0-5.0-12.0-1.13","6101cad0b59a684dcf97be1c","6101cad0b59a684dcf97be1c","63a36e1df1afd18b014794e9","63a38d59f8ae37cdfeb85725","rsvp1-task","true","0","","","","","null","<span></span>","null","iti","","","","","","","","","","","","","","",""
"","html-keyboard-response","148","109193","0.0-5.0-12.0-0.14","6101cad0b59a684dcf97be1c","6101cad0b59a684dcf97be1c","63a36e1df1afd18b014794e9","63a38d59f8ae37cdfeb85725","rsvp1-task","true","0","","","","","null","
					<div style='width: 900px;'>
					<div style='float: center;'><img src=img/nontarget_distractor52.jpeg  ></img>
					</div>
					","null","rsvp1","practice0","","","","","","","","","3","","","","","img/nontarget_distractor52.jpeg"
"","html-keyboard-response","149","109199","0.0-5.0-12.0-1.14","6101cad0b59a684dcf97be1c","6101cad0b59a684dcf97be1c","63a36e1df1afd18b014794e9","63a38d59f8ae37cdfeb85725","rsvp1-task","true","0","","","","","null","<span></span>","null","iti","","","","","","","","","","","","","","",""
"","html-keyboard-response","150","109310","0.0-5.0-12.0-0.15","6101cad0b59a684dcf97be1c","6101cad0b59a684dcf97be1c","63a36e1df1afd18b014794e9","63a38d59f8ae37cdfeb85725","rsvp1-task","true","0","","","","","null","
					<div style='width: 900px;'>
					<div style='float: center;'><img src=img/nontarget_distractor193.jpeg  ></img>
					</div>
					","null","rsvp1","practice0","","","","","","","","","3","","","","","img/nontarget_distractor193.jpeg"
"","html-keyboard-response","151","109316","0.0-5.0-12.0-1.15","6101cad0b59a684dcf97be1c","6101cad0b59a684dcf97be1c","63a36e1df1afd18b014794e9","63a38d59f8ae37cdfeb85725","rsvp1-task","true","0","","","","","null","<span></span>","null","iti","","","","","","","","","","","","","","",""
"","html-keyboard-response","152","109427","0.0-5.0-12.0-0.16","6101cad0b59a684dcf97be1c","6101cad0b59a684dcf97be1c","63a36e1df1afd18b014794e9","63a38d59f8ae37cdfeb85725","rsvp1-task","true","0","","","","","null","
					<div style='width: 900px;'>
					<div style='float: center;'><img src=img/nontarget_distractor35.jpeg  ></img>
					</div>
					","null","rsvp1","practice0","","","","","","","","","3","","","","","img/nontarget_distractor35.jpeg"
"","html-keyboard-response","153","109431","0.0-5.0-12.0-1.16","6101cad0b59a684dcf97be1c","6101cad0b59a684dcf97be1c","63a36e1df1afd18b014794e9","63a38d59f8ae37cdfeb85725","rsvp1-task","true","0","","","","","null","<span></span>","null","iti","","","","","","","","","","","","","","",""
"","html-keyboard-response","154","109851","0.0-5.0-13.0-0.0","6101cad0b59a684dcf97be1c","6101cad0b59a684dcf97be1c","63a36e1df1afd18b014794e9","63a38d59f8ae37cdfeb85725","rsvp1-task","true","0","","","","","418.8000000715256","<div class=""rsvp""> Was the rotated image rotated left (1 key) or right (0 key)?</div>","1","response","practice0","1","1","neutral","img/nontarget_distractor55.jpeg","img/nontarget_distractor168.jpeg","8","1","9","3","true","true","true","",""
"","html-keyboard-response","155","110867","0.0-5.0-14.0","6101cad0b59a684dcf97be1c","6101cad0b59a684dcf97be1c","63a36e1df1afd18b014794e9","63a38d59f8ae37cdfeb85725","rsvp1-task","true","0","","","","","null","Correct! </p> <p>  </p><p> ","null","","","","","","","","","","","","","","","main_T1_ITI",""
"","html-keyboard-response","156","112885","0.0-5.0-15.0","6101cad0b59a684dcf97be1c","6101cad0b59a684dcf97be1c","63a36e1df1afd18b014794e9","63a38d59f8ae37cdfeb85725","rsvp1-task","true","0","","","","","null","<div class=""rsvp"">+</div>","null","fixation","","","","","","","","","","","","","","",""
"","html-keyboard-response","157","113150","0.0-5.0-16.0","6101cad0b59a684dcf97be1c","6101cad0b59a684dcf97be1c","63a36e1df1afd18b014794e9","63a38d59f8ae37cdfeb85725","rsvp1-task","true","0","","","","","null","<div class=""rsvp"" ></div>","null","blank","","","","","","","","","","","","","","",""
"","html-keyboard-response","158","113261","0.0-5.0-17.0-0.0","6101cad0b59a684dcf97be1c","6101cad0b59a684dcf97be1c","63a36e1df1afd18b014794e9","63a38d59f8ae37cdfeb85725","rsvp1-task","true","0","","","","","null","
					<div style='width: 900px;'>
					<div style='float: center;'><img src=img/nontarget_distractor49.jpeg  ></img>
					</div>
					","null","rsvp1","practice0","","","","","","","","","4","","","","","img/nontarget_distractor49.jpeg"
"","html-keyboard-response","159","113266","0.0-5.0-17.0-1.0","6101cad0b59a684dcf97be1c","6101cad0b59a684dcf97be1c","63a36e1df1afd18b014794e9","63a38d59f8ae37cdfeb85725","rsvp1-task","true","0","","","","","null","<span></span>","null","iti","","","","","","","","","","","","","","",""
"","html-keyboard-response","160","113379","0.0-5.0-17.0-0.1","6101cad0b59a684dcf97be1c","6101cad0b59a684dcf97be1c","63a36e1df1afd18b014794e9","63a38d59f8ae37cdfeb85725","rsvp1-task","true","0","","","","","null","
					<div style='width: 900px;'>
					<div style='float: center;'><img src=img/nontarget_distractor121.jpeg  ></img>
					</div>
					","null","rsvp1","practice0","","","","","","","","","4","","","","","img/nontarget_distractor121.jpeg"
"","html-keyboard-response","161","113384","0.0-5.0-17.0-1.1","6101cad0b59a684dcf97be1c","6101cad0b59a684dcf97be1c","63a36e1df1afd18b014794e9","63a38d59f8ae37cdfeb85725","rsvp1-task","true","0","","","","","null","<span></span>","null","iti","","","","","","","","","","","","","","",""
"","html-keyboard-response","162","113496","0.0-5.0-17.0-0.2","6101cad0b59a684dcf97be1c","6101cad0b59a684dcf97be1c","63a36e1df1afd18b014794e9","63a38d59f8ae37cdfeb85725","rsvp1-task","true","0","","","","","null","
					<div style='width: 900px;'>
					<div style='float: center;'><img src=img/nontarget_distractor157.jpeg  ></img>
					</div>
					","null","rsvp1","practice0","","","","","","","","","4","","","","","img/nontarget_distractor157.jpeg"
"","html-keyboard-response","163","113502","0.0-5.0-17.0-1.2","6101cad0b59a684dcf97be1c","6101cad0b59a684dcf97be1c","63a36e1df1afd18b014794e9","63a38d59f8ae37cdfeb85725","rsvp1-task","true","0","","","","","null","<span></span>","null","iti","","","","","","","","","","","","","","",""
"","html-keyboard-response","164","113613","0.0-5.0-17.0-0.3","6101cad0b59a684dcf97be1c","6101cad0b59a684dcf97be1c","63a36e1df1afd18b014794e9","63a38d59f8ae37cdfeb85725","rsvp1-task","true","0","","","","","null","
					<div style='width: 900px;'>
					<div style='float: center;'><img src=img/nontarget_distractor184.jpeg  ></img>
					</div>
					","null","rsvp1","practice0","","","","","","","","","4","","","","","img/nontarget_distractor184.jpeg"
"","html-keyboard-response","165","113618","0.0-5.0-17.0-1.3","6101cad0b59a684dcf97be1c","6101cad0b59a684dcf97be1c","63a36e1df1afd18b014794e9","63a38d59f8ae37cdfeb85725","rsvp1-task","true","0","","","","","null","<span></span>","null","iti","","","","","","","","","","","","","","",""
"","html-keyboard-response","166","113728","0.0-5.0-17.0-0.4","6101cad0b59a684dcf97be1c","6101cad0b59a684dcf97be1c","63a36e1df1afd18b014794e9","63a38d59f8ae37cdfeb85725","rsvp1-task","true","0","","","","","null","
					<div style='width: 900px;'>
					<div style='float: center;'><img src=img/nontarget_distractor73.jpeg  ></img>
					</div>
					","null","rsvp1","practice0","","","","","","","","","4","","","","","img/nontarget_distractor73.jpeg"
"","html-keyboard-response","167","113733","0.0-5.0-17.0-1.4","6101cad0b59a684dcf97be1c","6101cad0b59a684dcf97be1c","63a36e1df1afd18b014794e9","63a38d59f8ae37cdfeb85725","rsvp1-task","true","0","","","","","null","<span></span>","null","iti","","","","","","","","","","","","","","",""
"","html-keyboard-response","168","113846","0.0-5.0-17.0-0.5","6101cad0b59a684dcf97be1c","6101cad0b59a684dcf97be1c","63a36e1df1afd18b014794e9","63a38d59f8ae37cdfeb85725","rsvp1-task","true","0","","","","","null","
					<div style='width: 900px;'>
					<div style='float: center;'><img src=img/nontarget_distractor63.jpeg  ></img>
					</div>
					","null","rsvp1","practice0","","","","","","","","","4","","","","","img/nontarget_distractor63.jpeg"
"","html-keyboard-response","169","113852","0.0-5.0-17.0-1.5","6101cad0b59a684dcf97be1c","6101cad0b59a684dcf97be1c","63a36e1df1afd18b014794e9","63a38d59f8ae37cdfeb85725","rsvp1-task","true","0","","","","","null","<span></span>","null","iti","","","","","","","","","","","","","","",""
"","html-keyboard-response","170","113963","0.0-5.0-17.0-0.6","6101cad0b59a684dcf97be1c","6101cad0b59a684dcf97be1c","63a36e1df1afd18b014794e9","63a38d59f8ae37cdfeb85725","rsvp1-task","true","0","","","","","null","
					<div style='width: 900px;'>
					<div style='float: center;'><img src=img/nontarget_distractor145.jpeg  ></img>
					</div>
					","null","rsvp1","practice0","","","","","","","","","4","","","","","img/nontarget_distractor145.jpeg"
"","html-keyboard-response","171","113968","0.0-5.0-17.0-1.6","6101cad0b59a684dcf97be1c","6101cad0b59a684dcf97be1c","63a36e1df1afd18b014794e9","63a38d59f8ae37cdfeb85725","rsvp1-task","true","0","","","","","null","<span></span>","null","iti","","","","","","","","","","","","","","",""
"","html-keyboard-response","172","114078","0.0-5.0-17.0-0.7","6101cad0b59a684dcf97be1c","6101cad0b59a684dcf97be1c","63a36e1df1afd18b014794e9","63a38d59f8ae37cdfeb85725","rsvp1-task","true","0","","","","","null","
					<div style='width: 900px;'>
					<div style='float: center;'><img src=img/nontarget_distractor174.jpeg  ></img>
					</div>
					","null","rsvp1","practice0","","","","","","","","","4","","","","","img/nontarget_distractor174.jpeg"
"","html-keyboard-response","173","114083","0.0-5.0-17.0-1.7","6101cad0b59a684dcf97be1c","6101cad0b59a684dcf97be1c","63a36e1df1afd18b014794e9","63a38d59f8ae37cdfeb85725","rsvp1-task","true","0","","","","","null","<span></span>","null","iti","","","","","","","","","","","","","","",""
"","html-keyboard-response","174","114196","0.0-5.0-17.0-0.8","6101cad0b59a684dcf97be1c","6101cad0b59a684dcf97be1c","63a36e1df1afd18b014794e9","63a38d59f8ae37cdfeb85725","rsvp1-task","true","0","","","","","null","
					<div style='width: 900px;'>
					<div style='float: center;'><img src=img/nontarget_distractor215.jpeg  ></img>
					</div>
					","null","rsvp1","practice0","","","","","","","","","4","","","","","img/nontarget_distractor215.jpeg"
"","html-keyboard-response","175","114201","0.0-5.0-17.0-1.8","6101cad0b59a684dcf97be1c","6101cad0b59a684dcf97be1c","63a36e1df1afd18b014794e9","63a38d59f8ae37cdfeb85725","rsvp1-task","true","0","","","","","null","<span></span>","null","iti","","","","","","","","","","","","","","",""
"","html-keyboard-response","176","114312","0.0-5.0-17.0-0.9","6101cad0b59a684dcf97be1c","6101cad0b59a684dcf97be1c","63a36e1df1afd18b014794e9","63a38d59f8ae37cdfeb85725","rsvp1-task","true","0","","","","","null","
					<div style='width: 900px;'>
					<div style='float: center;'><img src=img/nontarget_distractor249.jpeg  ></img>
					</div>
					","null","rsvp1","practice0","","","","","","","","","4","","","","","img/nontarget_distractor249.jpeg"
"","html-keyboard-response","177","114317","0.0-5.0-17.0-1.9","6101cad0b59a684dcf97be1c","6101cad0b59a684dcf97be1c","63a36e1df1afd18b014794e9","63a38d59f8ae37cdfeb85725","rsvp1-task","true","0","","","","","null","<span></span>","null","iti","","","","","","","","","","","","","","",""
"","html-keyboard-response","178","114430","0.0-5.0-17.0-0.10","6101cad0b59a684dcf97be1c","6101cad0b59a684dcf97be1c","63a36e1df1afd18b014794e9","63a38d59f8ae37cdfeb85725","rsvp1-task","true","0","","","","","null","
					<div style='width: 900px;'>
					<div style='float: center;'><img src=img/t2_targets126.jpeg class=""rotateimgR""  ></img>
					</div>
					","null","rsvp1","practice0","","","","","","","","","4","","","","","img/t2_targets126.jpeg class=""rotateimgR"""
"","html-keyboard-response","179","114435","0.0-5.0-17.0-1.10","6101cad0b59a684dcf97be1c","6101cad0b59a684dcf97be1c","63a36e1df1afd18b014794e9","63a38d59f8ae37cdfeb85725","rsvp1-task","true","0","","","","","null","<span></span>","null","iti","","","","","","","","","","","","","","",""
"","html-keyboard-response","180","114544","0.0-5.0-17.0-0.11","6101cad0b59a684dcf97be1c","6101cad0b59a684dcf97be1c","63a36e1df1afd18b014794e9","63a38d59f8ae37cdfeb85725","rsvp1-task","true","0","","","","","null","
					<div style='width: 900px;'>
					<div style='float: center;'><img src=img/nontarget_distractor199.jpeg  ></img>
					</div>
					","null","rsvp1","practice0","","","","","","","","","4","","","","","img/nontarget_distractor199.jpeg"
"","html-keyboard-response","181","114549","0.0-5.0-17.0-1.11","6101cad0b59a684dcf97be1c","6101cad0b59a684dcf97be1c","63a36e1df1afd18b014794e9","63a38d59f8ae37cdfeb85725","rsvp1-task","true","0","","","","","null","<span></span>","null","iti","","","","","","","","","","","","","","",""
"","html-keyboard-response","182","114662","0.0-5.0-17.0-0.12","6101cad0b59a684dcf97be1c","6101cad0b59a684dcf97be1c","63a36e1df1afd18b014794e9","63a38d59f8ae37cdfeb85725","rsvp1-task","true","0","","","","","null","
					<div style='width: 900px;'>
					<div style='float: center;'><img src=img/nontarget_distractor112.jpeg  ></img>
					</div>
					","null","rsvp1","practice0","","","","","","","","","4","","","","","img/nontarget_distractor112.jpeg"
"","html-keyboard-response","183","114668","0.0-5.0-17.0-1.12","6101cad0b59a684dcf97be1c","6101cad0b59a684dcf97be1c","63a36e1df1afd18b014794e9","63a38d59f8ae37cdfeb85725","rsvp1-task","true","0","","","","","null","<span></span>","null","iti","","","","","","","","","","","","","","",""
"","html-keyboard-response","184","114779","0.0-5.0-17.0-0.13","6101cad0b59a684dcf97be1c","6101cad0b59a684dcf97be1c","63a36e1df1afd18b014794e9","63a38d59f8ae37cdfeb85725","rsvp1-task","true","0","","","","","null","
					<div style='width: 900px;'>
					<div style='float: center;'><img src=img/nontarget_distractor26.jpeg  ></img>
					</div>
					","null","rsvp1","practice0","","","","","","","","","4","","","","","img/nontarget_distractor26.jpeg"
"","html-keyboard-response","185","114784","0.0-5.0-17.0-1.13","6101cad0b59a684dcf97be1c","6101cad0b59a684dcf97be1c","63a36e1df1afd18b014794e9","63a38d59f8ae37cdfeb85725","rsvp1-task","true","0","","","","","null","<span></span>","null","iti","","","","","","","","","","","","","","",""
"","html-keyboard-response","186","114895","0.0-5.0-17.0-0.14","6101cad0b59a684dcf97be1c","6101cad0b59a684dcf97be1c","63a36e1df1afd18b014794e9","63a38d59f8ae37cdfeb85725","rsvp1-task","true","0","","","","","null","
					<div style='width: 900px;'>
					<div style='float: center;'><img src=img/nontarget_distractor67.jpeg  ></img>
					</div>
					","null","rsvp1","practice0","","","","","","","","","4","","","","","img/nontarget_distractor67.jpeg"
"","html-keyboard-response","187","114901","0.0-5.0-17.0-1.14","6101cad0b59a684dcf97be1c","6101cad0b59a684dcf97be1c","63a36e1df1afd18b014794e9","63a38d59f8ae37cdfeb85725","rsvp1-task","true","0","","","","","null","<span></span>","null","iti","","","","","","","","","","","","","","",""
"","html-keyboard-response","188","115010","0.0-5.0-17.0-0.15","6101cad0b59a684dcf97be1c","6101cad0b59a684dcf97be1c","63a36e1df1afd18b014794e9","63a38d59f8ae37cdfeb85725","rsvp1-task","true","0","","","","","null","
					<div style='width: 900px;'>
					<div style='float: center;'><img src=img/nontarget_distractor246.jpeg  ></img>
					</div>
					","null","rsvp1","practice0","","","","","","","","","4","","","","","img/nontarget_distractor246.jpeg"
"","html-keyboard-response","189","115015","0.0-5.0-17.0-1.15","6101cad0b59a684dcf97be1c","6101cad0b59a684dcf97be1c","63a36e1df1afd18b014794e9","63a38d59f8ae37cdfeb85725","rsvp1-task","true","0","","","","","null","<span></span>","null","iti","","","","","","","","","","","","","","",""
"","html-keyboard-response","190","115127","0.0-5.0-17.0-0.16","6101cad0b59a684dcf97be1c","6101cad0b59a684dcf97be1c","63a36e1df1afd18b014794e9","63a38d59f8ae37cdfeb85725","rsvp1-task","true","0","","","","","null","
					<div style='width: 900px;'>
					<div style='float: center;'><img src=img/nontarget_distractor81.jpeg  ></img>
					</div>
					","null","rsvp1","practice0","","","","","","","","","4","","","","","img/nontarget_distractor81.jpeg"
"","html-keyboard-response","191","115132","0.0-5.0-17.0-1.16","6101cad0b59a684dcf97be1c","6101cad0b59a684dcf97be1c","63a36e1df1afd18b014794e9","63a38d59f8ae37cdfeb85725","rsvp1-task","true","0","","","","","null","<span></span>","null","iti","","","","","","","","","","","","","","",""
"","html-keyboard-response","192","115563","0.0-5.0-18.0-0.0","6101cad0b59a684dcf97be1c","6101cad0b59a684dcf97be1c","63a36e1df1afd18b014794e9","63a38d59f8ae37cdfeb85725","rsvp1-task","true","0","","","","","430.39999997615814","<div class=""rsvp""> Was the rotated image rotated left (1 key) or right (0 key)?</div>","0","response","practice0","0","0","neutral","img/nontarget_distractor174.jpeg","img/nontarget_distractor199.jpeg","8","3","11","4","true","true","true","",""
"","html-keyboard-response","193","116583","0.0-5.0-19.0","6101cad0b59a684dcf97be1c","6101cad0b59a684dcf97be1c","63a36e1df1afd18b014794e9","63a38d59f8ae37cdfeb85725","rsvp1-task","true","0","","","","","null","Correct! </p> <p>  </p><p> ","null","","","","","","","","","","","","","","","main_T1_ITI",""
"","html-keyboard-response","194","118600","0.0-5.0-20.0","6101cad0b59a684dcf97be1c","6101cad0b59a684dcf97be1c","63a36e1df1afd18b014794e9","63a38d59f8ae37cdfeb85725","rsvp1-task","true","0","","","","","null","<div class=""rsvp"">+</div>","null","fixation","","","","","","","","","","","","","","",""
"","html-keyboard-response","195","118866","0.0-5.0-21.0","6101cad0b59a684dcf97be1c","6101cad0b59a684dcf97be1c","63a36e1df1afd18b014794e9","63a38d59f8ae37cdfeb85725","rsvp1-task","true","0","","","","","null","<div class=""rsvp"" ></div>","null","blank","","","","","","","","","","","","","","",""
"","html-keyboard-response","196","118977","0.0-5.0-22.0-0.0","6101cad0b59a684dcf97be1c","6101cad0b59a684dcf97be1c","63a36e1df1afd18b014794e9","63a38d59f8ae37cdfeb85725","rsvp1-task","true","0","","","","","null","
					<div style='width: 900px;'>
					<div style='float: center;'><img src=img/nontarget_distractor98.jpeg  ></img>
					</div>
					","null","rsvp1","practice0","","","","","","","","","5","","","","","img/nontarget_distractor98.jpeg"
"","html-keyboard-response","197","118982","0.0-5.0-22.0-1.0","6101cad0b59a684dcf97be1c","6101cad0b59a684dcf97be1c","63a36e1df1afd18b014794e9","63a38d59f8ae37cdfeb85725","rsvp1-task","true","0","","","","","null","<span></span>","null","iti","","","","","","","","","","","","","","",""
"","html-keyboard-response","198","119095","0.0-5.0-22.0-0.1","6101cad0b59a684dcf97be1c","6101cad0b59a684dcf97be1c","63a36e1df1afd18b014794e9","63a38d59f8ae37cdfeb85725","rsvp1-task","true","0","","","","","null","
					<div style='width: 900px;'>
					<div style='float: center;'><img src=img/nontarget_distractor180.jpeg  ></img>
					</div>
					","null","rsvp1","practice0","","","","","","","","","5","","","","","img/nontarget_distractor180.jpeg"
"","html-keyboard-response","199","119101","0.0-5.0-22.0-1.1","6101cad0b59a684dcf97be1c","6101cad0b59a684dcf97be1c","63a36e1df1afd18b014794e9","63a38d59f8ae37cdfeb85725","rsvp1-task","true","0","","","","","null","<span></span>","null","iti","","","","","","","","","","","","","","",""
"","html-keyboard-response","200","119211","0.0-5.0-22.0-0.2","6101cad0b59a684dcf97be1c","6101cad0b59a684dcf97be1c","63a36e1df1afd18b014794e9","63a38d59f8ae37cdfeb85725","rsvp1-task","true","0","","","","","null","
					<div style='width: 900px;'>
					<div style='float: center;'><img src=img/nontarget_distractor12.jpeg  ></img>
					</div>
					","null","rsvp1","practice0","","","","","","","","","5","","","","","img/nontarget_distractor12.jpeg"
"","html-keyboard-response","201","119217","0.0-5.0-22.0-1.2","6101cad0b59a684dcf97be1c","6101cad0b59a684dcf97be1c","63a36e1df1afd18b014794e9","63a38d59f8ae37cdfeb85725","rsvp1-task","true","0","","","","","null","<span></span>","null","iti","","","","","","","","","","","","","","",""
"","html-keyboard-response","202","119329","0.0-5.0-22.0-0.3","6101cad0b59a684dcf97be1c","6101cad0b59a684dcf97be1c","63a36e1df1afd18b014794e9","63a38d59f8ae37cdfeb85725","rsvp1-task","true","0","","","","","null","
					<div style='width: 900px;'>
					<div style='float: center;'><img src=img/nontarget_distractor77.jpeg  ></img>
					</div>
					","null","rsvp1","practice0","","","","","","","","","5","","","","","img/nontarget_distractor77.jpeg"
"","html-keyboard-response","203","119334","0.0-5.0-22.0-1.3","6101cad0b59a684dcf97be1c","6101cad0b59a684dcf97be1c","63a36e1df1afd18b014794e9","63a38d59f8ae37cdfeb85725","rsvp1-task","true","0","","","","","null","<span></span>","null","iti","","","","","","","","","","","","","","",""
"","html-keyboard-response","204","119445","0.0-5.0-22.0-0.4","6101cad0b59a684dcf97be1c","6101cad0b59a684dcf97be1c","63a36e1df1afd18b014794e9","63a38d59f8ae37cdfeb85725","rsvp1-task","true","0","","","","","null","
					<div style='width: 900px;'>
					<div style='float: center;'><img src=img/nontarget_distractor94.jpeg  ></img>
					</div>
					","null","rsvp1","practice0","","","","","","","","","5","","","","","img/nontarget_distractor94.jpeg"
"","html-keyboard-response","205","119451","0.0-5.0-22.0-1.4","6101cad0b59a684dcf97be1c","6101cad0b59a684dcf97be1c","63a36e1df1afd18b014794e9","63a38d59f8ae37cdfeb85725","rsvp1-task","true","0","","","","","null","<span></span>","null","iti","","","","","","","","","","","","","","",""
"","html-keyboard-response","206","119563","0.0-5.0-22.0-0.5","6101cad0b59a684dcf97be1c","6101cad0b59a684dcf97be1c","63a36e1df1afd18b014794e9","63a38d59f8ae37cdfeb85725","rsvp1-task","true","0","","","","","null","
					<div style='width: 900px;'>
					<div style='float: center;'><img src=img/nontarget_distractor230.jpeg  ></img>
					</div>
					","null","rsvp1","practice0","","","","","","","","","5","","","","","img/nontarget_distractor230.jpeg"
"","html-keyboard-response","207","119567","0.0-5.0-22.0-1.5","6101cad0b59a684dcf97be1c","6101cad0b59a684dcf97be1c","63a36e1df1afd18b014794e9","63a38d59f8ae37cdfeb85725","rsvp1-task","true","0","","","","","null","<span></span>","null","iti","","","","","","","","","","","","","","",""
"","html-keyboard-response","208","119676","0.0-5.0-22.0-0.6","6101cad0b59a684dcf97be1c","6101cad0b59a684dcf97be1c","63a36e1df1afd18b014794e9","63a38d59f8ae37cdfeb85725","rsvp1-task","true","0","","","","","null","
					<div style='width: 900px;'>
					<div style='float: center;'><img src=img/nontarget_distractor173.jpeg  ></img>
					</div>
					","null","rsvp1","practice0","","","","","","","","","5","","","","","img/nontarget_distractor173.jpeg"
"","html-keyboard-response","209","119681","0.0-5.0-22.0-1.6","6101cad0b59a684dcf97be1c","6101cad0b59a684dcf97be1c","63a36e1df1afd18b014794e9","63a38d59f8ae37cdfeb85725","rsvp1-task","true","0","","","","","null","<span></span>","null","iti","","","","","","","","","","","","","","",""
"","html-keyboard-response","210","119792","0.0-5.0-22.0-0.7","6101cad0b59a684dcf97be1c","6101cad0b59a684dcf97be1c","63a36e1df1afd18b014794e9","63a38d59f8ae37cdfeb85725","rsvp1-task","true","0","","","","","null","
					<div style='width: 900px;'>
					<div style='float: center;'><img src=img/nontarget_distractor138.jpeg  ></img>
					</div>
					","null","rsvp1","practice0","","","","","","","","","5","","","","","img/nontarget_distractor138.jpeg"
"","html-keyboard-response","211","119797","0.0-5.0-22.0-1.7","6101cad0b59a684dcf97be1c","6101cad0b59a684dcf97be1c","63a36e1df1afd18b014794e9","63a38d59f8ae37cdfeb85725","rsvp1-task","true","0","","","","","null","<span></span>","null","iti","","","","","","","","","","","","","","",""
"","html-keyboard-response","212","119909","0.0-5.0-22.0-0.8","6101cad0b59a684dcf97be1c","6101cad0b59a684dcf97be1c","63a36e1df1afd18b014794e9","63a38d59f8ae37cdfeb85725","rsvp1-task","true","0","","","","","null","
					<div style='width: 900px;'>
					<div style='float: center;'><img src=img/nontarget_distractor207.jpeg  ></img>
					</div>
					","null","rsvp1","practice0","","","","","","","","","5","","","","","img/nontarget_distractor207.jpeg"
"","html-keyboard-response","213","119915","0.0-5.0-22.0-1.8","6101cad0b59a684dcf97be1c","6101cad0b59a684dcf97be1c","63a36e1df1afd18b014794e9","63a38d59f8ae37cdfeb85725","rsvp1-task","true","0","","","","","null","<span></span>","null","iti","","","","","","","","","","","","","","",""
"","html-keyboard-response","214","120026","0.0-5.0-22.0-0.9","6101cad0b59a684dcf97be1c","6101cad0b59a684dcf97be1c","63a36e1df1afd18b014794e9","63a38d59f8ae37cdfeb85725","rsvp1-task","true","0","","","","","null","
					<div style='width: 900px;'>
					<div style='float: center;'><img src=img/nontarget_distractor209.jpeg  ></img>
					</div>
					","null","rsvp1","practice0","","","","","","","","","5","","","","","img/nontarget_distractor209.jpeg"
"","html-keyboard-response","215","120031","0.0-5.0-22.0-1.9","6101cad0b59a684dcf97be1c","6101cad0b59a684dcf97be1c","63a36e1df1afd18b014794e9","63a38d59f8ae37cdfeb85725","rsvp1-task","true","0","","","","","null","<span></span>","null","iti","","","","","","","","","","","","","","",""
"","html-keyboard-response","216","120143","0.0-5.0-22.0-0.10","6101cad0b59a684dcf97be1c","6101cad0b59a684dcf97be1c","63a36e1df1afd18b014794e9","63a38d59f8ae37cdfeb85725","rsvp1-task","true","0","","","","","null","
					<div style='width: 900px;'>
					<div style='float: center;'><img src=img/nontarget_distractor90.jpeg  ></img>
					</div>
					","null","rsvp1","practice0","","","","","","","","","5","","","","","img/nontarget_distractor90.jpeg"
"","html-keyboard-response","217","120147","0.0-5.0-22.0-1.10","6101cad0b59a684dcf97be1c","6101cad0b59a684dcf97be1c","63a36e1df1afd18b014794e9","63a38d59f8ae37cdfeb85725","rsvp1-task","true","0","","","","","null","<span></span>","null","iti","","","","","","","","","","","","","","",""
"","html-keyboard-response","218","120259","0.0-5.0-22.0-0.11","6101cad0b59a684dcf97be1c","6101cad0b59a684dcf97be1c","63a36e1df1afd18b014794e9","63a38d59f8ae37cdfeb85725","rsvp1-task","true","0","","","","","null","
					<div style='width: 900px;'>
					<div style='float: center;'><img src=img/nontarget_distractor81.jpeg  ></img>
					</div>
					","null","rsvp1","practice0","","","","","","","","","5","","","","","img/nontarget_distractor81.jpeg"
"","html-keyboard-response","219","120264","0.0-5.0-22.0-1.11","6101cad0b59a684dcf97be1c","6101cad0b59a684dcf97be1c","63a36e1df1afd18b014794e9","63a38d59f8ae37cdfeb85725","rsvp1-task","true","0","","","","","null","<span></span>","null","iti","","","","","","","","","","","","","","",""
"","html-keyboard-response","220","120376","0.0-5.0-22.0-0.12","6101cad0b59a684dcf97be1c","6101cad0b59a684dcf97be1c","63a36e1df1afd18b014794e9","63a38d59f8ae37cdfeb85725","rsvp1-task","true","0","","","","","null","
					<div style='width: 900px;'>
					<div style='float: center;'><img src=img/nontarget_distractor234.jpeg  ></img>
					</div>
					","null","rsvp1","practice0","","","","","","","","","5","","","","","img/nontarget_distractor234.jpeg"
"","html-keyboard-response","221","120381","0.0-5.0-22.0-1.12","6101cad0b59a684dcf97be1c","6101cad0b59a684dcf97be1c","63a36e1df1afd18b014794e9","63a38d59f8ae37cdfeb85725","rsvp1-task","true","0","","","","","null","<span></span>","null","iti","","","","","","","","","","","","","","",""
"","html-keyboard-response","222","120493","0.0-5.0-22.0-0.13","6101cad0b59a684dcf97be1c","6101cad0b59a684dcf97be1c","63a36e1df1afd18b014794e9","63a38d59f8ae37cdfeb85725","rsvp1-task","true","0","","","","","null","
					<div style='width: 900px;'>
					<div style='float: center;'><img src=img/nontarget_distractor192.jpeg  ></img>
					</div>
					","null","rsvp1","practice0","","","","","","","","","5","","","","","img/nontarget_distractor192.jpeg"
"","html-keyboard-response","223","120497","0.0-5.0-22.0-1.13","6101cad0b59a684dcf97be1c","6101cad0b59a684dcf97be1c","63a36e1df1afd18b014794e9","63a38d59f8ae37cdfeb85725","rsvp1-task","true","0","","","","","null","<span></span>","null","iti","","","","","","","","","","","","","","",""
"","html-keyboard-response","224","120609","0.0-5.0-22.0-0.14","6101cad0b59a684dcf97be1c","6101cad0b59a684dcf97be1c","63a36e1df1afd18b014794e9","63a38d59f8ae37cdfeb85725","rsvp1-task","true","0","","","","","null","
					<div style='width: 900px;'>
					<div style='float: center;'><img src=img/nontarget_distractor114.jpeg  ></img>
					</div>
					","null","rsvp1","practice0","","","","","","","","","5","","","","","img/nontarget_distractor114.jpeg"
"","html-keyboard-response","225","120614","0.0-5.0-22.0-1.14","6101cad0b59a684dcf97be1c","6101cad0b59a684dcf97be1c","63a36e1df1afd18b014794e9","63a38d59f8ae37cdfeb85725","rsvp1-task","true","0","","","","","null","<span></span>","null","iti","","","","","","","","","","","","","","",""
"","html-keyboard-response","226","120726","0.0-5.0-22.0-0.15","6101cad0b59a684dcf97be1c","6101cad0b59a684dcf97be1c","63a36e1df1afd18b014794e9","63a38d59f8ae37cdfeb85725","rsvp1-task","true","0","","","","","null","
					<div style='width: 900px;'>
					<div style='float: center;'><img src=img/t2_targets122.jpeg class=""rotateimgR""  ></img>
					</div>
					","null","rsvp1","practice0","","","","","","","","","5","","","","","img/t2_targets122.jpeg class=""rotateimgR"""
"","html-keyboard-response","227","120731","0.0-5.0-22.0-1.15","6101cad0b59a684dcf97be1c","6101cad0b59a684dcf97be1c","63a36e1df1afd18b014794e9","63a38d59f8ae37cdfeb85725","rsvp1-task","true","0","","","","","null","<span></span>","null","iti","","","","","","","","","","","","","","",""
"","html-keyboard-response","228","120843","0.0-5.0-22.0-0.16","6101cad0b59a684dcf97be1c","6101cad0b59a684dcf97be1c","63a36e1df1afd18b014794e9","63a38d59f8ae37cdfeb85725","rsvp1-task","true","0","","","","","null","
					<div style='width: 900px;'>
					<div style='float: center;'><img src=img/nontarget_distractor23.jpeg  ></img>
					</div>
					","null","rsvp1","practice0","","","","","","","","","5","","","","","img/nontarget_distractor23.jpeg"
"","html-keyboard-response","229","120848","0.0-5.0-22.0-1.16","6101cad0b59a684dcf97be1c","6101cad0b59a684dcf97be1c","63a36e1df1afd18b014794e9","63a38d59f8ae37cdfeb85725","rsvp1-task","true","0","","","","","null","<span></span>","null","iti","","","","","","","","","","","","","","",""
"","html-keyboard-response","230","122091","0.0-5.0-23.0-0.0","6101cad0b59a684dcf97be1c","6101cad0b59a684dcf97be1c","63a36e1df1afd18b014794e9","63a38d59f8ae37cdfeb85725","rsvp1-task","true","0","","","","","1242.2999999523163","<div class=""rsvp""> Was the rotated image rotated left (1 key) or right (0 key)?</div>","1","response","practice0","0","0","neutral","img/nontarget_distractor138.jpeg","img/nontarget_distractor23.jpeg","8","8","16","5","false","false","false","",""
"","html-keyboard-response","231","123099","0.0-5.0-24.0","6101cad0b59a684dcf97be1c","6101cad0b59a684dcf97be1c","63a36e1df1afd18b014794e9","63a38d59f8ae37cdfeb85725","rsvp1-task","true","0","","","","","null","Wrong. </p> <p>  </p><p> ","null","","","","","","","","","","","","","","","main_T1_ITI",""
"","html-keyboard-response","232","125116","0.0-5.0-25.0","6101cad0b59a684dcf97be1c","6101cad0b59a684dcf97be1c","63a36e1df1afd18b014794e9","63a38d59f8ae37cdfeb85725","rsvp1-task","true","0","","","","","null","<div class=""rsvp"">+</div>","null","fixation","","","","","","","","","","","","","","",""
"","html-keyboard-response","233","125383","0.0-5.0-26.0","6101cad0b59a684dcf97be1c","6101cad0b59a684dcf97be1c","63a36e1df1afd18b014794e9","63a38d59f8ae37cdfeb85725","rsvp1-task","true","0","","","","","null","<div class=""rsvp"" ></div>","null","blank","","","","","","","","","","","","","","",""
"","html-keyboard-response","234","125494","0.0-5.0-27.0-0.0","6101cad0b59a684dcf97be1c","6101cad0b59a684dcf97be1c","63a36e1df1afd18b014794e9","63a38d59f8ae37cdfeb85725","rsvp1-task","true","0","","","","","null","
					<div style='width: 900px;'>
					<div style='float: center;'><img src=img/nontarget_distractor221.jpeg  ></img>
					</div>
					","null","rsvp1","practice0","","","","","","","","","6","","","","","img/nontarget_distractor221.jpeg"
"","html-keyboard-response","235","125499","0.0-5.0-27.0-1.0","6101cad0b59a684dcf97be1c","6101cad0b59a684dcf97be1c","63a36e1df1afd18b014794e9","63a38d59f8ae37cdfeb85725","rsvp1-task","true","0","","","","","null","<span></span>","null","iti","","","","","","","","","","","","","","",""
"","html-keyboard-response","236","125610","0.0-5.0-27.0-0.1","6101cad0b59a684dcf97be1c","6101cad0b59a684dcf97be1c","63a36e1df1afd18b014794e9","63a38d59f8ae37cdfeb85725","rsvp1-task","true","0","","","","","null","
					<div style='width: 900px;'>
					<div style='float: center;'><img src=img/nontarget_distractor196.jpeg  ></img>
					</div>
					","null","rsvp1","practice0","","","","","","","","","6","","","","","img/nontarget_distractor196.jpeg"
"","html-keyboard-response","237","125615","0.0-5.0-27.0-1.1","6101cad0b59a684dcf97be1c","6101cad0b59a684dcf97be1c","63a36e1df1afd18b014794e9","63a38d59f8ae37cdfeb85725","rsvp1-task","true","0","","","","","null","<span></span>","null","iti","","","","","","","","","","","","","","",""
"","html-keyboard-response","238","125725","0.0-5.0-27.0-0.2","6101cad0b59a684dcf97be1c","6101cad0b59a684dcf97be1c","63a36e1df1afd18b014794e9","63a38d59f8ae37cdfeb85725","rsvp1-task","true","0","","","","","null","
					<div style='width: 900px;'>
					<div style='float: center;'><img src=img/nontarget_distractor236.jpeg  ></img>
					</div>
					","null","rsvp1","practice0","","","","","","","","","6","","","","","img/nontarget_distractor236.jpeg"
"","html-keyboard-response","239","125730","0.0-5.0-27.0-1.2","6101cad0b59a684dcf97be1c","6101cad0b59a684dcf97be1c","63a36e1df1afd18b014794e9","63a38d59f8ae37cdfeb85725","rsvp1-task","true","0","","","","","null","<span></span>","null","iti","","","","","","","","","","","","","","",""
"","html-keyboard-response","240","125843","0.0-5.0-27.0-0.3","6101cad0b59a684dcf97be1c","6101cad0b59a684dcf97be1c","63a36e1df1afd18b014794e9","63a38d59f8ae37cdfeb85725","rsvp1-task","true","0","","","","","null","
					<div style='width: 900px;'>
					<div style='float: center;'><img src=img/nontarget_distractor19.jpeg  ></img>
					</div>
					","null","rsvp1","practice0","","","","","","","","","6","","","","","img/nontarget_distractor19.jpeg"
"","html-keyboard-response","241","125847","0.0-5.0-27.0-1.3","6101cad0b59a684dcf97be1c","6101cad0b59a684dcf97be1c","63a36e1df1afd18b014794e9","63a38d59f8ae37cdfeb85725","rsvp1-task","true","0","","","","","null","<span></span>","null","iti","","","","","","","","","","","","","","",""
"","html-keyboard-response","242","125959","0.0-5.0-27.0-0.4","6101cad0b59a684dcf97be1c","6101cad0b59a684dcf97be1c","63a36e1df1afd18b014794e9","63a38d59f8ae37cdfeb85725","rsvp1-task","true","0","","","","","null","
					<div style='width: 900px;'>
					<div style='float: center;'><img src=img/nontarget_distractor245.jpeg  ></img>
					</div>
					","null","rsvp1","practice0","","","","","","","","","6","","","","","img/nontarget_distractor245.jpeg"
"","html-keyboard-response","243","125965","0.0-5.0-27.0-1.4","6101cad0b59a684dcf97be1c","6101cad0b59a684dcf97be1c","63a36e1df1afd18b014794e9","63a38d59f8ae37cdfeb85725","rsvp1-task","true","0","","","","","null","<span></span>","null","iti","","","","","","","","","","","","","","",""
"","html-keyboard-response","244","126076","0.0-5.0-27.0-0.5","6101cad0b59a684dcf97be1c","6101cad0b59a684dcf97be1c","63a36e1df1afd18b014794e9","63a38d59f8ae37cdfeb85725","rsvp1-task","true","0","","","","","null","
					<div style='width: 900px;'>
					<div style='float: center;'><img src=img/nontarget_distractor111.jpeg  ></img>
					</div>
					","null","rsvp1","practice0","","","","","","","","","6","","","","","img/nontarget_distractor111.jpeg"
"","html-keyboard-response","245","126081","0.0-5.0-27.0-1.5","6101cad0b59a684dcf97be1c","6101cad0b59a684dcf97be1c","63a36e1df1afd18b014794e9","63a38d59f8ae37cdfeb85725","rsvp1-task","true","0","","","","","null","<span></span>","null","iti","","","","","","","","","","","","","","",""
"","html-keyboard-response","246","126193","0.0-5.0-27.0-0.6","6101cad0b59a684dcf97be1c","6101cad0b59a684dcf97be1c","63a36e1df1afd18b014794e9","63a38d59f8ae37cdfeb85725","rsvp1-task","true","0","","","","","null","
					<div style='width: 900px;'>
					<div style='float: center;'><img src=img/nontarget_distractor120.jpeg  ></img>
					</div>
					","null","rsvp1","practice0","","","","","","","","","6","","","","","img/nontarget_distractor120.jpeg"
"","html-keyboard-response","247","126197","0.0-5.0-27.0-1.6","6101cad0b59a684dcf97be1c","6101cad0b59a684dcf97be1c","63a36e1df1afd18b014794e9","63a38d59f8ae37cdfeb85725","rsvp1-task","true","0","","","","","null","<span></span>","null","iti","","","","","","","","","","","","","","",""
"","html-keyboard-response","248","126309","0.0-5.0-27.0-0.7","6101cad0b59a684dcf97be1c","6101cad0b59a684dcf97be1c","63a36e1df1afd18b014794e9","63a38d59f8ae37cdfeb85725","rsvp1-task","true","0","","","","","null","
					<div style='width: 900px;'>
					<div style='float: center;'><img src=img/nontarget_distractor197.jpeg  ></img>
					</div>
					","null","rsvp1","practice0","","","","","","","","","6","","","","","img/nontarget_distractor197.jpeg"
"","html-keyboard-response","249","126314","0.0-5.0-27.0-1.7","6101cad0b59a684dcf97be1c","6101cad0b59a684dcf97be1c","63a36e1df1afd18b014794e9","63a38d59f8ae37cdfeb85725","rsvp1-task","true","0","","","","","null","<span></span>","null","iti","","","","","","","","","","","","","","",""
"","html-keyboard-response","250","126426","0.0-5.0-27.0-0.8","6101cad0b59a684dcf97be1c","6101cad0b59a684dcf97be1c","63a36e1df1afd18b014794e9","63a38d59f8ae37cdfeb85725","rsvp1-task","true","0","","","","","null","
					<div style='width: 900px;'>
					<div style='float: center;'><img src=img/nontarget_distractor97.jpeg  ></img>
					</div>
					","null","rsvp1","practice0","","","","","","","","","6","","","","","img/nontarget_distractor97.jpeg"
"","html-keyboard-response","251","126431","0.0-5.0-27.0-1.8","6101cad0b59a684dcf97be1c","6101cad0b59a684dcf97be1c","63a36e1df1afd18b014794e9","63a38d59f8ae37cdfeb85725","rsvp1-task","true","0","","","","","null","<span></span>","null","iti","","","","","","","","","","","","","","",""
"","html-keyboard-response","252","126543","0.0-5.0-27.0-0.9","6101cad0b59a684dcf97be1c","6101cad0b59a684dcf97be1c","63a36e1df1afd18b014794e9","63a38d59f8ae37cdfeb85725","rsvp1-task","true","0","","","","","null","
					<div style='width: 900px;'>
					<div style='float: center;'><img src=img/nontarget_distractor240.jpeg  ></img>
					</div>
					","null","rsvp1","practice0","","","","","","","","","6","","","","","img/nontarget_distractor240.jpeg"
"","html-keyboard-response","253","126550","0.0-5.0-27.0-1.9","6101cad0b59a684dcf97be1c","6101cad0b59a684dcf97be1c","63a36e1df1afd18b014794e9","63a38d59f8ae37cdfeb85725","rsvp1-task","true","0","","","","","null","<span></span>","null","iti","","","","","","","","","","","","","","",""
"","html-keyboard-response","254","126661","0.0-5.0-27.0-0.10","6101cad0b59a684dcf97be1c","6101cad0b59a684dcf97be1c","63a36e1df1afd18b014794e9","63a38d59f8ae37cdfeb85725","rsvp1-task","true","0","","","","","null","
					<div style='width: 900px;'>
					<div style='float: center;'><img src=img/nontarget_distractor224.jpeg  ></img>
					</div>
					","null","rsvp1","practice0","","","","","","","","","6","","","","","img/nontarget_distractor224.jpeg"
"","html-keyboard-response","255","126666","0.0-5.0-27.0-1.10","6101cad0b59a684dcf97be1c","6101cad0b59a684dcf97be1c","63a36e1df1afd18b014794e9","63a38d59f8ae37cdfeb85725","rsvp1-task","true","0","","","","","null","<span></span>","null","iti","","","","","","","","","","","","","","",""
"","html-keyboard-response","256","126777","0.0-5.0-27.0-0.11","6101cad0b59a684dcf97be1c","6101cad0b59a684dcf97be1c","63a36e1df1afd18b014794e9","63a38d59f8ae37cdfeb85725","rsvp1-task","true","0","","","","","null","
					<div style='width: 900px;'>
					<div style='float: center;'><img src=img/nontarget_distractor25.jpeg  ></img>
					</div>
					","null","rsvp1","practice0","","","","","","","","","6","","","","","img/nontarget_distractor25.jpeg"
"","html-keyboard-response","257","126782","0.0-5.0-27.0-1.11","6101cad0b59a684dcf97be1c","6101cad0b59a684dcf97be1c","63a36e1df1afd18b014794e9","63a38d59f8ae37cdfeb85725","rsvp1-task","true","0","","","","","null","<span></span>","null","iti","","","","","","","","","","","","","","",""
"","html-keyboard-response","258","126894","0.0-5.0-27.0-0.12","6101cad0b59a684dcf97be1c","6101cad0b59a684dcf97be1c","63a36e1df1afd18b014794e9","63a38d59f8ae37cdfeb85725","rsvp1-task","true","0","","","","","null","
					<div style='width: 900px;'>
					<div style='float: center;'><img src=img/nontarget_distractor6.jpeg  ></img>
					</div>
					","null","rsvp1","practice0","","","","","","","","","6","","","","","img/nontarget_distractor6.jpeg"
"","html-keyboard-response","259","126899","0.0-5.0-27.0-1.12","6101cad0b59a684dcf97be1c","6101cad0b59a684dcf97be1c","63a36e1df1afd18b014794e9","63a38d59f8ae37cdfeb85725","rsvp1-task","true","0","","","","","null","<span></span>","null","iti","","","","","","","","","","","","","","",""
"","html-keyboard-response","260","127010","0.0-5.0-27.0-0.13","6101cad0b59a684dcf97be1c","6101cad0b59a684dcf97be1c","63a36e1df1afd18b014794e9","63a38d59f8ae37cdfeb85725","rsvp1-task","true","0","","","","","null","
					<div style='width: 900px;'>
					<div style='float: center;'><img src=img/nontarget_distractor72.jpeg  ></img>
					</div>
					","null","rsvp1","practice0","","","","","","","","","6","","","","","img/nontarget_distractor72.jpeg"
"","html-keyboard-response","261","127014","0.0-5.0-27.0-1.13","6101cad0b59a684dcf97be1c","6101cad0b59a684dcf97be1c","63a36e1df1afd18b014794e9","63a38d59f8ae37cdfeb85725","rsvp1-task","true","0","","","","","null","<span></span>","null","iti","","","","","","","","","","","","","","",""
"","html-keyboard-response","262","127127","0.0-5.0-27.0-0.14","6101cad0b59a684dcf97be1c","6101cad0b59a684dcf97be1c","63a36e1df1afd18b014794e9","63a38d59f8ae37cdfeb85725","rsvp1-task","true","0","","","","","null","
					<div style='width: 900px;'>
					<div style='float: center;'><img src=img/nontarget_distractor192.jpeg  ></img>
					</div>
					","null","rsvp1","practice0","","","","","","","","","6","","","","","img/nontarget_distractor192.jpeg"
"","html-keyboard-response","263","127131","0.0-5.0-27.0-1.14","6101cad0b59a684dcf97be1c","6101cad0b59a684dcf97be1c","63a36e1df1afd18b014794e9","63a38d59f8ae37cdfeb85725","rsvp1-task","true","0","","","","","null","<span></span>","null","iti","","","","","","","","","","","","","","",""
"","html-keyboard-response","264","127244","0.0-5.0-27.0-0.15","6101cad0b59a684dcf97be1c","6101cad0b59a684dcf97be1c","63a36e1df1afd18b014794e9","63a38d59f8ae37cdfeb85725","rsvp1-task","true","0","","","","","null","
					<div style='width: 900px;'>
					<div style='float: center;'><img src=img/t2_targets188.jpeg class=""rotateimgL""  ></img>
					</div>
					","null","rsvp1","practice0","","","","","","","","","6","","","","","img/t2_targets188.jpeg class=""rotateimgL"""
"","html-keyboard-response","265","127249","0.0-5.0-27.0-1.15","6101cad0b59a684dcf97be1c","6101cad0b59a684dcf97be1c","63a36e1df1afd18b014794e9","63a38d59f8ae37cdfeb85725","rsvp1-task","true","0","","","","","null","<span></span>","null","iti","","","","","","","","","","","","","","",""
"","html-keyboard-response","266","127360","0.0-5.0-27.0-0.16","6101cad0b59a684dcf97be1c","6101cad0b59a684dcf97be1c","63a36e1df1afd18b014794e9","63a38d59f8ae37cdfeb85725","rsvp1-task","true","0","","","","","null","
					<div style='width: 900px;'>
					<div style='float: center;'><img src=img/nontarget_distractor162.jpeg  ></img>
					</div>
					","null","rsvp1","practice0","","","","","","","","","6","","","","","img/nontarget_distractor162.jpeg"
"","html-keyboard-response","267","127365","0.0-5.0-27.0-1.16","6101cad0b59a684dcf97be1c","6101cad0b59a684dcf97be1c","63a36e1df1afd18b014794e9","63a38d59f8ae37cdfeb85725","rsvp1-task","true","0","","","","","null","<span></span>","null","iti","","","","","","","","","","","","","","",""
"","html-keyboard-response","268","129043","0.0-5.0-28.0-0.0","6101cad0b59a684dcf97be1c","6101cad0b59a684dcf97be1c","63a36e1df1afd18b014794e9","63a38d59f8ae37cdfeb85725","rsvp1-task","true","0","","","","","1677.3000000715256","<div class=""rsvp""> Was the rotated image rotated left (1 key) or right (0 key)?</div>","1","response","practice0","1","1","neutral","img/nontarget_distractor197.jpeg","img/nontarget_distractor162.jpeg","8","8","16","6","true","true","true","",""
"","html-keyboard-response","269","130067","0.0-5.0-29.0","6101cad0b59a684dcf97be1c","6101cad0b59a684dcf97be1c","63a36e1df1afd18b014794e9","63a38d59f8ae37cdfeb85725","rsvp1-task","true","0","","","","","null","Correct! </p> <p>  </p><p> ","null","","","","","","","","","","","","","","","main_T1_ITI",""
"","html-keyboard-response","270","132084","0.0-5.0-30.0","6101cad0b59a684dcf97be1c","6101cad0b59a684dcf97be1c","63a36e1df1afd18b014794e9","63a38d59f8ae37cdfeb85725","rsvp1-task","true","0","","","","","null","<div class=""rsvp"">+</div>","null","fixation","","","","","","","","","","","","","","",""
