"success","trial_type","trial_index","time_elapsed","internal_node_id","subject_id","subjectID","study_id","session_id","exp_id","full_screen","focus_shifts","timeout","failed_images","failed_audio","failed_video","rt","stimulus","key_press","test_part","phase","correct_responses","correct_response","t1_type","t1_image","t2_image","t1_location","lag","t2_location","trial_number","correct","t1_correct","t2_correct","task","stim"
"true","fullscreen","0","11987","0.0-0.0","62866dd4cd7ecbe7c29bffdb","62866dd4cd7ecbe7c29bffdb","63a36e1df1afd18b014794e9","63a38f1cafc0a1a802de32b6","rsvp1-task","true","1","","","","","","","","","","","","","","","","","","","","","","",""
"true","preload","1","25437","0.0-1.0","62866dd4cd7ecbe7c29bffdb","62866dd4cd7ecbe7c29bffdb","63a36e1df1afd18b014794e9","63a38f1cafc0a1a802de32b6","rsvp1-task","true","0","false","[]","[]","[]","","","","","","","","","","","","","","","","","","",""
"","html-keyboard-response","2","107416","0.0-2.0","62866dd4cd7ecbe7c29bffdb","62866dd4cd7ecbe7c29bffdb","63a36e1df1afd18b014794e9","63a38f1cafc0a1a802de32b6","rsvp1-task","true","0","","","","","81977.79999998212","<div class='instructions'><p>You will see a series of scene images rapidly appearing on the computer screen. One of the scene images will be ROTATED, either to the left or to the right.</p><p>When the series ends, you have to respond to the question ‘Which way was the scene rotated?’</p><p>If the scene was rotated left, you will press the 1 key. If the scene was rotated right, press the 0 key. </p><p>Press any key to see an example of the task.</p></div>"," ","instructions","","","","","","","","","","","","","","",""
"","html-keyboard-response","3","110444","0.0-3.0-0.0","62866dd4cd7ecbe7c29bffdb","62866dd4cd7ecbe7c29bffdb","63a36e1df1afd18b014794e9","63a38f1cafc0a1a802de32b6","rsvp1-task","true","0","","","","","null","<div class=""rsvp"">+</div>","null","fixation","","","","","","","","","","","","","","",""
"","html-keyboard-response","4","110707","0.0-3.0-1.0","62866dd4cd7ecbe7c29bffdb","62866dd4cd7ecbe7c29bffdb","63a36e1df1afd18b014794e9","63a38f1cafc0a1a802de32b6","rsvp1-task","true","0","","","","","null","<div class=""rsvp"" ></div>","null","blank","","","","","","","","","","","","","","",""
"","html-keyboard-response","5","110935","0.0-3.0-2.0-0.0","62866dd4cd7ecbe7c29bffdb","62866dd4cd7ecbe7c29bffdb","63a36e1df1afd18b014794e9","63a38f1cafc0a1a802de32b6","rsvp1-task","true","0","","","","","null","
					<div style='width: 900px;'>
					<div style='float: center;'><img src=img/nontarget_distractor6.jpeg  ></img>
					</div>
					","null","","","","","","","","","","","","","","","",""
"","html-keyboard-response","6","111028","0.0-3.0-2.0-1.0","62866dd4cd7ecbe7c29bffdb","62866dd4cd7ecbe7c29bffdb","63a36e1df1afd18b014794e9","63a38f1cafc0a1a802de32b6","rsvp1-task","true","0","","","","","null","<span></span>","null","iti","","","","","","","","","","","","","","",""
"","html-keyboard-response","7","111243","0.0-3.0-2.0-0.1","62866dd4cd7ecbe7c29bffdb","62866dd4cd7ecbe7c29bffdb","63a36e1df1afd18b014794e9","63a38f1cafc0a1a802de32b6","rsvp1-task","true","0","","","","","null","
					<div style='width: 900px;'>
					<div style='float: center;'><img src=img/nontarget_distractor230.jpeg  ></img>
					</div>
					","null","","","","","","","","","","","","","","","",""
"","html-keyboard-response","8","111349","0.0-3.0-2.0-1.1","62866dd4cd7ecbe7c29bffdb","62866dd4cd7ecbe7c29bffdb","63a36e1df1afd18b014794e9","63a38f1cafc0a1a802de32b6","rsvp1-task","true","0","","","","","null","<span></span>","null","iti","","","","","","","","","","","","","","",""
"","html-keyboard-response","9","111564","0.0-3.0-2.0-0.2","62866dd4cd7ecbe7c29bffdb","62866dd4cd7ecbe7c29bffdb","63a36e1df1afd18b014794e9","63a38f1cafc0a1a802de32b6","rsvp1-task","true","0","","","","","null","
					<div style='width: 900px;'>
					<div style='float: center;'><img src=img/nontarget_distractor172.jpeg  ></img>
					</div>
					","null","","","","","","","","","","","","","","","",""
"","html-keyboard-response","10","111673","0.0-3.0-2.0-1.2","62866dd4cd7ecbe7c29bffdb","62866dd4cd7ecbe7c29bffdb","63a36e1df1afd18b014794e9","63a38f1cafc0a1a802de32b6","rsvp1-task","true","0","","","","","null","<span></span>","null","iti","","","","","","","","","","","","","","",""
"","html-keyboard-response","11","111900","0.0-3.0-2.0-0.3","62866dd4cd7ecbe7c29bffdb","62866dd4cd7ecbe7c29bffdb","63a36e1df1afd18b014794e9","63a38f1cafc0a1a802de32b6","rsvp1-task","true","0","","","","","null","
					<div style='width: 900px;'>
					<div style='float: center;'><img src=img/nontarget_distractor110.jpeg  ></img>
					</div>
					","null","","","","","","","","","","","","","","","",""
"","html-keyboard-response","12","112008","0.0-3.0-2.0-1.3","62866dd4cd7ecbe7c29bffdb","62866dd4cd7ecbe7c29bffdb","63a36e1df1afd18b014794e9","63a38f1cafc0a1a802de32b6","rsvp1-task","true","0","","","","","null","<span></span>","null","iti","","","","","","","","","","","","","","",""
"","html-keyboard-response","13","112238","0.0-3.0-2.0-0.4","62866dd4cd7ecbe7c29bffdb","62866dd4cd7ecbe7c29bffdb","63a36e1df1afd18b014794e9","63a38f1cafc0a1a802de32b6","rsvp1-task","true","0","","","","","null","
					<div style='width: 900px;'>
					<div style='float: center;'><img src=img/nontarget_distractor22.jpeg  ></img>
					</div>
					","null","","","","","","","","","","","","","","","",""
"","html-keyboard-response","14","112345","0.0-3.0-2.0-1.4","62866dd4cd7ecbe7c29bffdb","62866dd4cd7ecbe7c29bffdb","63a36e1df1afd18b014794e9","63a38f1cafc0a1a802de32b6","rsvp1-task","true","0","","","","","null","<span></span>","null","iti","","","","","","","","","","","","","","",""
"","html-keyboard-response","15","112563","0.0-3.0-2.0-0.5","62866dd4cd7ecbe7c29bffdb","62866dd4cd7ecbe7c29bffdb","63a36e1df1afd18b014794e9","63a38f1cafc0a1a802de32b6","rsvp1-task","true","0","","","","","null","
					<div style='width: 900px;'>
					<div style='float: center;'><img src=img/nontarget_distractor29.jpeg  ></img>
					</div>
					","null","","","","","","","","","","","","","","","",""
"","html-keyboard-response","16","112670","0.0-3.0-2.0-1.5","62866dd4cd7ecbe7c29bffdb","62866dd4cd7ecbe7c29bffdb","63a36e1df1afd18b014794e9","63a38f1cafc0a1a802de32b6","rsvp1-task","true","0","","","","","null","<span></span>","null","iti","","","","","","","","","","","","","","",""
"","html-keyboard-response","17","112883","0.0-3.0-2.0-0.6","62866dd4cd7ecbe7c29bffdb","62866dd4cd7ecbe7c29bffdb","63a36e1df1afd18b014794e9","63a38f1cafc0a1a802de32b6","rsvp1-task","true","0","","","","","null","
					<div style='width: 900px;'>
					<div style='float: center;'><img src=img/nontarget_distractor30.jpeg  ></img>
					</div>
					","null","","","","","","","","","","","","","","","",""
"","html-keyboard-response","18","112990","0.0-3.0-2.0-1.6","62866dd4cd7ecbe7c29bffdb","62866dd4cd7ecbe7c29bffdb","63a36e1df1afd18b014794e9","63a38f1cafc0a1a802de32b6","rsvp1-task","true","0","","","","","null","<span></span>","null","iti","","","","","","","","","","","","","","",""
"","html-keyboard-response","19","113208","0.0-3.0-2.0-0.7","62866dd4cd7ecbe7c29bffdb","62866dd4cd7ecbe7c29bffdb","63a36e1df1afd18b014794e9","63a38f1cafc0a1a802de32b6","rsvp1-task","true","0","","","","","null","
					<div style='width: 900px;'>
					<div style='float: center;'><img src=img/nontarget_distractor44.jpeg  ></img>
					</div>
					","null","","","","","","","","","","","","","","","",""
"","html-keyboard-response","20","113307","0.0-3.0-2.0-1.7","62866dd4cd7ecbe7c29bffdb","62866dd4cd7ecbe7c29bffdb","63a36e1df1afd18b014794e9","63a38f1cafc0a1a802de32b6","rsvp1-task","true","0","","","","","null","<span></span>","null","iti","","","","","","","","","","","","","","",""
"","html-keyboard-response","21","113533","0.0-3.0-2.0-0.8","62866dd4cd7ecbe7c29bffdb","62866dd4cd7ecbe7c29bffdb","63a36e1df1afd18b014794e9","63a38f1cafc0a1a802de32b6","rsvp1-task","true","0","","","","","null","
					<div style='width: 900px;'>
					<div style='float: center;'><img src=img/nontarget_distractor17.jpeg  ></img>
					</div>
					","null","","","","","","","","","","","","","","","",""
"","html-keyboard-response","22","113640","0.0-3.0-2.0-1.8","62866dd4cd7ecbe7c29bffdb","62866dd4cd7ecbe7c29bffdb","63a36e1df1afd18b014794e9","63a38f1cafc0a1a802de32b6","rsvp1-task","true","0","","","","","null","<span></span>","null","iti","","","","","","","","","","","","","","",""
"","html-keyboard-response","23","113872","0.0-3.0-2.0-0.9","62866dd4cd7ecbe7c29bffdb","62866dd4cd7ecbe7c29bffdb","63a36e1df1afd18b014794e9","63a38f1cafc0a1a802de32b6","rsvp1-task","true","0","","","","","null","
					<div style='width: 900px;'>
					<div style='float: center;'><img src=img/t2_targets181.jpeg class=""rotateimgL""  ></img>
					</div>
					","null","","","","","","","","","","","","","","","",""
"","html-keyboard-response","24","113980","0.0-3.0-2.0-1.9","62866dd4cd7ecbe7c29bffdb","62866dd4cd7ecbe7c29bffdb","63a36e1df1afd18b014794e9","63a38f1cafc0a1a802de32b6","rsvp1-task","true","0","","","","","null","<span></span>","null","iti","","","","","","","","","","","","","","",""
"","html-keyboard-response","25","114209","0.0-3.0-2.0-0.10","62866dd4cd7ecbe7c29bffdb","62866dd4cd7ecbe7c29bffdb","63a36e1df1afd18b014794e9","63a38f1cafc0a1a802de32b6","rsvp1-task","true","0","","","","","null","
					<div style='width: 900px;'>
					<div style='float: center;'><img src=img/nontarget_distractor156.jpeg  ></img>
					</div>
					","null","","","","","","","","","","","","","","","",""
"","html-keyboard-response","26","114316","0.0-3.0-2.0-1.10","62866dd4cd7ecbe7c29bffdb","62866dd4cd7ecbe7c29bffdb","63a36e1df1afd18b014794e9","63a38f1cafc0a1a802de32b6","rsvp1-task","true","0","","","","","null","<span></span>","null","iti","","","","","","","","","","","","","","",""
"","html-keyboard-response","27","114531","0.0-3.0-2.0-0.11","62866dd4cd7ecbe7c29bffdb","62866dd4cd7ecbe7c29bffdb","63a36e1df1afd18b014794e9","63a38f1cafc0a1a802de32b6","rsvp1-task","true","0","","","","","null","
					<div style='width: 900px;'>
					<div style='float: center;'><img src=img/nontarget_distractor246.jpeg  ></img>
					</div>
					","null","","","","","","","","","","","","","","","",""
"","html-keyboard-response","28","114640","0.0-3.0-2.0-1.11","62866dd4cd7ecbe7c29bffdb","62866dd4cd7ecbe7c29bffdb","63a36e1df1afd18b014794e9","63a38f1cafc0a1a802de32b6","rsvp1-task","true","0","","","","","null","<span></span>","null","iti","","","","","","","","","","","","","","",""
"","html-keyboard-response","29","114872","0.0-3.0-2.0-0.12","62866dd4cd7ecbe7c29bffdb","62866dd4cd7ecbe7c29bffdb","63a36e1df1afd18b014794e9","63a38f1cafc0a1a802de32b6","rsvp1-task","true","0","","","","","null","
					<div style='width: 900px;'>
					<div style='float: center;'><img src=img/nontarget_distractor111.jpeg  ></img>
					</div>
					","null","","","","","","","","","","","","","","","",""
"","html-keyboard-response","30","114981","0.0-3.0-2.0-1.12","62866dd4cd7ecbe7c29bffdb","62866dd4cd7ecbe7c29bffdb","63a36e1df1afd18b014794e9","63a38f1cafc0a1a802de32b6","rsvp1-task","true","0","","","","","null","<span></span>","null","iti","","","","","","","","","","","","","","",""
"","html-keyboard-response","31","115196","0.0-3.0-2.0-0.13","62866dd4cd7ecbe7c29bffdb","62866dd4cd7ecbe7c29bffdb","63a36e1df1afd18b014794e9","63a38f1cafc0a1a802de32b6","rsvp1-task","true","0","","","","","null","
					<div style='width: 900px;'>
					<div style='float: center;'><img src=img/nontarget_distractor86.jpeg  ></img>
					</div>
					","null","","","","","","","","","","","","","","","",""
"","html-keyboard-response","32","115303","0.0-3.0-2.0-1.13","62866dd4cd7ecbe7c29bffdb","62866dd4cd7ecbe7c29bffdb","63a36e1df1afd18b014794e9","63a38f1cafc0a1a802de32b6","rsvp1-task","true","0","","","","","null","<span></span>","null","iti","","","","","","","","","","","","","","",""
"","html-keyboard-response","33","115515","0.0-3.0-2.0-0.14","62866dd4cd7ecbe7c29bffdb","62866dd4cd7ecbe7c29bffdb","63a36e1df1afd18b014794e9","63a38f1cafc0a1a802de32b6","rsvp1-task","true","0","","","","","null","
					<div style='width: 900px;'>
					<div style='float: center;'><img src=img/nontarget_distractor142.jpeg  ></img>
					</div>
					","null","","","","","","","","","","","","","","","",""
"","html-keyboard-response","34","115624","0.0-3.0-2.0-1.14","62866dd4cd7ecbe7c29bffdb","62866dd4cd7ecbe7c29bffdb","63a36e1df1afd18b014794e9","63a38f1cafc0a1a802de32b6","rsvp1-task","true","0","","","","","null","<span></span>","null","iti","","","","","","","","","","","","","","",""
"","html-keyboard-response","35","115855","0.0-3.0-2.0-0.15","62866dd4cd7ecbe7c29bffdb","62866dd4cd7ecbe7c29bffdb","63a36e1df1afd18b014794e9","63a38f1cafc0a1a802de32b6","rsvp1-task","true","0","","","","","null","
					<div style='width: 900px;'>
					<div style='float: center;'><img src=img/nontarget_distractor52.jpeg  ></img>
					</div>
					","null","","","","","","","","","","","","","","","",""
"","html-keyboard-response","36","115949","0.0-3.0-2.0-1.15","62866dd4cd7ecbe7c29bffdb","62866dd4cd7ecbe7c29bffdb","63a36e1df1afd18b014794e9","63a38f1cafc0a1a802de32b6","rsvp1-task","true","0","","","","","null","<span></span>","null","iti","","","","","","","","","","","","","","",""
"","html-keyboard-response","37","116166","0.0-3.0-2.0-0.16","62866dd4cd7ecbe7c29bffdb","62866dd4cd7ecbe7c29bffdb","63a36e1df1afd18b014794e9","63a38f1cafc0a1a802de32b6","rsvp1-task","true","0","","","","","null","
					<div style='width: 900px;'>
					<div style='float: center;'><img src=img/nontarget_distractor118.jpeg  ></img>
					</div>
					","null","","","","","","","","","","","","","","","",""
"","html-keyboard-response","38","116273","0.0-3.0-2.0-1.16","62866dd4cd7ecbe7c29bffdb","62866dd4cd7ecbe7c29bffdb","63a36e1df1afd18b014794e9","63a38f1cafc0a1a802de32b6","rsvp1-task","true","0","","","","","null","<span></span>","null","iti","","","","","","","","","","","","","","",""
"","html-keyboard-response","39","117120","0.0-3.0-3.0-0.0","62866dd4cd7ecbe7c29bffdb","62866dd4cd7ecbe7c29bffdb","63a36e1df1afd18b014794e9","63a38f1cafc0a1a802de32b6","rsvp1-task","true","0","","","","","846.8999999761581","<div class=""rsvp""> Was the rotated image rotated left (1 key) or right (0 key)?</div>","1","response","instructions","1","1","neutral","img/nontarget_distractor230.jpeg","img/nontarget_distractor156.jpeg","2","8","10","1","true","true","true","",""
"","html-keyboard-response","40","118132","0.0-3.0-4.0","62866dd4cd7ecbe7c29bffdb","62866dd4cd7ecbe7c29bffdb","63a36e1df1afd18b014794e9","63a38f1cafc0a1a802de32b6","rsvp1-task","true","0","","","","","null","Correct! </p> <p>  </p><p> ","null","","","","","","","","","","","","","","","main_T1_ITI",""
"","html-keyboard-response","41","128795","0.0-4.0","62866dd4cd7ecbe7c29bffdb","62866dd4cd7ecbe7c29bffdb","63a36e1df1afd18b014794e9","63a38f1cafc0a1a802de32b6","rsvp1-task","true","0","","","","","10662.40000000596","<div class='instructions'><p>In the example you just saw, the images appeared quite slowly.</p><p>The real task is more challenging, as the images will appear much more rapidly. This will feel much harder! </p> First, you will complete a practice block. </p><p> <strong>You need to respond correctly on at least 75% of the practice trials to advance, so pay close attention! </strong> </p><p>Press any key to start the practice.</p></div>"," ","instructions_2","","","","","","","","","","","","","","",""
"","html-keyboard-response","42","131811","0.0-5.0-0.0","62866dd4cd7ecbe7c29bffdb","62866dd4cd7ecbe7c29bffdb","63a36e1df1afd18b014794e9","63a38f1cafc0a1a802de32b6","rsvp1-task","true","0","","","","","null","<div class=""rsvp"">+</div>","null","fixation","","","","","","","","","","","","","","",""
"","html-keyboard-response","43","132071","0.0-5.0-1.0","62866dd4cd7ecbe7c29bffdb","62866dd4cd7ecbe7c29bffdb","63a36e1df1afd18b014794e9","63a38f1cafc0a1a802de32b6","rsvp1-task","true","0","","","","","null","<div class=""rsvp"" ></div>","null","blank","","","","","","","","","","","","","","",""
"","html-keyboard-response","44","132192","0.0-5.0-2.0-0.0","62866dd4cd7ecbe7c29bffdb","62866dd4cd7ecbe7c29bffdb","63a36e1df1afd18b014794e9","63a38f1cafc0a1a802de32b6","rsvp1-task","true","0","","","","","null","
					<div style='width: 900px;'>
					<div style='float: center;'><img src=img/nontarget_distractor136.jpeg  ></img>
					</div>
					","null","rsvp1","practice0","","","","","","","","","1","","","","","img/nontarget_distractor136.jpeg"
"","html-keyboard-response","45","132198","0.0-5.0-2.0-1.0","62866dd4cd7ecbe7c29bffdb","62866dd4cd7ecbe7c29bffdb","63a36e1df1afd18b014794e9","63a38f1cafc0a1a802de32b6","rsvp1-task","true","0","","","","","null","<span></span>","null","iti","","","","","","","","","","","","","","",""
"","html-keyboard-response","46","132301","0.0-5.0-2.0-0.1","62866dd4cd7ecbe7c29bffdb","62866dd4cd7ecbe7c29bffdb","63a36e1df1afd18b014794e9","63a38f1cafc0a1a802de32b6","rsvp1-task","true","0","","","","","null","
					<div style='width: 900px;'>
					<div style='float: center;'><img src=img/nontarget_distractor71.jpeg  ></img>
					</div>
					","null","rsvp1","practice0","","","","","","","","","1","","","","","img/nontarget_distractor71.jpeg"
"","html-keyboard-response","47","132307","0.0-5.0-2.0-1.1","62866dd4cd7ecbe7c29bffdb","62866dd4cd7ecbe7c29bffdb","63a36e1df1afd18b014794e9","63a38f1cafc0a1a802de32b6","rsvp1-task","true","0","","","","","null","<span></span>","null","iti","","","","","","","","","","","","","","",""
"","html-keyboard-response","48","132408","0.0-5.0-2.0-0.2","62866dd4cd7ecbe7c29bffdb","62866dd4cd7ecbe7c29bffdb","63a36e1df1afd18b014794e9","63a38f1cafc0a1a802de32b6","rsvp1-task","true","0","","","","","null","
					<div style='width: 900px;'>
					<div style='float: center;'><img src=img/nontarget_distractor77.jpeg  ></img>
					</div>
					","null","rsvp1","practice0","","","","","","","","","1","","","","","img/nontarget_distractor77.jpeg"
"","html-keyboard-response","49","132413","0.0-5.0-2.0-1.2","62866dd4cd7ecbe7c29bffdb","62866dd4cd7ecbe7c29bffdb","63a36e1df1afd18b014794e9","63a38f1cafc0a1a802de32b6","rsvp1-task","true","0","","","","","null","<span></span>","null","iti","","","","","","","","","","","","","","",""
"","html-keyboard-response","50","132529","0.0-5.0-2.0-0.3","62866dd4cd7ecbe7c29bffdb","62866dd4cd7ecbe7c29bffdb","63a36e1df1afd18b014794e9","63a38f1cafc0a1a802de32b6","rsvp1-task","true","0","","","","","null","
					<div style='width: 900px;'>
					<div style='float: center;'><img src=img/nontarget_distractor89.jpeg  ></img>
					</div>
					","null","rsvp1","practice0","","","","","","","","","1","","","","","img/nontarget_distractor89.jpeg"
"","html-keyboard-response","51","132534","0.0-5.0-2.0-1.3","62866dd4cd7ecbe7c29bffdb","62866dd4cd7ecbe7c29bffdb","63a36e1df1afd18b014794e9","63a38f1cafc0a1a802de32b6","rsvp1-task","true","0","","","","","null","<span></span>","null","iti","","","","","","","","","","","","","","",""
"","html-keyboard-response","52","132636","0.0-5.0-2.0-0.4","62866dd4cd7ecbe7c29bffdb","62866dd4cd7ecbe7c29bffdb","63a36e1df1afd18b014794e9","63a38f1cafc0a1a802de32b6","rsvp1-task","true","0","","","","","null","
					<div style='width: 900px;'>
					<div style='float: center;'><img src=img/nontarget_distractor183.jpeg  ></img>
					</div>
					","null","rsvp1","practice0","","","","","","","","","1","","","","","img/nontarget_distractor183.jpeg"
"","html-keyboard-response","53","132641","0.0-5.0-2.0-1.4","62866dd4cd7ecbe7c29bffdb","62866dd4cd7ecbe7c29bffdb","63a36e1df1afd18b014794e9","63a38f1cafc0a1a802de32b6","rsvp1-task","true","0","","","","","null","<span></span>","null","iti","","","","","","","","","","","","","","",""
"","html-keyboard-response","54","132743","0.0-5.0-2.0-0.5","62866dd4cd7ecbe7c29bffdb","62866dd4cd7ecbe7c29bffdb","63a36e1df1afd18b014794e9","63a38f1cafc0a1a802de32b6","rsvp1-task","true","0","","","","","null","
					<div style='width: 900px;'>
					<div style='float: center;'><img src=img/nontarget_distractor13.jpeg  ></img>
					</div>
					","null","rsvp1","practice0","","","","","","","","","1","","","","","img/nontarget_distractor13.jpeg"
"","html-keyboard-response","55","132748","0.0-5.0-2.0-1.5","62866dd4cd7ecbe7c29bffdb","62866dd4cd7ecbe7c29bffdb","63a36e1df1afd18b014794e9","63a38f1cafc0a1a802de32b6","rsvp1-task","true","0","","","","","null","<span></span>","null","iti","","","","","","","","","","","","","","",""
"","html-keyboard-response","56","132865","0.0-5.0-2.0-0.6","62866dd4cd7ecbe7c29bffdb","62866dd4cd7ecbe7c29bffdb","63a36e1df1afd18b014794e9","63a38f1cafc0a1a802de32b6","rsvp1-task","true","0","","","","","null","
					<div style='width: 900px;'>
					<div style='float: center;'><img src=img/nontarget_distractor144.jpeg  ></img>
					</div>
					","null","rsvp1","practice0","","","","","","","","","1","","","","","img/nontarget_distractor144.jpeg"
"","html-keyboard-response","57","132870","0.0-5.0-2.0-1.6","62866dd4cd7ecbe7c29bffdb","62866dd4cd7ecbe7c29bffdb","63a36e1df1afd18b014794e9","63a38f1cafc0a1a802de32b6","rsvp1-task","true","0","","","","","null","<span></span>","null","iti","","","","","","","","","","","","","","",""
"","html-keyboard-response","58","132973","0.0-5.0-2.0-0.7","62866dd4cd7ecbe7c29bffdb","62866dd4cd7ecbe7c29bffdb","63a36e1df1afd18b014794e9","63a38f1cafc0a1a802de32b6","rsvp1-task","true","0","","","","","null","
					<div style='width: 900px;'>
					<div style='float: center;'><img src=img/nontarget_distractor137.jpeg  ></img>
					</div>
					","null","rsvp1","practice0","","","","","","","","","1","","","","","img/nontarget_distractor137.jpeg"
"","html-keyboard-response","59","132979","0.0-5.0-2.0-1.7","62866dd4cd7ecbe7c29bffdb","62866dd4cd7ecbe7c29bffdb","63a36e1df1afd18b014794e9","63a38f1cafc0a1a802de32b6","rsvp1-task","true","0","","","","","null","<span></span>","null","iti","","","","","","","","","","","","","","",""
"","html-keyboard-response","60","133081","0.0-5.0-2.0-0.8","62866dd4cd7ecbe7c29bffdb","62866dd4cd7ecbe7c29bffdb","63a36e1df1afd18b014794e9","63a38f1cafc0a1a802de32b6","rsvp1-task","true","0","","","","","null","
					<div style='width: 900px;'>
					<div style='float: center;'><img src=img/nontarget_distractor52.jpeg  ></img>
					</div>
					","null","rsvp1","practice0","","","","","","","","","1","","","","","img/nontarget_distractor52.jpeg"
"","html-keyboard-response","61","133087","0.0-5.0-2.0-1.8","62866dd4cd7ecbe7c29bffdb","62866dd4cd7ecbe7c29bffdb","63a36e1df1afd18b014794e9","63a38f1cafc0a1a802de32b6","rsvp1-task","true","0","","","","","null","<span></span>","null","iti","","","","","","","","","","","","","","",""
"","html-keyboard-response","62","133189","0.0-5.0-2.0-0.9","62866dd4cd7ecbe7c29bffdb","62866dd4cd7ecbe7c29bffdb","63a36e1df1afd18b014794e9","63a38f1cafc0a1a802de32b6","rsvp1-task","true","0","","","","","null","
					<div style='width: 900px;'>
					<div style='float: center;'><img src=img/nontarget_distractor65.jpeg  ></img>
					</div>
					","null","rsvp1","practice0","","","","","","","","","1","","","","","img/nontarget_distractor65.jpeg"
"","html-keyboard-response","63","133195","0.0-5.0-2.0-1.9","62866dd4cd7ecbe7c29bffdb","62866dd4cd7ecbe7c29bffdb","63a36e1df1afd18b014794e9","63a38f1cafc0a1a802de32b6","rsvp1-task","true","0","","","","","null","<span></span>","null","iti","","","","","","","","","","","","","","",""
"","html-keyboard-response","64","133297","0.0-5.0-2.0-0.10","62866dd4cd7ecbe7c29bffdb","62866dd4cd7ecbe7c29bffdb","63a36e1df1afd18b014794e9","63a38f1cafc0a1a802de32b6","rsvp1-task","true","0","","","","","null","
					<div style='width: 900px;'>
					<div style='float: center;'><img src=img/nontarget_distractor191.jpeg  ></img>
					</div>
					","null","rsvp1","practice0","","","","","","","","","1","","","","","img/nontarget_distractor191.jpeg"
"","html-keyboard-response","65","133301","0.0-5.0-2.0-1.10","62866dd4cd7ecbe7c29bffdb","62866dd4cd7ecbe7c29bffdb","63a36e1df1afd18b014794e9","63a38f1cafc0a1a802de32b6","rsvp1-task","true","0","","","","","null","<span></span>","null","iti","","","","","","","","","","","","","","",""
"","html-keyboard-response","66","133404","0.0-5.0-2.0-0.11","62866dd4cd7ecbe7c29bffdb","62866dd4cd7ecbe7c29bffdb","63a36e1df1afd18b014794e9","63a38f1cafc0a1a802de32b6","rsvp1-task","true","0","","","","","null","
					<div style='width: 900px;'>
					<div style='float: center;'><img src=img/nontarget_distractor22.jpeg  ></img>
					</div>
					","null","rsvp1","practice0","","","","","","","","","1","","","","","img/nontarget_distractor22.jpeg"
"","html-keyboard-response","67","133409","0.0-5.0-2.0-1.11","62866dd4cd7ecbe7c29bffdb","62866dd4cd7ecbe7c29bffdb","63a36e1df1afd18b014794e9","63a38f1cafc0a1a802de32b6","rsvp1-task","true","0","","","","","null","<span></span>","null","iti","","","","","","","","","","","","","","",""
"","html-keyboard-response","68","133513","0.0-5.0-2.0-0.12","62866dd4cd7ecbe7c29bffdb","62866dd4cd7ecbe7c29bffdb","63a36e1df1afd18b014794e9","63a38f1cafc0a1a802de32b6","rsvp1-task","true","0","","","","","null","
					<div style='width: 900px;'>
					<div style='float: center;'><img src=img/nontarget_distractor50.jpeg  ></img>
					</div>
					","null","rsvp1","practice0","","","","","","","","","1","","","","","img/nontarget_distractor50.jpeg"
"","html-keyboard-response","69","133519","0.0-5.0-2.0-1.12","62866dd4cd7ecbe7c29bffdb","62866dd4cd7ecbe7c29bffdb","63a36e1df1afd18b014794e9","63a38f1cafc0a1a802de32b6","rsvp1-task","true","0","","","","","null","<span></span>","null","iti","","","","","","","","","","","","","","",""
"","html-keyboard-response","70","133619","0.0-5.0-2.0-0.13","62866dd4cd7ecbe7c29bffdb","62866dd4cd7ecbe7c29bffdb","63a36e1df1afd18b014794e9","63a38f1cafc0a1a802de32b6","rsvp1-task","true","0","","","","","null","
					<div style='width: 900px;'>
					<div style='float: center;'><img src=img/t2_targets66.jpeg class=""rotateimgR""  ></img>
					</div>
					","null","rsvp1","practice0","","","","","","","","","1","","","","","img/t2_targets66.jpeg class=""rotateimgR"""
"","html-keyboard-response","71","133624","0.0-5.0-2.0-1.13","62866dd4cd7ecbe7c29bffdb","62866dd4cd7ecbe7c29bffdb","63a36e1df1afd18b014794e9","63a38f1cafc0a1a802de32b6","rsvp1-task","true","0","","","","","null","<span></span>","null","iti","","","","","","","","","","","","","","",""
"","html-keyboard-response","72","133726","0.0-5.0-2.0-0.14","62866dd4cd7ecbe7c29bffdb","62866dd4cd7ecbe7c29bffdb","63a36e1df1afd18b014794e9","63a38f1cafc0a1a802de32b6","rsvp1-task","true","0","","","","","null","
					<div style='width: 900px;'>
					<div style='float: center;'><img src=img/nontarget_distractor182.jpeg  ></img>
					</div>
					","null","rsvp1","practice0","","","","","","","","","1","","","","","img/nontarget_distractor182.jpeg"
"","html-keyboard-response","73","133731","0.0-5.0-2.0-1.14","62866dd4cd7ecbe7c29bffdb","62866dd4cd7ecbe7c29bffdb","63a36e1df1afd18b014794e9","63a38f1cafc0a1a802de32b6","rsvp1-task","true","0","","","","","null","<span></span>","null","iti","","","","","","","","","","","","","","",""
"","html-keyboard-response","74","133849","0.0-5.0-2.0-0.15","62866dd4cd7ecbe7c29bffdb","62866dd4cd7ecbe7c29bffdb","63a36e1df1afd18b014794e9","63a38f1cafc0a1a802de32b6","rsvp1-task","true","0","","","","","null","
					<div style='width: 900px;'>
					<div style='float: center;'><img src=img/nontarget_distractor147.jpeg  ></img>
					</div>
					","null","rsvp1","practice0","","","","","","","","","1","","","","","img/nontarget_distractor147.jpeg"
"","html-keyboard-response","75","133854","0.0-5.0-2.0-1.15","62866dd4cd7ecbe7c29bffdb","62866dd4cd7ecbe7c29bffdb","63a36e1df1afd18b014794e9","63a38f1cafc0a1a802de32b6","rsvp1-task","true","0","","","","","null","<span></span>","null","iti","","","","","","","","","","","","","","",""
"","html-keyboard-response","76","133957","0.0-5.0-2.0-0.16","62866dd4cd7ecbe7c29bffdb","62866dd4cd7ecbe7c29bffdb","63a36e1df1afd18b014794e9","63a38f1cafc0a1a802de32b6","rsvp1-task","true","0","","","","","null","
					<div style='width: 900px;'>
					<div style='float: center;'><img src=img/nontarget_distractor195.jpeg  ></img>
					</div>
					","null","rsvp1","practice0","","","","","","","","","1","","","","","img/nontarget_distractor195.jpeg"
"","html-keyboard-response","77","133961","0.0-5.0-2.0-1.16","62866dd4cd7ecbe7c29bffdb","62866dd4cd7ecbe7c29bffdb","63a36e1df1afd18b014794e9","63a38f1cafc0a1a802de32b6","rsvp1-task","true","0","","","","","null","<span></span>","null","iti","","","","","","","","","","","","","","",""
"","html-keyboard-response","78","134760","0.0-5.0-3.0-0.0","62866dd4cd7ecbe7c29bffdb","62866dd4cd7ecbe7c29bffdb","63a36e1df1afd18b014794e9","63a38f1cafc0a1a802de32b6","rsvp1-task","true","0","","","","","797.6999999880791","<div class=""rsvp""> Was the rotated image rotated left (1 key) or right (0 key)?</div>","1","response","practice0","0","0","neutral","img/nontarget_distractor137.jpeg","img/nontarget_distractor182.jpeg","8","6","14","1","false","false","false","",""
"","html-keyboard-response","79","135777","0.0-5.0-4.0","62866dd4cd7ecbe7c29bffdb","62866dd4cd7ecbe7c29bffdb","63a36e1df1afd18b014794e9","63a38f1cafc0a1a802de32b6","rsvp1-task","true","0","","","","","null","Wrong. </p> <p>  </p><p> ","null","","","","","","","","","","","","","","","main_T1_ITI",""
"","html-keyboard-response","80","137791","0.0-5.0-5.0","62866dd4cd7ecbe7c29bffdb","62866dd4cd7ecbe7c29bffdb","63a36e1df1afd18b014794e9","63a38f1cafc0a1a802de32b6","rsvp1-task","true","0","","","","","null","<div class=""rsvp"">+</div>","null","fixation","","","","","","","","","","","","","","",""
"","html-keyboard-response","81","138055","0.0-5.0-6.0","62866dd4cd7ecbe7c29bffdb","62866dd4cd7ecbe7c29bffdb","63a36e1df1afd18b014794e9","63a38f1cafc0a1a802de32b6","rsvp1-task","true","0","","","","","null","<div class=""rsvp"" ></div>","null","blank","","","","","","","","","","","","","","",""
"","html-keyboard-response","82","138165","0.0-5.0-7.0-0.0","62866dd4cd7ecbe7c29bffdb","62866dd4cd7ecbe7c29bffdb","63a36e1df1afd18b014794e9","63a38f1cafc0a1a802de32b6","rsvp1-task","true","0","","","","","null","
					<div style='width: 900px;'>
					<div style='float: center;'><img src=img/nontarget_distractor106.jpeg  ></img>
					</div>
					","null","rsvp1","practice0","","","","","","","","","2","","","","","img/nontarget_distractor106.jpeg"
"","html-keyboard-response","83","138169","0.0-5.0-7.0-1.0","62866dd4cd7ecbe7c29bffdb","62866dd4cd7ecbe7c29bffdb","63a36e1df1afd18b014794e9","63a38f1cafc0a1a802de32b6","rsvp1-task","true","0","","","","","null","<span></span>","null","iti","","","","","","","","","","","","","","",""
"","html-keyboard-response","84","138273","0.0-5.0-7.0-0.1","62866dd4cd7ecbe7c29bffdb","62866dd4cd7ecbe7c29bffdb","63a36e1df1afd18b014794e9","63a38f1cafc0a1a802de32b6","rsvp1-task","true","0","","","","","null","
					<div style='width: 900px;'>
					<div style='float: center;'><img src=img/nontarget_distractor77.jpeg  ></img>
					</div>
					","null","rsvp1","practice0","","","","","","","","","2","","","","","img/nontarget_distractor77.jpeg"
"","html-keyboard-response","85","138278","0.0-5.0-7.0-1.1","62866dd4cd7ecbe7c29bffdb","62866dd4cd7ecbe7c29bffdb","63a36e1df1afd18b014794e9","63a38f1cafc0a1a802de32b6","rsvp1-task","true","0","","","","","null","<span></span>","null","iti","","","","","","","","","","","","","","",""
"","html-keyboard-response","86","138380","0.0-5.0-7.0-0.2","62866dd4cd7ecbe7c29bffdb","62866dd4cd7ecbe7c29bffdb","63a36e1df1afd18b014794e9","63a38f1cafc0a1a802de32b6","rsvp1-task","true","0","","","","","null","
					<div style='width: 900px;'>
					<div style='float: center;'><img src=img/nontarget_distractor21.jpeg  ></img>
					</div>
					","null","rsvp1","practice0","","","","","","","","","2","","","","","img/nontarget_distractor21.jpeg"
"","html-keyboard-response","87","138385","0.0-5.0-7.0-1.2","62866dd4cd7ecbe7c29bffdb","62866dd4cd7ecbe7c29bffdb","63a36e1df1afd18b014794e9","63a38f1cafc0a1a802de32b6","rsvp1-task","true","0","","","","","null","<span></span>","null","iti","","","","","","","","","","","","","","",""
"","html-keyboard-response","88","138502","0.0-5.0-7.0-0.3","62866dd4cd7ecbe7c29bffdb","62866dd4cd7ecbe7c29bffdb","63a36e1df1afd18b014794e9","63a38f1cafc0a1a802de32b6","rsvp1-task","true","0","","","","","null","
					<div style='width: 900px;'>
					<div style='float: center;'><img src=img/nontarget_distractor230.jpeg  ></img>
					</div>
					","null","rsvp1","practice0","","","","","","","","","2","","","","","img/nontarget_distractor230.jpeg"
"","html-keyboard-response","89","138508","0.0-5.0-7.0-1.3","62866dd4cd7ecbe7c29bffdb","62866dd4cd7ecbe7c29bffdb","63a36e1df1afd18b014794e9","63a38f1cafc0a1a802de32b6","rsvp1-task","true","0","","","","","null","<span></span>","null","iti","","","","","","","","","","","","","","",""
"","html-keyboard-response","90","138612","0.0-5.0-7.0-0.4","62866dd4cd7ecbe7c29bffdb","62866dd4cd7ecbe7c29bffdb","63a36e1df1afd18b014794e9","63a38f1cafc0a1a802de32b6","rsvp1-task","true","0","","","","","null","
					<div style='width: 900px;'>
					<div style='float: center;'><img src=img/nontarget_distractor99.jpeg  ></img>
					</div>
					","null","rsvp1","practice0","","","","","","","","","2","","","","","img/nontarget_distractor99.jpeg"
"","html-keyboard-response","91","138618","0.0-5.0-7.0-1.4","62866dd4cd7ecbe7c29bffdb","62866dd4cd7ecbe7c29bffdb","63a36e1df1afd18b014794e9","63a38f1cafc0a1a802de32b6","rsvp1-task","true","0","","","","","null","<span></span>","null","iti","","","","","","","","","","","","","","",""
"","html-keyboard-response","92","138718","0.0-5.0-7.0-0.5","62866dd4cd7ecbe7c29bffdb","62866dd4cd7ecbe7c29bffdb","63a36e1df1afd18b014794e9","63a38f1cafc0a1a802de32b6","rsvp1-task","true","0","","","","","null","
					<div style='width: 900px;'>
					<div style='float: center;'><img src=img/nontarget_distractor55.jpeg  ></img>
					</div>
					","null","rsvp1","practice0","","","","","","","","","2","","","","","img/nontarget_distractor55.jpeg"
"","html-keyboard-response","93","138723","0.0-5.0-7.0-1.5","62866dd4cd7ecbe7c29bffdb","62866dd4cd7ecbe7c29bffdb","63a36e1df1afd18b014794e9","63a38f1cafc0a1a802de32b6","rsvp1-task","true","0","","","","","null","<span></span>","null","iti","","","","","","","","","","","","","","",""
"","html-keyboard-response","94","138841","0.0-5.0-7.0-0.6","62866dd4cd7ecbe7c29bffdb","62866dd4cd7ecbe7c29bffdb","63a36e1df1afd18b014794e9","63a38f1cafc0a1a802de32b6","rsvp1-task","true","0","","","","","null","
					<div style='width: 900px;'>
					<div style='float: center;'><img src=img/nontarget_distractor222.jpeg  ></img>
					</div>
					","null","rsvp1","practice0","","","","","","","","","2","","","","","img/nontarget_distractor222.jpeg"
"","html-keyboard-response","95","138846","0.0-5.0-7.0-1.6","62866dd4cd7ecbe7c29bffdb","62866dd4cd7ecbe7c29bffdb","63a36e1df1afd18b014794e9","63a38f1cafc0a1a802de32b6","rsvp1-task","true","0","","","","","null","<span></span>","null","iti","","","","","","","","","","","","","","",""
"","html-keyboard-response","96","138949","0.0-5.0-7.0-0.7","62866dd4cd7ecbe7c29bffdb","62866dd4cd7ecbe7c29bffdb","63a36e1df1afd18b014794e9","63a38f1cafc0a1a802de32b6","rsvp1-task","true","0","","","","","null","
					<div style='width: 900px;'>
					<div style='float: center;'><img src=img/nontarget_distractor113.jpeg  ></img>
					</div>
					","null","rsvp1","practice0","","","","","","","","","2","","","","","img/nontarget_distractor113.jpeg"
"","html-keyboard-response","97","138954","0.0-5.0-7.0-1.7","62866dd4cd7ecbe7c29bffdb","62866dd4cd7ecbe7c29bffdb","63a36e1df1afd18b014794e9","63a38f1cafc0a1a802de32b6","rsvp1-task","true","0","","","","","null","<span></span>","null","iti","","","","","","","","","","","","","","",""
"","html-keyboard-response","98","139058","0.0-5.0-7.0-0.8","62866dd4cd7ecbe7c29bffdb","62866dd4cd7ecbe7c29bffdb","63a36e1df1afd18b014794e9","63a38f1cafc0a1a802de32b6","rsvp1-task","true","0","","","","","null","
					<div style='width: 900px;'>
					<div style='float: center;'><img src=img/nontarget_distractor203.jpeg  ></img>
					</div>
					","null","rsvp1","practice0","","","","","","","","","2","","","","","img/nontarget_distractor203.jpeg"
"","html-keyboard-response","99","139063","0.0-5.0-7.0-1.8","62866dd4cd7ecbe7c29bffdb","62866dd4cd7ecbe7c29bffdb","63a36e1df1afd18b014794e9","63a38f1cafc0a1a802de32b6","rsvp1-task","true","0","","","","","null","<span></span>","null","iti","","","","","","","","","","","","","","",""
"","html-keyboard-response","100","139166","0.0-5.0-7.0-0.9","62866dd4cd7ecbe7c29bffdb","62866dd4cd7ecbe7c29bffdb","63a36e1df1afd18b014794e9","63a38f1cafc0a1a802de32b6","rsvp1-task","true","0","","","","","null","
					<div style='width: 900px;'>
					<div style='float: center;'><img src=img/nontarget_distractor63.jpeg  ></img>
					</div>
					","null","rsvp1","practice0","","","","","","","","","2","","","","","img/nontarget_distractor63.jpeg"
"","html-keyboard-response","101","139171","0.0-5.0-7.0-1.9","62866dd4cd7ecbe7c29bffdb","62866dd4cd7ecbe7c29bffdb","63a36e1df1afd18b014794e9","63a38f1cafc0a1a802de32b6","rsvp1-task","true","0","","","","","null","<span></span>","null","iti","","","","","","","","","","","","","","",""
"","html-keyboard-response","102","139288","0.0-5.0-7.0-0.10","62866dd4cd7ecbe7c29bffdb","62866dd4cd7ecbe7c29bffdb","63a36e1df1afd18b014794e9","63a38f1cafc0a1a802de32b6","rsvp1-task","true","0","","","","","null","
					<div style='width: 900px;'>
					<div style='float: center;'><img src=img/nontarget_distractor213.jpeg  ></img>
					</div>
					","null","rsvp1","practice0","","","","","","","","","2","","","","","img/nontarget_distractor213.jpeg"
"","html-keyboard-response","103","139294","0.0-5.0-7.0-1.10","62866dd4cd7ecbe7c29bffdb","62866dd4cd7ecbe7c29bffdb","63a36e1df1afd18b014794e9","63a38f1cafc0a1a802de32b6","rsvp1-task","true","0","","","","","null","<span></span>","null","iti","","","","","","","","","","","","","","",""
"","html-keyboard-response","104","139396","0.0-5.0-7.0-0.11","62866dd4cd7ecbe7c29bffdb","62866dd4cd7ecbe7c29bffdb","63a36e1df1afd18b014794e9","63a38f1cafc0a1a802de32b6","rsvp1-task","true","0","","","","","null","
					<div style='width: 900px;'>
					<div style='float: center;'><img src=img/t2_targets58.jpeg class=""rotateimgL""  ></img>
					</div>
					","null","rsvp1","practice0","","","","","","","","","2","","","","","img/t2_targets58.jpeg class=""rotateimgL"""
"","html-keyboard-response","105","139400","0.0-5.0-7.0-1.11","62866dd4cd7ecbe7c29bffdb","62866dd4cd7ecbe7c29bffdb","63a36e1df1afd18b014794e9","63a38f1cafc0a1a802de32b6","rsvp1-task","true","0","","","","","null","<span></span>","null","iti","","","","","","","","","","","","","","",""
"","html-keyboard-response","106","139504","0.0-5.0-7.0-0.12","62866dd4cd7ecbe7c29bffdb","62866dd4cd7ecbe7c29bffdb","63a36e1df1afd18b014794e9","63a38f1cafc0a1a802de32b6","rsvp1-task","true","0","","","","","null","
					<div style='width: 900px;'>
					<div style='float: center;'><img src=img/nontarget_distractor168.jpeg  ></img>
					</div>
					","null","rsvp1","practice0","","","","","","","","","2","","","","","img/nontarget_distractor168.jpeg"
"","html-keyboard-response","107","139509","0.0-5.0-7.0-1.12","62866dd4cd7ecbe7c29bffdb","62866dd4cd7ecbe7c29bffdb","63a36e1df1afd18b014794e9","63a38f1cafc0a1a802de32b6","rsvp1-task","true","0","","","","","null","<span></span>","null","iti","","","","","","","","","","","","","","",""
"","html-keyboard-response","108","139613","0.0-5.0-7.0-0.13","62866dd4cd7ecbe7c29bffdb","62866dd4cd7ecbe7c29bffdb","63a36e1df1afd18b014794e9","63a38f1cafc0a1a802de32b6","rsvp1-task","true","0","","","","","null","
					<div style='width: 900px;'>
					<div style='float: center;'><img src=img/nontarget_distractor87.jpeg  ></img>
					</div>
					","null","rsvp1","practice0","","","","","","","","","2","","","","","img/nontarget_distractor87.jpeg"
"","html-keyboard-response","109","139617","0.0-5.0-7.0-1.13","62866dd4cd7ecbe7c29bffdb","62866dd4cd7ecbe7c29bffdb","63a36e1df1afd18b014794e9","63a38f1cafc0a1a802de32b6","rsvp1-task","true","0","","","","","null","<span></span>","null","iti","","","","","","","","","","","","","","",""
"","html-keyboard-response","110","139721","0.0-5.0-7.0-0.14","62866dd4cd7ecbe7c29bffdb","62866dd4cd7ecbe7c29bffdb","63a36e1df1afd18b014794e9","63a38f1cafc0a1a802de32b6","rsvp1-task","true","0","","","","","null","
					<div style='width: 900px;'>
					<div style='float: center;'><img src=img/nontarget_distractor253.jpeg  ></img>
					</div>
					","null","rsvp1","practice0","","","","","","","","","2","","","","","img/nontarget_distractor253.jpeg"
"","html-keyboard-response","111","139726","0.0-5.0-7.0-1.14","62866dd4cd7ecbe7c29bffdb","62866dd4cd7ecbe7c29bffdb","63a36e1df1afd18b014794e9","63a38f1cafc0a1a802de32b6","rsvp1-task","true","0","","","","","null","<span></span>","null","iti","","","","","","","","","","","","","","",""
"","html-keyboard-response","112","139829","0.0-5.0-7.0-0.15","62866dd4cd7ecbe7c29bffdb","62866dd4cd7ecbe7c29bffdb","63a36e1df1afd18b014794e9","63a38f1cafc0a1a802de32b6","rsvp1-task","true","0","","","","","null","
					<div style='width: 900px;'>
					<div style='float: center;'><img src=img/nontarget_distractor158.jpeg  ></img>
					</div>
					","null","rsvp1","practice0","","","","","","","","","2","","","","","img/nontarget_distractor158.jpeg"
"","html-keyboard-response","113","139834","0.0-5.0-7.0-1.15","62866dd4cd7ecbe7c29bffdb","62866dd4cd7ecbe7c29bffdb","63a36e1df1afd18b014794e9","63a38f1cafc0a1a802de32b6","rsvp1-task","true","0","","","","","null","<span></span>","null","iti","","","","","","","","","","","","","","",""
"","html-keyboard-response","114","139938","0.0-5.0-7.0-0.16","62866dd4cd7ecbe7c29bffdb","62866dd4cd7ecbe7c29bffdb","63a36e1df1afd18b014794e9","63a38f1cafc0a1a802de32b6","rsvp1-task","true","0","","","","","null","
					<div style='width: 900px;'>
					<div style='float: center;'><img src=img/nontarget_distractor82.jpeg  ></img>
					</div>
					","null","rsvp1","practice0","","","","","","","","","2","","","","","img/nontarget_distractor82.jpeg"
"","html-keyboard-response","115","139943","0.0-5.0-7.0-1.16","62866dd4cd7ecbe7c29bffdb","62866dd4cd7ecbe7c29bffdb","63a36e1df1afd18b014794e9","63a38f1cafc0a1a802de32b6","rsvp1-task","true","0","","","","","null","<span></span>","null","iti","","","","","","","","","","","","","","",""
"","html-keyboard-response","116","140285","0.0-5.0-8.0-0.0","62866dd4cd7ecbe7c29bffdb","62866dd4cd7ecbe7c29bffdb","63a36e1df1afd18b014794e9","63a38f1cafc0a1a802de32b6","rsvp1-task","true","0","","","","","342","<div class=""rsvp""> Was the rotated image rotated left (1 key) or right (0 key)?</div>","1","response","practice0","1","1","neutral","img/nontarget_distractor113.jpeg","img/nontarget_distractor168.jpeg","8","4","12","2","true","true","true","",""
"","html-keyboard-response","117","141303","0.0-5.0-9.0","62866dd4cd7ecbe7c29bffdb","62866dd4cd7ecbe7c29bffdb","63a36e1df1afd18b014794e9","63a38f1cafc0a1a802de32b6","rsvp1-task","true","0","","","","","null","Correct! </p> <p>  </p><p> ","null","","","","","","","","","","","","","","","main_T1_ITI",""
"","html-keyboard-response","118","143322","0.0-5.0-10.0","62866dd4cd7ecbe7c29bffdb","62866dd4cd7ecbe7c29bffdb","63a36e1df1afd18b014794e9","63a38f1cafc0a1a802de32b6","rsvp1-task","true","0","","","","","null","<div class=""rsvp"">+</div>","null","fixation","","","","","","","","","","","","","","",""
"","html-keyboard-response","119","143581","0.0-5.0-11.0","62866dd4cd7ecbe7c29bffdb","62866dd4cd7ecbe7c29bffdb","63a36e1df1afd18b014794e9","63a38f1cafc0a1a802de32b6","rsvp1-task","true","0","","","","","null","<div class=""rsvp"" ></div>","null","blank","","","","","","","","","","","","","","",""
"","html-keyboard-response","120","143689","0.0-5.0-12.0-0.0","62866dd4cd7ecbe7c29bffdb","62866dd4cd7ecbe7c29bffdb","63a36e1df1afd18b014794e9","63a38f1cafc0a1a802de32b6","rsvp1-task","true","0","","","","","null","
					<div style='width: 900px;'>
					<div style='float: center;'><img src=img/nontarget_distractor153.jpeg  ></img>
					</div>
					","null","rsvp1","practice0","","","","","","","","","3","","","","","img/nontarget_distractor153.jpeg"
"","html-keyboard-response","121","143695","0.0-5.0-12.0-1.0","62866dd4cd7ecbe7c29bffdb","62866dd4cd7ecbe7c29bffdb","63a36e1df1afd18b014794e9","63a38f1cafc0a1a802de32b6","rsvp1-task","true","0","","","","","null","<span></span>","null","iti","","","","","","","","","","","","","","",""
"","html-keyboard-response","122","143796","0.0-5.0-12.0-0.1","62866dd4cd7ecbe7c29bffdb","62866dd4cd7ecbe7c29bffdb","63a36e1df1afd18b014794e9","63a38f1cafc0a1a802de32b6","rsvp1-task","true","0","","","","","null","
					<div style='width: 900px;'>
					<div style='float: center;'><img src=img/nontarget_distractor154.jpeg  ></img>
					</div>
					","null","rsvp1","practice0","","","","","","","","","3","","","","","img/nontarget_distractor154.jpeg"
"","html-keyboard-response","123","143801","0.0-5.0-12.0-1.1","62866dd4cd7ecbe7c29bffdb","62866dd4cd7ecbe7c29bffdb","63a36e1df1afd18b014794e9","63a38f1cafc0a1a802de32b6","rsvp1-task","true","0","","","","","null","<span></span>","null","iti","","","","","","","","","","","","","","",""
"","html-keyboard-response","124","143904","0.0-5.0-12.0-0.2","62866dd4cd7ecbe7c29bffdb","62866dd4cd7ecbe7c29bffdb","63a36e1df1afd18b014794e9","63a38f1cafc0a1a802de32b6","rsvp1-task","true","0","","","","","null","
					<div style='width: 900px;'>
					<div style='float: center;'><img src=img/nontarget_distractor6.jpeg  ></img>
					</div>
					","null","rsvp1","practice0","","","","","","","","","3","","","","","img/nontarget_distractor6.jpeg"
"","html-keyboard-response","125","143910","0.0-5.0-12.0-1.2","62866dd4cd7ecbe7c29bffdb","62866dd4cd7ecbe7c29bffdb","63a36e1df1afd18b014794e9","63a38f1cafc0a1a802de32b6","rsvp1-task","true","0","","","","","null","<span></span>","null","iti","","","","","","","","","","","","","","",""
"","html-keyboard-response","126","144012","0.0-5.0-12.0-0.3","62866dd4cd7ecbe7c29bffdb","62866dd4cd7ecbe7c29bffdb","63a36e1df1afd18b014794e9","63a38f1cafc0a1a802de32b6","rsvp1-task","true","0","","","","","null","
					<div style='width: 900px;'>
					<div style='float: center;'><img src=img/nontarget_distractor142.jpeg  ></img>
					</div>
					","null","rsvp1","practice0","","","","","","","","","3","","","","","img/nontarget_distractor142.jpeg"
"","html-keyboard-response","127","144017","0.0-5.0-12.0-1.3","62866dd4cd7ecbe7c29bffdb","62866dd4cd7ecbe7c29bffdb","63a36e1df1afd18b014794e9","63a38f1cafc0a1a802de32b6","rsvp1-task","true","0","","","","","null","<span></span>","null","iti","","","","","","","","","","","","","","",""
"","html-keyboard-response","128","144119","0.0-5.0-12.0-0.4","62866dd4cd7ecbe7c29bffdb","62866dd4cd7ecbe7c29bffdb","63a36e1df1afd18b014794e9","63a38f1cafc0a1a802de32b6","rsvp1-task","true","0","","","","","null","
					<div style='width: 900px;'>
					<div style='float: center;'><img src=img/nontarget_distractor216.jpeg  ></img>
					</div>
					","null","rsvp1","practice0","","","","","","","","","3","","","","","img/nontarget_distractor216.jpeg"
"","html-keyboard-response","129","144124","0.0-5.0-12.0-1.4","62866dd4cd7ecbe7c29bffdb","62866dd4cd7ecbe7c29bffdb","63a36e1df1afd18b014794e9","63a38f1cafc0a1a802de32b6","rsvp1-task","true","0","","","","","null","<span></span>","null","iti","","","","","","","","","","","","","","",""
"","html-keyboard-response","130","144227","0.0-5.0-12.0-0.5","62866dd4cd7ecbe7c29bffdb","62866dd4cd7ecbe7c29bffdb","63a36e1df1afd18b014794e9","63a38f1cafc0a1a802de32b6","rsvp1-task","true","0","","","","","null","
					<div style='width: 900px;'>
					<div style='float: center;'><img src=img/nontarget_distractor146.jpeg  ></img>
					</div>
					","null","rsvp1","practice0","","","","","","","","","3","","","","","img/nontarget_distractor146.jpeg"
"","html-keyboard-response","131","144232","0.0-5.0-12.0-1.5","62866dd4cd7ecbe7c29bffdb","62866dd4cd7ecbe7c29bffdb","63a36e1df1afd18b014794e9","63a38f1cafc0a1a802de32b6","rsvp1-task","true","0","","","","","null","<span></span>","null","iti","","","","","","","","","","","","","","",""
"","html-keyboard-response","132","144334","0.0-5.0-12.0-0.6","62866dd4cd7ecbe7c29bffdb","62866dd4cd7ecbe7c29bffdb","63a36e1df1afd18b014794e9","63a38f1cafc0a1a802de32b6","rsvp1-task","true","0","","","","","null","
					<div style='width: 900px;'>
					<div style='float: center;'><img src=img/nontarget_distractor99.jpeg  ></img>
					</div>
					","null","rsvp1","practice0","","","","","","","","","3","","","","","img/nontarget_distractor99.jpeg"
"","html-keyboard-response","133","144339","0.0-5.0-12.0-1.6","62866dd4cd7ecbe7c29bffdb","62866dd4cd7ecbe7c29bffdb","63a36e1df1afd18b014794e9","63a38f1cafc0a1a802de32b6","rsvp1-task","true","0","","","","","null","<span></span>","null","iti","","","","","","","","","","","","","","",""
"","html-keyboard-response","134","144442","0.0-5.0-12.0-0.7","62866dd4cd7ecbe7c29bffdb","62866dd4cd7ecbe7c29bffdb","63a36e1df1afd18b014794e9","63a38f1cafc0a1a802de32b6","rsvp1-task","true","0","","","","","null","
					<div style='width: 900px;'>
					<div style='float: center;'><img src=img/nontarget_distractor151.jpeg  ></img>
					</div>
					","null","rsvp1","practice0","","","","","","","","","3","","","","","img/nontarget_distractor151.jpeg"
"","html-keyboard-response","135","144447","0.0-5.0-12.0-1.7","62866dd4cd7ecbe7c29bffdb","62866dd4cd7ecbe7c29bffdb","63a36e1df1afd18b014794e9","63a38f1cafc0a1a802de32b6","rsvp1-task","true","0","","","","","null","<span></span>","null","iti","","","","","","","","","","","","","","",""
"","html-keyboard-response","136","144551","0.0-5.0-12.0-0.8","62866dd4cd7ecbe7c29bffdb","62866dd4cd7ecbe7c29bffdb","63a36e1df1afd18b014794e9","63a38f1cafc0a1a802de32b6","rsvp1-task","true","0","","","","","null","
					<div style='width: 900px;'>
					<div style='float: center;'><img src=img/nontarget_distractor205.jpeg  ></img>
					</div>
					","null","rsvp1","practice0","","","","","","","","","3","","","","","img/nontarget_distractor205.jpeg"
"","html-keyboard-response","137","144555","0.0-5.0-12.0-1.8","62866dd4cd7ecbe7c29bffdb","62866dd4cd7ecbe7c29bffdb","63a36e1df1afd18b014794e9","63a38f1cafc0a1a802de32b6","rsvp1-task","true","0","","","","","null","<span></span>","null","iti","","","","","","","","","","","","","","",""
"","html-keyboard-response","138","144672","0.0-5.0-12.0-0.9","62866dd4cd7ecbe7c29bffdb","62866dd4cd7ecbe7c29bffdb","63a36e1df1afd18b014794e9","63a38f1cafc0a1a802de32b6","rsvp1-task","true","0","","","","","null","
					<div style='width: 900px;'>
					<div style='float: center;'><img src=img/nontarget_distractor10.jpeg  ></img>
					</div>
					","null","rsvp1","practice0","","","","","","","","","3","","","","","img/nontarget_distractor10.jpeg"
"","html-keyboard-response","139","144677","0.0-5.0-12.0-1.9","62866dd4cd7ecbe7c29bffdb","62866dd4cd7ecbe7c29bffdb","63a36e1df1afd18b014794e9","63a38f1cafc0a1a802de32b6","rsvp1-task","true","0","","","","","null","<span></span>","null","iti","","","","","","","","","","","","","","",""
"","html-keyboard-response","140","144783","0.0-5.0-12.0-0.10","62866dd4cd7ecbe7c29bffdb","62866dd4cd7ecbe7c29bffdb","63a36e1df1afd18b014794e9","63a38f1cafc0a1a802de32b6","rsvp1-task","true","0","","","","","null","
					<div style='width: 900px;'>
					<div style='float: center;'><img src=img/nontarget_distractor38.jpeg  ></img>
					</div>
					","null","rsvp1","practice0","","","","","","","","","3","","","","","img/nontarget_distractor38.jpeg"
"","html-keyboard-response","141","144787","0.0-5.0-12.0-1.10","62866dd4cd7ecbe7c29bffdb","62866dd4cd7ecbe7c29bffdb","63a36e1df1afd18b014794e9","63a38f1cafc0a1a802de32b6","rsvp1-task","true","0","","","","","null","<span></span>","null","iti","","","","","","","","","","","","","","",""
"","html-keyboard-response","142","144905","0.0-5.0-12.0-0.11","62866dd4cd7ecbe7c29bffdb","62866dd4cd7ecbe7c29bffdb","63a36e1df1afd18b014794e9","63a38f1cafc0a1a802de32b6","rsvp1-task","true","0","","","","","null","
					<div style='width: 900px;'>
					<div style='float: center;'><img src=img/nontarget_distractor77.jpeg  ></img>
					</div>
					","null","rsvp1","practice0","","","","","","","","","3","","","","","img/nontarget_distractor77.jpeg"
"","html-keyboard-response","143","144910","0.0-5.0-12.0-1.11","62866dd4cd7ecbe7c29bffdb","62866dd4cd7ecbe7c29bffdb","63a36e1df1afd18b014794e9","63a38f1cafc0a1a802de32b6","rsvp1-task","true","0","","","","","null","<span></span>","null","iti","","","","","","","","","","","","","","",""
"","html-keyboard-response","144","145012","0.0-5.0-12.0-0.12","62866dd4cd7ecbe7c29bffdb","62866dd4cd7ecbe7c29bffdb","63a36e1df1afd18b014794e9","63a38f1cafc0a1a802de32b6","rsvp1-task","true","0","","","","","null","
					<div style='width: 900px;'>
					<div style='float: center;'><img src=img/nontarget_distractor24.jpeg  ></img>
					</div>
					","null","rsvp1","practice0","","","","","","","","","3","","","","","img/nontarget_distractor24.jpeg"
"","html-keyboard-response","145","145017","0.0-5.0-12.0-1.12","62866dd4cd7ecbe7c29bffdb","62866dd4cd7ecbe7c29bffdb","63a36e1df1afd18b014794e9","63a38f1cafc0a1a802de32b6","rsvp1-task","true","0","","","","","null","<span></span>","null","iti","","","","","","","","","","","","","","",""
"","html-keyboard-response","146","145120","0.0-5.0-12.0-0.13","62866dd4cd7ecbe7c29bffdb","62866dd4cd7ecbe7c29bffdb","63a36e1df1afd18b014794e9","63a38f1cafc0a1a802de32b6","rsvp1-task","true","0","","","","","null","
					<div style='width: 900px;'>
					<div style='float: center;'><img src=img/nontarget_distractor83.jpeg  ></img>
					</div>
					","null","rsvp1","practice0","","","","","","","","","3","","","","","img/nontarget_distractor83.jpeg"
"","html-keyboard-response","147","145124","0.0-5.0-12.0-1.13","62866dd4cd7ecbe7c29bffdb","62866dd4cd7ecbe7c29bffdb","63a36e1df1afd18b014794e9","63a38f1cafc0a1a802de32b6","rsvp1-task","true","0","","","","","null","<span></span>","null","iti","","","","","","","","","","","","","","",""
"","html-keyboard-response","148","145227","0.0-5.0-12.0-0.14","62866dd4cd7ecbe7c29bffdb","62866dd4cd7ecbe7c29bffdb","63a36e1df1afd18b014794e9","63a38f1cafc0a1a802de32b6","rsvp1-task","true","0","","","","","null","
					<div style='width: 900px;'>
					<div style='float: center;'><img src=img/t2_targets171.jpeg class=""rotateimgR""  ></img>
					</div>
					","null","rsvp1","practice0","","","","","","","","","3","","","","","img/t2_targets171.jpeg class=""rotateimgR"""
"","html-keyboard-response","149","145232","0.0-5.0-12.0-1.14","62866dd4cd7ecbe7c29bffdb","62866dd4cd7ecbe7c29bffdb","63a36e1df1afd18b014794e9","63a38f1cafc0a1a802de32b6","rsvp1-task","true","0","","","","","null","<span></span>","null","iti","","","","","","","","","","","","","","",""
"","html-keyboard-response","150","145336","0.0-5.0-12.0-0.15","62866dd4cd7ecbe7c29bffdb","62866dd4cd7ecbe7c29bffdb","63a36e1df1afd18b014794e9","63a38f1cafc0a1a802de32b6","rsvp1-task","true","0","","","","","null","
					<div style='width: 900px;'>
					<div style='float: center;'><img src=img/nontarget_distractor159.jpeg  ></img>
					</div>
					","null","rsvp1","practice0","","","","","","","","","3","","","","","img/nontarget_distractor159.jpeg"
"","html-keyboard-response","151","145342","0.0-5.0-12.0-1.15","62866dd4cd7ecbe7c29bffdb","62866dd4cd7ecbe7c29bffdb","63a36e1df1afd18b014794e9","63a38f1cafc0a1a802de32b6","rsvp1-task","true","0","","","","","null","<span></span>","null","iti","","","","","","","","","","","","","","",""
"","html-keyboard-response","152","145443","0.0-5.0-12.0-0.16","62866dd4cd7ecbe7c29bffdb","62866dd4cd7ecbe7c29bffdb","63a36e1df1afd18b014794e9","63a38f1cafc0a1a802de32b6","rsvp1-task","true","0","","","","","null","
					<div style='width: 900px;'>
					<div style='float: center;'><img src=img/nontarget_distractor215.jpeg  ></img>
					</div>
					","null","rsvp1","practice0","","","","","","","","","3","","","","","img/nontarget_distractor215.jpeg"
"","html-keyboard-response","153","145449","0.0-5.0-12.0-1.16","62866dd4cd7ecbe7c29bffdb","62866dd4cd7ecbe7c29bffdb","63a36e1df1afd18b014794e9","63a38f1cafc0a1a802de32b6","rsvp1-task","true","0","","","","","null","<span></span>","null","iti","","","","","","","","","","","","","","",""
"","html-keyboard-response","154","146004","0.0-5.0-13.0-0.0","62866dd4cd7ecbe7c29bffdb","62866dd4cd7ecbe7c29bffdb","63a36e1df1afd18b014794e9","63a38f1cafc0a1a802de32b6","rsvp1-task","true","0","","","","","554.6999999880791","<div class=""rsvp""> Was the rotated image rotated left (1 key) or right (0 key)?</div>","0","response","practice0","0","0","neutral","img/nontarget_distractor151.jpeg","img/nontarget_distractor159.jpeg","8","7","15","3","true","true","true","",""
"","html-keyboard-response","155","147017","0.0-5.0-14.0","62866dd4cd7ecbe7c29bffdb","62866dd4cd7ecbe7c29bffdb","63a36e1df1afd18b014794e9","63a38f1cafc0a1a802de32b6","rsvp1-task","true","0","","","","","null","Correct! </p> <p>  </p><p> ","null","","","","","","","","","","","","","","","main_T1_ITI",""
"","html-keyboard-response","156","149031","0.0-5.0-15.0","62866dd4cd7ecbe7c29bffdb","62866dd4cd7ecbe7c29bffdb","63a36e1df1afd18b014794e9","63a38f1cafc0a1a802de32b6","rsvp1-task","true","0","","","","","null","<div class=""rsvp"">+</div>","null","fixation","","","","","","","","","","","","","","",""
"","html-keyboard-response","157","149292","0.0-5.0-16.0","62866dd4cd7ecbe7c29bffdb","62866dd4cd7ecbe7c29bffdb","63a36e1df1afd18b014794e9","63a38f1cafc0a1a802de32b6","rsvp1-task","true","0","","","","","null","<div class=""rsvp"" ></div>","null","blank","","","","","","","","","","","","","","",""
"","html-keyboard-response","158","149400","0.0-5.0-17.0-0.0","62866dd4cd7ecbe7c29bffdb","62866dd4cd7ecbe7c29bffdb","63a36e1df1afd18b014794e9","63a38f1cafc0a1a802de32b6","rsvp1-task","true","0","","","","","null","
					<div style='width: 900px;'>
					<div style='float: center;'><img src=img/nontarget_distractor187.jpeg  ></img>
					</div>
					","null","rsvp1","practice0","","","","","","","","","4","","","","","img/nontarget_distractor187.jpeg"
"","html-keyboard-response","159","149406","0.0-5.0-17.0-1.0","62866dd4cd7ecbe7c29bffdb","62866dd4cd7ecbe7c29bffdb","63a36e1df1afd18b014794e9","63a38f1cafc0a1a802de32b6","rsvp1-task","true","0","","","","","null","<span></span>","null","iti","","","","","","","","","","","","","","",""
"","html-keyboard-response","160","149507","0.0-5.0-17.0-0.1","62866dd4cd7ecbe7c29bffdb","62866dd4cd7ecbe7c29bffdb","63a36e1df1afd18b014794e9","63a38f1cafc0a1a802de32b6","rsvp1-task","true","0","","","","","null","
					<div style='width: 900px;'>
					<div style='float: center;'><img src=img/nontarget_distractor14.jpeg  ></img>
					</div>
					","null","rsvp1","practice0","","","","","","","","","4","","","","","img/nontarget_distractor14.jpeg"
"","html-keyboard-response","161","149513","0.0-5.0-17.0-1.1","62866dd4cd7ecbe7c29bffdb","62866dd4cd7ecbe7c29bffdb","63a36e1df1afd18b014794e9","63a38f1cafc0a1a802de32b6","rsvp1-task","true","0","","","","","null","<span></span>","null","iti","","","","","","","","","","","","","","",""
"","html-keyboard-response","162","149628","0.0-5.0-17.0-0.2","62866dd4cd7ecbe7c29bffdb","62866dd4cd7ecbe7c29bffdb","63a36e1df1afd18b014794e9","63a38f1cafc0a1a802de32b6","rsvp1-task","true","0","","","","","null","
					<div style='width: 900px;'>
					<div style='float: center;'><img src=img/nontarget_distractor131.jpeg  ></img>
					</div>
					","null","rsvp1","practice0","","","","","","","","","4","","","","","img/nontarget_distractor131.jpeg"
"","html-keyboard-response","163","149633","0.0-5.0-17.0-1.2","62866dd4cd7ecbe7c29bffdb","62866dd4cd7ecbe7c29bffdb","63a36e1df1afd18b014794e9","63a38f1cafc0a1a802de32b6","rsvp1-task","true","0","","","","","null","<span></span>","null","iti","","","","","","","","","","","","","","",""
"","html-keyboard-response","164","149736","0.0-5.0-17.0-0.3","62866dd4cd7ecbe7c29bffdb","62866dd4cd7ecbe7c29bffdb","63a36e1df1afd18b014794e9","63a38f1cafc0a1a802de32b6","rsvp1-task","true","0","","","","","null","
					<div style='width: 900px;'>
					<div style='float: center;'><img src=img/nontarget_distractor148.jpeg  ></img>
					</div>
					","null","rsvp1","practice0","","","","","","","","","4","","","","","img/nontarget_distractor148.jpeg"
"","html-keyboard-response","165","149741","0.0-5.0-17.0-1.3","62866dd4cd7ecbe7c29bffdb","62866dd4cd7ecbe7c29bffdb","63a36e1df1afd18b014794e9","63a38f1cafc0a1a802de32b6","rsvp1-task","true","0","","","","","null","<span></span>","null","iti","","","","","","","","","","","","","","",""
"","html-keyboard-response","166","149844","0.0-5.0-17.0-0.4","62866dd4cd7ecbe7c29bffdb","62866dd4cd7ecbe7c29bffdb","63a36e1df1afd18b014794e9","63a38f1cafc0a1a802de32b6","rsvp1-task","true","0","","","","","null","
					<div style='width: 900px;'>
					<div style='float: center;'><img src=img/nontarget_distractor222.jpeg  ></img>
					</div>
					","null","rsvp1","practice0","","","","","","","","","4","","","","","img/nontarget_distractor222.jpeg"
"","html-keyboard-response","167","149849","0.0-5.0-17.0-1.4","62866dd4cd7ecbe7c29bffdb","62866dd4cd7ecbe7c29bffdb","63a36e1df1afd18b014794e9","63a38f1cafc0a1a802de32b6","rsvp1-task","true","0","","","","","null","<span></span>","null","iti","","","","","","","","","","","","","","",""
"","html-keyboard-response","168","149951","0.0-5.0-17.0-0.5","62866dd4cd7ecbe7c29bffdb","62866dd4cd7ecbe7c29bffdb","63a36e1df1afd18b014794e9","63a38f1cafc0a1a802de32b6","rsvp1-task","true","0","","","","","null","
					<div style='width: 900px;'>
					<div style='float: center;'><img src=img/nontarget_distractor135.jpeg  ></img>
					</div>
					","null","rsvp1","practice0","","","","","","","","","4","","","","","img/nontarget_distractor135.jpeg"
"","html-keyboard-response","169","149956","0.0-5.0-17.0-1.5","62866dd4cd7ecbe7c29bffdb","62866dd4cd7ecbe7c29bffdb","63a36e1df1afd18b014794e9","63a38f1cafc0a1a802de32b6","rsvp1-task","true","0","","","","","null","<span></span>","null","iti","","","","","","","","","","","","","","",""
"","html-keyboard-response","170","150059","0.0-5.0-17.0-0.6","62866dd4cd7ecbe7c29bffdb","62866dd4cd7ecbe7c29bffdb","63a36e1df1afd18b014794e9","63a38f1cafc0a1a802de32b6","rsvp1-task","true","0","","","","","null","
					<div style='width: 900px;'>
					<div style='float: center;'><img src=img/nontarget_distractor167.jpeg  ></img>
					</div>
					","null","rsvp1","practice0","","","","","","","","","4","","","","","img/nontarget_distractor167.jpeg"
"","html-keyboard-response","171","150064","0.0-5.0-17.0-1.6","62866dd4cd7ecbe7c29bffdb","62866dd4cd7ecbe7c29bffdb","63a36e1df1afd18b014794e9","63a38f1cafc0a1a802de32b6","rsvp1-task","true","0","","","","","null","<span></span>","null","iti","","","","","","","","","","","","","","",""
"","html-keyboard-response","172","150167","0.0-5.0-17.0-0.7","62866dd4cd7ecbe7c29bffdb","62866dd4cd7ecbe7c29bffdb","63a36e1df1afd18b014794e9","63a38f1cafc0a1a802de32b6","rsvp1-task","true","0","","","","","null","
					<div style='width: 900px;'>
					<div style='float: center;'><img src=img/nontarget_distractor155.jpeg  ></img>
					</div>
					","null","rsvp1","practice0","","","","","","","","","4","","","","","img/nontarget_distractor155.jpeg"
"","html-keyboard-response","173","150172","0.0-5.0-17.0-1.7","62866dd4cd7ecbe7c29bffdb","62866dd4cd7ecbe7c29bffdb","63a36e1df1afd18b014794e9","63a38f1cafc0a1a802de32b6","rsvp1-task","true","0","","","","","null","<span></span>","null","iti","","","","","","","","","","","","","","",""
"","html-keyboard-response","174","150274","0.0-5.0-17.0-0.8","62866dd4cd7ecbe7c29bffdb","62866dd4cd7ecbe7c29bffdb","63a36e1df1afd18b014794e9","63a38f1cafc0a1a802de32b6","rsvp1-task","true","0","","","","","null","
					<div style='width: 900px;'>
					<div style='float: center;'><img src=img/nontarget_distractor63.jpeg  ></img>
					</div>
					","null","rsvp1","practice0","","","","","","","","","4","","","","","img/nontarget_distractor63.jpeg"
"","html-keyboard-response","175","150280","0.0-5.0-17.0-1.8","62866dd4cd7ecbe7c29bffdb","62866dd4cd7ecbe7c29bffdb","63a36e1df1afd18b014794e9","63a38f1cafc0a1a802de32b6","rsvp1-task","true","0","","","","","null","<span></span>","null","iti","","","","","","","","","","","","","","",""
"","html-keyboard-response","176","150395","0.0-5.0-17.0-0.9","62866dd4cd7ecbe7c29bffdb","62866dd4cd7ecbe7c29bffdb","63a36e1df1afd18b014794e9","63a38f1cafc0a1a802de32b6","rsvp1-task","true","0","","","","","null","
					<div style='width: 900px;'>
					<div style='float: center;'><img src=img/nontarget_distractor124.jpeg  ></img>
					</div>
					","null","rsvp1","practice0","","","","","","","","","4","","","","","img/nontarget_distractor124.jpeg"
"","html-keyboard-response","177","150400","0.0-5.0-17.0-1.9","62866dd4cd7ecbe7c29bffdb","62866dd4cd7ecbe7c29bffdb","63a36e1df1afd18b014794e9","63a38f1cafc0a1a802de32b6","rsvp1-task","true","0","","","","","null","<span></span>","null","iti","","","","","","","","","","","","","","",""
"","html-keyboard-response","178","150503","0.0-5.0-17.0-0.10","62866dd4cd7ecbe7c29bffdb","62866dd4cd7ecbe7c29bffdb","63a36e1df1afd18b014794e9","63a38f1cafc0a1a802de32b6","rsvp1-task","true","0","","","","","null","
					<div style='width: 900px;'>
					<div style='float: center;'><img src=img/nontarget_distractor113.jpeg  ></img>
					</div>
					","null","rsvp1","practice0","","","","","","","","","4","","","","","img/nontarget_distractor113.jpeg"
"","html-keyboard-response","179","150508","0.0-5.0-17.0-1.10","62866dd4cd7ecbe7c29bffdb","62866dd4cd7ecbe7c29bffdb","63a36e1df1afd18b014794e9","63a38f1cafc0a1a802de32b6","rsvp1-task","true","0","","","","","null","<span></span>","null","iti","","","","","","","","","","","","","","",""
"","html-keyboard-response","180","150625","0.0-5.0-17.0-0.11","62866dd4cd7ecbe7c29bffdb","62866dd4cd7ecbe7c29bffdb","63a36e1df1afd18b014794e9","63a38f1cafc0a1a802de32b6","rsvp1-task","true","0","","","","","null","
					<div style='width: 900px;'>
					<div style='float: center;'><img src=img/nontarget_distractor35.jpeg  ></img>
					</div>
					","null","rsvp1","practice0","","","","","","","","","4","","","","","img/nontarget_distractor35.jpeg"
"","html-keyboard-response","181","150629","0.0-5.0-17.0-1.11","62866dd4cd7ecbe7c29bffdb","62866dd4cd7ecbe7c29bffdb","63a36e1df1afd18b014794e9","63a38f1cafc0a1a802de32b6","rsvp1-task","true","0","","","","","null","<span></span>","null","iti","","","","","","","","","","","","","","",""
"","html-keyboard-response","182","150731","0.0-5.0-17.0-0.12","62866dd4cd7ecbe7c29bffdb","62866dd4cd7ecbe7c29bffdb","63a36e1df1afd18b014794e9","63a38f1cafc0a1a802de32b6","rsvp1-task","true","0","","","","","null","
					<div style='width: 900px;'>
					<div style='float: center;'><img src=img/t2_targets116.jpeg class=""rotateimgL""  ></img>
					</div>
					","null","rsvp1","practice0","","","","","","","","","4","","","","","img/t2_targets116.jpeg class=""rotateimgL"""
"","html-keyboard-response","183","150736","0.0-5.0-17.0-1.12","62866dd4cd7ecbe7c29bffdb","62866dd4cd7ecbe7c29bffdb","63a36e1df1afd18b014794e9","63a38f1cafc0a1a802de32b6","rsvp1-task","true","0","","","","","null","<span></span>","null","iti","","","","","","","","","","","","","","",""
"","html-keyboard-response","184","150854","0.0-5.0-17.0-0.13","62866dd4cd7ecbe7c29bffdb","62866dd4cd7ecbe7c29bffdb","63a36e1df1afd18b014794e9","63a38f1cafc0a1a802de32b6","rsvp1-task","true","0","","","","","null","
					<div style='width: 900px;'>
					<div style='float: center;'><img src=img/nontarget_distractor1.jpeg  ></img>
					</div>
					","null","rsvp1","practice0","","","","","","","","","4","","","","","img/nontarget_distractor1.jpeg"
"","html-keyboard-response","185","150859","0.0-5.0-17.0-1.13","62866dd4cd7ecbe7c29bffdb","62866dd4cd7ecbe7c29bffdb","63a36e1df1afd18b014794e9","63a38f1cafc0a1a802de32b6","rsvp1-task","true","0","","","","","null","<span></span>","null","iti","","","","","","","","","","","","","","",""
"","html-keyboard-response","186","150977","0.0-5.0-17.0-0.14","62866dd4cd7ecbe7c29bffdb","62866dd4cd7ecbe7c29bffdb","63a36e1df1afd18b014794e9","63a38f1cafc0a1a802de32b6","rsvp1-task","true","0","","","","","null","
					<div style='width: 900px;'>
					<div style='float: center;'><img src=img/nontarget_distractor255.jpeg  ></img>
					</div>
					","null","rsvp1","practice0","","","","","","","","","4","","","","","img/nontarget_distractor255.jpeg"
"","html-keyboard-response","187","150981","0.0-5.0-17.0-1.14","62866dd4cd7ecbe7c29bffdb","62866dd4cd7ecbe7c29bffdb","63a36e1df1afd18b014794e9","63a38f1cafc0a1a802de32b6","rsvp1-task","true","0","","","","","null","<span></span>","null","iti","","","","","","","","","","","","","","",""
"","html-keyboard-response","188","151083","0.0-5.0-17.0-0.15","62866dd4cd7ecbe7c29bffdb","62866dd4cd7ecbe7c29bffdb","63a36e1df1afd18b014794e9","63a38f1cafc0a1a802de32b6","rsvp1-task","true","0","","","","","null","
					<div style='width: 900px;'>
					<div style='float: center;'><img src=img/nontarget_distractor33.jpeg  ></img>
					</div>
					","null","rsvp1","practice0","","","","","","","","","4","","","","","img/nontarget_distractor33.jpeg"
"","html-keyboard-response","189","151088","0.0-5.0-17.0-1.15","62866dd4cd7ecbe7c29bffdb","62866dd4cd7ecbe7c29bffdb","63a36e1df1afd18b014794e9","63a38f1cafc0a1a802de32b6","rsvp1-task","true","0","","","","","null","<span></span>","null","iti","","","","","","","","","","","","","","",""
"","html-keyboard-response","190","151192","0.0-5.0-17.0-0.16","62866dd4cd7ecbe7c29bffdb","62866dd4cd7ecbe7c29bffdb","63a36e1df1afd18b014794e9","63a38f1cafc0a1a802de32b6","rsvp1-task","true","0","","","","","null","
					<div style='width: 900px;'>
					<div style='float: center;'><img src=img/nontarget_distractor43.jpeg  ></img>
					</div>
					","null","rsvp1","practice0","","","","","","","","","4","","","","","img/nontarget_distractor43.jpeg"
"","html-keyboard-response","191","151198","0.0-5.0-17.0-1.16","62866dd4cd7ecbe7c29bffdb","62866dd4cd7ecbe7c29bffdb","63a36e1df1afd18b014794e9","63a38f1cafc0a1a802de32b6","rsvp1-task","true","0","","","","","null","<span></span>","null","iti","","","","","","","","","","","","","","",""
"","html-keyboard-response","192","151521","0.0-5.0-18.0-0.0","62866dd4cd7ecbe7c29bffdb","62866dd4cd7ecbe7c29bffdb","63a36e1df1afd18b014794e9","63a38f1cafc0a1a802de32b6","rsvp1-task","true","0","","","","","323.10000002384186","<div class=""rsvp""> Was the rotated image rotated left (1 key) or right (0 key)?</div>","1","response","practice0","1","1","neutral","img/nontarget_distractor155.jpeg","img/nontarget_distractor1.jpeg","8","5","13","4","true","true","true","",""
"","html-keyboard-response","193","152542","0.0-5.0-19.0","62866dd4cd7ecbe7c29bffdb","62866dd4cd7ecbe7c29bffdb","63a36e1df1afd18b014794e9","63a38f1cafc0a1a802de32b6","rsvp1-task","true","0","","","","","null","Correct! </p> <p>  </p><p> ","null","","","","","","","","","","","","","","","main_T1_ITI",""
"","html-keyboard-response","194","154559","0.0-5.0-20.0","62866dd4cd7ecbe7c29bffdb","62866dd4cd7ecbe7c29bffdb","63a36e1df1afd18b014794e9","63a38f1cafc0a1a802de32b6","rsvp1-task","true","0","","","","","null","<div class=""rsvp"">+</div>","null","fixation","","","","","","","","","","","","","","",""
"","html-keyboard-response","195","154817","0.0-5.0-21.0","62866dd4cd7ecbe7c29bffdb","62866dd4cd7ecbe7c29bffdb","63a36e1df1afd18b014794e9","63a38f1cafc0a1a802de32b6","rsvp1-task","true","0","","","","","null","<div class=""rsvp"" ></div>","null","blank","","","","","","","","","","","","","","",""
"","html-keyboard-response","196","154923","0.0-5.0-22.0-0.0","62866dd4cd7ecbe7c29bffdb","62866dd4cd7ecbe7c29bffdb","63a36e1df1afd18b014794e9","63a38f1cafc0a1a802de32b6","rsvp1-task","true","0","","","","","null","
					<div style='width: 900px;'>
					<div style='float: center;'><img src=img/nontarget_distractor16.jpeg  ></img>
					</div>
					","null","rsvp1","practice0","","","","","","","","","5","","","","","img/nontarget_distractor16.jpeg"
"","html-keyboard-response","197","154928","0.0-5.0-22.0-1.0","62866dd4cd7ecbe7c29bffdb","62866dd4cd7ecbe7c29bffdb","63a36e1df1afd18b014794e9","63a38f1cafc0a1a802de32b6","rsvp1-task","true","0","","","","","null","<span></span>","null","iti","","","","","","","","","","","","","","",""
"","html-keyboard-response","198","155032","0.0-5.0-22.0-0.1","62866dd4cd7ecbe7c29bffdb","62866dd4cd7ecbe7c29bffdb","63a36e1df1afd18b014794e9","63a38f1cafc0a1a802de32b6","rsvp1-task","true","0","","","","","null","
					<div style='width: 900px;'>
					<div style='float: center;'><img src=img/nontarget_distractor83.jpeg  ></img>
					</div>
					","null","rsvp1","practice0","","","","","","","","","5","","","","","img/nontarget_distractor83.jpeg"
"","html-keyboard-response","199","155038","0.0-5.0-22.0-1.1","62866dd4cd7ecbe7c29bffdb","62866dd4cd7ecbe7c29bffdb","63a36e1df1afd18b014794e9","63a38f1cafc0a1a802de32b6","rsvp1-task","true","0","","","","","null","<span></span>","null","iti","","","","","","","","","","","","","","",""
"","html-keyboard-response","200","155139","0.0-5.0-22.0-0.2","62866dd4cd7ecbe7c29bffdb","62866dd4cd7ecbe7c29bffdb","63a36e1df1afd18b014794e9","63a38f1cafc0a1a802de32b6","rsvp1-task","true","0","","","","","null","
					<div style='width: 900px;'>
					<div style='float: center;'><img src=img/nontarget_distractor64.jpeg  ></img>
					</div>
					","null","rsvp1","practice0","","","","","","","","","5","","","","","img/nontarget_distractor64.jpeg"
"","html-keyboard-response","201","155145","0.0-5.0-22.0-1.2","62866dd4cd7ecbe7c29bffdb","62866dd4cd7ecbe7c29bffdb","63a36e1df1afd18b014794e9","63a38f1cafc0a1a802de32b6","rsvp1-task","true","0","","","","","null","<span></span>","null","iti","","","","","","","","","","","","","","",""
"","html-keyboard-response","202","155247","0.0-5.0-22.0-0.3","62866dd4cd7ecbe7c29bffdb","62866dd4cd7ecbe7c29bffdb","63a36e1df1afd18b014794e9","63a38f1cafc0a1a802de32b6","rsvp1-task","true","0","","","","","null","
					<div style='width: 900px;'>
					<div style='float: center;'><img src=img/nontarget_distractor256.jpeg  ></img>
					</div>
					","null","rsvp1","practice0","","","","","","","","","5","","","","","img/nontarget_distractor256.jpeg"
"","html-keyboard-response","203","155252","0.0-5.0-22.0-1.3","62866dd4cd7ecbe7c29bffdb","62866dd4cd7ecbe7c29bffdb","63a36e1df1afd18b014794e9","63a38f1cafc0a1a802de32b6","rsvp1-task","true","0","","","","","null","<span></span>","null","iti","","","","","","","","","","","","","","",""
"","html-keyboard-response","204","155369","0.0-5.0-22.0-0.4","62866dd4cd7ecbe7c29bffdb","62866dd4cd7ecbe7c29bffdb","63a36e1df1afd18b014794e9","63a38f1cafc0a1a802de32b6","rsvp1-task","true","0","","","","","null","
					<div style='width: 900px;'>
					<div style='float: center;'><img src=img/nontarget_distractor97.jpeg  ></img>
					</div>
					","null","rsvp1","practice0","","","","","","","","","5","","","","","img/nontarget_distractor97.jpeg"
"","html-keyboard-response","205","155373","0.0-5.0-22.0-1.4","62866dd4cd7ecbe7c29bffdb","62866dd4cd7ecbe7c29bffdb","63a36e1df1afd18b014794e9","63a38f1cafc0a1a802de32b6","rsvp1-task","true","0","","","","","null","<span></span>","null","iti","","","","","","","","","","","","","","",""
"","html-keyboard-response","206","155479","0.0-5.0-22.0-0.5","62866dd4cd7ecbe7c29bffdb","62866dd4cd7ecbe7c29bffdb","63a36e1df1afd18b014794e9","63a38f1cafc0a1a802de32b6","rsvp1-task","true","0","","","","","null","
					<div style='width: 900px;'>
					<div style='float: center;'><img src=img/nontarget_distractor104.jpeg  ></img>
					</div>
					","null","rsvp1","practice0","","","","","","","","","5","","","","","img/nontarget_distractor104.jpeg"
"","html-keyboard-response","207","155484","0.0-5.0-22.0-1.5","62866dd4cd7ecbe7c29bffdb","62866dd4cd7ecbe7c29bffdb","63a36e1df1afd18b014794e9","63a38f1cafc0a1a802de32b6","rsvp1-task","true","0","","","","","null","<span></span>","null","iti","","","","","","","","","","","","","","",""
"","html-keyboard-response","208","155586","0.0-5.0-22.0-0.6","62866dd4cd7ecbe7c29bffdb","62866dd4cd7ecbe7c29bffdb","63a36e1df1afd18b014794e9","63a38f1cafc0a1a802de32b6","rsvp1-task","true","0","","","","","null","
					<div style='width: 900px;'>
					<div style='float: center;'><img src=img/nontarget_distractor253.jpeg  ></img>
					</div>
					","null","rsvp1","practice0","","","","","","","","","5","","","","","img/nontarget_distractor253.jpeg"
"","html-keyboard-response","209","155592","0.0-5.0-22.0-1.6","62866dd4cd7ecbe7c29bffdb","62866dd4cd7ecbe7c29bffdb","63a36e1df1afd18b014794e9","63a38f1cafc0a1a802de32b6","rsvp1-task","true","0","","","","","null","<span></span>","null","iti","","","","","","","","","","","","","","",""
"","html-keyboard-response","210","155695","0.0-5.0-22.0-0.7","62866dd4cd7ecbe7c29bffdb","62866dd4cd7ecbe7c29bffdb","63a36e1df1afd18b014794e9","63a38f1cafc0a1a802de32b6","rsvp1-task","true","0","","","","","null","
					<div style='width: 900px;'>
					<div style='float: center;'><img src=img/nontarget_distractor134.jpeg  ></img>
					</div>
					","null","rsvp1","practice0","","","","","","","","","5","","","","","img/nontarget_distractor134.jpeg"
"","html-keyboard-response","211","155700","0.0-5.0-22.0-1.7","62866dd4cd7ecbe7c29bffdb","62866dd4cd7ecbe7c29bffdb","63a36e1df1afd18b014794e9","63a38f1cafc0a1a802de32b6","rsvp1-task","true","0","","","","","null","<span></span>","null","iti","","","","","","","","","","","","","","",""
"","html-keyboard-response","212","155817","0.0-5.0-22.0-0.8","62866dd4cd7ecbe7c29bffdb","62866dd4cd7ecbe7c29bffdb","63a36e1df1afd18b014794e9","63a38f1cafc0a1a802de32b6","rsvp1-task","true","0","","","","","null","
					<div style='width: 900px;'>
					<div style='float: center;'><img src=img/t2_targets164.jpeg class=""rotateimgR""  ></img>
					</div>
					","null","rsvp1","practice0","","","","","","","","","5","","","","","img/t2_targets164.jpeg class=""rotateimgR"""
"","html-keyboard-response","213","155822","0.0-5.0-22.0-1.8","62866dd4cd7ecbe7c29bffdb","62866dd4cd7ecbe7c29bffdb","63a36e1df1afd18b014794e9","63a38f1cafc0a1a802de32b6","rsvp1-task","true","0","","","","","null","<span></span>","null","iti","","","","","","","","","","","","","","",""
"","html-keyboard-response","214","155924","0.0-5.0-22.0-0.9","62866dd4cd7ecbe7c29bffdb","62866dd4cd7ecbe7c29bffdb","63a36e1df1afd18b014794e9","63a38f1cafc0a1a802de32b6","rsvp1-task","true","0","","","","","null","
					<div style='width: 900px;'>
					<div style='float: center;'><img src=img/nontarget_distractor69.jpeg  ></img>
					</div>
					","null","rsvp1","practice0","","","","","","","","","5","","","","","img/nontarget_distractor69.jpeg"
"","html-keyboard-response","215","155929","0.0-5.0-22.0-1.9","62866dd4cd7ecbe7c29bffdb","62866dd4cd7ecbe7c29bffdb","63a36e1df1afd18b014794e9","63a38f1cafc0a1a802de32b6","rsvp1-task","true","0","","","","","null","<span></span>","null","iti","","","","","","","","","","","","","","",""
"","html-keyboard-response","216","156033","0.0-5.0-22.0-0.10","62866dd4cd7ecbe7c29bffdb","62866dd4cd7ecbe7c29bffdb","63a36e1df1afd18b014794e9","63a38f1cafc0a1a802de32b6","rsvp1-task","true","0","","","","","null","
					<div style='width: 900px;'>
					<div style='float: center;'><img src=img/nontarget_distractor15.jpeg  ></img>
					</div>
					","null","rsvp1","practice0","","","","","","","","","5","","","","","img/nontarget_distractor15.jpeg"
"","html-keyboard-response","217","156039","0.0-5.0-22.0-1.10","62866dd4cd7ecbe7c29bffdb","62866dd4cd7ecbe7c29bffdb","63a36e1df1afd18b014794e9","63a38f1cafc0a1a802de32b6","rsvp1-task","true","0","","","","","null","<span></span>","null","iti","","","","","","","","","","","","","","",""
"","html-keyboard-response","218","156142","0.0-5.0-22.0-0.11","62866dd4cd7ecbe7c29bffdb","62866dd4cd7ecbe7c29bffdb","63a36e1df1afd18b014794e9","63a38f1cafc0a1a802de32b6","rsvp1-task","true","0","","","","","null","
					<div style='width: 900px;'>
					<div style='float: center;'><img src=img/nontarget_distractor77.jpeg  ></img>
					</div>
					","null","rsvp1","practice0","","","","","","","","","5","","","","","img/nontarget_distractor77.jpeg"
"","html-keyboard-response","219","156146","0.0-5.0-22.0-1.11","62866dd4cd7ecbe7c29bffdb","62866dd4cd7ecbe7c29bffdb","63a36e1df1afd18b014794e9","63a38f1cafc0a1a802de32b6","rsvp1-task","true","0","","","","","null","<span></span>","null","iti","","","","","","","","","","","","","","",""
"","html-keyboard-response","220","156266","0.0-5.0-22.0-0.12","62866dd4cd7ecbe7c29bffdb","62866dd4cd7ecbe7c29bffdb","63a36e1df1afd18b014794e9","63a38f1cafc0a1a802de32b6","rsvp1-task","true","0","","","","","null","
					<div style='width: 900px;'>
					<div style='float: center;'><img src=img/nontarget_distractor76.jpeg  ></img>
					</div>
					","null","rsvp1","practice0","","","","","","","","","5","","","","","img/nontarget_distractor76.jpeg"
"","html-keyboard-response","221","156272","0.0-5.0-22.0-1.12","62866dd4cd7ecbe7c29bffdb","62866dd4cd7ecbe7c29bffdb","63a36e1df1afd18b014794e9","63a38f1cafc0a1a802de32b6","rsvp1-task","true","0","","","","","null","<span></span>","null","iti","","","","","","","","","","","","","","",""
"","html-keyboard-response","222","156373","0.0-5.0-22.0-0.13","62866dd4cd7ecbe7c29bffdb","62866dd4cd7ecbe7c29bffdb","63a36e1df1afd18b014794e9","63a38f1cafc0a1a802de32b6","rsvp1-task","true","0","","","","","null","
					<div style='width: 900px;'>
					<div style='float: center;'><img src=img/nontarget_distractor72.jpeg  ></img>
					</div>
					","null","rsvp1","practice0","","","","","","","","","5","","","","","img/nontarget_distractor72.jpeg"
"","html-keyboard-response","223","156379","0.0-5.0-22.0-1.13","62866dd4cd7ecbe7c29bffdb","62866dd4cd7ecbe7c29bffdb","63a36e1df1afd18b014794e9","63a38f1cafc0a1a802de32b6","rsvp1-task","true","0","","","","","null","<span></span>","null","iti","","","","","","","","","","","","","","",""
"","html-keyboard-response","224","156480","0.0-5.0-22.0-0.14","62866dd4cd7ecbe7c29bffdb","62866dd4cd7ecbe7c29bffdb","63a36e1df1afd18b014794e9","63a38f1cafc0a1a802de32b6","rsvp1-task","true","0","","","","","null","
					<div style='width: 900px;'>
					<div style='float: center;'><img src=img/nontarget_distractor4.jpeg  ></img>
					</div>
					","null","rsvp1","practice0","","","","","","","","","5","","","","","img/nontarget_distractor4.jpeg"
"","html-keyboard-response","225","156484","0.0-5.0-22.0-1.14","62866dd4cd7ecbe7c29bffdb","62866dd4cd7ecbe7c29bffdb","63a36e1df1afd18b014794e9","63a38f1cafc0a1a802de32b6","rsvp1-task","true","0","","","","","null","<span></span>","null","iti","","","","","","","","","","","","","","",""
"","html-keyboard-response","226","156588","0.0-5.0-22.0-0.15","62866dd4cd7ecbe7c29bffdb","62866dd4cd7ecbe7c29bffdb","63a36e1df1afd18b014794e9","63a38f1cafc0a1a802de32b6","rsvp1-task","true","0","","","","","null","
					<div style='width: 900px;'>
					<div style='float: center;'><img src=img/nontarget_distractor123.jpeg  ></img>
					</div>
					","null","rsvp1","practice0","","","","","","","","","5","","","","","img/nontarget_distractor123.jpeg"
"","html-keyboard-response","227","156593","0.0-5.0-22.0-1.15","62866dd4cd7ecbe7c29bffdb","62866dd4cd7ecbe7c29bffdb","63a36e1df1afd18b014794e9","63a38f1cafc0a1a802de32b6","rsvp1-task","true","0","","","","","null","<span></span>","null","iti","","","","","","","","","","","","","","",""
"","html-keyboard-response","228","156696","0.0-5.0-22.0-0.16","62866dd4cd7ecbe7c29bffdb","62866dd4cd7ecbe7c29bffdb","63a36e1df1afd18b014794e9","63a38f1cafc0a1a802de32b6","rsvp1-task","true","0","","","","","null","
					<div style='width: 900px;'>
					<div style='float: center;'><img src=img/nontarget_distractor68.jpeg  ></img>
					</div>
					","null","rsvp1","practice0","","","","","","","","","5","","","","","img/nontarget_distractor68.jpeg"
"","html-keyboard-response","229","156701","0.0-5.0-22.0-1.16","62866dd4cd7ecbe7c29bffdb","62866dd4cd7ecbe7c29bffdb","63a36e1df1afd18b014794e9","63a38f1cafc0a1a802de32b6","rsvp1-task","true","0","","","","","null","<span></span>","null","iti","","","","","","","","","","","","","","",""
"","html-keyboard-response","230","157048","0.0-5.0-23.0-0.0","62866dd4cd7ecbe7c29bffdb","62866dd4cd7ecbe7c29bffdb","63a36e1df1afd18b014794e9","63a38f1cafc0a1a802de32b6","rsvp1-task","true","0","","","","","346.5","<div class=""rsvp""> Was the rotated image rotated left (1 key) or right (0 key)?</div>","0","response","practice0","0","0","neutral","img/nontarget_distractor134.jpeg","img/nontarget_distractor69.jpeg","8","1","9","5","true","true","true","",""
"","html-keyboard-response","231","158051","0.0-5.0-24.0","62866dd4cd7ecbe7c29bffdb","62866dd4cd7ecbe7c29bffdb","63a36e1df1afd18b014794e9","63a38f1cafc0a1a802de32b6","rsvp1-task","true","0","","","","","null","Correct! </p> <p>  </p><p> ","null","","","","","","","","","","","","","","","main_T1_ITI",""
"","html-keyboard-response","232","160063","0.0-5.0-25.0","62866dd4cd7ecbe7c29bffdb","62866dd4cd7ecbe7c29bffdb","63a36e1df1afd18b014794e9","63a38f1cafc0a1a802de32b6","rsvp1-task","true","0","","","","","null","<div class=""rsvp"">+</div>","null","fixation","","","","","","","","","","","","","","",""
"","html-keyboard-response","233","160323","0.0-5.0-26.0","62866dd4cd7ecbe7c29bffdb","62866dd4cd7ecbe7c29bffdb","63a36e1df1afd18b014794e9","63a38f1cafc0a1a802de32b6","rsvp1-task","true","0","","","","","null","<div class=""rsvp"" ></div>","null","blank","","","","","","","","","","","","","","",""
"","html-keyboard-response","234","160430","0.0-5.0-27.0-0.0","62866dd4cd7ecbe7c29bffdb","62866dd4cd7ecbe7c29bffdb","63a36e1df1afd18b014794e9","63a38f1cafc0a1a802de32b6","rsvp1-task","true","0","","","","","null","
					<div style='width: 900px;'>
					<div style='float: center;'><img src=img/nontarget_distractor3.jpeg  ></img>
					</div>
					","null","rsvp1","practice0","","","","","","","","","6","","","","","img/nontarget_distractor3.jpeg"
"","html-keyboard-response","235","160435","0.0-5.0-27.0-1.0","62866dd4cd7ecbe7c29bffdb","62866dd4cd7ecbe7c29bffdb","63a36e1df1afd18b014794e9","63a38f1cafc0a1a802de32b6","rsvp1-task","true","0","","","","","null","<span></span>","null","iti","","","","","","","","","","","","","","",""
"","html-keyboard-response","236","160553","0.0-5.0-27.0-0.1","62866dd4cd7ecbe7c29bffdb","62866dd4cd7ecbe7c29bffdb","63a36e1df1afd18b014794e9","63a38f1cafc0a1a802de32b6","rsvp1-task","true","0","","","","","null","
					<div style='width: 900px;'>
					<div style='float: center;'><img src=img/nontarget_distractor223.jpeg  ></img>
					</div>
					","null","rsvp1","practice0","","","","","","","","","6","","","","","img/nontarget_distractor223.jpeg"
"","html-keyboard-response","237","160559","0.0-5.0-27.0-1.1","62866dd4cd7ecbe7c29bffdb","62866dd4cd7ecbe7c29bffdb","63a36e1df1afd18b014794e9","63a38f1cafc0a1a802de32b6","rsvp1-task","true","0","","","","","null","<span></span>","null","iti","","","","","","","","","","","","","","",""
"","html-keyboard-response","238","160660","0.0-5.0-27.0-0.2","62866dd4cd7ecbe7c29bffdb","62866dd4cd7ecbe7c29bffdb","63a36e1df1afd18b014794e9","63a38f1cafc0a1a802de32b6","rsvp1-task","true","0","","","","","null","
					<div style='width: 900px;'>
					<div style='float: center;'><img src=img/nontarget_distractor148.jpeg  ></img>
					</div>
					","null","rsvp1","practice0","","","","","","","","","6","","","","","img/nontarget_distractor148.jpeg"
"","html-keyboard-response","239","160665","0.0-5.0-27.0-1.2","62866dd4cd7ecbe7c29bffdb","62866dd4cd7ecbe7c29bffdb","63a36e1df1afd18b014794e9","63a38f1cafc0a1a802de32b6","rsvp1-task","true","0","","","","","null","<span></span>","null","iti","","","","","","","","","","","","","","",""
"","html-keyboard-response","240","160781","0.0-5.0-27.0-0.3","62866dd4cd7ecbe7c29bffdb","62866dd4cd7ecbe7c29bffdb","63a36e1df1afd18b014794e9","63a38f1cafc0a1a802de32b6","rsvp1-task","true","0","","","","","null","
					<div style='width: 900px;'>
					<div style='float: center;'><img src=img/nontarget_distractor173.jpeg  ></img>
					</div>
					","null","rsvp1","practice0","","","","","","","","","6","","","","","img/nontarget_distractor173.jpeg"
"","html-keyboard-response","241","160787","0.0-5.0-27.0-1.3","62866dd4cd7ecbe7c29bffdb","62866dd4cd7ecbe7c29bffdb","63a36e1df1afd18b014794e9","63a38f1cafc0a1a802de32b6","rsvp1-task","true","0","","","","","null","<span></span>","null","iti","","","","","","","","","","","","","","",""
"","html-keyboard-response","242","160889","0.0-5.0-27.0-0.4","62866dd4cd7ecbe7c29bffdb","62866dd4cd7ecbe7c29bffdb","63a36e1df1afd18b014794e9","63a38f1cafc0a1a802de32b6","rsvp1-task","true","0","","","","","null","
					<div style='width: 900px;'>
					<div style='float: center;'><img src=img/nontarget_distractor31.jpeg  ></img>
					</div>
					","null","rsvp1","practice0","","","","","","","","","6","","","","","img/nontarget_distractor31.jpeg"
"","html-keyboard-response","243","160894","0.0-5.0-27.0-1.4","62866dd4cd7ecbe7c29bffdb","62866dd4cd7ecbe7c29bffdb","63a36e1df1afd18b014794e9","63a38f1cafc0a1a802de32b6","rsvp1-task","true","0","","","","","null","<span></span>","null","iti","","","","","","","","","","","","","","",""
"","html-keyboard-response","244","160996","0.0-5.0-27.0-0.5","62866dd4cd7ecbe7c29bffdb","62866dd4cd7ecbe7c29bffdb","63a36e1df1afd18b014794e9","63a38f1cafc0a1a802de32b6","rsvp1-task","true","0","","","","","null","
					<div style='width: 900px;'>
					<div style='float: center;'><img src=img/nontarget_distractor246.jpeg  ></img>
					</div>
					","null","rsvp1","practice0","","","","","","","","","6","","","","","img/nontarget_distractor246.jpeg"
"","html-keyboard-response","245","161001","0.0-5.0-27.0-1.5","62866dd4cd7ecbe7c29bffdb","62866dd4cd7ecbe7c29bffdb","63a36e1df1afd18b014794e9","63a38f1cafc0a1a802de32b6","rsvp1-task","true","0","","","","","null","<span></span>","null","iti","","","","","","","","","","","","","","",""
"","html-keyboard-response","246","161104","0.0-5.0-27.0-0.6","62866dd4cd7ecbe7c29bffdb","62866dd4cd7ecbe7c29bffdb","63a36e1df1afd18b014794e9","63a38f1cafc0a1a802de32b6","rsvp1-task","true","0","","","","","null","
					<div style='width: 900px;'>
					<div style='float: center;'><img src=img/nontarget_distractor144.jpeg  ></img>
					</div>
					","null","rsvp1","practice0","","","","","","","","","6","","","","","img/nontarget_distractor144.jpeg"
"","html-keyboard-response","247","161109","0.0-5.0-27.0-1.6","62866dd4cd7ecbe7c29bffdb","62866dd4cd7ecbe7c29bffdb","63a36e1df1afd18b014794e9","63a38f1cafc0a1a802de32b6","rsvp1-task","true","0","","","","","null","<span></span>","null","iti","","","","","","","","","","","","","","",""
"","html-keyboard-response","248","161212","0.0-5.0-27.0-0.7","62866dd4cd7ecbe7c29bffdb","62866dd4cd7ecbe7c29bffdb","63a36e1df1afd18b014794e9","63a38f1cafc0a1a802de32b6","rsvp1-task","true","0","","","","","null","
					<div style='width: 900px;'>
					<div style='float: center;'><img src=img/nontarget_distractor146.jpeg  ></img>
					</div>
					","null","rsvp1","practice0","","","","","","","","","6","","","","","img/nontarget_distractor146.jpeg"
"","html-keyboard-response","249","161217","0.0-5.0-27.0-1.7","62866dd4cd7ecbe7c29bffdb","62866dd4cd7ecbe7c29bffdb","63a36e1df1afd18b014794e9","63a38f1cafc0a1a802de32b6","rsvp1-task","true","0","","","","","null","<span></span>","null","iti","","","","","","","","","","","","","","",""
"","html-keyboard-response","250","161320","0.0-5.0-27.0-0.8","62866dd4cd7ecbe7c29bffdb","62866dd4cd7ecbe7c29bffdb","63a36e1df1afd18b014794e9","63a38f1cafc0a1a802de32b6","rsvp1-task","true","0","","","","","null","
					<div style='width: 900px;'>
					<div style='float: center;'><img src=img/nontarget_distractor212.jpeg  ></img>
					</div>
					","null","rsvp1","practice0","","","","","","","","","6","","","","","img/nontarget_distractor212.jpeg"
"","html-keyboard-response","251","161325","0.0-5.0-27.0-1.8","62866dd4cd7ecbe7c29bffdb","62866dd4cd7ecbe7c29bffdb","63a36e1df1afd18b014794e9","63a38f1cafc0a1a802de32b6","rsvp1-task","true","0","","","","","null","<span></span>","null","iti","","","","","","","","","","","","","","",""
"","html-keyboard-response","252","161428","0.0-5.0-27.0-0.9","62866dd4cd7ecbe7c29bffdb","62866dd4cd7ecbe7c29bffdb","63a36e1df1afd18b014794e9","63a38f1cafc0a1a802de32b6","rsvp1-task","true","0","","","","","null","
					<div style='width: 900px;'>
					<div style='float: center;'><img src=img/nontarget_distractor40.jpeg  ></img>
					</div>
					","null","rsvp1","practice0","","","","","","","","","6","","","","","img/nontarget_distractor40.jpeg"
"","html-keyboard-response","253","161433","0.0-5.0-27.0-1.9","62866dd4cd7ecbe7c29bffdb","62866dd4cd7ecbe7c29bffdb","63a36e1df1afd18b014794e9","63a38f1cafc0a1a802de32b6","rsvp1-task","true","0","","","","","null","<span></span>","null","iti","","","","","","","","","","","","","","",""
"","html-keyboard-response","254","161536","0.0-5.0-27.0-0.10","62866dd4cd7ecbe7c29bffdb","62866dd4cd7ecbe7c29bffdb","63a36e1df1afd18b014794e9","63a38f1cafc0a1a802de32b6","rsvp1-task","true","0","","","","","null","
					<div style='width: 900px;'>
					<div style='float: center;'><img src=img/nontarget_distractor22.jpeg  ></img>
					</div>
					","null","rsvp1","practice0","","","","","","","","","6","","","","","img/nontarget_distractor22.jpeg"
"","html-keyboard-response","255","161541","0.0-5.0-27.0-1.10","62866dd4cd7ecbe7c29bffdb","62866dd4cd7ecbe7c29bffdb","63a36e1df1afd18b014794e9","63a38f1cafc0a1a802de32b6","rsvp1-task","true","0","","","","","null","<span></span>","null","iti","","","","","","","","","","","","","","",""
"","html-keyboard-response","256","161643","0.0-5.0-27.0-0.11","62866dd4cd7ecbe7c29bffdb","62866dd4cd7ecbe7c29bffdb","63a36e1df1afd18b014794e9","63a38f1cafc0a1a802de32b6","rsvp1-task","true","0","","","","","null","
					<div style='width: 900px;'>
					<div style='float: center;'><img src=img/nontarget_distractor221.jpeg  ></img>
					</div>
					","null","rsvp1","practice0","","","","","","","","","6","","","","","img/nontarget_distractor221.jpeg"
"","html-keyboard-response","257","161647","0.0-5.0-27.0-1.11","62866dd4cd7ecbe7c29bffdb","62866dd4cd7ecbe7c29bffdb","63a36e1df1afd18b014794e9","63a38f1cafc0a1a802de32b6","rsvp1-task","true","0","","","","","null","<span></span>","null","iti","","","","","","","","","","","","","","",""
"","html-keyboard-response","258","161753","0.0-5.0-27.0-0.12","62866dd4cd7ecbe7c29bffdb","62866dd4cd7ecbe7c29bffdb","63a36e1df1afd18b014794e9","63a38f1cafc0a1a802de32b6","rsvp1-task","true","0","","","","","null","
					<div style='width: 900px;'>
					<div style='float: center;'><img src=img/nontarget_distractor122.jpeg  ></img>
					</div>
					","null","rsvp1","practice0","","","","","","","","","6","","","","","img/nontarget_distractor122.jpeg"
"","html-keyboard-response","259","161758","0.0-5.0-27.0-1.12","62866dd4cd7ecbe7c29bffdb","62866dd4cd7ecbe7c29bffdb","63a36e1df1afd18b014794e9","63a38f1cafc0a1a802de32b6","rsvp1-task","true","0","","","","","null","<span></span>","null","iti","","","","","","","","","","","","","","",""
"","html-keyboard-response","260","161860","0.0-5.0-27.0-0.13","62866dd4cd7ecbe7c29bffdb","62866dd4cd7ecbe7c29bffdb","63a36e1df1afd18b014794e9","63a38f1cafc0a1a802de32b6","rsvp1-task","true","0","","","","","null","
					<div style='width: 900px;'>
					<div style='float: center;'><img src=img/nontarget_distractor128.jpeg  ></img>
					</div>
					","null","rsvp1","practice0","","","","","","","","","6","","","","","img/nontarget_distractor128.jpeg"
"","html-keyboard-response","261","161865","0.0-5.0-27.0-1.13","62866dd4cd7ecbe7c29bffdb","62866dd4cd7ecbe7c29bffdb","63a36e1df1afd18b014794e9","63a38f1cafc0a1a802de32b6","rsvp1-task","true","0","","","","","null","<span></span>","null","iti","","","","","","","","","","","","","","",""
"","html-keyboard-response","262","161967","0.0-5.0-27.0-0.14","62866dd4cd7ecbe7c29bffdb","62866dd4cd7ecbe7c29bffdb","63a36e1df1afd18b014794e9","63a38f1cafc0a1a802de32b6","rsvp1-task","true","0","","","","","null","
					<div style='width: 900px;'>
					<div style='float: center;'><img src=img/nontarget_distractor59.jpeg  ></img>
					</div>
					","null","rsvp1","practice0","","","","","","","","","6","","","","","img/nontarget_distractor59.jpeg"
"","html-keyboard-response","263","161971","0.0-5.0-27.0-1.14","62866dd4cd7ecbe7c29bffdb","62866dd4cd7ecbe7c29bffdb","63a36e1df1afd18b014794e9","63a38f1cafc0a1a802de32b6","rsvp1-task","true","0","","","","","null","<span></span>","null","iti","","","","","","","","","","","","","","",""
"","html-keyboard-response","264","162075","0.0-5.0-27.0-0.15","62866dd4cd7ecbe7c29bffdb","62866dd4cd7ecbe7c29bffdb","63a36e1df1afd18b014794e9","63a38f1cafc0a1a802de32b6","rsvp1-task","true","0","","","","","null","
					<div style='width: 900px;'>
					<div style='float: center;'><img src=img/t2_targets123.jpeg class=""rotateimgL""  ></img>
					</div>
					","null","rsvp1","practice0","","","","","","","","","6","","","","","img/t2_targets123.jpeg class=""rotateimgL"""
"","html-keyboard-response","265","162079","0.0-5.0-27.0-1.15","62866dd4cd7ecbe7c29bffdb","62866dd4cd7ecbe7c29bffdb","63a36e1df1afd18b014794e9","63a38f1cafc0a1a802de32b6","rsvp1-task","true","0","","","","","null","<span></span>","null","iti","","","","","","","","","","","","","","",""
"","html-keyboard-response","266","162184","0.0-5.0-27.0-0.16","62866dd4cd7ecbe7c29bffdb","62866dd4cd7ecbe7c29bffdb","63a36e1df1afd18b014794e9","63a38f1cafc0a1a802de32b6","rsvp1-task","true","0","","","","","null","
					<div style='width: 900px;'>
					<div style='float: center;'><img src=img/nontarget_distractor140.jpeg  ></img>
					</div>
					","null","rsvp1","practice0","","","","","","","","","6","","","","","img/nontarget_distractor140.jpeg"
"","html-keyboard-response","267","162189","0.0-5.0-27.0-1.16","62866dd4cd7ecbe7c29bffdb","62866dd4cd7ecbe7c29bffdb","63a36e1df1afd18b014794e9","63a38f1cafc0a1a802de32b6","rsvp1-task","true","0","","","","","null","<span></span>","null","iti","","","","","","","","","","","","","","",""
"","html-keyboard-response","268","162774","0.0-5.0-28.0-0.0","62866dd4cd7ecbe7c29bffdb","62866dd4cd7ecbe7c29bffdb","63a36e1df1afd18b014794e9","63a38f1cafc0a1a802de32b6","rsvp1-task","true","0","","","","","584.5","<div class=""rsvp""> Was the rotated image rotated left (1 key) or right (0 key)?</div>","1","response","practice0","1","1","neutral","img/nontarget_distractor146.jpeg","img/nontarget_distractor140.jpeg","8","8","16","6","true","true","true","",""
"","html-keyboard-response","269","163793","0.0-5.0-29.0","62866dd4cd7ecbe7c29bffdb","62866dd4cd7ecbe7c29bffdb","63a36e1df1afd18b014794e9","63a38f1cafc0a1a802de32b6","rsvp1-task","true","0","","","","","null","Correct! </p> <p>  </p><p> ","null","","","","","","","","","","","","","","","main_T1_ITI",""
"","html-keyboard-response","270","165805","0.0-5.0-30.0","62866dd4cd7ecbe7c29bffdb","62866dd4cd7ecbe7c29bffdb","63a36e1df1afd18b014794e9","63a38f1cafc0a1a802de32b6","rsvp1-task","true","0","","","","","null","<div class=""rsvp"">+</div>","null","fixation","","","","","","","","","","","","","","",""
