"success","trial_type","trial_index","time_elapsed","internal_node_id","subject_id","subjectID","study_id","session_id","exp_id","full_screen","focus_shifts","timeout","failed_images","failed_audio","failed_video","rt","stimulus","key_press","test_part","phase","correct_responses","correct_response","t1_type","t1_image","t2_image","t1_location","lag","t2_location","trial_number","correct","t1_correct","t2_correct","task","stim"
"true","fullscreen","0","6067","0.0-0.0","6298b96f38f6715fdd491b2a","6298b96f38f6715fdd491b2a","63a36e1df1afd18b014794e9","63a38a163462c61a40de3288","rsvp1-task","true","0","","","","","","","","","","","","","","","","","","","","","","",""
"true","preload","1","40969","0.0-1.0","6298b96f38f6715fdd491b2a","6298b96f38f6715fdd491b2a","63a36e1df1afd18b014794e9","63a38a163462c61a40de3288","rsvp1-task","true","0","false","[]","[]","[]","","","","","","","","","","","","","","","","","","",""
"","html-keyboard-response","2","56532","0.0-2.0","6298b96f38f6715fdd491b2a","6298b96f38f6715fdd491b2a","63a36e1df1afd18b014794e9","63a38a163462c61a40de3288","rsvp1-task","true","0","","","","","15562","<div class='instructions'><p>You will see a series of scene images rapidly appearing on the computer screen. One of the scene images will be ROTATED, either to the left or to the right.</p><p>When the series ends, you have to respond to the question ‘Which way was the scene rotated?’</p><p>If the scene was rotated left, you will press the 1 key. If the scene was rotated right, press the 0 key. </p><p>Press any key to see an example of the task.</p></div>"," ","instructions","","","","","","","","","","","","","","",""
"","html-keyboard-response","3","59545","0.0-3.0-0.0","6298b96f38f6715fdd491b2a","6298b96f38f6715fdd491b2a","63a36e1df1afd18b014794e9","63a38a163462c61a40de3288","rsvp1-task","true","0","","","","","null","<div class=""rsvp"">+</div>","null","fixation","","","","","","","","","","","","","","",""
"","html-keyboard-response","4","59796","0.0-3.0-1.0","6298b96f38f6715fdd491b2a","6298b96f38f6715fdd491b2a","63a36e1df1afd18b014794e9","63a38a163462c61a40de3288","rsvp1-task","true","0","","","","","null","<div class=""rsvp"" ></div>","null","blank","","","","","","","","","","","","","","",""
"","html-keyboard-response","5","60017","0.0-3.0-2.0-0.0","6298b96f38f6715fdd491b2a","6298b96f38f6715fdd491b2a","63a36e1df1afd18b014794e9","63a38a163462c61a40de3288","rsvp1-task","true","0","","","","","null","
					<div style='width: 900px;'>
					<div style='float: center;'><img src=img/nontarget_distractor134.jpeg  ></img>
					</div>
					","null","","","","","","","","","","","","","","","",""
"","html-keyboard-response","6","60112","0.0-3.0-2.0-1.0","6298b96f38f6715fdd491b2a","6298b96f38f6715fdd491b2a","63a36e1df1afd18b014794e9","63a38a163462c61a40de3288","rsvp1-task","true","0","","","","","null","<span></span>","null","iti","","","","","","","","","","","","","","",""
"","html-keyboard-response","7","60330","0.0-3.0-2.0-0.1","6298b96f38f6715fdd491b2a","6298b96f38f6715fdd491b2a","63a36e1df1afd18b014794e9","63a38a163462c61a40de3288","rsvp1-task","true","0","","","","","null","
					<div style='width: 900px;'>
					<div style='float: center;'><img src=img/nontarget_distractor39.jpeg  ></img>
					</div>
					","null","","","","","","","","","","","","","","","",""
"","html-keyboard-response","8","60424","0.0-3.0-2.0-1.1","6298b96f38f6715fdd491b2a","6298b96f38f6715fdd491b2a","63a36e1df1afd18b014794e9","63a38a163462c61a40de3288","rsvp1-task","true","0","","","","","null","<span></span>","null","iti","","","","","","","","","","","","","","",""
"","html-keyboard-response","9","60641","0.0-3.0-2.0-0.2","6298b96f38f6715fdd491b2a","6298b96f38f6715fdd491b2a","63a36e1df1afd18b014794e9","63a38a163462c61a40de3288","rsvp1-task","true","0","","","","","null","
					<div style='width: 900px;'>
					<div style='float: center;'><img src=img/nontarget_distractor189.jpeg  ></img>
					</div>
					","null","","","","","","","","","","","","","","","",""
"","html-keyboard-response","10","60735","0.0-3.0-2.0-1.2","6298b96f38f6715fdd491b2a","6298b96f38f6715fdd491b2a","63a36e1df1afd18b014794e9","63a38a163462c61a40de3288","rsvp1-task","true","0","","","","","null","<span></span>","null","iti","","","","","","","","","","","","","","",""
"","html-keyboard-response","11","60956","0.0-3.0-2.0-0.3","6298b96f38f6715fdd491b2a","6298b96f38f6715fdd491b2a","63a36e1df1afd18b014794e9","63a38a163462c61a40de3288","rsvp1-task","true","0","","","","","null","
					<div style='width: 900px;'>
					<div style='float: center;'><img src=img/nontarget_distractor160.jpeg  ></img>
					</div>
					","null","","","","","","","","","","","","","","","",""
"","html-keyboard-response","12","61051","0.0-3.0-2.0-1.3","6298b96f38f6715fdd491b2a","6298b96f38f6715fdd491b2a","63a36e1df1afd18b014794e9","63a38a163462c61a40de3288","rsvp1-task","true","0","","","","","null","<span></span>","null","iti","","","","","","","","","","","","","","",""
"","html-keyboard-response","13","61267","0.0-3.0-2.0-0.4","6298b96f38f6715fdd491b2a","6298b96f38f6715fdd491b2a","63a36e1df1afd18b014794e9","63a38a163462c61a40de3288","rsvp1-task","true","0","","","","","null","
					<div style='width: 900px;'>
					<div style='float: center;'><img src=img/nontarget_distractor181.jpeg  ></img>
					</div>
					","null","","","","","","","","","","","","","","","",""
"","html-keyboard-response","14","61361","0.0-3.0-2.0-1.4","6298b96f38f6715fdd491b2a","6298b96f38f6715fdd491b2a","63a36e1df1afd18b014794e9","63a38a163462c61a40de3288","rsvp1-task","true","0","","","","","null","<span></span>","null","iti","","","","","","","","","","","","","","",""
"","html-keyboard-response","15","61580","0.0-3.0-2.0-0.5","6298b96f38f6715fdd491b2a","6298b96f38f6715fdd491b2a","63a36e1df1afd18b014794e9","63a38a163462c61a40de3288","rsvp1-task","true","0","","","","","null","
					<div style='width: 900px;'>
					<div style='float: center;'><img src=img/nontarget_distractor233.jpeg  ></img>
					</div>
					","null","","","","","","","","","","","","","","","",""
"","html-keyboard-response","16","61673","0.0-3.0-2.0-1.5","6298b96f38f6715fdd491b2a","6298b96f38f6715fdd491b2a","63a36e1df1afd18b014794e9","63a38a163462c61a40de3288","rsvp1-task","true","0","","","","","null","<span></span>","null","iti","","","","","","","","","","","","","","",""
"","html-keyboard-response","17","61893","0.0-3.0-2.0-0.6","6298b96f38f6715fdd491b2a","6298b96f38f6715fdd491b2a","63a36e1df1afd18b014794e9","63a38a163462c61a40de3288","rsvp1-task","true","0","","","","","null","
					<div style='width: 900px;'>
					<div style='float: center;'><img src=img/nontarget_distractor99.jpeg  ></img>
					</div>
					","null","","","","","","","","","","","","","","","",""
"","html-keyboard-response","18","61985","0.0-3.0-2.0-1.6","6298b96f38f6715fdd491b2a","6298b96f38f6715fdd491b2a","63a36e1df1afd18b014794e9","63a38a163462c61a40de3288","rsvp1-task","true","0","","","","","null","<span></span>","null","iti","","","","","","","","","","","","","","",""
"","html-keyboard-response","19","62208","0.0-3.0-2.0-0.7","6298b96f38f6715fdd491b2a","6298b96f38f6715fdd491b2a","63a36e1df1afd18b014794e9","63a38a163462c61a40de3288","rsvp1-task","true","0","","","","","null","
					<div style='width: 900px;'>
					<div style='float: center;'><img src=img/nontarget_distractor136.jpeg  ></img>
					</div>
					","null","","","","","","","","","","","","","","","",""
"","html-keyboard-response","20","62302","0.0-3.0-2.0-1.7","6298b96f38f6715fdd491b2a","6298b96f38f6715fdd491b2a","63a36e1df1afd18b014794e9","63a38a163462c61a40de3288","rsvp1-task","true","0","","","","","null","<span></span>","null","iti","","","","","","","","","","","","","","",""
"","html-keyboard-response","21","62520","0.0-3.0-2.0-0.8","6298b96f38f6715fdd491b2a","6298b96f38f6715fdd491b2a","63a36e1df1afd18b014794e9","63a38a163462c61a40de3288","rsvp1-task","true","0","","","","","null","
					<div style='width: 900px;'>
					<div style='float: center;'><img src=img/nontarget_distractor104.jpeg  ></img>
					</div>
					","null","","","","","","","","","","","","","","","",""
"","html-keyboard-response","22","62615","0.0-3.0-2.0-1.8","6298b96f38f6715fdd491b2a","6298b96f38f6715fdd491b2a","63a36e1df1afd18b014794e9","63a38a163462c61a40de3288","rsvp1-task","true","0","","","","","null","<span></span>","null","iti","","","","","","","","","","","","","","",""
"","html-keyboard-response","23","62833","0.0-3.0-2.0-0.9","6298b96f38f6715fdd491b2a","6298b96f38f6715fdd491b2a","63a36e1df1afd18b014794e9","63a38a163462c61a40de3288","rsvp1-task","true","0","","","","","null","
					<div style='width: 900px;'>
					<div style='float: center;'><img src=img/t2_targets89.jpeg class=""rotateimgL""  ></img>
					</div>
					","null","","","","","","","","","","","","","","","",""
"","html-keyboard-response","24","62928","0.0-3.0-2.0-1.9","6298b96f38f6715fdd491b2a","6298b96f38f6715fdd491b2a","63a36e1df1afd18b014794e9","63a38a163462c61a40de3288","rsvp1-task","true","0","","","","","null","<span></span>","null","iti","","","","","","","","","","","","","","",""
"","html-keyboard-response","25","63148","0.0-3.0-2.0-0.10","6298b96f38f6715fdd491b2a","6298b96f38f6715fdd491b2a","63a36e1df1afd18b014794e9","63a38a163462c61a40de3288","rsvp1-task","true","0","","","","","null","
					<div style='width: 900px;'>
					<div style='float: center;'><img src=img/nontarget_distractor187.jpeg  ></img>
					</div>
					","null","","","","","","","","","","","","","","","",""
"","html-keyboard-response","26","63242","0.0-3.0-2.0-1.10","6298b96f38f6715fdd491b2a","6298b96f38f6715fdd491b2a","63a36e1df1afd18b014794e9","63a38a163462c61a40de3288","rsvp1-task","true","0","","","","","null","<span></span>","null","iti","","","","","","","","","","","","","","",""
"","html-keyboard-response","27","63458","0.0-3.0-2.0-0.11","6298b96f38f6715fdd491b2a","6298b96f38f6715fdd491b2a","63a36e1df1afd18b014794e9","63a38a163462c61a40de3288","rsvp1-task","true","0","","","","","null","
					<div style='width: 900px;'>
					<div style='float: center;'><img src=img/nontarget_distractor227.jpeg  ></img>
					</div>
					","null","","","","","","","","","","","","","","","",""
"","html-keyboard-response","28","63550","0.0-3.0-2.0-1.11","6298b96f38f6715fdd491b2a","6298b96f38f6715fdd491b2a","63a36e1df1afd18b014794e9","63a38a163462c61a40de3288","rsvp1-task","true","0","","","","","null","<span></span>","null","iti","","","","","","","","","","","","","","",""
"","html-keyboard-response","29","63769","0.0-3.0-2.0-0.12","6298b96f38f6715fdd491b2a","6298b96f38f6715fdd491b2a","63a36e1df1afd18b014794e9","63a38a163462c61a40de3288","rsvp1-task","true","0","","","","","null","
					<div style='width: 900px;'>
					<div style='float: center;'><img src=img/nontarget_distractor140.jpeg  ></img>
					</div>
					","null","","","","","","","","","","","","","","","",""
"","html-keyboard-response","30","63862","0.0-3.0-2.0-1.12","6298b96f38f6715fdd491b2a","6298b96f38f6715fdd491b2a","63a36e1df1afd18b014794e9","63a38a163462c61a40de3288","rsvp1-task","true","0","","","","","null","<span></span>","null","iti","","","","","","","","","","","","","","",""
"","html-keyboard-response","31","64081","0.0-3.0-2.0-0.13","6298b96f38f6715fdd491b2a","6298b96f38f6715fdd491b2a","63a36e1df1afd18b014794e9","63a38a163462c61a40de3288","rsvp1-task","true","0","","","","","null","
					<div style='width: 900px;'>
					<div style='float: center;'><img src=img/nontarget_distractor253.jpeg  ></img>
					</div>
					","null","","","","","","","","","","","","","","","",""
"","html-keyboard-response","32","64177","0.0-3.0-2.0-1.13","6298b96f38f6715fdd491b2a","6298b96f38f6715fdd491b2a","63a36e1df1afd18b014794e9","63a38a163462c61a40de3288","rsvp1-task","true","0","","","","","null","<span></span>","null","iti","","","","","","","","","","","","","","",""
"","html-keyboard-response","33","64397","0.0-3.0-2.0-0.14","6298b96f38f6715fdd491b2a","6298b96f38f6715fdd491b2a","63a36e1df1afd18b014794e9","63a38a163462c61a40de3288","rsvp1-task","true","0","","","","","null","
					<div style='width: 900px;'>
					<div style='float: center;'><img src=img/nontarget_distractor186.jpeg  ></img>
					</div>
					","null","","","","","","","","","","","","","","","",""
"","html-keyboard-response","34","64489","0.0-3.0-2.0-1.14","6298b96f38f6715fdd491b2a","6298b96f38f6715fdd491b2a","63a36e1df1afd18b014794e9","63a38a163462c61a40de3288","rsvp1-task","true","0","","","","","null","<span></span>","null","iti","","","","","","","","","","","","","","",""
"","html-keyboard-response","35","64710","0.0-3.0-2.0-0.15","6298b96f38f6715fdd491b2a","6298b96f38f6715fdd491b2a","63a36e1df1afd18b014794e9","63a38a163462c61a40de3288","rsvp1-task","true","0","","","","","null","
					<div style='width: 900px;'>
					<div style='float: center;'><img src=img/nontarget_distractor120.jpeg  ></img>
					</div>
					","null","","","","","","","","","","","","","","","",""
"","html-keyboard-response","36","64805","0.0-3.0-2.0-1.15","6298b96f38f6715fdd491b2a","6298b96f38f6715fdd491b2a","63a36e1df1afd18b014794e9","63a38a163462c61a40de3288","rsvp1-task","true","0","","","","","null","<span></span>","null","iti","","","","","","","","","","","","","","",""
"","html-keyboard-response","37","65025","0.0-3.0-2.0-0.16","6298b96f38f6715fdd491b2a","6298b96f38f6715fdd491b2a","63a36e1df1afd18b014794e9","63a38a163462c61a40de3288","rsvp1-task","true","0","","","","","null","
					<div style='width: 900px;'>
					<div style='float: center;'><img src=img/nontarget_distractor110.jpeg  ></img>
					</div>
					","null","","","","","","","","","","","","","","","",""
"","html-keyboard-response","38","65118","0.0-3.0-2.0-1.16","6298b96f38f6715fdd491b2a","6298b96f38f6715fdd491b2a","63a36e1df1afd18b014794e9","63a38a163462c61a40de3288","rsvp1-task","true","0","","","","","null","<span></span>","null","iti","","","","","","","","","","","","","","",""
"","html-keyboard-response","39","68236","0.0-3.0-3.0-0.0","6298b96f38f6715fdd491b2a","6298b96f38f6715fdd491b2a","63a36e1df1afd18b014794e9","63a38a163462c61a40de3288","rsvp1-task","true","0","","","","","3117","<div class=""rsvp""> Was the rotated image rotated left (1 key) or right (0 key)?</div>","1","response","instructions","1","1","neutral","img/nontarget_distractor39.jpeg","img/nontarget_distractor187.jpeg","2","8","10","1","true","true","true","",""
"","html-keyboard-response","40","69248","0.0-3.0-4.0","6298b96f38f6715fdd491b2a","6298b96f38f6715fdd491b2a","63a36e1df1afd18b014794e9","63a38a163462c61a40de3288","rsvp1-task","true","0","","","","","null","Correct! </p> <p>  </p><p> ","null","","","","","","","","","","","","","","","main_T1_ITI",""
"","html-keyboard-response","41","79091","0.0-4.0","6298b96f38f6715fdd491b2a","6298b96f38f6715fdd491b2a","63a36e1df1afd18b014794e9","63a38a163462c61a40de3288","rsvp1-task","true","0","","","","","9841","<div class='instructions'><p>In the example you just saw, the images appeared quite slowly.</p><p>The real task is more challenging, as the images will appear much more rapidly. This will feel much harder! </p> First, you will complete a practice block. </p><p> <strong>You need to respond correctly on at least 75% of the practice trials to advance, so pay close attention! </strong> </p><p>Press any key to start the practice.</p></div>"," ","instructions_2","","","","","","","","","","","","","","",""
"","html-keyboard-response","42","82107","0.0-5.0-0.0","6298b96f38f6715fdd491b2a","6298b96f38f6715fdd491b2a","63a36e1df1afd18b014794e9","63a38a163462c61a40de3288","rsvp1-task","true","0","","","","","null","<div class=""rsvp"">+</div>","null","fixation","","","","","","","","","","","","","","",""
"","html-keyboard-response","43","82364","0.0-5.0-1.0","6298b96f38f6715fdd491b2a","6298b96f38f6715fdd491b2a","63a36e1df1afd18b014794e9","63a38a163462c61a40de3288","rsvp1-task","true","0","","","","","null","<div class=""rsvp"" ></div>","null","blank","","","","","","","","","","","","","","",""
"","html-keyboard-response","44","82472","0.0-5.0-2.0-0.0","6298b96f38f6715fdd491b2a","6298b96f38f6715fdd491b2a","63a36e1df1afd18b014794e9","63a38a163462c61a40de3288","rsvp1-task","true","0","","","","","null","
					<div style='width: 900px;'>
					<div style='float: center;'><img src=img/nontarget_distractor205.jpeg  ></img>
					</div>
					","null","rsvp1","practice0","","","","","","","","","1","","","","","img/nontarget_distractor205.jpeg"
"","html-keyboard-response","45","82488","0.0-5.0-2.0-1.0","6298b96f38f6715fdd491b2a","6298b96f38f6715fdd491b2a","63a36e1df1afd18b014794e9","63a38a163462c61a40de3288","rsvp1-task","true","0","","","","","null","<span></span>","null","iti","","","","","","","","","","","","","","",""
"","html-keyboard-response","46","82593","0.0-5.0-2.0-0.1","6298b96f38f6715fdd491b2a","6298b96f38f6715fdd491b2a","63a36e1df1afd18b014794e9","63a38a163462c61a40de3288","rsvp1-task","true","0","","","","","null","
					<div style='width: 900px;'>
					<div style='float: center;'><img src=img/nontarget_distractor46.jpeg  ></img>
					</div>
					","null","rsvp1","practice0","","","","","","","","","1","","","","","img/nontarget_distractor46.jpeg"
"","html-keyboard-response","47","82611","0.0-5.0-2.0-1.1","6298b96f38f6715fdd491b2a","6298b96f38f6715fdd491b2a","63a36e1df1afd18b014794e9","63a38a163462c61a40de3288","rsvp1-task","true","0","","","","","null","<span></span>","null","iti","","","","","","","","","","","","","","",""
"","html-keyboard-response","48","82722","0.0-5.0-2.0-0.2","6298b96f38f6715fdd491b2a","6298b96f38f6715fdd491b2a","63a36e1df1afd18b014794e9","63a38a163462c61a40de3288","rsvp1-task","true","0","","","","","null","
					<div style='width: 900px;'>
					<div style='float: center;'><img src=img/nontarget_distractor253.jpeg  ></img>
					</div>
					","null","rsvp1","practice0","","","","","","","","","1","","","","","img/nontarget_distractor253.jpeg"
"","html-keyboard-response","49","82739","0.0-5.0-2.0-1.2","6298b96f38f6715fdd491b2a","6298b96f38f6715fdd491b2a","63a36e1df1afd18b014794e9","63a38a163462c61a40de3288","rsvp1-task","true","0","","","","","null","<span></span>","null","iti","","","","","","","","","","","","","","",""
"","html-keyboard-response","50","82845","0.0-5.0-2.0-0.3","6298b96f38f6715fdd491b2a","6298b96f38f6715fdd491b2a","63a36e1df1afd18b014794e9","63a38a163462c61a40de3288","rsvp1-task","true","0","","","","","null","
					<div style='width: 900px;'>
					<div style='float: center;'><img src=img/nontarget_distractor172.jpeg  ></img>
					</div>
					","null","rsvp1","practice0","","","","","","","","","1","","","","","img/nontarget_distractor172.jpeg"
"","html-keyboard-response","51","82861","0.0-5.0-2.0-1.3","6298b96f38f6715fdd491b2a","6298b96f38f6715fdd491b2a","63a36e1df1afd18b014794e9","63a38a163462c61a40de3288","rsvp1-task","true","0","","","","","null","<span></span>","null","iti","","","","","","","","","","","","","","",""
"","html-keyboard-response","52","82973","0.0-5.0-2.0-0.4","6298b96f38f6715fdd491b2a","6298b96f38f6715fdd491b2a","63a36e1df1afd18b014794e9","63a38a163462c61a40de3288","rsvp1-task","true","0","","","","","null","
					<div style='width: 900px;'>
					<div style='float: center;'><img src=img/nontarget_distractor225.jpeg  ></img>
					</div>
					","null","rsvp1","practice0","","","","","","","","","1","","","","","img/nontarget_distractor225.jpeg"
"","html-keyboard-response","53","82988","0.0-5.0-2.0-1.4","6298b96f38f6715fdd491b2a","6298b96f38f6715fdd491b2a","63a36e1df1afd18b014794e9","63a38a163462c61a40de3288","rsvp1-task","true","0","","","","","null","<span></span>","null","iti","","","","","","","","","","","","","","",""
"","html-keyboard-response","54","83094","0.0-5.0-2.0-0.5","6298b96f38f6715fdd491b2a","6298b96f38f6715fdd491b2a","63a36e1df1afd18b014794e9","63a38a163462c61a40de3288","rsvp1-task","true","0","","","","","null","
					<div style='width: 900px;'>
					<div style='float: center;'><img src=img/nontarget_distractor213.jpeg  ></img>
					</div>
					","null","rsvp1","practice0","","","","","","","","","1","","","","","img/nontarget_distractor213.jpeg"
"","html-keyboard-response","55","83107","0.0-5.0-2.0-1.5","6298b96f38f6715fdd491b2a","6298b96f38f6715fdd491b2a","63a36e1df1afd18b014794e9","63a38a163462c61a40de3288","rsvp1-task","true","0","","","","","null","<span></span>","null","iti","","","","","","","","","","","","","","",""
"","html-keyboard-response","56","83218","0.0-5.0-2.0-0.6","6298b96f38f6715fdd491b2a","6298b96f38f6715fdd491b2a","63a36e1df1afd18b014794e9","63a38a163462c61a40de3288","rsvp1-task","true","0","","","","","null","
					<div style='width: 900px;'>
					<div style='float: center;'><img src=img/nontarget_distractor245.jpeg  ></img>
					</div>
					","null","rsvp1","practice0","","","","","","","","","1","","","","","img/nontarget_distractor245.jpeg"
"","html-keyboard-response","57","83232","0.0-5.0-2.0-1.6","6298b96f38f6715fdd491b2a","6298b96f38f6715fdd491b2a","63a36e1df1afd18b014794e9","63a38a163462c61a40de3288","rsvp1-task","true","0","","","","","null","<span></span>","null","iti","","","","","","","","","","","","","","",""
"","html-keyboard-response","58","83338","0.0-5.0-2.0-0.7","6298b96f38f6715fdd491b2a","6298b96f38f6715fdd491b2a","63a36e1df1afd18b014794e9","63a38a163462c61a40de3288","rsvp1-task","true","0","","","","","null","
					<div style='width: 900px;'>
					<div style='float: center;'><img src=img/nontarget_distractor85.jpeg  ></img>
					</div>
					","null","rsvp1","practice0","","","","","","","","","1","","","","","img/nontarget_distractor85.jpeg"
"","html-keyboard-response","59","83355","0.0-5.0-2.0-1.7","6298b96f38f6715fdd491b2a","6298b96f38f6715fdd491b2a","63a36e1df1afd18b014794e9","63a38a163462c61a40de3288","rsvp1-task","true","0","","","","","null","<span></span>","null","iti","","","","","","","","","","","","","","",""
"","html-keyboard-response","60","83456","0.0-5.0-2.0-0.8","6298b96f38f6715fdd491b2a","6298b96f38f6715fdd491b2a","63a36e1df1afd18b014794e9","63a38a163462c61a40de3288","rsvp1-task","true","0","","","","","null","
					<div style='width: 900px;'>
					<div style='float: center;'><img src=img/nontarget_distractor212.jpeg  ></img>
					</div>
					","null","rsvp1","practice0","","","","","","","","","1","","","","","img/nontarget_distractor212.jpeg"
"","html-keyboard-response","61","83474","0.0-5.0-2.0-1.8","6298b96f38f6715fdd491b2a","6298b96f38f6715fdd491b2a","63a36e1df1afd18b014794e9","63a38a163462c61a40de3288","rsvp1-task","true","0","","","","","null","<span></span>","null","iti","","","","","","","","","","","","","","",""
"","html-keyboard-response","62","83581","0.0-5.0-2.0-0.9","6298b96f38f6715fdd491b2a","6298b96f38f6715fdd491b2a","63a36e1df1afd18b014794e9","63a38a163462c61a40de3288","rsvp1-task","true","0","","","","","null","
					<div style='width: 900px;'>
					<div style='float: center;'><img src=img/nontarget_distractor231.jpeg  ></img>
					</div>
					","null","rsvp1","practice0","","","","","","","","","1","","","","","img/nontarget_distractor231.jpeg"
"","html-keyboard-response","63","83596","0.0-5.0-2.0-1.9","6298b96f38f6715fdd491b2a","6298b96f38f6715fdd491b2a","63a36e1df1afd18b014794e9","63a38a163462c61a40de3288","rsvp1-task","true","0","","","","","null","<span></span>","null","iti","","","","","","","","","","","","","","",""
"","html-keyboard-response","64","83698","0.0-5.0-2.0-0.10","6298b96f38f6715fdd491b2a","6298b96f38f6715fdd491b2a","63a36e1df1afd18b014794e9","63a38a163462c61a40de3288","rsvp1-task","true","0","","","","","null","
					<div style='width: 900px;'>
					<div style='float: center;'><img src=img/nontarget_distractor35.jpeg  ></img>
					</div>
					","null","rsvp1","practice0","","","","","","","","","1","","","","","img/nontarget_distractor35.jpeg"
"","html-keyboard-response","65","83713","0.0-5.0-2.0-1.10","6298b96f38f6715fdd491b2a","6298b96f38f6715fdd491b2a","63a36e1df1afd18b014794e9","63a38a163462c61a40de3288","rsvp1-task","true","0","","","","","null","<span></span>","null","iti","","","","","","","","","","","","","","",""
"","html-keyboard-response","66","83821","0.0-5.0-2.0-0.11","6298b96f38f6715fdd491b2a","6298b96f38f6715fdd491b2a","63a36e1df1afd18b014794e9","63a38a163462c61a40de3288","rsvp1-task","true","0","","","","","null","
					<div style='width: 900px;'>
					<div style='float: center;'><img src=img/nontarget_distractor70.jpeg  ></img>
					</div>
					","null","rsvp1","practice0","","","","","","","","","1","","","","","img/nontarget_distractor70.jpeg"
"","html-keyboard-response","67","83833","0.0-5.0-2.0-1.11","6298b96f38f6715fdd491b2a","6298b96f38f6715fdd491b2a","63a36e1df1afd18b014794e9","63a38a163462c61a40de3288","rsvp1-task","true","0","","","","","null","<span></span>","null","iti","","","","","","","","","","","","","","",""
"","html-keyboard-response","68","83945","0.0-5.0-2.0-0.12","6298b96f38f6715fdd491b2a","6298b96f38f6715fdd491b2a","63a36e1df1afd18b014794e9","63a38a163462c61a40de3288","rsvp1-task","true","0","","","","","null","
					<div style='width: 900px;'>
					<div style='float: center;'><img src=img/nontarget_distractor4.jpeg  ></img>
					</div>
					","null","rsvp1","practice0","","","","","","","","","1","","","","","img/nontarget_distractor4.jpeg"
"","html-keyboard-response","69","83963","0.0-5.0-2.0-1.12","6298b96f38f6715fdd491b2a","6298b96f38f6715fdd491b2a","63a36e1df1afd18b014794e9","63a38a163462c61a40de3288","rsvp1-task","true","0","","","","","null","<span></span>","null","iti","","","","","","","","","","","","","","",""
"","html-keyboard-response","70","84073","0.0-5.0-2.0-0.13","6298b96f38f6715fdd491b2a","6298b96f38f6715fdd491b2a","63a36e1df1afd18b014794e9","63a38a163462c61a40de3288","rsvp1-task","true","0","","","","","null","
					<div style='width: 900px;'>
					<div style='float: center;'><img src=img/nontarget_distractor176.jpeg  ></img>
					</div>
					","null","rsvp1","practice0","","","","","","","","","1","","","","","img/nontarget_distractor176.jpeg"
"","html-keyboard-response","71","84088","0.0-5.0-2.0-1.13","6298b96f38f6715fdd491b2a","6298b96f38f6715fdd491b2a","63a36e1df1afd18b014794e9","63a38a163462c61a40de3288","rsvp1-task","true","0","","","","","null","<span></span>","null","iti","","","","","","","","","","","","","","",""
"","html-keyboard-response","72","84192","0.0-5.0-2.0-0.14","6298b96f38f6715fdd491b2a","6298b96f38f6715fdd491b2a","63a36e1df1afd18b014794e9","63a38a163462c61a40de3288","rsvp1-task","true","0","","","","","null","
					<div style='width: 900px;'>
					<div style='float: center;'><img src=img/nontarget_distractor49.jpeg  ></img>
					</div>
					","null","rsvp1","practice0","","","","","","","","","1","","","","","img/nontarget_distractor49.jpeg"
"","html-keyboard-response","73","84206","0.0-5.0-2.0-1.14","6298b96f38f6715fdd491b2a","6298b96f38f6715fdd491b2a","63a36e1df1afd18b014794e9","63a38a163462c61a40de3288","rsvp1-task","true","0","","","","","null","<span></span>","null","iti","","","","","","","","","","","","","","",""
"","html-keyboard-response","74","84307","0.0-5.0-2.0-0.15","6298b96f38f6715fdd491b2a","6298b96f38f6715fdd491b2a","63a36e1df1afd18b014794e9","63a38a163462c61a40de3288","rsvp1-task","true","0","","","","","null","
					<div style='width: 900px;'>
					<div style='float: center;'><img src=img/t2_targets187.jpeg class=""rotateimgL""  ></img>
					</div>
					","null","rsvp1","practice0","","","","","","","","","1","","","","","img/t2_targets187.jpeg class=""rotateimgL"""
"","html-keyboard-response","75","84319","0.0-5.0-2.0-1.15","6298b96f38f6715fdd491b2a","6298b96f38f6715fdd491b2a","63a36e1df1afd18b014794e9","63a38a163462c61a40de3288","rsvp1-task","true","0","","","","","null","<span></span>","null","iti","","","","","","","","","","","","","","",""
"","html-keyboard-response","76","84423","0.0-5.0-2.0-0.16","6298b96f38f6715fdd491b2a","6298b96f38f6715fdd491b2a","63a36e1df1afd18b014794e9","63a38a163462c61a40de3288","rsvp1-task","true","0","","","","","null","
					<div style='width: 900px;'>
					<div style='float: center;'><img src=img/nontarget_distractor138.jpeg  ></img>
					</div>
					","null","rsvp1","practice0","","","","","","","","","1","","","","","img/nontarget_distractor138.jpeg"
"","html-keyboard-response","77","84438","0.0-5.0-2.0-1.16","6298b96f38f6715fdd491b2a","6298b96f38f6715fdd491b2a","63a36e1df1afd18b014794e9","63a38a163462c61a40de3288","rsvp1-task","true","0","","","","","null","<span></span>","null","iti","","","","","","","","","","","","","","",""
"","html-keyboard-response","78","85531","0.0-5.0-3.0-0.0","6298b96f38f6715fdd491b2a","6298b96f38f6715fdd491b2a","63a36e1df1afd18b014794e9","63a38a163462c61a40de3288","rsvp1-task","true","0","","","","","1093","<div class=""rsvp""> Was the rotated image rotated left (1 key) or right (0 key)?</div>","0","response","practice0","1","1","neutral","img/nontarget_distractor85.jpeg","img/nontarget_distractor138.jpeg","8","8","16","1","false","false","false","",""
"","html-keyboard-response","79","86536","0.0-5.0-4.0","6298b96f38f6715fdd491b2a","6298b96f38f6715fdd491b2a","63a36e1df1afd18b014794e9","63a38a163462c61a40de3288","rsvp1-task","true","0","","","","","null","Wrong. </p> <p>  </p><p> ","null","","","","","","","","","","","","","","","main_T1_ITI",""
"","html-keyboard-response","80","88538","0.0-5.0-5.0","6298b96f38f6715fdd491b2a","6298b96f38f6715fdd491b2a","63a36e1df1afd18b014794e9","63a38a163462c61a40de3288","rsvp1-task","true","0","","","","","null","<div class=""rsvp"">+</div>","null","fixation","","","","","","","","","","","","","","",""
"","html-keyboard-response","81","88802","0.0-5.0-6.0","6298b96f38f6715fdd491b2a","6298b96f38f6715fdd491b2a","63a36e1df1afd18b014794e9","63a38a163462c61a40de3288","rsvp1-task","true","0","","","","","null","<div class=""rsvp"" ></div>","null","blank","","","","","","","","","","","","","","",""
"","html-keyboard-response","82","88906","0.0-5.0-7.0-0.0","6298b96f38f6715fdd491b2a","6298b96f38f6715fdd491b2a","63a36e1df1afd18b014794e9","63a38a163462c61a40de3288","rsvp1-task","true","0","","","","","null","
					<div style='width: 900px;'>
					<div style='float: center;'><img src=img/nontarget_distractor88.jpeg  ></img>
					</div>
					","null","rsvp1","practice0","","","","","","","","","2","","","","","img/nontarget_distractor88.jpeg"
"","html-keyboard-response","83","88918","0.0-5.0-7.0-1.0","6298b96f38f6715fdd491b2a","6298b96f38f6715fdd491b2a","63a36e1df1afd18b014794e9","63a38a163462c61a40de3288","rsvp1-task","true","0","","","","","null","<span></span>","null","iti","","","","","","","","","","","","","","",""
"","html-keyboard-response","84","89034","0.0-5.0-7.0-0.1","6298b96f38f6715fdd491b2a","6298b96f38f6715fdd491b2a","63a36e1df1afd18b014794e9","63a38a163462c61a40de3288","rsvp1-task","true","0","","","","","null","
					<div style='width: 900px;'>
					<div style='float: center;'><img src=img/nontarget_distractor218.jpeg  ></img>
					</div>
					","null","rsvp1","practice0","","","","","","","","","2","","","","","img/nontarget_distractor218.jpeg"
"","html-keyboard-response","85","89049","0.0-5.0-7.0-1.1","6298b96f38f6715fdd491b2a","6298b96f38f6715fdd491b2a","63a36e1df1afd18b014794e9","63a38a163462c61a40de3288","rsvp1-task","true","0","","","","","null","<span></span>","null","iti","","","","","","","","","","","","","","",""
"","html-keyboard-response","86","89164","0.0-5.0-7.0-0.2","6298b96f38f6715fdd491b2a","6298b96f38f6715fdd491b2a","63a36e1df1afd18b014794e9","63a38a163462c61a40de3288","rsvp1-task","true","0","","","","","null","
					<div style='width: 900px;'>
					<div style='float: center;'><img src=img/nontarget_distractor177.jpeg  ></img>
					</div>
					","null","rsvp1","practice0","","","","","","","","","2","","","","","img/nontarget_distractor177.jpeg"
"","html-keyboard-response","87","89180","0.0-5.0-7.0-1.2","6298b96f38f6715fdd491b2a","6298b96f38f6715fdd491b2a","63a36e1df1afd18b014794e9","63a38a163462c61a40de3288","rsvp1-task","true","0","","","","","null","<span></span>","null","iti","","","","","","","","","","","","","","",""
"","html-keyboard-response","88","89288","0.0-5.0-7.0-0.3","6298b96f38f6715fdd491b2a","6298b96f38f6715fdd491b2a","63a36e1df1afd18b014794e9","63a38a163462c61a40de3288","rsvp1-task","true","0","","","","","null","
					<div style='width: 900px;'>
					<div style='float: center;'><img src=img/nontarget_distractor31.jpeg  ></img>
					</div>
					","null","rsvp1","practice0","","","","","","","","","2","","","","","img/nontarget_distractor31.jpeg"
"","html-keyboard-response","89","89304","0.0-5.0-7.0-1.3","6298b96f38f6715fdd491b2a","6298b96f38f6715fdd491b2a","63a36e1df1afd18b014794e9","63a38a163462c61a40de3288","rsvp1-task","true","0","","","","","null","<span></span>","null","iti","","","","","","","","","","","","","","",""
"","html-keyboard-response","90","89417","0.0-5.0-7.0-0.4","6298b96f38f6715fdd491b2a","6298b96f38f6715fdd491b2a","63a36e1df1afd18b014794e9","63a38a163462c61a40de3288","rsvp1-task","true","0","","","","","null","
					<div style='width: 900px;'>
					<div style='float: center;'><img src=img/nontarget_distractor130.jpeg  ></img>
					</div>
					","null","rsvp1","practice0","","","","","","","","","2","","","","","img/nontarget_distractor130.jpeg"
"","html-keyboard-response","91","89431","0.0-5.0-7.0-1.4","6298b96f38f6715fdd491b2a","6298b96f38f6715fdd491b2a","63a36e1df1afd18b014794e9","63a38a163462c61a40de3288","rsvp1-task","true","0","","","","","null","<span></span>","null","iti","","","","","","","","","","","","","","",""
"","html-keyboard-response","92","89542","0.0-5.0-7.0-0.5","6298b96f38f6715fdd491b2a","6298b96f38f6715fdd491b2a","63a36e1df1afd18b014794e9","63a38a163462c61a40de3288","rsvp1-task","true","0","","","","","null","
					<div style='width: 900px;'>
					<div style='float: center;'><img src=img/nontarget_distractor182.jpeg  ></img>
					</div>
					","null","rsvp1","practice0","","","","","","","","","2","","","","","img/nontarget_distractor182.jpeg"
"","html-keyboard-response","93","89560","0.0-5.0-7.0-1.5","6298b96f38f6715fdd491b2a","6298b96f38f6715fdd491b2a","63a36e1df1afd18b014794e9","63a38a163462c61a40de3288","rsvp1-task","true","0","","","","","null","<span></span>","null","iti","","","","","","","","","","","","","","",""
"","html-keyboard-response","94","89663","0.0-5.0-7.0-0.6","6298b96f38f6715fdd491b2a","6298b96f38f6715fdd491b2a","63a36e1df1afd18b014794e9","63a38a163462c61a40de3288","rsvp1-task","true","0","","","","","null","
					<div style='width: 900px;'>
					<div style='float: center;'><img src=img/nontarget_distractor9.jpeg  ></img>
					</div>
					","null","rsvp1","practice0","","","","","","","","","2","","","","","img/nontarget_distractor9.jpeg"
"","html-keyboard-response","95","89680","0.0-5.0-7.0-1.6","6298b96f38f6715fdd491b2a","6298b96f38f6715fdd491b2a","63a36e1df1afd18b014794e9","63a38a163462c61a40de3288","rsvp1-task","true","0","","","","","null","<span></span>","null","iti","","","","","","","","","","","","","","",""
"","html-keyboard-response","96","89793","0.0-5.0-7.0-0.7","6298b96f38f6715fdd491b2a","6298b96f38f6715fdd491b2a","63a36e1df1afd18b014794e9","63a38a163462c61a40de3288","rsvp1-task","true","0","","","","","null","
					<div style='width: 900px;'>
					<div style='float: center;'><img src=img/nontarget_distractor117.jpeg  ></img>
					</div>
					","null","rsvp1","practice0","","","","","","","","","2","","","","","img/nontarget_distractor117.jpeg"
"","html-keyboard-response","97","89811","0.0-5.0-7.0-1.7","6298b96f38f6715fdd491b2a","6298b96f38f6715fdd491b2a","63a36e1df1afd18b014794e9","63a38a163462c61a40de3288","rsvp1-task","true","0","","","","","null","<span></span>","null","iti","","","","","","","","","","","","","","",""
"","html-keyboard-response","98","89922","0.0-5.0-7.0-0.8","6298b96f38f6715fdd491b2a","6298b96f38f6715fdd491b2a","63a36e1df1afd18b014794e9","63a38a163462c61a40de3288","rsvp1-task","true","0","","","","","null","
					<div style='width: 900px;'>
					<div style='float: center;'><img src=img/nontarget_distractor37.jpeg  ></img>
					</div>
					","null","rsvp1","practice0","","","","","","","","","2","","","","","img/nontarget_distractor37.jpeg"
"","html-keyboard-response","99","89934","0.0-5.0-7.0-1.8","6298b96f38f6715fdd491b2a","6298b96f38f6715fdd491b2a","63a36e1df1afd18b014794e9","63a38a163462c61a40de3288","rsvp1-task","true","0","","","","","null","<span></span>","null","iti","","","","","","","","","","","","","","",""
"","html-keyboard-response","100","90039","0.0-5.0-7.0-0.9","6298b96f38f6715fdd491b2a","6298b96f38f6715fdd491b2a","63a36e1df1afd18b014794e9","63a38a163462c61a40de3288","rsvp1-task","true","0","","","","","null","
					<div style='width: 900px;'>
					<div style='float: center;'><img src=img/nontarget_distractor57.jpeg  ></img>
					</div>
					","null","rsvp1","practice0","","","","","","","","","2","","","","","img/nontarget_distractor57.jpeg"
"","html-keyboard-response","101","90055","0.0-5.0-7.0-1.9","6298b96f38f6715fdd491b2a","6298b96f38f6715fdd491b2a","63a36e1df1afd18b014794e9","63a38a163462c61a40de3288","rsvp1-task","true","0","","","","","null","<span></span>","null","iti","","","","","","","","","","","","","","",""
"","html-keyboard-response","102","90163","0.0-5.0-7.0-0.10","6298b96f38f6715fdd491b2a","6298b96f38f6715fdd491b2a","63a36e1df1afd18b014794e9","63a38a163462c61a40de3288","rsvp1-task","true","0","","","","","null","
					<div style='width: 900px;'>
					<div style='float: center;'><img src=img/nontarget_distractor103.jpeg  ></img>
					</div>
					","null","rsvp1","practice0","","","","","","","","","2","","","","","img/nontarget_distractor103.jpeg"
"","html-keyboard-response","103","90177","0.0-5.0-7.0-1.10","6298b96f38f6715fdd491b2a","6298b96f38f6715fdd491b2a","63a36e1df1afd18b014794e9","63a38a163462c61a40de3288","rsvp1-task","true","0","","","","","null","<span></span>","null","iti","","","","","","","","","","","","","","",""
"","html-keyboard-response","104","90293","0.0-5.0-7.0-0.11","6298b96f38f6715fdd491b2a","6298b96f38f6715fdd491b2a","63a36e1df1afd18b014794e9","63a38a163462c61a40de3288","rsvp1-task","true","0","","","","","null","
					<div style='width: 900px;'>
					<div style='float: center;'><img src=img/nontarget_distractor120.jpeg  ></img>
					</div>
					","null","rsvp1","practice0","","","","","","","","","2","","","","","img/nontarget_distractor120.jpeg"
"","html-keyboard-response","105","90311","0.0-5.0-7.0-1.11","6298b96f38f6715fdd491b2a","6298b96f38f6715fdd491b2a","63a36e1df1afd18b014794e9","63a38a163462c61a40de3288","rsvp1-task","true","0","","","","","null","<span></span>","null","iti","","","","","","","","","","","","","","",""
"","html-keyboard-response","106","90421","0.0-5.0-7.0-0.12","6298b96f38f6715fdd491b2a","6298b96f38f6715fdd491b2a","63a36e1df1afd18b014794e9","63a38a163462c61a40de3288","rsvp1-task","true","0","","","","","null","
					<div style='width: 900px;'>
					<div style='float: center;'><img src=img/nontarget_distractor210.jpeg  ></img>
					</div>
					","null","rsvp1","practice0","","","","","","","","","2","","","","","img/nontarget_distractor210.jpeg"
"","html-keyboard-response","107","90439","0.0-5.0-7.0-1.12","6298b96f38f6715fdd491b2a","6298b96f38f6715fdd491b2a","63a36e1df1afd18b014794e9","63a38a163462c61a40de3288","rsvp1-task","true","0","","","","","null","<span></span>","null","iti","","","","","","","","","","","","","","",""
"","html-keyboard-response","108","90550","0.0-5.0-7.0-0.13","6298b96f38f6715fdd491b2a","6298b96f38f6715fdd491b2a","63a36e1df1afd18b014794e9","63a38a163462c61a40de3288","rsvp1-task","true","0","","","","","null","
					<div style='width: 900px;'>
					<div style='float: center;'><img src=img/t2_targets129.jpeg class=""rotateimgL""  ></img>
					</div>
					","null","rsvp1","practice0","","","","","","","","","2","","","","","img/t2_targets129.jpeg class=""rotateimgL"""
"","html-keyboard-response","109","90567","0.0-5.0-7.0-1.13","6298b96f38f6715fdd491b2a","6298b96f38f6715fdd491b2a","63a36e1df1afd18b014794e9","63a38a163462c61a40de3288","rsvp1-task","true","0","","","","","null","<span></span>","null","iti","","","","","","","","","","","","","","",""
"","html-keyboard-response","110","90676","0.0-5.0-7.0-0.14","6298b96f38f6715fdd491b2a","6298b96f38f6715fdd491b2a","63a36e1df1afd18b014794e9","63a38a163462c61a40de3288","rsvp1-task","true","0","","","","","null","
					<div style='width: 900px;'>
					<div style='float: center;'><img src=img/nontarget_distractor36.jpeg  ></img>
					</div>
					","null","rsvp1","practice0","","","","","","","","","2","","","","","img/nontarget_distractor36.jpeg"
"","html-keyboard-response","111","90693","0.0-5.0-7.0-1.14","6298b96f38f6715fdd491b2a","6298b96f38f6715fdd491b2a","63a36e1df1afd18b014794e9","63a38a163462c61a40de3288","rsvp1-task","true","0","","","","","null","<span></span>","null","iti","","","","","","","","","","","","","","",""
"","html-keyboard-response","112","90806","0.0-5.0-7.0-0.15","6298b96f38f6715fdd491b2a","6298b96f38f6715fdd491b2a","63a36e1df1afd18b014794e9","63a38a163462c61a40de3288","rsvp1-task","true","0","","","","","null","
					<div style='width: 900px;'>
					<div style='float: center;'><img src=img/nontarget_distractor142.jpeg  ></img>
					</div>
					","null","rsvp1","practice0","","","","","","","","","2","","","","","img/nontarget_distractor142.jpeg"
"","html-keyboard-response","113","90822","0.0-5.0-7.0-1.15","6298b96f38f6715fdd491b2a","6298b96f38f6715fdd491b2a","63a36e1df1afd18b014794e9","63a38a163462c61a40de3288","rsvp1-task","true","0","","","","","null","<span></span>","null","iti","","","","","","","","","","","","","","",""
"","html-keyboard-response","114","90930","0.0-5.0-7.0-0.16","6298b96f38f6715fdd491b2a","6298b96f38f6715fdd491b2a","63a36e1df1afd18b014794e9","63a38a163462c61a40de3288","rsvp1-task","true","0","","","","","null","
					<div style='width: 900px;'>
					<div style='float: center;'><img src=img/nontarget_distractor75.jpeg  ></img>
					</div>
					","null","rsvp1","practice0","","","","","","","","","2","","","","","img/nontarget_distractor75.jpeg"
"","html-keyboard-response","115","90945","0.0-5.0-7.0-1.16","6298b96f38f6715fdd491b2a","6298b96f38f6715fdd491b2a","63a36e1df1afd18b014794e9","63a38a163462c61a40de3288","rsvp1-task","true","0","","","","","null","<span></span>","null","iti","","","","","","","","","","","","","","",""
"","html-keyboard-response","116","92244","0.0-5.0-8.0-0.0","6298b96f38f6715fdd491b2a","6298b96f38f6715fdd491b2a","63a36e1df1afd18b014794e9","63a38a163462c61a40de3288","rsvp1-task","true","0","","","","","1296","<div class=""rsvp""> Was the rotated image rotated left (1 key) or right (0 key)?</div>","0","response","practice0","1","1","neutral","img/nontarget_distractor117.jpeg","img/nontarget_distractor36.jpeg","8","6","14","2","false","false","false","",""
"","html-keyboard-response","117","93247","0.0-5.0-9.0","6298b96f38f6715fdd491b2a","6298b96f38f6715fdd491b2a","63a36e1df1afd18b014794e9","63a38a163462c61a40de3288","rsvp1-task","true","0","","","","","null","Wrong. </p> <p>  </p><p> ","null","","","","","","","","","","","","","","","main_T1_ITI",""
"","html-keyboard-response","118","95252","0.0-5.0-10.0","6298b96f38f6715fdd491b2a","6298b96f38f6715fdd491b2a","63a36e1df1afd18b014794e9","63a38a163462c61a40de3288","rsvp1-task","true","0","","","","","null","<div class=""rsvp"">+</div>","null","fixation","","","","","","","","","","","","","","",""
"","html-keyboard-response","119","95509","0.0-5.0-11.0","6298b96f38f6715fdd491b2a","6298b96f38f6715fdd491b2a","63a36e1df1afd18b014794e9","63a38a163462c61a40de3288","rsvp1-task","true","0","","","","","null","<div class=""rsvp"" ></div>","null","blank","","","","","","","","","","","","","","",""
"","html-keyboard-response","120","95617","0.0-5.0-12.0-0.0","6298b96f38f6715fdd491b2a","6298b96f38f6715fdd491b2a","63a36e1df1afd18b014794e9","63a38a163462c61a40de3288","rsvp1-task","true","0","","","","","null","
					<div style='width: 900px;'>
					<div style='float: center;'><img src=img/nontarget_distractor160.jpeg  ></img>
					</div>
					","null","rsvp1","practice0","","","","","","","","","3","","","","","img/nontarget_distractor160.jpeg"
"","html-keyboard-response","121","95630","0.0-5.0-12.0-1.0","6298b96f38f6715fdd491b2a","6298b96f38f6715fdd491b2a","63a36e1df1afd18b014794e9","63a38a163462c61a40de3288","rsvp1-task","true","0","","","","","null","<span></span>","null","iti","","","","","","","","","","","","","","",""
"","html-keyboard-response","122","95739","0.0-5.0-12.0-0.1","6298b96f38f6715fdd491b2a","6298b96f38f6715fdd491b2a","63a36e1df1afd18b014794e9","63a38a163462c61a40de3288","rsvp1-task","true","0","","","","","null","
					<div style='width: 900px;'>
					<div style='float: center;'><img src=img/nontarget_distractor79.jpeg  ></img>
					</div>
					","null","rsvp1","practice0","","","","","","","","","3","","","","","img/nontarget_distractor79.jpeg"
"","html-keyboard-response","123","95755","0.0-5.0-12.0-1.1","6298b96f38f6715fdd491b2a","6298b96f38f6715fdd491b2a","63a36e1df1afd18b014794e9","63a38a163462c61a40de3288","rsvp1-task","true","0","","","","","null","<span></span>","null","iti","","","","","","","","","","","","","","",""
"","html-keyboard-response","124","95865","0.0-5.0-12.0-0.2","6298b96f38f6715fdd491b2a","6298b96f38f6715fdd491b2a","63a36e1df1afd18b014794e9","63a38a163462c61a40de3288","rsvp1-task","true","0","","","","","null","
					<div style='width: 900px;'>
					<div style='float: center;'><img src=img/nontarget_distractor176.jpeg  ></img>
					</div>
					","null","rsvp1","practice0","","","","","","","","","3","","","","","img/nontarget_distractor176.jpeg"
"","html-keyboard-response","125","95881","0.0-5.0-12.0-1.2","6298b96f38f6715fdd491b2a","6298b96f38f6715fdd491b2a","63a36e1df1afd18b014794e9","63a38a163462c61a40de3288","rsvp1-task","true","0","","","","","null","<span></span>","null","iti","","","","","","","","","","","","","","",""
"","html-keyboard-response","126","95989","0.0-5.0-12.0-0.3","6298b96f38f6715fdd491b2a","6298b96f38f6715fdd491b2a","63a36e1df1afd18b014794e9","63a38a163462c61a40de3288","rsvp1-task","true","0","","","","","null","
					<div style='width: 900px;'>
					<div style='float: center;'><img src=img/nontarget_distractor133.jpeg  ></img>
					</div>
					","null","rsvp1","practice0","","","","","","","","","3","","","","","img/nontarget_distractor133.jpeg"
"","html-keyboard-response","127","96005","0.0-5.0-12.0-1.3","6298b96f38f6715fdd491b2a","6298b96f38f6715fdd491b2a","63a36e1df1afd18b014794e9","63a38a163462c61a40de3288","rsvp1-task","true","0","","","","","null","<span></span>","null","iti","","","","","","","","","","","","","","",""
"","html-keyboard-response","128","96113","0.0-5.0-12.0-0.4","6298b96f38f6715fdd491b2a","6298b96f38f6715fdd491b2a","63a36e1df1afd18b014794e9","63a38a163462c61a40de3288","rsvp1-task","true","0","","","","","null","
					<div style='width: 900px;'>
					<div style='float: center;'><img src=img/nontarget_distractor82.jpeg  ></img>
					</div>
					","null","rsvp1","practice0","","","","","","","","","3","","","","","img/nontarget_distractor82.jpeg"
"","html-keyboard-response","129","96128","0.0-5.0-12.0-1.4","6298b96f38f6715fdd491b2a","6298b96f38f6715fdd491b2a","63a36e1df1afd18b014794e9","63a38a163462c61a40de3288","rsvp1-task","true","0","","","","","null","<span></span>","null","iti","","","","","","","","","","","","","","",""
"","html-keyboard-response","130","96236","0.0-5.0-12.0-0.5","6298b96f38f6715fdd491b2a","6298b96f38f6715fdd491b2a","63a36e1df1afd18b014794e9","63a38a163462c61a40de3288","rsvp1-task","true","0","","","","","null","
					<div style='width: 900px;'>
					<div style='float: center;'><img src=img/nontarget_distractor34.jpeg  ></img>
					</div>
					","null","rsvp1","practice0","","","","","","","","","3","","","","","img/nontarget_distractor34.jpeg"
"","html-keyboard-response","131","96250","0.0-5.0-12.0-1.5","6298b96f38f6715fdd491b2a","6298b96f38f6715fdd491b2a","63a36e1df1afd18b014794e9","63a38a163462c61a40de3288","rsvp1-task","true","0","","","","","null","<span></span>","null","iti","","","","","","","","","","","","","","",""
"","html-keyboard-response","132","96355","0.0-5.0-12.0-0.6","6298b96f38f6715fdd491b2a","6298b96f38f6715fdd491b2a","63a36e1df1afd18b014794e9","63a38a163462c61a40de3288","rsvp1-task","true","0","","","","","null","
					<div style='width: 900px;'>
					<div style='float: center;'><img src=img/nontarget_distractor166.jpeg  ></img>
					</div>
					","null","rsvp1","practice0","","","","","","","","","3","","","","","img/nontarget_distractor166.jpeg"
"","html-keyboard-response","133","96371","0.0-5.0-12.0-1.6","6298b96f38f6715fdd491b2a","6298b96f38f6715fdd491b2a","63a36e1df1afd18b014794e9","63a38a163462c61a40de3288","rsvp1-task","true","0","","","","","null","<span></span>","null","iti","","","","","","","","","","","","","","",""
"","html-keyboard-response","134","96482","0.0-5.0-12.0-0.7","6298b96f38f6715fdd491b2a","6298b96f38f6715fdd491b2a","63a36e1df1afd18b014794e9","63a38a163462c61a40de3288","rsvp1-task","true","0","","","","","null","
					<div style='width: 900px;'>
					<div style='float: center;'><img src=img/nontarget_distractor48.jpeg  ></img>
					</div>
					","null","rsvp1","practice0","","","","","","","","","3","","","","","img/nontarget_distractor48.jpeg"
"","html-keyboard-response","135","96496","0.0-5.0-12.0-1.7","6298b96f38f6715fdd491b2a","6298b96f38f6715fdd491b2a","63a36e1df1afd18b014794e9","63a38a163462c61a40de3288","rsvp1-task","true","0","","","","","null","<span></span>","null","iti","","","","","","","","","","","","","","",""
"","html-keyboard-response","136","96600","0.0-5.0-12.0-0.8","6298b96f38f6715fdd491b2a","6298b96f38f6715fdd491b2a","63a36e1df1afd18b014794e9","63a38a163462c61a40de3288","rsvp1-task","true","0","","","","","null","
					<div style='width: 900px;'>
					<div style='float: center;'><img src=img/nontarget_distractor196.jpeg  ></img>
					</div>
					","null","rsvp1","practice0","","","","","","","","","3","","","","","img/nontarget_distractor196.jpeg"
"","html-keyboard-response","137","96617","0.0-5.0-12.0-1.8","6298b96f38f6715fdd491b2a","6298b96f38f6715fdd491b2a","63a36e1df1afd18b014794e9","63a38a163462c61a40de3288","rsvp1-task","true","0","","","","","null","<span></span>","null","iti","","","","","","","","","","","","","","",""
"","html-keyboard-response","138","96726","0.0-5.0-12.0-0.9","6298b96f38f6715fdd491b2a","6298b96f38f6715fdd491b2a","63a36e1df1afd18b014794e9","63a38a163462c61a40de3288","rsvp1-task","true","0","","","","","null","
					<div style='width: 900px;'>
					<div style='float: center;'><img src=img/t2_targets82.jpeg class=""rotateimgL""  ></img>
					</div>
					","null","rsvp1","practice0","","","","","","","","","3","","","","","img/t2_targets82.jpeg class=""rotateimgL"""
"","html-keyboard-response","139","96743","0.0-5.0-12.0-1.9","6298b96f38f6715fdd491b2a","6298b96f38f6715fdd491b2a","63a36e1df1afd18b014794e9","63a38a163462c61a40de3288","rsvp1-task","true","0","","","","","null","<span></span>","null","iti","","","","","","","","","","","","","","",""
"","html-keyboard-response","140","96851","0.0-5.0-12.0-0.10","6298b96f38f6715fdd491b2a","6298b96f38f6715fdd491b2a","63a36e1df1afd18b014794e9","63a38a163462c61a40de3288","rsvp1-task","true","0","","","","","null","
					<div style='width: 900px;'>
					<div style='float: center;'><img src=img/nontarget_distractor41.jpeg  ></img>
					</div>
					","null","rsvp1","practice0","","","","","","","","","3","","","","","img/nontarget_distractor41.jpeg"
"","html-keyboard-response","141","96863","0.0-5.0-12.0-1.10","6298b96f38f6715fdd491b2a","6298b96f38f6715fdd491b2a","63a36e1df1afd18b014794e9","63a38a163462c61a40de3288","rsvp1-task","true","0","","","","","null","<span></span>","null","iti","","","","","","","","","","","","","","",""
"","html-keyboard-response","142","96977","0.0-5.0-12.0-0.11","6298b96f38f6715fdd491b2a","6298b96f38f6715fdd491b2a","63a36e1df1afd18b014794e9","63a38a163462c61a40de3288","rsvp1-task","true","0","","","","","null","
					<div style='width: 900px;'>
					<div style='float: center;'><img src=img/nontarget_distractor183.jpeg  ></img>
					</div>
					","null","rsvp1","practice0","","","","","","","","","3","","","","","img/nontarget_distractor183.jpeg"
"","html-keyboard-response","143","96994","0.0-5.0-12.0-1.11","6298b96f38f6715fdd491b2a","6298b96f38f6715fdd491b2a","63a36e1df1afd18b014794e9","63a38a163462c61a40de3288","rsvp1-task","true","0","","","","","null","<span></span>","null","iti","","","","","","","","","","","","","","",""
"","html-keyboard-response","144","97095","0.0-5.0-12.0-0.12","6298b96f38f6715fdd491b2a","6298b96f38f6715fdd491b2a","63a36e1df1afd18b014794e9","63a38a163462c61a40de3288","rsvp1-task","true","0","","","","","null","
					<div style='width: 900px;'>
					<div style='float: center;'><img src=img/nontarget_distractor192.jpeg  ></img>
					</div>
					","null","rsvp1","practice0","","","","","","","","","3","","","","","img/nontarget_distractor192.jpeg"
"","html-keyboard-response","145","97111","0.0-5.0-12.0-1.12","6298b96f38f6715fdd491b2a","6298b96f38f6715fdd491b2a","63a36e1df1afd18b014794e9","63a38a163462c61a40de3288","rsvp1-task","true","0","","","","","null","<span></span>","null","iti","","","","","","","","","","","","","","",""
"","html-keyboard-response","146","97214","0.0-5.0-12.0-0.13","6298b96f38f6715fdd491b2a","6298b96f38f6715fdd491b2a","63a36e1df1afd18b014794e9","63a38a163462c61a40de3288","rsvp1-task","true","0","","","","","null","
					<div style='width: 900px;'>
					<div style='float: center;'><img src=img/nontarget_distractor250.jpeg  ></img>
					</div>
					","null","rsvp1","practice0","","","","","","","","","3","","","","","img/nontarget_distractor250.jpeg"
"","html-keyboard-response","147","97228","0.0-5.0-12.0-1.13","6298b96f38f6715fdd491b2a","6298b96f38f6715fdd491b2a","63a36e1df1afd18b014794e9","63a38a163462c61a40de3288","rsvp1-task","true","0","","","","","null","<span></span>","null","iti","","","","","","","","","","","","","","",""
"","html-keyboard-response","148","97343","0.0-5.0-12.0-0.14","6298b96f38f6715fdd491b2a","6298b96f38f6715fdd491b2a","63a36e1df1afd18b014794e9","63a38a163462c61a40de3288","rsvp1-task","true","0","","","","","null","
					<div style='width: 900px;'>
					<div style='float: center;'><img src=img/nontarget_distractor74.jpeg  ></img>
					</div>
					","null","rsvp1","practice0","","","","","","","","","3","","","","","img/nontarget_distractor74.jpeg"
"","html-keyboard-response","149","97358","0.0-5.0-12.0-1.14","6298b96f38f6715fdd491b2a","6298b96f38f6715fdd491b2a","63a36e1df1afd18b014794e9","63a38a163462c61a40de3288","rsvp1-task","true","0","","","","","null","<span></span>","null","iti","","","","","","","","","","","","","","",""
"","html-keyboard-response","150","97464","0.0-5.0-12.0-0.15","6298b96f38f6715fdd491b2a","6298b96f38f6715fdd491b2a","63a36e1df1afd18b014794e9","63a38a163462c61a40de3288","rsvp1-task","true","0","","","","","null","
					<div style='width: 900px;'>
					<div style='float: center;'><img src=img/nontarget_distractor50.jpeg  ></img>
					</div>
					","null","rsvp1","practice0","","","","","","","","","3","","","","","img/nontarget_distractor50.jpeg"
"","html-keyboard-response","151","97478","0.0-5.0-12.0-1.15","6298b96f38f6715fdd491b2a","6298b96f38f6715fdd491b2a","63a36e1df1afd18b014794e9","63a38a163462c61a40de3288","rsvp1-task","true","0","","","","","null","<span></span>","null","iti","","","","","","","","","","","","","","",""
"","html-keyboard-response","152","97592","0.0-5.0-12.0-0.16","6298b96f38f6715fdd491b2a","6298b96f38f6715fdd491b2a","63a36e1df1afd18b014794e9","63a38a163462c61a40de3288","rsvp1-task","true","0","","","","","null","
					<div style='width: 900px;'>
					<div style='float: center;'><img src=img/nontarget_distractor238.jpeg  ></img>
					</div>
					","null","rsvp1","practice0","","","","","","","","","3","","","","","img/nontarget_distractor238.jpeg"
"","html-keyboard-response","153","97608","0.0-5.0-12.0-1.16","6298b96f38f6715fdd491b2a","6298b96f38f6715fdd491b2a","63a36e1df1afd18b014794e9","63a38a163462c61a40de3288","rsvp1-task","true","0","","","","","null","<span></span>","null","iti","","","","","","","","","","","","","","",""
"","html-keyboard-response","154","98250","0.0-5.0-13.0-0.0","6298b96f38f6715fdd491b2a","6298b96f38f6715fdd491b2a","63a36e1df1afd18b014794e9","63a38a163462c61a40de3288","rsvp1-task","true","0","","","","","642","<div class=""rsvp""> Was the rotated image rotated left (1 key) or right (0 key)?</div>","1","response","practice0","1","1","neutral","img/nontarget_distractor48.jpeg","img/nontarget_distractor41.jpeg","8","2","10","3","true","true","true","",""
"","html-keyboard-response","155","99256","0.0-5.0-14.0","6298b96f38f6715fdd491b2a","6298b96f38f6715fdd491b2a","63a36e1df1afd18b014794e9","63a38a163462c61a40de3288","rsvp1-task","true","0","","","","","null","Correct! </p> <p>  </p><p> ","null","","","","","","","","","","","","","","","main_T1_ITI",""
"","html-keyboard-response","156","101260","0.0-5.0-15.0","6298b96f38f6715fdd491b2a","6298b96f38f6715fdd491b2a","63a36e1df1afd18b014794e9","63a38a163462c61a40de3288","rsvp1-task","true","0","","","","","null","<div class=""rsvp"">+</div>","null","fixation","","","","","","","","","","","","","","",""
"","html-keyboard-response","157","101526","0.0-5.0-16.0","6298b96f38f6715fdd491b2a","6298b96f38f6715fdd491b2a","63a36e1df1afd18b014794e9","63a38a163462c61a40de3288","rsvp1-task","true","0","","","","","null","<div class=""rsvp"" ></div>","null","blank","","","","","","","","","","","","","","",""
"","html-keyboard-response","158","101639","0.0-5.0-17.0-0.0","6298b96f38f6715fdd491b2a","6298b96f38f6715fdd491b2a","63a36e1df1afd18b014794e9","63a38a163462c61a40de3288","rsvp1-task","true","0","","","","","null","
					<div style='width: 900px;'>
					<div style='float: center;'><img src=img/nontarget_distractor217.jpeg  ></img>
					</div>
					","null","rsvp1","practice0","","","","","","","","","4","","","","","img/nontarget_distractor217.jpeg"
"","html-keyboard-response","159","101655","0.0-5.0-17.0-1.0","6298b96f38f6715fdd491b2a","6298b96f38f6715fdd491b2a","63a36e1df1afd18b014794e9","63a38a163462c61a40de3288","rsvp1-task","true","0","","","","","null","<span></span>","null","iti","","","","","","","","","","","","","","",""
"","html-keyboard-response","160","101764","0.0-5.0-17.0-0.1","6298b96f38f6715fdd491b2a","6298b96f38f6715fdd491b2a","63a36e1df1afd18b014794e9","63a38a163462c61a40de3288","rsvp1-task","true","0","","","","","null","
					<div style='width: 900px;'>
					<div style='float: center;'><img src=img/nontarget_distractor234.jpeg  ></img>
					</div>
					","null","rsvp1","practice0","","","","","","","","","4","","","","","img/nontarget_distractor234.jpeg"
"","html-keyboard-response","161","101779","0.0-5.0-17.0-1.1","6298b96f38f6715fdd491b2a","6298b96f38f6715fdd491b2a","63a36e1df1afd18b014794e9","63a38a163462c61a40de3288","rsvp1-task","true","0","","","","","null","<span></span>","null","iti","","","","","","","","","","","","","","",""
"","html-keyboard-response","162","101888","0.0-5.0-17.0-0.2","6298b96f38f6715fdd491b2a","6298b96f38f6715fdd491b2a","63a36e1df1afd18b014794e9","63a38a163462c61a40de3288","rsvp1-task","true","0","","","","","null","
					<div style='width: 900px;'>
					<div style='float: center;'><img src=img/nontarget_distractor20.jpeg  ></img>
					</div>
					","null","rsvp1","practice0","","","","","","","","","4","","","","","img/nontarget_distractor20.jpeg"
"","html-keyboard-response","163","101906","0.0-5.0-17.0-1.2","6298b96f38f6715fdd491b2a","6298b96f38f6715fdd491b2a","63a36e1df1afd18b014794e9","63a38a163462c61a40de3288","rsvp1-task","true","0","","","","","null","<span></span>","null","iti","","","","","","","","","","","","","","",""
"","html-keyboard-response","164","102011","0.0-5.0-17.0-0.3","6298b96f38f6715fdd491b2a","6298b96f38f6715fdd491b2a","63a36e1df1afd18b014794e9","63a38a163462c61a40de3288","rsvp1-task","true","0","","","","","null","
					<div style='width: 900px;'>
					<div style='float: center;'><img src=img/nontarget_distractor123.jpeg  ></img>
					</div>
					","null","rsvp1","practice0","","","","","","","","","4","","","","","img/nontarget_distractor123.jpeg"
"","html-keyboard-response","165","102028","0.0-5.0-17.0-1.3","6298b96f38f6715fdd491b2a","6298b96f38f6715fdd491b2a","63a36e1df1afd18b014794e9","63a38a163462c61a40de3288","rsvp1-task","true","0","","","","","null","<span></span>","null","iti","","","","","","","","","","","","","","",""
"","html-keyboard-response","166","102139","0.0-5.0-17.0-0.4","6298b96f38f6715fdd491b2a","6298b96f38f6715fdd491b2a","63a36e1df1afd18b014794e9","63a38a163462c61a40de3288","rsvp1-task","true","0","","","","","null","
					<div style='width: 900px;'>
					<div style='float: center;'><img src=img/nontarget_distractor73.jpeg  ></img>
					</div>
					","null","rsvp1","practice0","","","","","","","","","4","","","","","img/nontarget_distractor73.jpeg"
"","html-keyboard-response","167","102156","0.0-5.0-17.0-1.4","6298b96f38f6715fdd491b2a","6298b96f38f6715fdd491b2a","63a36e1df1afd18b014794e9","63a38a163462c61a40de3288","rsvp1-task","true","0","","","","","null","<span></span>","null","iti","","","","","","","","","","","","","","",""
"","html-keyboard-response","168","102269","0.0-5.0-17.0-0.5","6298b96f38f6715fdd491b2a","6298b96f38f6715fdd491b2a","63a36e1df1afd18b014794e9","63a38a163462c61a40de3288","rsvp1-task","true","0","","","","","null","
					<div style='width: 900px;'>
					<div style='float: center;'><img src=img/nontarget_distractor244.jpeg  ></img>
					</div>
					","null","rsvp1","practice0","","","","","","","","","4","","","","","img/nontarget_distractor244.jpeg"
"","html-keyboard-response","169","102281","0.0-5.0-17.0-1.5","6298b96f38f6715fdd491b2a","6298b96f38f6715fdd491b2a","63a36e1df1afd18b014794e9","63a38a163462c61a40de3288","rsvp1-task","true","0","","","","","null","<span></span>","null","iti","","","","","","","","","","","","","","",""
"","html-keyboard-response","170","102392","0.0-5.0-17.0-0.6","6298b96f38f6715fdd491b2a","6298b96f38f6715fdd491b2a","63a36e1df1afd18b014794e9","63a38a163462c61a40de3288","rsvp1-task","true","0","","","","","null","
					<div style='width: 900px;'>
					<div style='float: center;'><img src=img/nontarget_distractor80.jpeg  ></img>
					</div>
					","null","rsvp1","practice0","","","","","","","","","4","","","","","img/nontarget_distractor80.jpeg"
"","html-keyboard-response","171","102408","0.0-5.0-17.0-1.6","6298b96f38f6715fdd491b2a","6298b96f38f6715fdd491b2a","63a36e1df1afd18b014794e9","63a38a163462c61a40de3288","rsvp1-task","true","0","","","","","null","<span></span>","null","iti","","","","","","","","","","","","","","",""
"","html-keyboard-response","172","102514","0.0-5.0-17.0-0.7","6298b96f38f6715fdd491b2a","6298b96f38f6715fdd491b2a","63a36e1df1afd18b014794e9","63a38a163462c61a40de3288","rsvp1-task","true","0","","","","","null","
					<div style='width: 900px;'>
					<div style='float: center;'><img src=img/nontarget_distractor122.jpeg  ></img>
					</div>
					","null","rsvp1","practice0","","","","","","","","","4","","","","","img/nontarget_distractor122.jpeg"
"","html-keyboard-response","173","102527","0.0-5.0-17.0-1.7","6298b96f38f6715fdd491b2a","6298b96f38f6715fdd491b2a","63a36e1df1afd18b014794e9","63a38a163462c61a40de3288","rsvp1-task","true","0","","","","","null","<span></span>","null","iti","","","","","","","","","","","","","","",""
"","html-keyboard-response","174","102632","0.0-5.0-17.0-0.8","6298b96f38f6715fdd491b2a","6298b96f38f6715fdd491b2a","63a36e1df1afd18b014794e9","63a38a163462c61a40de3288","rsvp1-task","true","0","","","","","null","
					<div style='width: 900px;'>
					<div style='float: center;'><img src=img/nontarget_distractor91.jpeg  ></img>
					</div>
					","null","rsvp1","practice0","","","","","","","","","4","","","","","img/nontarget_distractor91.jpeg"
"","html-keyboard-response","175","102647","0.0-5.0-17.0-1.8","6298b96f38f6715fdd491b2a","6298b96f38f6715fdd491b2a","63a36e1df1afd18b014794e9","63a38a163462c61a40de3288","rsvp1-task","true","0","","","","","null","<span></span>","null","iti","","","","","","","","","","","","","","",""
"","html-keyboard-response","176","102759","0.0-5.0-17.0-0.9","6298b96f38f6715fdd491b2a","6298b96f38f6715fdd491b2a","63a36e1df1afd18b014794e9","63a38a163462c61a40de3288","rsvp1-task","true","0","","","","","null","
					<div style='width: 900px;'>
					<div style='float: center;'><img src=img/nontarget_distractor110.jpeg  ></img>
					</div>
					","null","rsvp1","practice0","","","","","","","","","4","","","","","img/nontarget_distractor110.jpeg"
"","html-keyboard-response","177","102778","0.0-5.0-17.0-1.9","6298b96f38f6715fdd491b2a","6298b96f38f6715fdd491b2a","63a36e1df1afd18b014794e9","63a38a163462c61a40de3288","rsvp1-task","true","0","","","","","null","<span></span>","null","iti","","","","","","","","","","","","","","",""
"","html-keyboard-response","178","102884","0.0-5.0-17.0-0.10","6298b96f38f6715fdd491b2a","6298b96f38f6715fdd491b2a","63a36e1df1afd18b014794e9","63a38a163462c61a40de3288","rsvp1-task","true","0","","","","","null","
					<div style='width: 900px;'>
					<div style='float: center;'><img src=img/t2_targets117.jpeg class=""rotateimgR""  ></img>
					</div>
					","null","rsvp1","practice0","","","","","","","","","4","","","","","img/t2_targets117.jpeg class=""rotateimgR"""
"","html-keyboard-response","179","102899","0.0-5.0-17.0-1.10","6298b96f38f6715fdd491b2a","6298b96f38f6715fdd491b2a","63a36e1df1afd18b014794e9","63a38a163462c61a40de3288","rsvp1-task","true","0","","","","","null","<span></span>","null","iti","","","","","","","","","","","","","","",""
"","html-keyboard-response","180","103011","0.0-5.0-17.0-0.11","6298b96f38f6715fdd491b2a","6298b96f38f6715fdd491b2a","63a36e1df1afd18b014794e9","63a38a163462c61a40de3288","rsvp1-task","true","0","","","","","null","
					<div style='width: 900px;'>
					<div style='float: center;'><img src=img/nontarget_distractor141.jpeg  ></img>
					</div>
					","null","rsvp1","practice0","","","","","","","","","4","","","","","img/nontarget_distractor141.jpeg"
"","html-keyboard-response","181","103024","0.0-5.0-17.0-1.11","6298b96f38f6715fdd491b2a","6298b96f38f6715fdd491b2a","63a36e1df1afd18b014794e9","63a38a163462c61a40de3288","rsvp1-task","true","0","","","","","null","<span></span>","null","iti","","","","","","","","","","","","","","",""
"","html-keyboard-response","182","103133","0.0-5.0-17.0-0.12","6298b96f38f6715fdd491b2a","6298b96f38f6715fdd491b2a","63a36e1df1afd18b014794e9","63a38a163462c61a40de3288","rsvp1-task","true","0","","","","","null","
					<div style='width: 900px;'>
					<div style='float: center;'><img src=img/nontarget_distractor56.jpeg  ></img>
					</div>
					","null","rsvp1","practice0","","","","","","","","","4","","","","","img/nontarget_distractor56.jpeg"
"","html-keyboard-response","183","103147","0.0-5.0-17.0-1.12","6298b96f38f6715fdd491b2a","6298b96f38f6715fdd491b2a","63a36e1df1afd18b014794e9","63a38a163462c61a40de3288","rsvp1-task","true","0","","","","","null","<span></span>","null","iti","","","","","","","","","","","","","","",""
"","html-keyboard-response","184","103263","0.0-5.0-17.0-0.13","6298b96f38f6715fdd491b2a","6298b96f38f6715fdd491b2a","63a36e1df1afd18b014794e9","63a38a163462c61a40de3288","rsvp1-task","true","0","","","","","null","
					<div style='width: 900px;'>
					<div style='float: center;'><img src=img/nontarget_distractor150.jpeg  ></img>
					</div>
					","null","rsvp1","practice0","","","","","","","","","4","","","","","img/nontarget_distractor150.jpeg"
"","html-keyboard-response","185","103279","0.0-5.0-17.0-1.13","6298b96f38f6715fdd491b2a","6298b96f38f6715fdd491b2a","63a36e1df1afd18b014794e9","63a38a163462c61a40de3288","rsvp1-task","true","0","","","","","null","<span></span>","null","iti","","","","","","","","","","","","","","",""
"","html-keyboard-response","186","103386","0.0-5.0-17.0-0.14","6298b96f38f6715fdd491b2a","6298b96f38f6715fdd491b2a","63a36e1df1afd18b014794e9","63a38a163462c61a40de3288","rsvp1-task","true","0","","","","","null","
					<div style='width: 900px;'>
					<div style='float: center;'><img src=img/nontarget_distractor119.jpeg  ></img>
					</div>
					","null","rsvp1","practice0","","","","","","","","","4","","","","","img/nontarget_distractor119.jpeg"
"","html-keyboard-response","187","103401","0.0-5.0-17.0-1.14","6298b96f38f6715fdd491b2a","6298b96f38f6715fdd491b2a","63a36e1df1afd18b014794e9","63a38a163462c61a40de3288","rsvp1-task","true","0","","","","","null","<span></span>","null","iti","","","","","","","","","","","","","","",""
"","html-keyboard-response","188","103506","0.0-5.0-17.0-0.15","6298b96f38f6715fdd491b2a","6298b96f38f6715fdd491b2a","63a36e1df1afd18b014794e9","63a38a163462c61a40de3288","rsvp1-task","true","0","","","","","null","
					<div style='width: 900px;'>
					<div style='float: center;'><img src=img/nontarget_distractor240.jpeg  ></img>
					</div>
					","null","rsvp1","practice0","","","","","","","","","4","","","","","img/nontarget_distractor240.jpeg"
"","html-keyboard-response","189","103521","0.0-5.0-17.0-1.15","6298b96f38f6715fdd491b2a","6298b96f38f6715fdd491b2a","63a36e1df1afd18b014794e9","63a38a163462c61a40de3288","rsvp1-task","true","0","","","","","null","<span></span>","null","iti","","","","","","","","","","","","","","",""
"","html-keyboard-response","190","103621","0.0-5.0-17.0-0.16","6298b96f38f6715fdd491b2a","6298b96f38f6715fdd491b2a","63a36e1df1afd18b014794e9","63a38a163462c61a40de3288","rsvp1-task","true","0","","","","","null","
					<div style='width: 900px;'>
					<div style='float: center;'><img src=img/nontarget_distractor89.jpeg  ></img>
					</div>
					","null","rsvp1","practice0","","","","","","","","","4","","","","","img/nontarget_distractor89.jpeg"
"","html-keyboard-response","191","103638","0.0-5.0-17.0-1.16","6298b96f38f6715fdd491b2a","6298b96f38f6715fdd491b2a","63a36e1df1afd18b014794e9","63a38a163462c61a40de3288","rsvp1-task","true","0","","","","","null","<span></span>","null","iti","","","","","","","","","","","","","","",""
"","html-keyboard-response","192","104139","0.0-5.0-18.0-0.0","6298b96f38f6715fdd491b2a","6298b96f38f6715fdd491b2a","63a36e1df1afd18b014794e9","63a38a163462c61a40de3288","rsvp1-task","true","0","","","","","499","<div class=""rsvp""> Was the rotated image rotated left (1 key) or right (0 key)?</div>","0","response","practice0","0","0","neutral","img/nontarget_distractor122.jpeg","img/nontarget_distractor141.jpeg","8","3","11","4","true","true","true","",""
"","html-keyboard-response","193","105153","0.0-5.0-19.0","6298b96f38f6715fdd491b2a","6298b96f38f6715fdd491b2a","63a36e1df1afd18b014794e9","63a38a163462c61a40de3288","rsvp1-task","true","0","","","","","null","Correct! </p> <p>  </p><p> ","null","","","","","","","","","","","","","","","main_T1_ITI",""
"","html-keyboard-response","194","107167","0.0-5.0-20.0","6298b96f38f6715fdd491b2a","6298b96f38f6715fdd491b2a","63a36e1df1afd18b014794e9","63a38a163462c61a40de3288","rsvp1-task","true","0","","","","","null","<div class=""rsvp"">+</div>","null","fixation","","","","","","","","","","","","","","",""
"","html-keyboard-response","195","107422","0.0-5.0-21.0","6298b96f38f6715fdd491b2a","6298b96f38f6715fdd491b2a","63a36e1df1afd18b014794e9","63a38a163462c61a40de3288","rsvp1-task","true","0","","","","","null","<div class=""rsvp"" ></div>","null","blank","","","","","","","","","","","","","","",""
"","html-keyboard-response","196","107535","0.0-5.0-22.0-0.0","6298b96f38f6715fdd491b2a","6298b96f38f6715fdd491b2a","63a36e1df1afd18b014794e9","63a38a163462c61a40de3288","rsvp1-task","true","0","","","","","null","
					<div style='width: 900px;'>
					<div style='float: center;'><img src=img/nontarget_distractor90.jpeg  ></img>
					</div>
					","null","rsvp1","practice0","","","","","","","","","5","","","","","img/nontarget_distractor90.jpeg"
"","html-keyboard-response","197","107548","0.0-5.0-22.0-1.0","6298b96f38f6715fdd491b2a","6298b96f38f6715fdd491b2a","63a36e1df1afd18b014794e9","63a38a163462c61a40de3288","rsvp1-task","true","0","","","","","null","<span></span>","null","iti","","","","","","","","","","","","","","",""
"","html-keyboard-response","198","107655","0.0-5.0-22.0-0.1","6298b96f38f6715fdd491b2a","6298b96f38f6715fdd491b2a","63a36e1df1afd18b014794e9","63a38a163462c61a40de3288","rsvp1-task","true","0","","","","","null","
					<div style='width: 900px;'>
					<div style='float: center;'><img src=img/nontarget_distractor116.jpeg  ></img>
					</div>
					","null","rsvp1","practice0","","","","","","","","","5","","","","","img/nontarget_distractor116.jpeg"
"","html-keyboard-response","199","107668","0.0-5.0-22.0-1.1","6298b96f38f6715fdd491b2a","6298b96f38f6715fdd491b2a","63a36e1df1afd18b014794e9","63a38a163462c61a40de3288","rsvp1-task","true","0","","","","","null","<span></span>","null","iti","","","","","","","","","","","","","","",""
"","html-keyboard-response","200","107777","0.0-5.0-22.0-0.2","6298b96f38f6715fdd491b2a","6298b96f38f6715fdd491b2a","63a36e1df1afd18b014794e9","63a38a163462c61a40de3288","rsvp1-task","true","0","","","","","null","
					<div style='width: 900px;'>
					<div style='float: center;'><img src=img/nontarget_distractor109.jpeg  ></img>
					</div>
					","null","rsvp1","practice0","","","","","","","","","5","","","","","img/nontarget_distractor109.jpeg"
"","html-keyboard-response","201","107793","0.0-5.0-22.0-1.2","6298b96f38f6715fdd491b2a","6298b96f38f6715fdd491b2a","63a36e1df1afd18b014794e9","63a38a163462c61a40de3288","rsvp1-task","true","0","","","","","null","<span></span>","null","iti","","","","","","","","","","","","","","",""
"","html-keyboard-response","202","107906","0.0-5.0-22.0-0.3","6298b96f38f6715fdd491b2a","6298b96f38f6715fdd491b2a","63a36e1df1afd18b014794e9","63a38a163462c61a40de3288","rsvp1-task","true","0","","","","","null","
					<div style='width: 900px;'>
					<div style='float: center;'><img src=img/nontarget_distractor27.jpeg  ></img>
					</div>
					","null","rsvp1","practice0","","","","","","","","","5","","","","","img/nontarget_distractor27.jpeg"
"","html-keyboard-response","203","107922","0.0-5.0-22.0-1.3","6298b96f38f6715fdd491b2a","6298b96f38f6715fdd491b2a","63a36e1df1afd18b014794e9","63a38a163462c61a40de3288","rsvp1-task","true","0","","","","","null","<span></span>","null","iti","","","","","","","","","","","","","","",""
"","html-keyboard-response","204","108033","0.0-5.0-22.0-0.4","6298b96f38f6715fdd491b2a","6298b96f38f6715fdd491b2a","63a36e1df1afd18b014794e9","63a38a163462c61a40de3288","rsvp1-task","true","0","","","","","null","
					<div style='width: 900px;'>
					<div style='float: center;'><img src=img/nontarget_distractor147.jpeg  ></img>
					</div>
					","null","rsvp1","practice0","","","","","","","","","5","","","","","img/nontarget_distractor147.jpeg"
"","html-keyboard-response","205","108049","0.0-5.0-22.0-1.4","6298b96f38f6715fdd491b2a","6298b96f38f6715fdd491b2a","63a36e1df1afd18b014794e9","63a38a163462c61a40de3288","rsvp1-task","true","0","","","","","null","<span></span>","null","iti","","","","","","","","","","","","","","",""
"","html-keyboard-response","206","108156","0.0-5.0-22.0-0.5","6298b96f38f6715fdd491b2a","6298b96f38f6715fdd491b2a","63a36e1df1afd18b014794e9","63a38a163462c61a40de3288","rsvp1-task","true","0","","","","","null","
					<div style='width: 900px;'>
					<div style='float: center;'><img src=img/nontarget_distractor110.jpeg  ></img>
					</div>
					","null","rsvp1","practice0","","","","","","","","","5","","","","","img/nontarget_distractor110.jpeg"
"","html-keyboard-response","207","108174","0.0-5.0-22.0-1.5","6298b96f38f6715fdd491b2a","6298b96f38f6715fdd491b2a","63a36e1df1afd18b014794e9","63a38a163462c61a40de3288","rsvp1-task","true","0","","","","","null","<span></span>","null","iti","","","","","","","","","","","","","","",""
"","html-keyboard-response","208","108283","0.0-5.0-22.0-0.6","6298b96f38f6715fdd491b2a","6298b96f38f6715fdd491b2a","63a36e1df1afd18b014794e9","63a38a163462c61a40de3288","rsvp1-task","true","0","","","","","null","
					<div style='width: 900px;'>
					<div style='float: center;'><img src=img/nontarget_distractor182.jpeg  ></img>
					</div>
					","null","rsvp1","practice0","","","","","","","","","5","","","","","img/nontarget_distractor182.jpeg"
"","html-keyboard-response","209","108300","0.0-5.0-22.0-1.6","6298b96f38f6715fdd491b2a","6298b96f38f6715fdd491b2a","63a36e1df1afd18b014794e9","63a38a163462c61a40de3288","rsvp1-task","true","0","","","","","null","<span></span>","null","iti","","","","","","","","","","","","","","",""
"","html-keyboard-response","210","108410","0.0-5.0-22.0-0.7","6298b96f38f6715fdd491b2a","6298b96f38f6715fdd491b2a","63a36e1df1afd18b014794e9","63a38a163462c61a40de3288","rsvp1-task","true","0","","","","","null","
					<div style='width: 900px;'>
					<div style='float: center;'><img src=img/nontarget_distractor187.jpeg  ></img>
					</div>
					","null","rsvp1","practice0","","","","","","","","","5","","","","","img/nontarget_distractor187.jpeg"
"","html-keyboard-response","211","108424","0.0-5.0-22.0-1.7","6298b96f38f6715fdd491b2a","6298b96f38f6715fdd491b2a","63a36e1df1afd18b014794e9","63a38a163462c61a40de3288","rsvp1-task","true","0","","","","","null","<span></span>","null","iti","","","","","","","","","","","","","","",""
"","html-keyboard-response","212","108532","0.0-5.0-22.0-0.8","6298b96f38f6715fdd491b2a","6298b96f38f6715fdd491b2a","63a36e1df1afd18b014794e9","63a38a163462c61a40de3288","rsvp1-task","true","0","","","","","null","
					<div style='width: 900px;'>
					<div style='float: center;'><img src=img/nontarget_distractor167.jpeg  ></img>
					</div>
					","null","rsvp1","practice0","","","","","","","","","5","","","","","img/nontarget_distractor167.jpeg"
"","html-keyboard-response","213","108548","0.0-5.0-22.0-1.8","6298b96f38f6715fdd491b2a","6298b96f38f6715fdd491b2a","63a36e1df1afd18b014794e9","63a38a163462c61a40de3288","rsvp1-task","true","0","","","","","null","<span></span>","null","iti","","","","","","","","","","","","","","",""
"","html-keyboard-response","214","108659","0.0-5.0-22.0-0.9","6298b96f38f6715fdd491b2a","6298b96f38f6715fdd491b2a","63a36e1df1afd18b014794e9","63a38a163462c61a40de3288","rsvp1-task","true","0","","","","","null","
					<div style='width: 900px;'>
					<div style='float: center;'><img src=img/nontarget_distractor234.jpeg  ></img>
					</div>
					","null","rsvp1","practice0","","","","","","","","","5","","","","","img/nontarget_distractor234.jpeg"
"","html-keyboard-response","215","108677","0.0-5.0-22.0-1.9","6298b96f38f6715fdd491b2a","6298b96f38f6715fdd491b2a","63a36e1df1afd18b014794e9","63a38a163462c61a40de3288","rsvp1-task","true","0","","","","","null","<span></span>","null","iti","","","","","","","","","","","","","","",""
"","html-keyboard-response","216","108789","0.0-5.0-22.0-0.10","6298b96f38f6715fdd491b2a","6298b96f38f6715fdd491b2a","63a36e1df1afd18b014794e9","63a38a163462c61a40de3288","rsvp1-task","true","0","","","","","null","
					<div style='width: 900px;'>
					<div style='float: center;'><img src=img/nontarget_distractor205.jpeg  ></img>
					</div>
					","null","rsvp1","practice0","","","","","","","","","5","","","","","img/nontarget_distractor205.jpeg"
"","html-keyboard-response","217","108804","0.0-5.0-22.0-1.10","6298b96f38f6715fdd491b2a","6298b96f38f6715fdd491b2a","63a36e1df1afd18b014794e9","63a38a163462c61a40de3288","rsvp1-task","true","0","","","","","null","<span></span>","null","iti","","","","","","","","","","","","","","",""
"","html-keyboard-response","218","108913","0.0-5.0-22.0-0.11","6298b96f38f6715fdd491b2a","6298b96f38f6715fdd491b2a","63a36e1df1afd18b014794e9","63a38a163462c61a40de3288","rsvp1-task","true","0","","","","","null","
					<div style='width: 900px;'>
					<div style='float: center;'><img src=img/t2_targets185.jpeg class=""rotateimgL""  ></img>
					</div>
					","null","rsvp1","practice0","","","","","","","","","5","","","","","img/t2_targets185.jpeg class=""rotateimgL"""
"","html-keyboard-response","219","108928","0.0-5.0-22.0-1.11","6298b96f38f6715fdd491b2a","6298b96f38f6715fdd491b2a","63a36e1df1afd18b014794e9","63a38a163462c61a40de3288","rsvp1-task","true","0","","","","","null","<span></span>","null","iti","","","","","","","","","","","","","","",""
"","html-keyboard-response","220","109039","0.0-5.0-22.0-0.12","6298b96f38f6715fdd491b2a","6298b96f38f6715fdd491b2a","63a36e1df1afd18b014794e9","63a38a163462c61a40de3288","rsvp1-task","true","0","","","","","null","
					<div style='width: 900px;'>
					<div style='float: center;'><img src=img/nontarget_distractor6.jpeg  ></img>
					</div>
					","null","rsvp1","practice0","","","","","","","","","5","","","","","img/nontarget_distractor6.jpeg"
"","html-keyboard-response","221","109056","0.0-5.0-22.0-1.12","6298b96f38f6715fdd491b2a","6298b96f38f6715fdd491b2a","63a36e1df1afd18b014794e9","63a38a163462c61a40de3288","rsvp1-task","true","0","","","","","null","<span></span>","null","iti","","","","","","","","","","","","","","",""
"","html-keyboard-response","222","109165","0.0-5.0-22.0-0.13","6298b96f38f6715fdd491b2a","6298b96f38f6715fdd491b2a","63a36e1df1afd18b014794e9","63a38a163462c61a40de3288","rsvp1-task","true","0","","","","","null","
					<div style='width: 900px;'>
					<div style='float: center;'><img src=img/nontarget_distractor250.jpeg  ></img>
					</div>
					","null","rsvp1","practice0","","","","","","","","","5","","","","","img/nontarget_distractor250.jpeg"
"","html-keyboard-response","223","109180","0.0-5.0-22.0-1.13","6298b96f38f6715fdd491b2a","6298b96f38f6715fdd491b2a","63a36e1df1afd18b014794e9","63a38a163462c61a40de3288","rsvp1-task","true","0","","","","","null","<span></span>","null","iti","","","","","","","","","","","","","","",""
"","html-keyboard-response","224","109285","0.0-5.0-22.0-0.14","6298b96f38f6715fdd491b2a","6298b96f38f6715fdd491b2a","63a36e1df1afd18b014794e9","63a38a163462c61a40de3288","rsvp1-task","true","0","","","","","null","
					<div style='width: 900px;'>
					<div style='float: center;'><img src=img/nontarget_distractor189.jpeg  ></img>
					</div>
					","null","rsvp1","practice0","","","","","","","","","5","","","","","img/nontarget_distractor189.jpeg"
"","html-keyboard-response","225","109300","0.0-5.0-22.0-1.14","6298b96f38f6715fdd491b2a","6298b96f38f6715fdd491b2a","63a36e1df1afd18b014794e9","63a38a163462c61a40de3288","rsvp1-task","true","0","","","","","null","<span></span>","null","iti","","","","","","","","","","","","","","",""
"","html-keyboard-response","226","109410","0.0-5.0-22.0-0.15","6298b96f38f6715fdd491b2a","6298b96f38f6715fdd491b2a","63a36e1df1afd18b014794e9","63a38a163462c61a40de3288","rsvp1-task","true","0","","","","","null","
					<div style='width: 900px;'>
					<div style='float: center;'><img src=img/nontarget_distractor210.jpeg  ></img>
					</div>
					","null","rsvp1","practice0","","","","","","","","","5","","","","","img/nontarget_distractor210.jpeg"
"","html-keyboard-response","227","109423","0.0-5.0-22.0-1.15","6298b96f38f6715fdd491b2a","6298b96f38f6715fdd491b2a","63a36e1df1afd18b014794e9","63a38a163462c61a40de3288","rsvp1-task","true","0","","","","","null","<span></span>","null","iti","","","","","","","","","","","","","","",""
"","html-keyboard-response","228","109527","0.0-5.0-22.0-0.16","6298b96f38f6715fdd491b2a","6298b96f38f6715fdd491b2a","63a36e1df1afd18b014794e9","63a38a163462c61a40de3288","rsvp1-task","true","0","","","","","null","
					<div style='width: 900px;'>
					<div style='float: center;'><img src=img/nontarget_distractor199.jpeg  ></img>
					</div>
					","null","rsvp1","practice0","","","","","","","","","5","","","","","img/nontarget_distractor199.jpeg"
"","html-keyboard-response","229","109545","0.0-5.0-22.0-1.16","6298b96f38f6715fdd491b2a","6298b96f38f6715fdd491b2a","63a36e1df1afd18b014794e9","63a38a163462c61a40de3288","rsvp1-task","true","0","","","","","null","<span></span>","null","iti","","","","","","","","","","","","","","",""
"","html-keyboard-response","230","110074","0.0-5.0-23.0-0.0","6298b96f38f6715fdd491b2a","6298b96f38f6715fdd491b2a","63a36e1df1afd18b014794e9","63a38a163462c61a40de3288","rsvp1-task","true","0","","","","","529","<div class=""rsvp""> Was the rotated image rotated left (1 key) or right (0 key)?</div>","1","response","practice0","1","1","neutral","img/nontarget_distractor187.jpeg","img/nontarget_distractor6.jpeg","8","4","12","5","true","true","true","",""
"","html-keyboard-response","231","111086","0.0-5.0-24.0","6298b96f38f6715fdd491b2a","6298b96f38f6715fdd491b2a","63a36e1df1afd18b014794e9","63a38a163462c61a40de3288","rsvp1-task","true","0","","","","","null","Correct! </p> <p>  </p><p> ","null","","","","","","","","","","","","","","","main_T1_ITI",""
"","html-keyboard-response","232","113089","0.0-5.0-25.0","6298b96f38f6715fdd491b2a","6298b96f38f6715fdd491b2a","63a36e1df1afd18b014794e9","63a38a163462c61a40de3288","rsvp1-task","true","0","","","","","null","<div class=""rsvp"">+</div>","null","fixation","","","","","","","","","","","","","","",""
"","html-keyboard-response","233","113352","0.0-5.0-26.0","6298b96f38f6715fdd491b2a","6298b96f38f6715fdd491b2a","63a36e1df1afd18b014794e9","63a38a163462c61a40de3288","rsvp1-task","true","0","","","","","null","<div class=""rsvp"" ></div>","null","blank","","","","","","","","","","","","","","",""
"","html-keyboard-response","234","113455","0.0-5.0-27.0-0.0","6298b96f38f6715fdd491b2a","6298b96f38f6715fdd491b2a","63a36e1df1afd18b014794e9","63a38a163462c61a40de3288","rsvp1-task","true","0","","","","","null","
					<div style='width: 900px;'>
					<div style='float: center;'><img src=img/nontarget_distractor6.jpeg  ></img>
					</div>
					","null","rsvp1","practice0","","","","","","","","","6","","","","","img/nontarget_distractor6.jpeg"
"","html-keyboard-response","235","113473","0.0-5.0-27.0-1.0","6298b96f38f6715fdd491b2a","6298b96f38f6715fdd491b2a","63a36e1df1afd18b014794e9","63a38a163462c61a40de3288","rsvp1-task","true","0","","","","","null","<span></span>","null","iti","","","","","","","","","","","","","","",""
"","html-keyboard-response","236","113573","0.0-5.0-27.0-0.1","6298b96f38f6715fdd491b2a","6298b96f38f6715fdd491b2a","63a36e1df1afd18b014794e9","63a38a163462c61a40de3288","rsvp1-task","true","0","","","","","null","
					<div style='width: 900px;'>
					<div style='float: center;'><img src=img/nontarget_distractor112.jpeg  ></img>
					</div>
					","null","rsvp1","practice0","","","","","","","","","6","","","","","img/nontarget_distractor112.jpeg"
"","html-keyboard-response","237","113590","0.0-5.0-27.0-1.1","6298b96f38f6715fdd491b2a","6298b96f38f6715fdd491b2a","63a36e1df1afd18b014794e9","63a38a163462c61a40de3288","rsvp1-task","true","0","","","","","null","<span></span>","null","iti","","","","","","","","","","","","","","",""
"","html-keyboard-response","238","113692","0.0-5.0-27.0-0.2","6298b96f38f6715fdd491b2a","6298b96f38f6715fdd491b2a","63a36e1df1afd18b014794e9","63a38a163462c61a40de3288","rsvp1-task","true","0","","","","","null","
					<div style='width: 900px;'>
					<div style='float: center;'><img src=img/nontarget_distractor256.jpeg  ></img>
					</div>
					","null","rsvp1","practice0","","","","","","","","","6","","","","","img/nontarget_distractor256.jpeg"
"","html-keyboard-response","239","113707","0.0-5.0-27.0-1.2","6298b96f38f6715fdd491b2a","6298b96f38f6715fdd491b2a","63a36e1df1afd18b014794e9","63a38a163462c61a40de3288","rsvp1-task","true","0","","","","","null","<span></span>","null","iti","","","","","","","","","","","","","","",""
"","html-keyboard-response","240","113812","0.0-5.0-27.0-0.3","6298b96f38f6715fdd491b2a","6298b96f38f6715fdd491b2a","63a36e1df1afd18b014794e9","63a38a163462c61a40de3288","rsvp1-task","true","0","","","","","null","
					<div style='width: 900px;'>
					<div style='float: center;'><img src=img/nontarget_distractor146.jpeg  ></img>
					</div>
					","null","rsvp1","practice0","","","","","","","","","6","","","","","img/nontarget_distractor146.jpeg"
"","html-keyboard-response","241","113824","0.0-5.0-27.0-1.3","6298b96f38f6715fdd491b2a","6298b96f38f6715fdd491b2a","63a36e1df1afd18b014794e9","63a38a163462c61a40de3288","rsvp1-task","true","0","","","","","null","<span></span>","null","iti","","","","","","","","","","","","","","",""
"","html-keyboard-response","242","113927","0.0-5.0-27.0-0.4","6298b96f38f6715fdd491b2a","6298b96f38f6715fdd491b2a","63a36e1df1afd18b014794e9","63a38a163462c61a40de3288","rsvp1-task","true","0","","","","","null","
					<div style='width: 900px;'>
					<div style='float: center;'><img src=img/nontarget_distractor27.jpeg  ></img>
					</div>
					","null","rsvp1","practice0","","","","","","","","","6","","","","","img/nontarget_distractor27.jpeg"
"","html-keyboard-response","243","113942","0.0-5.0-27.0-1.4","6298b96f38f6715fdd491b2a","6298b96f38f6715fdd491b2a","63a36e1df1afd18b014794e9","63a38a163462c61a40de3288","rsvp1-task","true","0","","","","","null","<span></span>","null","iti","","","","","","","","","","","","","","",""
"","html-keyboard-response","244","114046","0.0-5.0-27.0-0.5","6298b96f38f6715fdd491b2a","6298b96f38f6715fdd491b2a","63a36e1df1afd18b014794e9","63a38a163462c61a40de3288","rsvp1-task","true","0","","","","","null","
					<div style='width: 900px;'>
					<div style='float: center;'><img src=img/nontarget_distractor98.jpeg  ></img>
					</div>
					","null","rsvp1","practice0","","","","","","","","","6","","","","","img/nontarget_distractor98.jpeg"
"","html-keyboard-response","245","114062","0.0-5.0-27.0-1.5","6298b96f38f6715fdd491b2a","6298b96f38f6715fdd491b2a","63a36e1df1afd18b014794e9","63a38a163462c61a40de3288","rsvp1-task","true","0","","","","","null","<span></span>","null","iti","","","","","","","","","","","","","","",""
"","html-keyboard-response","246","114172","0.0-5.0-27.0-0.6","6298b96f38f6715fdd491b2a","6298b96f38f6715fdd491b2a","63a36e1df1afd18b014794e9","63a38a163462c61a40de3288","rsvp1-task","true","0","","","","","null","
					<div style='width: 900px;'>
					<div style='float: center;'><img src=img/nontarget_distractor43.jpeg  ></img>
					</div>
					","null","rsvp1","practice0","","","","","","","","","6","","","","","img/nontarget_distractor43.jpeg"
"","html-keyboard-response","247","114190","0.0-5.0-27.0-1.6","6298b96f38f6715fdd491b2a","6298b96f38f6715fdd491b2a","63a36e1df1afd18b014794e9","63a38a163462c61a40de3288","rsvp1-task","true","0","","","","","null","<span></span>","null","iti","","","","","","","","","","","","","","",""
"","html-keyboard-response","248","114293","0.0-5.0-27.0-0.7","6298b96f38f6715fdd491b2a","6298b96f38f6715fdd491b2a","63a36e1df1afd18b014794e9","63a38a163462c61a40de3288","rsvp1-task","true","0","","","","","null","
					<div style='width: 900px;'>
					<div style='float: center;'><img src=img/nontarget_distractor26.jpeg  ></img>
					</div>
					","null","rsvp1","practice0","","","","","","","","","6","","","","","img/nontarget_distractor26.jpeg"
"","html-keyboard-response","249","114312","0.0-5.0-27.0-1.7","6298b96f38f6715fdd491b2a","6298b96f38f6715fdd491b2a","63a36e1df1afd18b014794e9","63a38a163462c61a40de3288","rsvp1-task","true","0","","","","","null","<span></span>","null","iti","","","","","","","","","","","","","","",""
"","html-keyboard-response","250","114413","0.0-5.0-27.0-0.8","6298b96f38f6715fdd491b2a","6298b96f38f6715fdd491b2a","63a36e1df1afd18b014794e9","63a38a163462c61a40de3288","rsvp1-task","true","0","","","","","null","
					<div style='width: 900px;'>
					<div style='float: center;'><img src=img/nontarget_distractor65.jpeg  ></img>
					</div>
					","null","rsvp1","practice0","","","","","","","","","6","","","","","img/nontarget_distractor65.jpeg"
"","html-keyboard-response","251","114430","0.0-5.0-27.0-1.8","6298b96f38f6715fdd491b2a","6298b96f38f6715fdd491b2a","63a36e1df1afd18b014794e9","63a38a163462c61a40de3288","rsvp1-task","true","0","","","","","null","<span></span>","null","iti","","","","","","","","","","","","","","",""
"","html-keyboard-response","252","114538","0.0-5.0-27.0-0.9","6298b96f38f6715fdd491b2a","6298b96f38f6715fdd491b2a","63a36e1df1afd18b014794e9","63a38a163462c61a40de3288","rsvp1-task","true","0","","","","","null","
					<div style='width: 900px;'>
					<div style='float: center;'><img src=img/nontarget_distractor62.jpeg  ></img>
					</div>
					","null","rsvp1","practice0","","","","","","","","","6","","","","","img/nontarget_distractor62.jpeg"
"","html-keyboard-response","253","114556","0.0-5.0-27.0-1.9","6298b96f38f6715fdd491b2a","6298b96f38f6715fdd491b2a","63a36e1df1afd18b014794e9","63a38a163462c61a40de3288","rsvp1-task","true","0","","","","","null","<span></span>","null","iti","","","","","","","","","","","","","","",""
"","html-keyboard-response","254","114664","0.0-5.0-27.0-0.10","6298b96f38f6715fdd491b2a","6298b96f38f6715fdd491b2a","63a36e1df1afd18b014794e9","63a38a163462c61a40de3288","rsvp1-task","true","0","","","","","null","
					<div style='width: 900px;'>
					<div style='float: center;'><img src=img/nontarget_distractor163.jpeg  ></img>
					</div>
					","null","rsvp1","practice0","","","","","","","","","6","","","","","img/nontarget_distractor163.jpeg"
"","html-keyboard-response","255","114679","0.0-5.0-27.0-1.10","6298b96f38f6715fdd491b2a","6298b96f38f6715fdd491b2a","63a36e1df1afd18b014794e9","63a38a163462c61a40de3288","rsvp1-task","true","0","","","","","null","<span></span>","null","iti","","","","","","","","","","","","","","",""
"","html-keyboard-response","256","114782","0.0-5.0-27.0-0.11","6298b96f38f6715fdd491b2a","6298b96f38f6715fdd491b2a","63a36e1df1afd18b014794e9","63a38a163462c61a40de3288","rsvp1-task","true","0","","","","","null","
					<div style='width: 900px;'>
					<div style='float: center;'><img src=img/nontarget_distractor42.jpeg  ></img>
					</div>
					","null","rsvp1","practice0","","","","","","","","","6","","","","","img/nontarget_distractor42.jpeg"
"","html-keyboard-response","257","114798","0.0-5.0-27.0-1.11","6298b96f38f6715fdd491b2a","6298b96f38f6715fdd491b2a","63a36e1df1afd18b014794e9","63a38a163462c61a40de3288","rsvp1-task","true","0","","","","","null","<span></span>","null","iti","","","","","","","","","","","","","","",""
"","html-keyboard-response","258","114910","0.0-5.0-27.0-0.12","6298b96f38f6715fdd491b2a","6298b96f38f6715fdd491b2a","63a36e1df1afd18b014794e9","63a38a163462c61a40de3288","rsvp1-task","true","0","","","","","null","
					<div style='width: 900px;'>
					<div style='float: center;'><img src=img/nontarget_distractor216.jpeg  ></img>
					</div>
					","null","rsvp1","practice0","","","","","","","","","6","","","","","img/nontarget_distractor216.jpeg"
"","html-keyboard-response","259","114925","0.0-5.0-27.0-1.12","6298b96f38f6715fdd491b2a","6298b96f38f6715fdd491b2a","63a36e1df1afd18b014794e9","63a38a163462c61a40de3288","rsvp1-task","true","0","","","","","null","<span></span>","null","iti","","","","","","","","","","","","","","",""
"","html-keyboard-response","260","115036","0.0-5.0-27.0-0.13","6298b96f38f6715fdd491b2a","6298b96f38f6715fdd491b2a","63a36e1df1afd18b014794e9","63a38a163462c61a40de3288","rsvp1-task","true","0","","","","","null","
					<div style='width: 900px;'>
					<div style='float: center;'><img src=img/nontarget_distractor181.jpeg  ></img>
					</div>
					","null","rsvp1","practice0","","","","","","","","","6","","","","","img/nontarget_distractor181.jpeg"
"","html-keyboard-response","261","115050","0.0-5.0-27.0-1.13","6298b96f38f6715fdd491b2a","6298b96f38f6715fdd491b2a","63a36e1df1afd18b014794e9","63a38a163462c61a40de3288","rsvp1-task","true","0","","","","","null","<span></span>","null","iti","","","","","","","","","","","","","","",""
"","html-keyboard-response","262","115156","0.0-5.0-27.0-0.14","6298b96f38f6715fdd491b2a","6298b96f38f6715fdd491b2a","63a36e1df1afd18b014794e9","63a38a163462c61a40de3288","rsvp1-task","true","0","","","","","null","
					<div style='width: 900px;'>
					<div style='float: center;'><img src=img/t2_targets183.jpeg class=""rotateimgR""  ></img>
					</div>
					","null","rsvp1","practice0","","","","","","","","","6","","","","","img/t2_targets183.jpeg class=""rotateimgR"""
"","html-keyboard-response","263","115173","0.0-5.0-27.0-1.14","6298b96f38f6715fdd491b2a","6298b96f38f6715fdd491b2a","63a36e1df1afd18b014794e9","63a38a163462c61a40de3288","rsvp1-task","true","0","","","","","null","<span></span>","null","iti","","","","","","","","","","","","","","",""
"","html-keyboard-response","264","115285","0.0-5.0-27.0-0.15","6298b96f38f6715fdd491b2a","6298b96f38f6715fdd491b2a","63a36e1df1afd18b014794e9","63a38a163462c61a40de3288","rsvp1-task","true","0","","","","","null","
					<div style='width: 900px;'>
					<div style='float: center;'><img src=img/nontarget_distractor155.jpeg  ></img>
					</div>
					","null","rsvp1","practice0","","","","","","","","","6","","","","","img/nontarget_distractor155.jpeg"
"","html-keyboard-response","265","115302","0.0-5.0-27.0-1.15","6298b96f38f6715fdd491b2a","6298b96f38f6715fdd491b2a","63a36e1df1afd18b014794e9","63a38a163462c61a40de3288","rsvp1-task","true","0","","","","","null","<span></span>","null","iti","","","","","","","","","","","","","","",""
"","html-keyboard-response","266","115413","0.0-5.0-27.0-0.16","6298b96f38f6715fdd491b2a","6298b96f38f6715fdd491b2a","63a36e1df1afd18b014794e9","63a38a163462c61a40de3288","rsvp1-task","true","0","","","","","null","
					<div style='width: 900px;'>
					<div style='float: center;'><img src=img/nontarget_distractor232.jpeg  ></img>
					</div>
					","null","rsvp1","practice0","","","","","","","","","6","","","","","img/nontarget_distractor232.jpeg"
"","html-keyboard-response","267","115429","0.0-5.0-27.0-1.16","6298b96f38f6715fdd491b2a","6298b96f38f6715fdd491b2a","63a36e1df1afd18b014794e9","63a38a163462c61a40de3288","rsvp1-task","true","0","","","","","null","<span></span>","null","iti","","","","","","","","","","","","","","",""
"","html-keyboard-response","268","116627","0.0-5.0-28.0-0.0","6298b96f38f6715fdd491b2a","6298b96f38f6715fdd491b2a","63a36e1df1afd18b014794e9","63a38a163462c61a40de3288","rsvp1-task","true","0","","","","","1198","<div class=""rsvp""> Was the rotated image rotated left (1 key) or right (0 key)?</div>","0","response","practice0","0","0","neutral","img/nontarget_distractor26.jpeg","img/nontarget_distractor155.jpeg","8","7","15","6","true","true","true","",""
"","html-keyboard-response","269","117637","0.0-5.0-29.0","6298b96f38f6715fdd491b2a","6298b96f38f6715fdd491b2a","63a36e1df1afd18b014794e9","63a38a163462c61a40de3288","rsvp1-task","true","0","","","","","null","Correct! </p> <p>  </p><p> ","null","","","","","","","","","","","","","","","main_T1_ITI",""
"","html-keyboard-response","270","119648","0.0-5.0-30.0","6298b96f38f6715fdd491b2a","6298b96f38f6715fdd491b2a","63a36e1df1afd18b014794e9","63a38a163462c61a40de3288","rsvp1-task","true","0","","","","","null","<div class=""rsvp"">+</div>","null","fixation","","","","","","","","","","","","","","",""
"","html-keyboard-response","271","119910","0.0-5.0-31.0","6298b96f38f6715fdd491b2a","6298b96f38f6715fdd491b2a","63a36e1df1afd18b014794e9","63a38a163462c61a40de3288","rsvp1-task","true","0","","","","","null","<div class=""rsvp"" ></div>","null","blank","","","","","","","","","","","","","","",""
