"success","timeout","failed_images","failed_audio","failed_video","trial_type","trial_index","time_elapsed","internal_node_id","subject_id","study_id","session_id","rt","stimulus","response","correct","locations","target_present","set_size","task","correct_response","target","foilCM","setSizeCM","searchCondition"
"true","false","[]","[]","[]","preload","0","196820","0.0-0.0","1637185365486","FlSearch2.1.7-PREREGISTERED","today","","","","","","","","","","","","",""
"true","","","","","fullscreen","1","239729","0.0-1.0","1637185365486","FlSearch2.1.7-PREREGISTERED","today","","","","","","","","","","","","",""
"","","","","","html-keyboard-response","2","246748","0.0-2.0","1637185365486","FlSearch2.1.7-PREREGISTERED","today","7018.5","What a beautiful Wednesday to do some awesome science! </p> <p>  </p><p> </p>
    By completing this survey or questionnaire, you are consenting to be in this research study. </p>
    Your participation is voluntary and you can stop at any time.
    <p> [Press any key to continue.] </p>
    
    "," ","","","","","","","","","",""
"","","","","","video-keyboard-response","3","292006","0.0-3.0","1637185365486","FlSearch2.1.7-PREREGISTERED","today","45243.40000000596","[""video/TaskInstructions.mp4""]"," ","","","","","","","","","",""
"","","","","","html-keyboard-response","4","298531","0.0-4.0","1637185365486","FlSearch2.1.7-PREREGISTERED","today","6524.9000000059605","
    <p>First, we're going to do a few practice trials to make sure you understand the task. You will recieve feedback on each trial. </p>
    <p>[Press any key to begin the familiarization phase.]</p>
    "," ","","","","","","","","","",""
"","","","","","visual-search-circle","5","300850","0.0-5.0-0.0","1637185365486","FlSearch2.1.7-PREREGISTERED","today","1262.699999988079","","d","true","[[168,569],[569,431],[431,30],[30,168]]","true","4","training","d","","","",""
"","","","","","html-keyboard-response","6","303753","0.0-6.0","1637185365486","FlSearch2.1.7-PREREGISTERED","today","2902.699999988079"," <div style='float: center; '><img src='img/feedbackRight.png'></img> </div> ","d","","","","","","","","","",""
"","","","","","visual-search-circle","7","305538","0.0-7.0-0.0","1637185365486","FlSearch2.1.7-PREREGISTERED","today","782.5999999940395","","s","true","[[2,341],[341,597],[597,258],[258,2]]","false","4","training","s","","","",""
"","","","","","html-keyboard-response","8","306406","0.0-8.0","1637185365486","FlSearch2.1.7-PREREGISTERED","today","867"," <div style='float: center; '><img src='img/feedbackRight.png'></img> </div> ","d","","","","","","","","","",""
"","","","","","visual-search-circle","9","308782","0.0-9.0-0.0","1637185365486","FlSearch2.1.7-PREREGISTERED","today","1371.0999999940395","","s","true","[[591,227],[382,11],[91,84],[8,372],[217,588],[508,515]]","false","6","training","s","","","",""
"","","","","","html-keyboard-response","10","309758","0.0-10.0","1637185365486","FlSearch2.1.7-PREREGISTERED","today","974.8000000119209"," <div style='float: center; '><img src='img/feedbackRight.png'></img> </div> ","s","","","","","","","","","",""
"","","","","","visual-search-circle","11","311617","0.0-11.0-0.0","1637185365486","FlSearch2.1.7-PREREGISTERED","today","853.5","","d","true","[[217,11],[37,154],[11,382],[154,562],[382,588],[562,445],[588,217],[445,37]]","true","8","training","d","","","",""
"","","","","","html-keyboard-response","12","313562","0.0-12.0","1637185365486","FlSearch2.1.7-PREREGISTERED","today","1944.699999988079"," <div style='float: center; '><img src='img/feedbackRight.png'></img> </div> ","d","","","","","","","","","",""
"","","","","","video-keyboard-response","13","323552","0.0-13.0","1637185365486","FlSearch2.1.7-PREREGISTERED","today","9988.699999988079","[""video/endTraining.mp4""]","d","","","","","","","","","",""
"","","","","","html-keyboard-response","14","323554","0.0-14.0-0.0-0.0","1637185365486","FlSearch2.1.7-PREREGISTERED","today","null","","null","","","","","main_T1_ITI","","","","",""
"","","","","","visual-search-circle","15","325670","0.0-14.0-0.0-1.0","1637185365486","FlSearch2.1.7-PREREGISTERED","today","1110.9000000059605","","d","true","[[87,87],[32,436],[346,596],[596,346],[436,32]]","true","5","main_T2_Trial","d","img/Fire_Up_Target.gif","[""img/Fire_Down_Distractor.gif"",""img/Fire_Down_Distractor.gif"",""img/Fire_Down_Distractor.gif"",""img/Fire_Down_Distractor.gif"",""img/Fire_Down_Distractor.gif"",""img/Fire_Down_Distractor.gif"",""img/Fire_Down_Distractor.gif"",""img/Fire_Down_Distractor.gif"",""img/Fire_Down_Distractor.gif"",""img/Fire_Down_Distractor.gif"",""img/Fire_Down_Distractor.gif"",""img/Fire_Down_Distractor.gif""]","5","targetUp_distractorsDown"
"","","","","","html-keyboard-response","16","325674","0.0-14.0-0.0-0.1","1637185365486","FlSearch2.1.7-PREREGISTERED","today","null","","null","","","","","main_T1_ITI","","","","",""
"","","","","","visual-search-circle","17","327720","0.0-14.0-0.0-1.1","1637185365486","FlSearch2.1.7-PREREGISTERED","today","1041","","s","true","[[119,539],[374,590],[573,422],[566,162],[358,5],[106,70],[0,308]]","false","7","main_T2_Trial","s","img/Fire_Down_Target.gif","[""img/Fire_Up_Distractor.gif"",""img/Fire_Up_Distractor.gif"",""img/Fire_Up_Distractor.gif"",""img/Fire_Up_Distractor.gif"",""img/Fire_Up_Distractor.gif"",""img/Fire_Up_Distractor.gif"",""img/Fire_Up_Distractor.gif"",""img/Fire_Up_Distractor.gif"",""img/Fire_Up_Distractor.gif"",""img/Fire_Up_Distractor.gif"",""img/Fire_Up_Distractor.gif"",""img/Fire_Up_Distractor.gif""]","7","targetDown_distractorsUp"
"","","","","","html-keyboard-response","18","327722","0.0-14.0-0.0-0.2","1637185365486","FlSearch2.1.7-PREREGISTERED","today","null","","null","","","","","main_T1_ITI","","","","",""
"","","","","","visual-search-circle","19","329778","0.0-14.0-0.0-1.2","1637185365486","FlSearch2.1.7-PREREGISTERED","today","1050.2000000178814","","s","true","[[25,422],[192,580],[422,574],[580,407],[574,177],[407,19],[177,25],[19,192]]","false","8","main_T2_Trial","s","img/Fire_Up_Target.gif","[""img/Fire_Down_Distractor.gif"",""img/Fire_Down_Distractor.gif"",""img/Fire_Down_Distractor.gif"",""img/Fire_Down_Distractor.gif"",""img/Fire_Down_Distractor.gif"",""img/Fire_Down_Distractor.gif"",""img/Fire_Down_Distractor.gif"",""img/Fire_Down_Distractor.gif"",""img/Fire_Down_Distractor.gif"",""img/Fire_Down_Distractor.gif"",""img/Fire_Down_Distractor.gif"",""img/Fire_Down_Distractor.gif""]","8","targetUp_distractorsDown"
"","","","","","html-keyboard-response","20","329785","0.0-14.0-0.0-0.3","1637185365486","FlSearch2.1.7-PREREGISTERED","today","null","","null","","","","","main_T1_ITI","","","","",""
"","","","","","visual-search-circle","21","332005","0.0-14.0-0.0-1.3","1637185365486","FlSearch2.1.7-PREREGISTERED","today","1216.800000011921","","s","true","[[217,588],[588,382],[382,11],[11,217]]","false","4","main_T2_Trial","s","img/Fire_Down_Target.gif","[""img/Fire_Up_Distractor.gif"",""img/Fire_Up_Distractor.gif"",""img/Fire_Up_Distractor.gif"",""img/Fire_Up_Distractor.gif"",""img/Fire_Up_Distractor.gif"",""img/Fire_Up_Distractor.gif"",""img/Fire_Up_Distractor.gif"",""img/Fire_Up_Distractor.gif"",""img/Fire_Up_Distractor.gif"",""img/Fire_Up_Distractor.gif"",""img/Fire_Up_Distractor.gif"",""img/Fire_Up_Distractor.gif""]","4","targetDown_distractorsUp"
"","","","","","html-keyboard-response","22","332006","0.0-14.0-0.0-0.4","1637185365486","FlSearch2.1.7-PREREGISTERED","today","null","","null","","","","","main_T1_ITI","","","","",""
"","","","","","visual-search-circle","23","334296","0.0-14.0-0.0-1.4","1637185365486","FlSearch2.1.7-PREREGISTERED","today","1285","","s","true","[[341,597],[578,412],[536,115],[258,2],[21,187],[63,484]]","false","6","main_T2_Trial","s","img/Fire_Down_Target.gif","[""img/Fire_Up_Distractor.gif"",""img/Fire_Up_Distractor.gif"",""img/Fire_Up_Distractor.gif"",""img/Fire_Up_Distractor.gif"",""img/Fire_Up_Distractor.gif"",""img/Fire_Up_Distractor.gif"",""img/Fire_Up_Distractor.gif"",""img/Fire_Up_Distractor.gif"",""img/Fire_Up_Distractor.gif"",""img/Fire_Up_Distractor.gif"",""img/Fire_Up_Distractor.gif"",""img/Fire_Up_Distractor.gif""]","6","targetDown_distractorsUp"
"","","","","","html-keyboard-response","24","334304","0.0-14.0-0.0-0.5","1637185365486","FlSearch2.1.7-PREREGISTERED","today","null","","null","","","","","main_T1_ITI","","","","",""
"","","","","","visual-search-circle","25","336863","0.0-14.0-0.0-1.5","1637185365486","FlSearch2.1.7-PREREGISTERED","today","1552.4000000059605","","d","true","[[576,182],[380,11],[124,56],[0,285],[102,525],[352,595],[563,442]]","true","7","main_T2_Trial","d","img/Fire_Up_Target.gif","[""img/Fire_Down_Distractor.gif"",""img/Fire_Down_Distractor.gif"",""img/Fire_Down_Distractor.gif"",""img/Fire_Down_Distractor.gif"",""img/Fire_Down_Distractor.gif"",""img/Fire_Down_Distractor.gif"",""img/Fire_Down_Distractor.gif"",""img/Fire_Down_Distractor.gif"",""img/Fire_Down_Distractor.gif"",""img/Fire_Down_Distractor.gif"",""img/Fire_Down_Distractor.gif"",""img/Fire_Down_Distractor.gif""]","7","targetUp_distractorsDown"
"","","","","","html-keyboard-response","26","336870","0.0-14.0-0.0-0.6","1637185365486","FlSearch2.1.7-PREREGISTERED","today","null","","null","","","","","main_T1_ITI","","","","",""
"","","","","","visual-search-circle","27","338616","0.0-14.0-0.0-1.6","1637185365486","FlSearch2.1.7-PREREGISTERED","today","741.2000000178814","","d","true","[[431,569],[597,258],[352,4],[35,159],[84,508]]","true","5","main_T2_Trial","d","img/Fire_Down_Target.gif","[""img/Fire_Up_Distractor.gif"",""img/Fire_Up_Distractor.gif"",""img/Fire_Up_Distractor.gif"",""img/Fire_Up_Distractor.gif"",""img/Fire_Up_Distractor.gif"",""img/Fire_Up_Distractor.gif"",""img/Fire_Up_Distractor.gif"",""img/Fire_Up_Distractor.gif"",""img/Fire_Up_Distractor.gif"",""img/Fire_Up_Distractor.gif"",""img/Fire_Up_Distractor.gif"",""img/Fire_Up_Distractor.gif""]","5","targetDown_distractorsUp"
"","","","","","html-keyboard-response","28","338618","0.0-14.0-0.0-0.7","1637185365486","FlSearch2.1.7-PREREGISTERED","today","null","","null","","","","","main_T1_ITI","","","","",""
"","","","","","visual-search-circle","29","340542","0.0-14.0-0.0-1.7","1637185365486","FlSearch2.1.7-PREREGISTERED","today","918","","s","true","[[362,593],[585,392],[522,99],[237,6],[14,207],[77,500]]","false","6","main_T2_Trial","s","img/Fire_Down_Target.gif","[""img/Fire_Up_Distractor.gif"",""img/Fire_Up_Distractor.gif"",""img/Fire_Up_Distractor.gif"",""img/Fire_Up_Distractor.gif"",""img/Fire_Up_Distractor.gif"",""img/Fire_Up_Distractor.gif"",""img/Fire_Up_Distractor.gif"",""img/Fire_Up_Distractor.gif"",""img/Fire_Up_Distractor.gif"",""img/Fire_Up_Distractor.gif"",""img/Fire_Up_Distractor.gif"",""img/Fire_Up_Distractor.gif""]","6","targetDown_distractorsUp"
"","","","","","html-keyboard-response","30","340543","0.0-14.0-0.0-0.8","1637185365486","FlSearch2.1.7-PREREGISTERED","today","null","","null","","","","","main_T1_ITI","","","","",""
"","","","","","visual-search-circle","31","342291","0.0-14.0-0.0-1.8","1637185365486","FlSearch2.1.7-PREREGISTERED","today","744.4000000059605","","s","true","[[25,422],[422,574],[574,177],[177,25]]","false","4","main_T2_Trial","s","img/Fire_Up_Target.gif","[""img/Fire_Down_Distractor.gif"",""img/Fire_Down_Distractor.gif"",""img/Fire_Down_Distractor.gif"",""img/Fire_Down_Distractor.gif"",""img/Fire_Down_Distractor.gif"",""img/Fire_Down_Distractor.gif"",""img/Fire_Down_Distractor.gif"",""img/Fire_Down_Distractor.gif"",""img/Fire_Down_Distractor.gif"",""img/Fire_Down_Distractor.gif"",""img/Fire_Down_Distractor.gif"",""img/Fire_Down_Distractor.gif""]","4","targetUp_distractorsDown"
"","","","","","html-keyboard-response","32","342293","0.0-14.0-0.0-0.9","1637185365486","FlSearch2.1.7-PREREGISTERED","today","null","","null","","","","","main_T1_ITI","","","","",""
"","","","","","visual-search-circle","33","344352","0.0-14.0-0.0-1.9","1637185365486","FlSearch2.1.7-PREREGISTERED","today","1053.3999999761581","","s","false","[[63,484],[297,599],[532,489],[593,236],[432,31],[172,28],[8,230]]","true","7","main_T2_Trial","d","img/Fire_Up_Target.gif","[""img/Fire_Down_Distractor.gif"",""img/Fire_Down_Distractor.gif"",""img/Fire_Down_Distractor.gif"",""img/Fire_Down_Distractor.gif"",""img/Fire_Down_Distractor.gif"",""img/Fire_Down_Distractor.gif"",""img/Fire_Down_Distractor.gif"",""img/Fire_Down_Distractor.gif"",""img/Fire_Down_Distractor.gif"",""img/Fire_Down_Distractor.gif"",""img/Fire_Down_Distractor.gif"",""img/Fire_Down_Distractor.gif""]","7","targetUp_distractorsDown"
"","","","","","html-keyboard-response","34","344355","0.0-14.0-0.0-0.10","1637185365486","FlSearch2.1.7-PREREGISTERED","today","null","","null","","","","","main_T1_ITI","","","","",""
"","","","","","visual-search-circle","35","346345","0.0-14.0-0.0-1.10","1637185365486","FlSearch2.1.7-PREREGISTERED","today","987.4000000059605","","s","true","[[377,10],[150,40],[10,222],[40,450],[222,589],[450,559],[589,377],[559,150]]","false","8","main_T2_Trial","s","img/Fire_Up_Target.gif","[""img/Fire_Down_Distractor.gif"",""img/Fire_Down_Distractor.gif"",""img/Fire_Down_Distractor.gif"",""img/Fire_Down_Distractor.gif"",""img/Fire_Down_Distractor.gif"",""img/Fire_Down_Distractor.gif"",""img/Fire_Down_Distractor.gif"",""img/Fire_Down_Distractor.gif"",""img/Fire_Down_Distractor.gif"",""img/Fire_Down_Distractor.gif"",""img/Fire_Down_Distractor.gif"",""img/Fire_Down_Distractor.gif""]","8","targetUp_distractorsDown"
"","","","","","html-keyboard-response","36","346347","0.0-14.0-0.0-0.11","1637185365486","FlSearch2.1.7-PREREGISTERED","today","null","","null","","","","","main_T1_ITI","","","","",""
"","","","","","visual-search-circle","37","348743","0.0-14.0-0.0-1.11","1637185365486","FlSearch2.1.7-PREREGISTERED","today","1391.7000000178814","","d","true","[[173,28],[18,197],[28,426],[197,581],[426,571],[581,402],[571,173],[402,18]]","true","8","main_T2_Trial","d","img/Fire_Down_Target.gif","[""img/Fire_Up_Distractor.gif"",""img/Fire_Up_Distractor.gif"",""img/Fire_Up_Distractor.gif"",""img/Fire_Up_Distractor.gif"",""img/Fire_Up_Distractor.gif"",""img/Fire_Up_Distractor.gif"",""img/Fire_Up_Distractor.gif"",""img/Fire_Up_Distractor.gif"",""img/Fire_Up_Distractor.gif"",""img/Fire_Up_Distractor.gif"",""img/Fire_Up_Distractor.gif"",""img/Fire_Up_Distractor.gif""]","8","targetDown_distractorsUp"
"","","","","","html-keyboard-response","38","348745","0.0-14.0-0.0-0.12","1637185365486","FlSearch2.1.7-PREREGISTERED","today","null","","null","","","","","main_T1_ITI","","","","",""
"","","","","","visual-search-circle","39","350611","0.0-14.0-0.0-1.12","1637185365486","FlSearch2.1.7-PREREGISTERED","today","862.0999999940395","","d","true","[[242,594],[494,528],[599,290],[479,59],[223,9],[25,178],[34,438]]","true","7","main_T2_Trial","d","img/Fire_Down_Target.gif","[""img/Fire_Up_Distractor.gif"",""img/Fire_Up_Distractor.gif"",""img/Fire_Up_Distractor.gif"",""img/Fire_Up_Distractor.gif"",""img/Fire_Up_Distractor.gif"",""img/Fire_Up_Distractor.gif"",""img/Fire_Up_Distractor.gif"",""img/Fire_Up_Distractor.gif"",""img/Fire_Up_Distractor.gif"",""img/Fire_Up_Distractor.gif"",""img/Fire_Up_Distractor.gif"",""img/Fire_Up_Distractor.gif""]","7","targetDown_distractorsUp"
"","","","","","html-keyboard-response","40","350614","0.0-14.0-0.0-0.13","1637185365486","FlSearch2.1.7-PREREGISTERED","today","null","","null","","","","","main_T1_ITI","","","","",""
"","","","","","visual-search-circle","41","353490","0.0-14.0-0.0-1.13","1637185365486","FlSearch2.1.7-PREREGISTERED","today","1870.699999988079","","s","false","[[492,70],[240,5],[33,163],[26,423],[225,590],[481,539],[599,307]]","true","7","main_T2_Trial","d","img/Fire_Down_Target.gif","[""img/Fire_Up_Distractor.gif"",""img/Fire_Up_Distractor.gif"",""img/Fire_Up_Distractor.gif"",""img/Fire_Up_Distractor.gif"",""img/Fire_Up_Distractor.gif"",""img/Fire_Up_Distractor.gif"",""img/Fire_Up_Distractor.gif"",""img/Fire_Up_Distractor.gif"",""img/Fire_Up_Distractor.gif"",""img/Fire_Up_Distractor.gif"",""img/Fire_Up_Distractor.gif"",""img/Fire_Up_Distractor.gif""]","7","targetDown_distractorsUp"
"","","","","","html-keyboard-response","42","353491","0.0-14.0-0.0-0.14","1637185365486","FlSearch2.1.7-PREREGISTERED","today","null","","null","","","","","main_T1_ITI","","","","",""
"","","","","","visual-search-circle","43","355752","0.0-14.0-0.0-1.14","1637185365486","FlSearch2.1.7-PREREGISTERED","today","1256.7999999821186","","s","true","[[217,11],[8,227],[91,515],[382,588],[591,372],[508,84]]","false","6","main_T2_Trial","s","img/Fire_Down_Target.gif","[""img/Fire_Up_Distractor.gif"",""img/Fire_Up_Distractor.gif"",""img/Fire_Up_Distractor.gif"",""img/Fire_Up_Distractor.gif"",""img/Fire_Up_Distractor.gif"",""img/Fire_Up_Distractor.gif"",""img/Fire_Up_Distractor.gif"",""img/Fire_Up_Distractor.gif"",""img/Fire_Up_Distractor.gif"",""img/Fire_Up_Distractor.gif"",""img/Fire_Up_Distractor.gif"",""img/Fire_Up_Distractor.gif""]","6","targetDown_distractorsUp"
"","","","","","html-keyboard-response","44","355754","0.0-14.0-0.0-0.15","1637185365486","FlSearch2.1.7-PREREGISTERED","today","null","","null","","","","","main_T1_ITI","","","","",""
"","","","","","visual-search-circle","45","357847","0.0-14.0-0.0-1.15","1637185365486","FlSearch2.1.7-PREREGISTERED","today","1090","","d","true","[[492,70],[141,45],[8,372],[279,599],[578,412]]","true","5","main_T2_Trial","d","img/Fire_Down_Target.gif","[""img/Fire_Up_Distractor.gif"",""img/Fire_Up_Distractor.gif"",""img/Fire_Up_Distractor.gif"",""img/Fire_Up_Distractor.gif"",""img/Fire_Up_Distractor.gif"",""img/Fire_Up_Distractor.gif"",""img/Fire_Up_Distractor.gif"",""img/Fire_Up_Distractor.gif"",""img/Fire_Up_Distractor.gif"",""img/Fire_Up_Distractor.gif"",""img/Fire_Up_Distractor.gif"",""img/Fire_Up_Distractor.gif""]","5","targetDown_distractorsUp"
"","","","","","html-keyboard-response","46","357849","0.0-14.0-0.0-0.16","1637185365486","FlSearch2.1.7-PREREGISTERED","today","null","","null","","","","","main_T1_ITI","","","","",""
"","","","","","visual-search-circle","47","361140","0.0-14.0-0.0-1.16","1637185365486","FlSearch2.1.7-PREREGISTERED","today","2283.699999988079","","s","false","[[202,583],[583,397],[397,16],[16,202]]","true","4","main_T2_Trial","d","img/Fire_Up_Target.gif","[""img/Fire_Down_Distractor.gif"",""img/Fire_Down_Distractor.gif"",""img/Fire_Down_Distractor.gif"",""img/Fire_Down_Distractor.gif"",""img/Fire_Down_Distractor.gif"",""img/Fire_Down_Distractor.gif"",""img/Fire_Down_Distractor.gif"",""img/Fire_Down_Distractor.gif"",""img/Fire_Down_Distractor.gif"",""img/Fire_Down_Distractor.gif"",""img/Fire_Down_Distractor.gif"",""img/Fire_Down_Distractor.gif""]","4","targetUp_distractorsDown"
"","","","","","html-keyboard-response","48","361142","0.0-14.0-0.0-0.17","1637185365486","FlSearch2.1.7-PREREGISTERED","today","null","","null","","","","","main_T1_ITI","","","","",""
"","","","","","visual-search-circle","49","363738","0.0-14.0-0.0-1.17","1637185365486","FlSearch2.1.7-PREREGISTERED","today","1593.5","","s","true","[[504,80],[80,95],[95,519],[519,504]]","false","4","main_T2_Trial","s","img/Fire_Down_Target.gif","[""img/Fire_Up_Distractor.gif"",""img/Fire_Up_Distractor.gif"",""img/Fire_Up_Distractor.gif"",""img/Fire_Up_Distractor.gif"",""img/Fire_Up_Distractor.gif"",""img/Fire_Up_Distractor.gif"",""img/Fire_Up_Distractor.gif"",""img/Fire_Up_Distractor.gif"",""img/Fire_Up_Distractor.gif"",""img/Fire_Up_Distractor.gif"",""img/Fire_Up_Distractor.gif"",""img/Fire_Up_Distractor.gif""]","4","targetDown_distractorsUp"
"","","","","","html-keyboard-response","50","363740","0.0-14.0-0.0-0.18","1637185365486","FlSearch2.1.7-PREREGISTERED","today","null","","null","","","","","main_T1_ITI","","","","",""
"","","","","","visual-search-circle","51","365605","0.0-14.0-0.0-1.18","1637185365486","FlSearch2.1.7-PREREGISTERED","today","860.4000000059605","","d","true","[[557,454],[454,42],[42,145],[145,557]]","true","4","main_T2_Trial","d","img/Fire_Down_Target.gif","[""img/Fire_Up_Distractor.gif"",""img/Fire_Up_Distractor.gif"",""img/Fire_Up_Distractor.gif"",""img/Fire_Up_Distractor.gif"",""img/Fire_Up_Distractor.gif"",""img/Fire_Up_Distractor.gif"",""img/Fire_Up_Distractor.gif"",""img/Fire_Up_Distractor.gif"",""img/Fire_Up_Distractor.gif"",""img/Fire_Up_Distractor.gif"",""img/Fire_Up_Distractor.gif"",""img/Fire_Up_Distractor.gif""]","4","targetDown_distractorsUp"
"","","","","","html-keyboard-response","52","371154","0.0-14.0-0.0-0.19","1637185365486","FlSearch2.1.7-PREREGISTERED","today","5548.4000000059605","Wow! You've completed 20 out of 120 trials! </p> <p>  </p><p> Take a quick break, then press any key when you're ready to continue.","d","","","","","main_T1_ITI","","","","",""
"","","","","","visual-search-circle","53","373584","0.0-14.0-0.0-1.19","1637185365486","FlSearch2.1.7-PREREGISTERED","today","1424.5","","d","true","[[163,32],[6,239],[69,492],[306,599],[538,481],[590,226],[424,26]]","true","7","main_T2_Trial","d","img/Fire_Up_Target.gif","[""img/Fire_Down_Distractor.gif"",""img/Fire_Down_Distractor.gif"",""img/Fire_Down_Distractor.gif"",""img/Fire_Down_Distractor.gif"",""img/Fire_Down_Distractor.gif"",""img/Fire_Down_Distractor.gif"",""img/Fire_Down_Distractor.gif"",""img/Fire_Down_Distractor.gif"",""img/Fire_Down_Distractor.gif"",""img/Fire_Down_Distractor.gif"",""img/Fire_Down_Distractor.gif"",""img/Fire_Down_Distractor.gif""]","7","targetUp_distractorsDown"
"","","","","","html-keyboard-response","54","373585","0.0-14.0-0.0-0.20","1637185365486","FlSearch2.1.7-PREREGISTERED","today","null","","null","","","","","main_T1_ITI","","","","",""
"","","","","","visual-search-circle","55","375872","0.0-14.0-0.0-1.20","1637185365486","FlSearch2.1.7-PREREGISTERED","today","1282.4000000059605","","s","true","[[40,150],[40,450],[299,600],[559,450],[559,150],[300,0]]","false","6","main_T2_Trial","s","img/Fire_Down_Target.gif","[""img/Fire_Up_Distractor.gif"",""img/Fire_Up_Distractor.gif"",""img/Fire_Up_Distractor.gif"",""img/Fire_Up_Distractor.gif"",""img/Fire_Up_Distractor.gif"",""img/Fire_Up_Distractor.gif"",""img/Fire_Up_Distractor.gif"",""img/Fire_Up_Distractor.gif"",""img/Fire_Up_Distractor.gif"",""img/Fire_Up_Distractor.gif"",""img/Fire_Up_Distractor.gif"",""img/Fire_Up_Distractor.gif""]","6","targetDown_distractorsUp"
"","","","","","html-keyboard-response","56","375876","0.0-14.0-0.0-0.21","1637185365486","FlSearch2.1.7-PREREGISTERED","today","null","","null","","","","","main_T1_ITI","","","","",""
"","","","","","visual-search-circle","57","378066","0.0-14.0-0.0-1.21","1637185365486","FlSearch2.1.7-PREREGISTERED","today","1184.800000011921","","s","true","[[596,253],[476,57],[253,3],[57,123],[3,346],[123,542],[346,596],[542,476]]","false","8","main_T2_Trial","s","img/Fire_Up_Target.gif","[""img/Fire_Down_Distractor.gif"",""img/Fire_Down_Distractor.gif"",""img/Fire_Down_Distractor.gif"",""img/Fire_Down_Distractor.gif"",""img/Fire_Down_Distractor.gif"",""img/Fire_Down_Distractor.gif"",""img/Fire_Down_Distractor.gif"",""img/Fire_Down_Distractor.gif"",""img/Fire_Down_Distractor.gif"",""img/Fire_Down_Distractor.gif"",""img/Fire_Down_Distractor.gif"",""img/Fire_Down_Distractor.gif""]","8","targetUp_distractorsDown"
"","","","","","html-keyboard-response","58","378067","0.0-14.0-0.0-0.22","1637185365486","FlSearch2.1.7-PREREGISTERED","today","null","","null","","","","","main_T1_ITI","","","","",""
"","","","","","visual-search-circle","59","380865","0.0-14.0-0.0-1.22","1637185365486","FlSearch2.1.7-PREREGISTERED","today","1794.5999999940395","","s","false","[[13,212],[127,545],[480,539],[583,202],[294,0]]","true","5","main_T2_Trial","d","img/Fire_Down_Target.gif","[""img/Fire_Up_Distractor.gif"",""img/Fire_Up_Distractor.gif"",""img/Fire_Up_Distractor.gif"",""img/Fire_Up_Distractor.gif"",""img/Fire_Up_Distractor.gif"",""img/Fire_Up_Distractor.gif"",""img/Fire_Up_Distractor.gif"",""img/Fire_Up_Distractor.gif"",""img/Fire_Up_Distractor.gif"",""img/Fire_Up_Distractor.gif"",""img/Fire_Up_Distractor.gif"",""img/Fire_Up_Distractor.gif""]","5","targetDown_distractorsUp"
"","","","","","html-keyboard-response","60","380867","0.0-14.0-0.0-0.23","1637185365486","FlSearch2.1.7-PREREGISTERED","today","null","","null","","","","","main_T1_ITI","","","","",""
"","","","","","visual-search-circle","61","383335","0.0-14.0-0.0-1.23","1637185365486","FlSearch2.1.7-PREREGISTERED","today","1463.800000011921","","s","false","[[273,1],[7,232],[145,557],[496,526],[576,182]]","true","5","main_T2_Trial","d","img/Fire_Up_Target.gif","[""img/Fire_Down_Distractor.gif"",""img/Fire_Down_Distractor.gif"",""img/Fire_Down_Distractor.gif"",""img/Fire_Down_Distractor.gif"",""img/Fire_Down_Distractor.gif"",""img/Fire_Down_Distractor.gif"",""img/Fire_Down_Distractor.gif"",""img/Fire_Down_Distractor.gif"",""img/Fire_Down_Distractor.gif"",""img/Fire_Down_Distractor.gif"",""img/Fire_Down_Distractor.gif"",""img/Fire_Down_Distractor.gif""]","5","targetUp_distractorsDown"
"","","","","","html-keyboard-response","62","383338","0.0-14.0-0.0-0.24","1637185365486","FlSearch2.1.7-PREREGISTERED","today","null","","null","","","","","main_T1_ITI","","","","",""
"","","","","","visual-search-circle","63","385694","0.0-14.0-0.0-1.24","1637185365486","FlSearch2.1.7-PREREGISTERED","today","1351.0999999940395","","s","true","[[258,2],[21,187],[63,484],[341,597],[578,412],[536,115]]","false","6","main_T2_Trial","s","img/Fire_Up_Target.gif","[""img/Fire_Down_Distractor.gif"",""img/Fire_Down_Distractor.gif"",""img/Fire_Down_Distractor.gif"",""img/Fire_Down_Distractor.gif"",""img/Fire_Down_Distractor.gif"",""img/Fire_Down_Distractor.gif"",""img/Fire_Down_Distractor.gif"",""img/Fire_Down_Distractor.gif"",""img/Fire_Down_Distractor.gif"",""img/Fire_Down_Distractor.gif"",""img/Fire_Down_Distractor.gif"",""img/Fire_Down_Distractor.gif""]","6","targetUp_distractorsDown"
"","","","","","html-keyboard-response","64","385696","0.0-14.0-0.0-0.25","1637185365486","FlSearch2.1.7-PREREGISTERED","today","null","","null","","","","","main_T1_ITI","","","","",""
"","","","","","visual-search-circle","65","391614","0.0-14.0-0.0-1.25","1637185365486","FlSearch2.1.7-PREREGISTERED","today","4913.5","","d","true","[[593,362],[500,77],[207,14],[6,237],[99,522],[392,585]]","true","6","main_T2_Trial","d","img/Fire_Up_Target.gif","[""img/Fire_Down_Distractor.gif"",""img/Fire_Down_Distractor.gif"",""img/Fire_Down_Distractor.gif"",""img/Fire_Down_Distractor.gif"",""img/Fire_Down_Distractor.gif"",""img/Fire_Down_Distractor.gif"",""img/Fire_Down_Distractor.gif"",""img/Fire_Down_Distractor.gif"",""img/Fire_Down_Distractor.gif"",""img/Fire_Down_Distractor.gif"",""img/Fire_Down_Distractor.gif"",""img/Fire_Down_Distractor.gif""]","6","targetUp_distractorsDown"
"","","","","","html-keyboard-response","66","391616","0.0-14.0-0.0-0.26","1637185365486","FlSearch2.1.7-PREREGISTERED","today","null","","null","","","","","main_T1_ITI","","","","",""
"","","","","","visual-search-circle","67","393871","0.0-14.0-0.0-1.26","1637185365486","FlSearch2.1.7-PREREGISTERED","today","1251.699999988079","","s","true","[[484,63],[63,115],[115,536],[536,484]]","false","4","main_T2_Trial","s","img/Fire_Up_Target.gif","[""img/Fire_Down_Distractor.gif"",""img/Fire_Down_Distractor.gif"",""img/Fire_Down_Distractor.gif"",""img/Fire_Down_Distractor.gif"",""img/Fire_Down_Distractor.gif"",""img/Fire_Down_Distractor.gif"",""img/Fire_Down_Distractor.gif"",""img/Fire_Down_Distractor.gif"",""img/Fire_Down_Distractor.gif"",""img/Fire_Down_Distractor.gif"",""img/Fire_Down_Distractor.gif"",""img/Fire_Down_Distractor.gif""]","4","targetUp_distractorsDown"
"","","","","","html-keyboard-response","68","393874","0.0-14.0-0.0-0.27","1637185365486","FlSearch2.1.7-PREREGISTERED","today","null","","null","","","","","main_T1_ITI","","","","",""
"","","","","","visual-search-circle","69","399561","0.0-14.0-0.0-1.27","1637185365486","FlSearch2.1.7-PREREGISTERED","today","4680.299999982119","","d","true","[[66,488],[268,598],[488,533],[598,331],[533,111],[331,1],[111,66],[1,268]]","true","8","main_T2_Trial","d","img/Fire_Down_Target.gif","[""img/Fire_Up_Distractor.gif"",""img/Fire_Up_Distractor.gif"",""img/Fire_Up_Distractor.gif"",""img/Fire_Up_Distractor.gif"",""img/Fire_Up_Distractor.gif"",""img/Fire_Up_Distractor.gif"",""img/Fire_Up_Distractor.gif"",""img/Fire_Up_Distractor.gif"",""img/Fire_Up_Distractor.gif"",""img/Fire_Up_Distractor.gif"",""img/Fire_Up_Distractor.gif"",""img/Fire_Up_Distractor.gif""]","8","targetDown_distractorsUp"
"","","","","","html-keyboard-response","70","399564","0.0-14.0-0.0-0.28","1637185365486","FlSearch2.1.7-PREREGISTERED","today","null","","null","","","","","main_T1_ITI","","","","",""
"","","","","","visual-search-circle","71","403216","0.0-14.0-0.0-1.28","1637185365486","FlSearch2.1.7-PREREGISTERED","today","2647.2000000178814","","s","true","[[367,7],[113,64],[0,299],[112,534],[366,592],[569,430],[570,170]]","false","7","main_T2_Trial","s","img/Fire_Down_Target.gif","[""img/Fire_Up_Distractor.gif"",""img/Fire_Up_Distractor.gif"",""img/Fire_Up_Distractor.gif"",""img/Fire_Up_Distractor.gif"",""img/Fire_Up_Distractor.gif"",""img/Fire_Up_Distractor.gif"",""img/Fire_Up_Distractor.gif"",""img/Fire_Up_Distractor.gif"",""img/Fire_Up_Distractor.gif"",""img/Fire_Up_Distractor.gif"",""img/Fire_Up_Distractor.gif"",""img/Fire_Up_Distractor.gif""]","7","targetDown_distractorsUp"
"","","","","","html-keyboard-response","72","403217","0.0-14.0-0.0-0.29","1637185365486","FlSearch2.1.7-PREREGISTERED","today","null","","null","","","","","main_T1_ITI","","","","",""
"","","","","","visual-search-circle","73","407536","0.0-14.0-0.0-1.29","1637185365486","FlSearch2.1.7-PREREGISTERED","today","3312.5","","d","true","[[247,595],[498,524],[599,285],[475,56],[218,11],[23,183],[36,443]]","true","7","main_T2_Trial","d","img/Fire_Down_Target.gif","[""img/Fire_Up_Distractor.gif"",""img/Fire_Up_Distractor.gif"",""img/Fire_Up_Distractor.gif"",""img/Fire_Up_Distractor.gif"",""img/Fire_Up_Distractor.gif"",""img/Fire_Up_Distractor.gif"",""img/Fire_Up_Distractor.gif"",""img/Fire_Up_Distractor.gif"",""img/Fire_Up_Distractor.gif"",""img/Fire_Up_Distractor.gif"",""img/Fire_Up_Distractor.gif"",""img/Fire_Up_Distractor.gif""]","7","targetDown_distractorsUp"
"","","","","","html-keyboard-response","74","407538","0.0-14.0-0.0-0.30","1637185365486","FlSearch2.1.7-PREREGISTERED","today","null","","null","","","","","main_T1_ITI","","","","",""
"","","","","","visual-search-circle","75","410506","0.0-14.0-0.0-1.30","1637185365486","FlSearch2.1.7-PREREGISTERED","today","1963.5","","d","true","[[16,202],[119,539],[472,545],[586,212],[305,0]]","true","5","main_T2_Trial","d","img/Fire_Down_Target.gif","[""img/Fire_Up_Distractor.gif"",""img/Fire_Up_Distractor.gif"",""img/Fire_Up_Distractor.gif"",""img/Fire_Up_Distractor.gif"",""img/Fire_Up_Distractor.gif"",""img/Fire_Up_Distractor.gif"",""img/Fire_Up_Distractor.gif"",""img/Fire_Up_Distractor.gif"",""img/Fire_Up_Distractor.gif"",""img/Fire_Up_Distractor.gif"",""img/Fire_Up_Distractor.gif"",""img/Fire_Up_Distractor.gif""]","5","targetDown_distractorsUp"
"","","","","","html-keyboard-response","76","410507","0.0-14.0-0.0-0.31","1637185365486","FlSearch2.1.7-PREREGISTERED","today","null","","null","","","","","main_T1_ITI","","","","",""
"","","","","","visual-search-circle","77","420615","0.0-14.0-0.0-1.31","1637185365486","FlSearch2.1.7-PREREGISTERED","today","9104.90000000596","","d","true","[[1,268],[123,542],[422,574],[598,331],[476,57],[177,25]]","true","6","main_T2_Trial","d","img/Fire_Up_Target.gif","[""img/Fire_Down_Distractor.gif"",""img/Fire_Down_Distractor.gif"",""img/Fire_Down_Distractor.gif"",""img/Fire_Down_Distractor.gif"",""img/Fire_Down_Distractor.gif"",""img/Fire_Down_Distractor.gif"",""img/Fire_Down_Distractor.gif"",""img/Fire_Down_Distractor.gif"",""img/Fire_Down_Distractor.gif"",""img/Fire_Down_Distractor.gif"",""img/Fire_Down_Distractor.gif"",""img/Fire_Down_Distractor.gif""]","6","targetUp_distractorsDown"
"","","","","","html-keyboard-response","78","420617","0.0-14.0-0.0-0.32","1637185365486","FlSearch2.1.7-PREREGISTERED","today","null","","null","","","","","main_T1_ITI","","","","",""
"","","","","","visual-search-circle","79","423525","0.0-14.0-0.0-1.32","1637185365486","FlSearch2.1.7-PREREGISTERED","today","1905","","d","true","[[40,150],[40,450],[299,600],[559,450],[559,150],[300,0]]","true","6","main_T2_Trial","d","img/Fire_Down_Target.gif","[""img/Fire_Up_Distractor.gif"",""img/Fire_Up_Distractor.gif"",""img/Fire_Up_Distractor.gif"",""img/Fire_Up_Distractor.gif"",""img/Fire_Up_Distractor.gif"",""img/Fire_Up_Distractor.gif"",""img/Fire_Up_Distractor.gif"",""img/Fire_Up_Distractor.gif"",""img/Fire_Up_Distractor.gif"",""img/Fire_Up_Distractor.gif"",""img/Fire_Up_Distractor.gif"",""img/Fire_Up_Distractor.gif""]","6","targetDown_distractorsUp"
"","","","","","html-keyboard-response","80","423527","0.0-14.0-0.0-0.33","1637185365486","FlSearch2.1.7-PREREGISTERED","today","null","","null","","","","","main_T1_ITI","","","","",""
"","","","","","visual-search-circle","81","426292","0.0-14.0-0.0-1.33","1637185365486","FlSearch2.1.7-PREREGISTERED","today","1760.7000000178814","","s","true","[[326,1],[54,127],[28,426],[273,598],[545,472],[571,173]]","false","6","main_T2_Trial","s","img/Fire_Up_Target.gif","[""img/Fire_Down_Distractor.gif"",""img/Fire_Down_Distractor.gif"",""img/Fire_Down_Distractor.gif"",""img/Fire_Down_Distractor.gif"",""img/Fire_Down_Distractor.gif"",""img/Fire_Down_Distractor.gif"",""img/Fire_Down_Distractor.gif"",""img/Fire_Down_Distractor.gif"",""img/Fire_Down_Distractor.gif"",""img/Fire_Down_Distractor.gif"",""img/Fire_Down_Distractor.gif"",""img/Fire_Down_Distractor.gif""]","6","targetUp_distractorsDown"
"","","","","","html-keyboard-response","82","426294","0.0-14.0-0.0-0.34","1637185365486","FlSearch2.1.7-PREREGISTERED","today","null","","null","","","","","main_T1_ITI","","","","",""
"","","","","","visual-search-circle","83","428619","0.0-14.0-0.0-1.34","1637185365486","FlSearch2.1.7-PREREGISTERED","today","1322","","s","true","[[463,551],[589,222],[315,0],[19,192],[111,533]]","false","5","main_T2_Trial","s","img/Fire_Up_Target.gif","[""img/Fire_Down_Distractor.gif"",""img/Fire_Down_Distractor.gif"",""img/Fire_Down_Distractor.gif"",""img/Fire_Down_Distractor.gif"",""img/Fire_Down_Distractor.gif"",""img/Fire_Down_Distractor.gif"",""img/Fire_Down_Distractor.gif"",""img/Fire_Down_Distractor.gif"",""img/Fire_Down_Distractor.gif"",""img/Fire_Down_Distractor.gif"",""img/Fire_Down_Distractor.gif"",""img/Fire_Down_Distractor.gif""]","5","targetUp_distractorsDown"
"","","","","","html-keyboard-response","84","428620","0.0-14.0-0.0-0.35","1637185365486","FlSearch2.1.7-PREREGISTERED","today","null","","null","","","","","main_T1_ITI","","","","",""
"","","","","","visual-search-circle","85","431309","0.0-14.0-0.0-1.35","1637185365486","FlSearch2.1.7-PREREGISTERED","today","1684.0999999940395","","s","true","[[0,320],[103,526],[320,599],[526,496],[599,279],[496,73],[279,0],[73,103]]","false","8","main_T2_Trial","s","img/Fire_Down_Target.gif","[""img/Fire_Up_Distractor.gif"",""img/Fire_Up_Distractor.gif"",""img/Fire_Up_Distractor.gif"",""img/Fire_Up_Distractor.gif"",""img/Fire_Up_Distractor.gif"",""img/Fire_Up_Distractor.gif"",""img/Fire_Up_Distractor.gif"",""img/Fire_Up_Distractor.gif"",""img/Fire_Up_Distractor.gif"",""img/Fire_Up_Distractor.gif"",""img/Fire_Up_Distractor.gif"",""img/Fire_Up_Distractor.gif""]","8","targetDown_distractorsUp"
"","","","","","html-keyboard-response","86","431311","0.0-14.0-0.0-0.36","1637185365486","FlSearch2.1.7-PREREGISTERED","today","null","","null","","","","","main_T1_ITI","","","","",""
"","","","","","visual-search-circle","87","434131","0.0-14.0-0.0-1.36","1637185365486","FlSearch2.1.7-PREREGISTERED","today","1813.199999988079","","d","true","[[3,346],[123,542],[346,596],[542,476],[596,253],[476,57],[253,3],[57,123]]","true","8","main_T2_Trial","d","img/Fire_Up_Target.gif","[""img/Fire_Down_Distractor.gif"",""img/Fire_Down_Distractor.gif"",""img/Fire_Down_Distractor.gif"",""img/Fire_Down_Distractor.gif"",""img/Fire_Down_Distractor.gif"",""img/Fire_Down_Distractor.gif"",""img/Fire_Down_Distractor.gif"",""img/Fire_Down_Distractor.gif"",""img/Fire_Down_Distractor.gif"",""img/Fire_Down_Distractor.gif"",""img/Fire_Down_Distractor.gif"",""img/Fire_Down_Distractor.gif""]","8","targetUp_distractorsDown"
"","","","","","html-keyboard-response","88","434315","0.0-14.0-0.0-0.37","1637185365486","FlSearch2.1.7-PREREGISTERED","today","null","","null","","","","","main_T1_ITI","","","","",""
"","","","","","visual-search-circle","89","436805","0.0-14.0-0.0-1.37","1637185365486","FlSearch2.1.7-PREREGISTERED","today","1486","","d","true","[[115,63],[2,341],[187,578],[484,536],[597,258],[412,21]]","true","6","main_T2_Trial","d","img/Fire_Down_Target.gif","[""img/Fire_Up_Distractor.gif"",""img/Fire_Up_Distractor.gif"",""img/Fire_Up_Distractor.gif"",""img/Fire_Up_Distractor.gif"",""img/Fire_Up_Distractor.gif"",""img/Fire_Up_Distractor.gif"",""img/Fire_Up_Distractor.gif"",""img/Fire_Up_Distractor.gif"",""img/Fire_Up_Distractor.gif"",""img/Fire_Up_Distractor.gif"",""img/Fire_Up_Distractor.gif"",""img/Fire_Up_Distractor.gif""]","6","targetDown_distractorsUp"
"","","","","","html-keyboard-response","90","436807","0.0-14.0-0.0-0.38","1637185365486","FlSearch2.1.7-PREREGISTERED","today","null","","null","","","","","main_T1_ITI","","","","",""
"","","","","","visual-search-circle","91","439015","0.0-14.0-0.0-1.38","1637185365486","FlSearch2.1.7-PREREGISTERED","today","1204.0999999940395","","s","true","[[0,279],[187,578],[529,492],[554,141],[227,8]]","false","5","main_T2_Trial","s","img/Fire_Up_Target.gif","[""img/Fire_Down_Distractor.gif"",""img/Fire_Down_Distractor.gif"",""img/Fire_Down_Distractor.gif"",""img/Fire_Down_Distractor.gif"",""img/Fire_Down_Distractor.gif"",""img/Fire_Down_Distractor.gif"",""img/Fire_Down_Distractor.gif"",""img/Fire_Down_Distractor.gif"",""img/Fire_Down_Distractor.gif"",""img/Fire_Down_Distractor.gif"",""img/Fire_Down_Distractor.gif"",""img/Fire_Down_Distractor.gif""]","5","targetUp_distractorsDown"
"","","","","","html-keyboard-response","92","440110","0.0-14.0-0.0-0.39","1637185365486","FlSearch2.1.7-PREREGISTERED","today","1094.199999988079","Wow! You've completed 40 out of 120 trials! </p> <p>  </p><p> Take a quick break, then press any key when you're ready to continue.","s","","","","","main_T1_ITI","","","","",""
"","","","","","visual-search-circle","93","443298","0.0-14.0-0.0-1.39","1637185365486","FlSearch2.1.7-PREREGISTERED","today","2183.7000000178814","","s","false","[[476,57],[253,3],[57,123],[3,346],[123,542],[346,596],[542,476],[596,253]]","true","8","main_T2_Trial","d","img/Fire_Down_Target.gif","[""img/Fire_Up_Distractor.gif"",""img/Fire_Up_Distractor.gif"",""img/Fire_Up_Distractor.gif"",""img/Fire_Up_Distractor.gif"",""img/Fire_Up_Distractor.gif"",""img/Fire_Up_Distractor.gif"",""img/Fire_Up_Distractor.gif"",""img/Fire_Up_Distractor.gif"",""img/Fire_Up_Distractor.gif"",""img/Fire_Up_Distractor.gif"",""img/Fire_Up_Distractor.gif"",""img/Fire_Up_Distractor.gif""]","8","targetDown_distractorsUp"
"","","","","","html-keyboard-response","94","443301","0.0-14.0-0.0-0.40","1637185365486","FlSearch2.1.7-PREREGISTERED","today","null","","null","","","","","main_T1_ITI","","","","",""
"","","","","","visual-search-circle","95","445747","0.0-14.0-0.0-1.40","1637185365486","FlSearch2.1.7-PREREGISTERED","today","1440.2000000178814","","s","true","[[529,107],[107,70],[70,492],[492,529]]","false","4","main_T2_Trial","s","img/Fire_Up_Target.gif","[""img/Fire_Down_Distractor.gif"",""img/Fire_Down_Distractor.gif"",""img/Fire_Down_Distractor.gif"",""img/Fire_Down_Distractor.gif"",""img/Fire_Down_Distractor.gif"",""img/Fire_Down_Distractor.gif"",""img/Fire_Down_Distractor.gif"",""img/Fire_Down_Distractor.gif"",""img/Fire_Down_Distractor.gif"",""img/Fire_Down_Distractor.gif"",""img/Fire_Down_Distractor.gif"",""img/Fire_Down_Distractor.gif""]","4","targetUp_distractorsDown"
"","","","","","html-keyboard-response","96","445749","0.0-14.0-0.0-0.41","1637185365486","FlSearch2.1.7-PREREGISTERED","today","null","","null","","","","","main_T1_ITI","","","","",""
"","","","","","visual-search-circle","97","449312","0.0-14.0-0.0-1.41","1637185365486","FlSearch2.1.7-PREREGISTERED","today","2557.699999988079","","d","true","[[522,500],[585,207],[362,6],[77,99],[14,392],[237,593]]","true","6","main_T2_Trial","d","img/Fire_Down_Target.gif","[""img/Fire_Up_Distractor.gif"",""img/Fire_Up_Distractor.gif"",""img/Fire_Up_Distractor.gif"",""img/Fire_Up_Distractor.gif"",""img/Fire_Up_Distractor.gif"",""img/Fire_Up_Distractor.gif"",""img/Fire_Up_Distractor.gif"",""img/Fire_Up_Distractor.gif"",""img/Fire_Up_Distractor.gif"",""img/Fire_Up_Distractor.gif"",""img/Fire_Up_Distractor.gif"",""img/Fire_Up_Distractor.gif""]","6","targetDown_distractorsUp"
"","","","","","html-keyboard-response","98","449314","0.0-14.0-0.0-0.42","1637185365486","FlSearch2.1.7-PREREGISTERED","today","null","","null","","","","","main_T1_ITI","","","","",""
"","","","","","visual-search-circle","99","451368","0.0-14.0-0.0-1.42","1637185365486","FlSearch2.1.7-PREREGISTERED","today","1049.800000011921","","s","true","[[163,567],[512,512],[567,163],[253,3],[3,253]]","false","5","main_T2_Trial","s","img/Fire_Up_Target.gif","[""img/Fire_Down_Distractor.gif"",""img/Fire_Down_Distractor.gif"",""img/Fire_Down_Distractor.gif"",""img/Fire_Down_Distractor.gif"",""img/Fire_Down_Distractor.gif"",""img/Fire_Down_Distractor.gif"",""img/Fire_Down_Distractor.gif"",""img/Fire_Down_Distractor.gif"",""img/Fire_Down_Distractor.gif"",""img/Fire_Down_Distractor.gif"",""img/Fire_Down_Distractor.gif"",""img/Fire_Down_Distractor.gif""]","5","targetUp_distractorsDown"
"","","","","","html-keyboard-response","100","451371","0.0-14.0-0.0-0.43","1637185365486","FlSearch2.1.7-PREREGISTERED","today","null","","null","","","","","main_T1_ITI","","","","",""
"","","","","","visual-search-circle","101","454231","0.0-14.0-0.0-1.43","1637185365486","FlSearch2.1.7-PREREGISTERED","today","1853.199999988079","","d","true","[[594,357],[528,105],[290,0],[59,120],[9,376],[178,574],[438,565]]","true","7","main_T2_Trial","d","img/Fire_Down_Target.gif","[""img/Fire_Up_Distractor.gif"",""img/Fire_Up_Distractor.gif"",""img/Fire_Up_Distractor.gif"",""img/Fire_Up_Distractor.gif"",""img/Fire_Up_Distractor.gif"",""img/Fire_Up_Distractor.gif"",""img/Fire_Up_Distractor.gif"",""img/Fire_Up_Distractor.gif"",""img/Fire_Up_Distractor.gif"",""img/Fire_Up_Distractor.gif"",""img/Fire_Up_Distractor.gif"",""img/Fire_Up_Distractor.gif""]","7","targetDown_distractorsUp"
"","","","","","html-keyboard-response","102","454232","0.0-14.0-0.0-0.44","1637185365486","FlSearch2.1.7-PREREGISTERED","today","null","","null","","","","","main_T1_ITI","","","","",""
"","","","","","visual-search-circle","103","456239","0.0-14.0-0.0-1.44","1637185365486","FlSearch2.1.7-PREREGISTERED","today","1004","","d","true","[[154,37],[37,445],[445,562],[562,154]]","true","4","main_T2_Trial","d","img/Fire_Up_Target.gif","[""img/Fire_Down_Distractor.gif"",""img/Fire_Down_Distractor.gif"",""img/Fire_Down_Distractor.gif"",""img/Fire_Down_Distractor.gif"",""img/Fire_Down_Distractor.gif"",""img/Fire_Down_Distractor.gif"",""img/Fire_Down_Distractor.gif"",""img/Fire_Down_Distractor.gif"",""img/Fire_Down_Distractor.gif"",""img/Fire_Down_Distractor.gif"",""img/Fire_Down_Distractor.gif"",""img/Fire_Down_Distractor.gif""]","4","targetUp_distractorsDown"
"","","","","","html-keyboard-response","104","456240","0.0-14.0-0.0-0.45","1637185365486","FlSearch2.1.7-PREREGISTERED","today","null","","null","","","","","main_T1_ITI","","","","",""
"","","","","","visual-search-circle","105","458666","0.0-14.0-0.0-1.45","1637185365486","FlSearch2.1.7-PREREGISTERED","today","1422","","d","true","[[21,187],[107,529],[458,554],[591,227],[320,0]]","true","5","main_T2_Trial","d","img/Fire_Up_Target.gif","[""img/Fire_Down_Distractor.gif"",""img/Fire_Down_Distractor.gif"",""img/Fire_Down_Distractor.gif"",""img/Fire_Down_Distractor.gif"",""img/Fire_Down_Distractor.gif"",""img/Fire_Down_Distractor.gif"",""img/Fire_Down_Distractor.gif"",""img/Fire_Down_Distractor.gif"",""img/Fire_Down_Distractor.gif"",""img/Fire_Down_Distractor.gif"",""img/Fire_Down_Distractor.gif"",""img/Fire_Down_Distractor.gif""]","5","targetUp_distractorsDown"
"","","","","","html-keyboard-response","106","458668","0.0-14.0-0.0-0.46","1637185365486","FlSearch2.1.7-PREREGISTERED","today","null","","null","","","","","main_T1_ITI","","","","",""
"","","","","","visual-search-circle","107","462269","0.0-14.0-0.0-1.46","1637185365486","FlSearch2.1.7-PREREGISTERED","today","2595.7999999821186","","d","true","[[431,30],[171,29],[7,231],[64,485],[298,599],[533,488],[592,234]]","true","7","main_T2_Trial","d","img/Fire_Down_Target.gif","[""img/Fire_Up_Distractor.gif"",""img/Fire_Up_Distractor.gif"",""img/Fire_Up_Distractor.gif"",""img/Fire_Up_Distractor.gif"",""img/Fire_Up_Distractor.gif"",""img/Fire_Up_Distractor.gif"",""img/Fire_Up_Distractor.gif"",""img/Fire_Up_Distractor.gif"",""img/Fire_Up_Distractor.gif"",""img/Fire_Up_Distractor.gif"",""img/Fire_Up_Distractor.gif"",""img/Fire_Up_Distractor.gif""]","7","targetDown_distractorsUp"
"","","","","","html-keyboard-response","108","462271","0.0-14.0-0.0-0.47","1637185365486","FlSearch2.1.7-PREREGISTERED","today","null","","null","","","","","main_T1_ITI","","","","",""
"","","","","","visual-search-circle","109","467436","0.0-14.0-0.0-1.47","1637185365486","FlSearch2.1.7-PREREGISTERED","today","4159.700000017881","","d","true","[[279,0],[73,103],[0,320],[103,526],[320,599],[526,496],[599,279],[496,73]]","true","8","main_T2_Trial","d","img/Fire_Up_Target.gif","[""img/Fire_Down_Distractor.gif"",""img/Fire_Down_Distractor.gif"",""img/Fire_Down_Distractor.gif"",""img/Fire_Down_Distractor.gif"",""img/Fire_Down_Distractor.gif"",""img/Fire_Down_Distractor.gif"",""img/Fire_Down_Distractor.gif"",""img/Fire_Down_Distractor.gif"",""img/Fire_Down_Distractor.gif"",""img/Fire_Down_Distractor.gif"",""img/Fire_Down_Distractor.gif"",""img/Fire_Down_Distractor.gif""]","8","targetUp_distractorsDown"
"","","","","","html-keyboard-response","110","467439","0.0-14.0-0.0-0.48","1637185365486","FlSearch2.1.7-PREREGISTERED","today","null","","null","","","","","main_T1_ITI","","","","",""
"","","","","","visual-search-circle","111","472310","0.0-14.0-0.0-1.48","1637185365486","FlSearch2.1.7-PREREGISTERED","today","3866","","d","true","[[247,595],[595,352],[352,4],[4,247]]","true","4","main_T2_Trial","d","img/Fire_Down_Target.gif","[""img/Fire_Up_Distractor.gif"",""img/Fire_Up_Distractor.gif"",""img/Fire_Up_Distractor.gif"",""img/Fire_Up_Distractor.gif"",""img/Fire_Up_Distractor.gif"",""img/Fire_Up_Distractor.gif"",""img/Fire_Up_Distractor.gif"",""img/Fire_Up_Distractor.gif"",""img/Fire_Up_Distractor.gif"",""img/Fire_Up_Distractor.gif"",""img/Fire_Up_Distractor.gif"",""img/Fire_Up_Distractor.gif""]","4","targetDown_distractorsUp"
"","","","","","html-keyboard-response","112","472311","0.0-14.0-0.0-0.49","1637185365486","FlSearch2.1.7-PREREGISTERED","today","null","","null","","","","","main_T1_ITI","","","","",""
"","","","","","visual-search-circle","113","477608","0.0-14.0-0.0-1.49","1637185365486","FlSearch2.1.7-PREREGISTERED","today","4294.700000017881","","d","true","[[515,91],[91,84],[84,508],[508,515]]","true","4","main_T2_Trial","d","img/Fire_Up_Target.gif","[""img/Fire_Down_Distractor.gif"",""img/Fire_Down_Distractor.gif"",""img/Fire_Down_Distractor.gif"",""img/Fire_Down_Distractor.gif"",""img/Fire_Down_Distractor.gif"",""img/Fire_Down_Distractor.gif"",""img/Fire_Down_Distractor.gif"",""img/Fire_Down_Distractor.gif"",""img/Fire_Down_Distractor.gif"",""img/Fire_Down_Distractor.gif"",""img/Fire_Down_Distractor.gif"",""img/Fire_Down_Distractor.gif""]","4","targetUp_distractorsDown"
"","","","","","html-keyboard-response","114","477611","0.0-14.0-0.0-0.50","1637185365486","FlSearch2.1.7-PREREGISTERED","today","null","","null","","","","","main_T1_ITI","","","","",""
"","","","","","visual-search-circle","115","480224","0.0-14.0-0.0-1.50","1637185365486","FlSearch2.1.7-PREREGISTERED","today","1609.300000011921","","d","true","[[599,279],[470,52],[213,12],[21,189],[39,448],[253,596],[502,520]]","true","7","main_T2_Trial","d","img/Fire_Up_Target.gif","[""img/Fire_Down_Distractor.gif"",""img/Fire_Down_Distractor.gif"",""img/Fire_Down_Distractor.gif"",""img/Fire_Down_Distractor.gif"",""img/Fire_Down_Distractor.gif"",""img/Fire_Down_Distractor.gif"",""img/Fire_Down_Distractor.gif"",""img/Fire_Down_Distractor.gif"",""img/Fire_Down_Distractor.gif"",""img/Fire_Down_Distractor.gif"",""img/Fire_Down_Distractor.gif"",""img/Fire_Down_Distractor.gif""]","7","targetUp_distractorsDown"
"","","","","","html-keyboard-response","116","480227","0.0-14.0-0.0-0.51","1637185365486","FlSearch2.1.7-PREREGISTERED","today","null","","null","","","","","main_T1_ITI","","","","",""
"","","","","","visual-search-circle","117","482454","0.0-14.0-0.0-1.51","1637185365486","FlSearch2.1.7-PREREGISTERED","today","1222.1000000238419","","s","true","[[253,596],[567,436],[512,87],[163,32],[3,346]]","false","5","main_T2_Trial","s","img/Fire_Down_Target.gif","[""img/Fire_Up_Distractor.gif"",""img/Fire_Up_Distractor.gif"",""img/Fire_Up_Distractor.gif"",""img/Fire_Up_Distractor.gif"",""img/Fire_Up_Distractor.gif"",""img/Fire_Up_Distractor.gif"",""img/Fire_Up_Distractor.gif"",""img/Fire_Up_Distractor.gif"",""img/Fire_Up_Distractor.gif"",""img/Fire_Up_Distractor.gif"",""img/Fire_Up_Distractor.gif"",""img/Fire_Up_Distractor.gif""]","5","targetDown_distractorsUp"
"","","","","","html-keyboard-response","118","482456","0.0-14.0-0.0-0.52","1637185365486","FlSearch2.1.7-PREREGISTERED","today","null","","null","","","","","main_T1_ITI","","","","",""
"","","","","","visual-search-circle","119","484625","0.0-14.0-0.0-1.52","1637185365486","FlSearch2.1.7-PREREGISTERED","today","1167.4000000059605","","s","true","[[431,30],[30,168],[168,569],[569,431]]","false","4","main_T2_Trial","s","img/Fire_Up_Target.gif","[""img/Fire_Down_Distractor.gif"",""img/Fire_Down_Distractor.gif"",""img/Fire_Down_Distractor.gif"",""img/Fire_Down_Distractor.gif"",""img/Fire_Down_Distractor.gif"",""img/Fire_Down_Distractor.gif"",""img/Fire_Down_Distractor.gif"",""img/Fire_Down_Distractor.gif"",""img/Fire_Down_Distractor.gif"",""img/Fire_Down_Distractor.gif"",""img/Fire_Down_Distractor.gif"",""img/Fire_Down_Distractor.gif""]","4","targetUp_distractorsDown"
"","","","","","html-keyboard-response","120","484627","0.0-14.0-0.0-0.53","1637185365486","FlSearch2.1.7-PREREGISTERED","today","null","","null","","","","","main_T1_ITI","","","","",""
"","","","","","visual-search-circle","121","486597","0.0-14.0-0.0-1.53","1637185365486","FlSearch2.1.7-PREREGISTERED","today","965.7999999821186","","d","true","[[357,594],[583,397],[526,103],[242,5],[16,202],[73,496]]","true","6","main_T2_Trial","d","img/Fire_Down_Target.gif","[""img/Fire_Up_Distractor.gif"",""img/Fire_Up_Distractor.gif"",""img/Fire_Up_Distractor.gif"",""img/Fire_Up_Distractor.gif"",""img/Fire_Up_Distractor.gif"",""img/Fire_Up_Distractor.gif"",""img/Fire_Up_Distractor.gif"",""img/Fire_Up_Distractor.gif"",""img/Fire_Up_Distractor.gif"",""img/Fire_Up_Distractor.gif"",""img/Fire_Up_Distractor.gif"",""img/Fire_Up_Distractor.gif""]","6","targetDown_distractorsUp"
"","","","","","html-keyboard-response","122","486599","0.0-14.0-0.0-0.54","1637185365486","FlSearch2.1.7-PREREGISTERED","today","null","","null","","","","","main_T1_ITI","","","","",""
"","","","","","visual-search-circle","123","490348","0.0-14.0-0.0-1.54","1637185365486","FlSearch2.1.7-PREREGISTERED","today","2742","","d","true","[[132,548],[357,594],[548,467],[594,242],[467,51],[242,5],[51,132],[5,357]]","true","8","main_T2_Trial","d","img/Fire_Down_Target.gif","[""img/Fire_Up_Distractor.gif"",""img/Fire_Up_Distractor.gif"",""img/Fire_Up_Distractor.gif"",""img/Fire_Up_Distractor.gif"",""img/Fire_Up_Distractor.gif"",""img/Fire_Up_Distractor.gif"",""img/Fire_Up_Distractor.gif"",""img/Fire_Up_Distractor.gif"",""img/Fire_Up_Distractor.gif"",""img/Fire_Up_Distractor.gif"",""img/Fire_Up_Distractor.gif"",""img/Fire_Up_Distractor.gif""]","8","targetDown_distractorsUp"
"","","","","","html-keyboard-response","124","490350","0.0-14.0-0.0-0.55","1637185365486","FlSearch2.1.7-PREREGISTERED","today","null","","null","","","","","main_T1_ITI","","","","",""
"","","","","","visual-search-circle","125","492374","0.0-14.0-0.0-1.55","1637185365486","FlSearch2.1.7-PREREGISTERED","today","1021.1000000238419","","d","true","[[512,87],[87,87],[87,512],[512,512]]","true","4","main_T2_Trial","d","img/Fire_Down_Target.gif","[""img/Fire_Up_Distractor.gif"",""img/Fire_Up_Distractor.gif"",""img/Fire_Up_Distractor.gif"",""img/Fire_Up_Distractor.gif"",""img/Fire_Up_Distractor.gif"",""img/Fire_Up_Distractor.gif"",""img/Fire_Up_Distractor.gif"",""img/Fire_Up_Distractor.gif"",""img/Fire_Up_Distractor.gif"",""img/Fire_Up_Distractor.gif"",""img/Fire_Up_Distractor.gif"",""img/Fire_Up_Distractor.gif""]","4","targetDown_distractorsUp"
"","","","","","html-keyboard-response","126","492376","0.0-14.0-0.0-0.56","1637185365486","FlSearch2.1.7-PREREGISTERED","today","null","","null","","","","","main_T1_ITI","","","","",""
"","","","","","visual-search-circle","127","494726","0.0-14.0-0.0-1.56","1637185365486","FlSearch2.1.7-PREREGISTERED","today","1343.4000000059605","","s","true","[[593,362],[531,109],[295,0],[62,116],[8,371],[173,572],[434,568]]","false","7","main_T2_Trial","s","img/Fire_Up_Target.gif","[""img/Fire_Down_Distractor.gif"",""img/Fire_Down_Distractor.gif"",""img/Fire_Down_Distractor.gif"",""img/Fire_Down_Distractor.gif"",""img/Fire_Down_Distractor.gif"",""img/Fire_Down_Distractor.gif"",""img/Fire_Down_Distractor.gif"",""img/Fire_Down_Distractor.gif"",""img/Fire_Down_Distractor.gif"",""img/Fire_Down_Distractor.gif"",""img/Fire_Down_Distractor.gif"",""img/Fire_Down_Distractor.gif""]","7","targetUp_distractorsDown"
"","","","","","html-keyboard-response","128","494728","0.0-14.0-0.0-0.57","1637185365486","FlSearch2.1.7-PREREGISTERED","today","null","","null","","","","","main_T1_ITI","","","","",""
"","","","","","visual-search-circle","129","497150","0.0-14.0-0.0-1.57","1637185365486","FlSearch2.1.7-PREREGISTERED","today","1418.2000000178814","","s","true","[[73,103],[42,454],[367,592],[598,326],[417,23]]","false","5","main_T2_Trial","s","img/Fire_Down_Target.gif","[""img/Fire_Up_Distractor.gif"",""img/Fire_Up_Distractor.gif"",""img/Fire_Up_Distractor.gif"",""img/Fire_Up_Distractor.gif"",""img/Fire_Up_Distractor.gif"",""img/Fire_Up_Distractor.gif"",""img/Fire_Up_Distractor.gif"",""img/Fire_Up_Distractor.gif"",""img/Fire_Up_Distractor.gif"",""img/Fire_Up_Distractor.gif"",""img/Fire_Up_Distractor.gif"",""img/Fire_Up_Distractor.gif""]","5","targetDown_distractorsUp"
"","","","","","html-keyboard-response","130","497151","0.0-14.0-0.0-0.58","1637185365486","FlSearch2.1.7-PREREGISTERED","today","null","","null","","","","","main_T1_ITI","","","","",""
"","","","","","visual-search-circle","131","499519","0.0-14.0-0.0-1.58","1637185365486","FlSearch2.1.7-PREREGISTERED","today","1362.4000000059605","","d","true","[[412,21],[21,187],[187,578],[578,412]]","true","4","main_T2_Trial","d","img/Fire_Down_Target.gif","[""img/Fire_Up_Distractor.gif"",""img/Fire_Up_Distractor.gif"",""img/Fire_Up_Distractor.gif"",""img/Fire_Up_Distractor.gif"",""img/Fire_Up_Distractor.gif"",""img/Fire_Up_Distractor.gif"",""img/Fire_Up_Distractor.gif"",""img/Fire_Up_Distractor.gif"",""img/Fire_Up_Distractor.gif"",""img/Fire_Up_Distractor.gif"",""img/Fire_Up_Distractor.gif"",""img/Fire_Up_Distractor.gif""]","4","targetDown_distractorsUp"
"","","","","","html-keyboard-response","132","501168","0.0-14.0-0.0-0.59","1637185365486","FlSearch2.1.7-PREREGISTERED","today","1648.699999988079","Wow! You've completed 60 out of 120 trials! </p> <p>  </p><p> Take a quick break, then press any key when you're ready to continue.","s","","","","","main_T1_ITI","","","","",""
"","","","","","visual-search-circle","133","503557","0.0-14.0-0.0-1.59","1637185365486","FlSearch2.1.7-PREREGISTERED","today","1386.0999999940395","","s","true","[[578,412],[492,70],[141,45],[8,372],[279,599]]","false","5","main_T2_Trial","s","img/Fire_Down_Target.gif","[""img/Fire_Up_Distractor.gif"",""img/Fire_Up_Distractor.gif"",""img/Fire_Up_Distractor.gif"",""img/Fire_Up_Distractor.gif"",""img/Fire_Up_Distractor.gif"",""img/Fire_Up_Distractor.gif"",""img/Fire_Up_Distractor.gif"",""img/Fire_Up_Distractor.gif"",""img/Fire_Up_Distractor.gif"",""img/Fire_Up_Distractor.gif"",""img/Fire_Up_Distractor.gif"",""img/Fire_Up_Distractor.gif""]","5","targetDown_distractorsUp"
"","","","","","html-keyboard-response","134","503558","0.0-14.0-0.0-0.60","1637185365486","FlSearch2.1.7-PREREGISTERED","today","null","","null","","","","","main_T1_ITI","","","","",""
"","","","","","visual-search-circle","135","506618","0.0-14.0-0.0-1.60","1637185365486","FlSearch2.1.7-PREREGISTERED","today","2056.4000000059605","","s","true","[[66,111],[111,533],[533,488],[488,66]]","false","4","main_T2_Trial","s","img/Fire_Down_Target.gif","[""img/Fire_Up_Distractor.gif"",""img/Fire_Up_Distractor.gif"",""img/Fire_Up_Distractor.gif"",""img/Fire_Up_Distractor.gif"",""img/Fire_Up_Distractor.gif"",""img/Fire_Up_Distractor.gif"",""img/Fire_Up_Distractor.gif"",""img/Fire_Up_Distractor.gif"",""img/Fire_Up_Distractor.gif"",""img/Fire_Up_Distractor.gif"",""img/Fire_Up_Distractor.gif"",""img/Fire_Up_Distractor.gif""]","4","targetDown_distractorsUp"
"","","","","","html-keyboard-response","136","506619","0.0-14.0-0.0-0.61","1637185365486","FlSearch2.1.7-PREREGISTERED","today","null","","null","","","","","main_T1_ITI","","","","",""
"","","","","","visual-search-circle","137","510149","0.0-14.0-0.0-1.61","1637185365486","FlSearch2.1.7-PREREGISTERED","today","2525.300000011921","","d","true","[[0,305],[212,586],[545,472],[539,119],[202,16]]","true","5","main_T2_Trial","d","img/Fire_Up_Target.gif","[""img/Fire_Down_Distractor.gif"",""img/Fire_Down_Distractor.gif"",""img/Fire_Down_Distractor.gif"",""img/Fire_Down_Distractor.gif"",""img/Fire_Down_Distractor.gif"",""img/Fire_Down_Distractor.gif"",""img/Fire_Down_Distractor.gif"",""img/Fire_Down_Distractor.gif"",""img/Fire_Down_Distractor.gif"",""img/Fire_Down_Distractor.gif"",""img/Fire_Down_Distractor.gif"",""img/Fire_Down_Distractor.gif""]","5","targetUp_distractorsDown"
"","","","","","html-keyboard-response","138","510151","0.0-14.0-0.0-0.62","1637185365486","FlSearch2.1.7-PREREGISTERED","today","null","","null","","","","","main_T1_ITI","","","","",""
"","","","","","visual-search-circle","139","512382","0.0-14.0-0.0-1.62","1637185365486","FlSearch2.1.7-PREREGISTERED","today","1226.2000000178814","","s","true","[[10,377],[284,599],[580,407],[488,66],[136,48]]","false","5","main_T2_Trial","s","img/Fire_Down_Target.gif","[""img/Fire_Up_Distractor.gif"",""img/Fire_Up_Distractor.gif"",""img/Fire_Up_Distractor.gif"",""img/Fire_Up_Distractor.gif"",""img/Fire_Up_Distractor.gif"",""img/Fire_Up_Distractor.gif"",""img/Fire_Up_Distractor.gif"",""img/Fire_Up_Distractor.gif"",""img/Fire_Up_Distractor.gif"",""img/Fire_Up_Distractor.gif"",""img/Fire_Up_Distractor.gif"",""img/Fire_Up_Distractor.gif""]","5","targetDown_distractorsUp"
"","","","","","html-keyboard-response","140","512384","0.0-14.0-0.0-0.63","1637185365486","FlSearch2.1.7-PREREGISTERED","today","null","","null","","","","","main_T1_ITI","","","","",""
"","","","","","visual-search-circle","141","516258","0.0-14.0-0.0-1.63","1637185365486","FlSearch2.1.7-PREREGISTERED","today","2869.800000011921","","d","true","[[402,18],[107,70],[4,352],[197,581],[492,529],[595,247]]","true","6","main_T2_Trial","d","img/Fire_Down_Target.gif","[""img/Fire_Up_Distractor.gif"",""img/Fire_Up_Distractor.gif"",""img/Fire_Up_Distractor.gif"",""img/Fire_Up_Distractor.gif"",""img/Fire_Up_Distractor.gif"",""img/Fire_Up_Distractor.gif"",""img/Fire_Up_Distractor.gif"",""img/Fire_Up_Distractor.gif"",""img/Fire_Up_Distractor.gif"",""img/Fire_Up_Distractor.gif"",""img/Fire_Up_Distractor.gif"",""img/Fire_Up_Distractor.gif""]","6","targetDown_distractorsUp"
"","","","","","html-keyboard-response","142","516260","0.0-14.0-0.0-0.64","1637185365486","FlSearch2.1.7-PREREGISTERED","today","null","","null","","","","","main_T1_ITI","","","","",""
"","","","","","visual-search-circle","143","518352","0.0-14.0-0.0-1.64","1637185365486","FlSearch2.1.7-PREREGISTERED","today","1087.5999999940395","","s","true","[[583,397],[526,103],[242,5],[16,202],[73,496],[357,594]]","false","6","main_T2_Trial","s","img/Fire_Up_Target.gif","[""img/Fire_Down_Distractor.gif"",""img/Fire_Down_Distractor.gif"",""img/Fire_Down_Distractor.gif"",""img/Fire_Down_Distractor.gif"",""img/Fire_Down_Distractor.gif"",""img/Fire_Down_Distractor.gif"",""img/Fire_Down_Distractor.gif"",""img/Fire_Down_Distractor.gif"",""img/Fire_Down_Distractor.gif"",""img/Fire_Down_Distractor.gif"",""img/Fire_Down_Distractor.gif"",""img/Fire_Down_Distractor.gif""]","6","targetUp_distractorsDown"
"","","","","","html-keyboard-response","144","518354","0.0-14.0-0.0-0.65","1637185365486","FlSearch2.1.7-PREREGISTERED","today","null","","null","","","","","main_T1_ITI","","","","",""
"","","","","","visual-search-circle","145","520629","0.0-14.0-0.0-1.65","1637185365486","FlSearch2.1.7-PREREGISTERED","today","1271.699999988079","","s","false","[[372,8],[84,91],[11,382],[227,591],[515,508],[588,217]]","true","6","main_T2_Trial","d","img/Fire_Up_Target.gif","[""img/Fire_Down_Distractor.gif"",""img/Fire_Down_Distractor.gif"",""img/Fire_Down_Distractor.gif"",""img/Fire_Down_Distractor.gif"",""img/Fire_Down_Distractor.gif"",""img/Fire_Down_Distractor.gif"",""img/Fire_Down_Distractor.gif"",""img/Fire_Down_Distractor.gif"",""img/Fire_Down_Distractor.gif"",""img/Fire_Down_Distractor.gif"",""img/Fire_Down_Distractor.gif"",""img/Fire_Down_Distractor.gif""]","6","targetUp_distractorsDown"
"","","","","","html-keyboard-response","146","520631","0.0-14.0-0.0-0.66","1637185365486","FlSearch2.1.7-PREREGISTERED","today","null","","null","","","","","main_T1_ITI","","","","",""
"","","","","","visual-search-circle","147","523175","0.0-14.0-0.0-1.66","1637185365486","FlSearch2.1.7-PREREGISTERED","today","1540.300000011921","","d","true","[[7,232],[64,486],[299,599],[534,487],[592,233],[430,30],[170,29]]","true","7","main_T2_Trial","d","img/Fire_Down_Target.gif","[""img/Fire_Up_Distractor.gif"",""img/Fire_Up_Distractor.gif"",""img/Fire_Up_Distractor.gif"",""img/Fire_Up_Distractor.gif"",""img/Fire_Up_Distractor.gif"",""img/Fire_Up_Distractor.gif"",""img/Fire_Up_Distractor.gif"",""img/Fire_Up_Distractor.gif"",""img/Fire_Up_Distractor.gif"",""img/Fire_Up_Distractor.gif"",""img/Fire_Up_Distractor.gif"",""img/Fire_Up_Distractor.gif""]","7","targetDown_distractorsUp"
"","","","","","html-keyboard-response","148","523178","0.0-14.0-0.0-0.67","1637185365486","FlSearch2.1.7-PREREGISTERED","today","null","","null","","","","","main_T1_ITI","","","","",""
"","","","","","visual-search-circle","149","525442","0.0-14.0-0.0-1.67","1637185365486","FlSearch2.1.7-PREREGISTERED","today","1260.0999999940395","","s","true","[[48,136],[136,551],[551,463],[463,48]]","false","4","main_T2_Trial","s","img/Fire_Up_Target.gif","[""img/Fire_Down_Distractor.gif"",""img/Fire_Down_Distractor.gif"",""img/Fire_Down_Distractor.gif"",""img/Fire_Down_Distractor.gif"",""img/Fire_Down_Distractor.gif"",""img/Fire_Down_Distractor.gif"",""img/Fire_Down_Distractor.gif"",""img/Fire_Down_Distractor.gif"",""img/Fire_Down_Distractor.gif"",""img/Fire_Down_Distractor.gif"",""img/Fire_Down_Distractor.gif"",""img/Fire_Down_Distractor.gif""]","4","targetUp_distractorsDown"
"","","","","","html-keyboard-response","150","525444","0.0-14.0-0.0-0.68","1637185365486","FlSearch2.1.7-PREREGISTERED","today","null","","null","","","","","main_T1_ITI","","","","",""
"","","","","","visual-search-circle","151","527663","0.0-14.0-0.0-1.68","1637185365486","FlSearch2.1.7-PREREGISTERED","today","1215.4000000059605","","s","true","[[599,289],[440,35],[141,45],[0,310],[159,564],[458,554]]","false","6","main_T2_Trial","s","img/Fire_Down_Target.gif","[""img/Fire_Up_Distractor.gif"",""img/Fire_Up_Distractor.gif"",""img/Fire_Up_Distractor.gif"",""img/Fire_Up_Distractor.gif"",""img/Fire_Up_Distractor.gif"",""img/Fire_Up_Distractor.gif"",""img/Fire_Up_Distractor.gif"",""img/Fire_Up_Distractor.gif"",""img/Fire_Up_Distractor.gif"",""img/Fire_Up_Distractor.gif"",""img/Fire_Up_Distractor.gif"",""img/Fire_Up_Distractor.gif""]","6","targetDown_distractorsUp"
"","","","","","html-keyboard-response","152","527665","0.0-14.0-0.0-0.69","1637185365486","FlSearch2.1.7-PREREGISTERED","today","null","","null","","","","","main_T1_ITI","","","","",""
"","","","","","visual-search-circle","153","529725","0.0-14.0-0.0-1.69","1637185365486","FlSearch2.1.7-PREREGISTERED","today","1053.5999999940395","","s","true","[[431,30],[202,16],[30,168],[16,397],[168,569],[397,583],[569,431],[583,202]]","false","8","main_T2_Trial","s","img/Fire_Down_Target.gif","[""img/Fire_Up_Distractor.gif"",""img/Fire_Up_Distractor.gif"",""img/Fire_Up_Distractor.gif"",""img/Fire_Up_Distractor.gif"",""img/Fire_Up_Distractor.gif"",""img/Fire_Up_Distractor.gif"",""img/Fire_Up_Distractor.gif"",""img/Fire_Up_Distractor.gif"",""img/Fire_Up_Distractor.gif"",""img/Fire_Up_Distractor.gif"",""img/Fire_Up_Distractor.gif"",""img/Fire_Up_Distractor.gif""]","8","targetDown_distractorsUp"
"","","","","","html-keyboard-response","154","529726","0.0-14.0-0.0-0.70","1637185365486","FlSearch2.1.7-PREREGISTERED","today","null","","null","","","","","main_T1_ITI","","","","",""
"","","","","","visual-search-circle","155","531913","0.0-14.0-0.0-1.70","1637185365486","FlSearch2.1.7-PREREGISTERED","today","1181.7000000178814","","s","true","[[589,377],[512,87],[222,10],[10,222],[87,512],[377,589]]","false","6","main_T2_Trial","s","img/Fire_Up_Target.gif","[""img/Fire_Down_Distractor.gif"",""img/Fire_Down_Distractor.gif"",""img/Fire_Down_Distractor.gif"",""img/Fire_Down_Distractor.gif"",""img/Fire_Down_Distractor.gif"",""img/Fire_Down_Distractor.gif"",""img/Fire_Down_Distractor.gif"",""img/Fire_Down_Distractor.gif"",""img/Fire_Down_Distractor.gif"",""img/Fire_Down_Distractor.gif"",""img/Fire_Down_Distractor.gif"",""img/Fire_Down_Distractor.gif""]","6","targetUp_distractorsDown"
"","","","","","html-keyboard-response","156","531915","0.0-14.0-0.0-0.71","1637185365486","FlSearch2.1.7-PREREGISTERED","today","null","","null","","","","","main_T1_ITI","","","","",""
"","","","","","visual-search-circle","157","534036","0.0-14.0-0.0-1.71","1637185365486","FlSearch2.1.7-PREREGISTERED","today","1116.5999999940395","","s","true","[[63,484],[297,599],[532,489],[593,236],[432,31],[172,28],[8,230]]","false","7","main_T2_Trial","s","img/Fire_Down_Target.gif","[""img/Fire_Up_Distractor.gif"",""img/Fire_Up_Distractor.gif"",""img/Fire_Up_Distractor.gif"",""img/Fire_Up_Distractor.gif"",""img/Fire_Up_Distractor.gif"",""img/Fire_Up_Distractor.gif"",""img/Fire_Up_Distractor.gif"",""img/Fire_Up_Distractor.gif"",""img/Fire_Up_Distractor.gif"",""img/Fire_Up_Distractor.gif"",""img/Fire_Up_Distractor.gif"",""img/Fire_Up_Distractor.gif""]","7","targetDown_distractorsUp"
"","","","","","html-keyboard-response","158","534037","0.0-14.0-0.0-0.72","1637185365486","FlSearch2.1.7-PREREGISTERED","today","null","","null","","","","","main_T1_ITI","","","","",""
"","","","","","visual-search-circle","159","536299","0.0-14.0-0.0-1.72","1637185365486","FlSearch2.1.7-PREREGISTERED","today","1257.4000000059605","","d","true","[[305,599],[562,445],[557,145],[294,0],[37,154],[42,454]]","true","6","main_T2_Trial","d","img/Fire_Up_Target.gif","[""img/Fire_Down_Distractor.gif"",""img/Fire_Down_Distractor.gif"",""img/Fire_Down_Distractor.gif"",""img/Fire_Down_Distractor.gif"",""img/Fire_Down_Distractor.gif"",""img/Fire_Down_Distractor.gif"",""img/Fire_Down_Distractor.gif"",""img/Fire_Down_Distractor.gif"",""img/Fire_Down_Distractor.gif"",""img/Fire_Down_Distractor.gif"",""img/Fire_Down_Distractor.gif"",""img/Fire_Down_Distractor.gif""]","6","targetUp_distractorsDown"
"","","","","","html-keyboard-response","160","536302","0.0-14.0-0.0-0.73","1637185365486","FlSearch2.1.7-PREREGISTERED","today","null","","null","","","","","main_T1_ITI","","","","",""
"","","","","","visual-search-circle","161","538380","0.0-14.0-0.0-1.73","1637185365486","FlSearch2.1.7-PREREGISTERED","today","1072.7999999821186","","s","true","[[73,496],[357,594],[583,397],[526,103],[242,5],[16,202]]","false","6","main_T2_Trial","s","img/Fire_Up_Target.gif","[""img/Fire_Down_Distractor.gif"",""img/Fire_Down_Distractor.gif"",""img/Fire_Down_Distractor.gif"",""img/Fire_Down_Distractor.gif"",""img/Fire_Down_Distractor.gif"",""img/Fire_Down_Distractor.gif"",""img/Fire_Down_Distractor.gif"",""img/Fire_Down_Distractor.gif"",""img/Fire_Down_Distractor.gif"",""img/Fire_Down_Distractor.gif"",""img/Fire_Down_Distractor.gif"",""img/Fire_Down_Distractor.gif""]","6","targetUp_distractorsDown"
"","","","","","html-keyboard-response","162","538381","0.0-14.0-0.0-0.74","1637185365486","FlSearch2.1.7-PREREGISTERED","today","null","","null","","","","","main_T1_ITI","","","","",""
"","","","","","visual-search-circle","163","540328","0.0-14.0-0.0-1.74","1637185365486","FlSearch2.1.7-PREREGISTERED","today","942.3000000119209","","s","true","[[402,581],[571,426],[581,197],[426,28],[197,18],[28,173],[18,402],[173,571]]","false","8","main_T2_Trial","s","img/Fire_Up_Target.gif","[""img/Fire_Down_Distractor.gif"",""img/Fire_Down_Distractor.gif"",""img/Fire_Down_Distractor.gif"",""img/Fire_Down_Distractor.gif"",""img/Fire_Down_Distractor.gif"",""img/Fire_Down_Distractor.gif"",""img/Fire_Down_Distractor.gif"",""img/Fire_Down_Distractor.gif"",""img/Fire_Down_Distractor.gif"",""img/Fire_Down_Distractor.gif"",""img/Fire_Down_Distractor.gif"",""img/Fire_Down_Distractor.gif""]","8","targetUp_distractorsDown"
"","","","","","html-keyboard-response","164","540331","0.0-14.0-0.0-0.75","1637185365486","FlSearch2.1.7-PREREGISTERED","today","null","","null","","","","","main_T1_ITI","","","","",""
"","","","","","visual-search-circle","165","542457","0.0-14.0-0.0-1.75","1637185365486","FlSearch2.1.7-PREREGISTERED","today","1120.5","","s","false","[[367,7],[141,45],[7,232],[45,458],[232,592],[458,554],[592,367],[554,141]]","true","8","main_T2_Trial","d","img/Fire_Up_Target.gif","[""img/Fire_Down_Distractor.gif"",""img/Fire_Down_Distractor.gif"",""img/Fire_Down_Distractor.gif"",""img/Fire_Down_Distractor.gif"",""img/Fire_Down_Distractor.gif"",""img/Fire_Down_Distractor.gif"",""img/Fire_Down_Distractor.gif"",""img/Fire_Down_Distractor.gif"",""img/Fire_Down_Distractor.gif"",""img/Fire_Down_Distractor.gif"",""img/Fire_Down_Distractor.gif"",""img/Fire_Down_Distractor.gif""]","8","targetUp_distractorsDown"
"","","","","","html-keyboard-response","166","542459","0.0-14.0-0.0-0.76","1637185365486","FlSearch2.1.7-PREREGISTERED","today","null","","null","","","","","main_T1_ITI","","","","",""
"","","","","","visual-search-circle","167","545159","0.0-14.0-0.0-1.76","1637185365486","FlSearch2.1.7-PREREGISTERED","today","1695.0999999940395","","s","true","[[111,66],[0,302],[114,535],[368,591],[571,428],[569,167],[364,7]]","false","7","main_T2_Trial","s","img/Fire_Down_Target.gif","[""img/Fire_Up_Distractor.gif"",""img/Fire_Up_Distractor.gif"",""img/Fire_Up_Distractor.gif"",""img/Fire_Up_Distractor.gif"",""img/Fire_Up_Distractor.gif"",""img/Fire_Up_Distractor.gif"",""img/Fire_Up_Distractor.gif"",""img/Fire_Up_Distractor.gif"",""img/Fire_Up_Distractor.gif"",""img/Fire_Up_Distractor.gif"",""img/Fire_Up_Distractor.gif"",""img/Fire_Up_Distractor.gif""]","7","targetDown_distractorsUp"
"","","","","","html-keyboard-response","168","545162","0.0-14.0-0.0-0.77","1637185365486","FlSearch2.1.7-PREREGISTERED","today","null","","null","","","","","main_T1_ITI","","","","",""
"","","","","","visual-search-circle","169","547322","0.0-14.0-0.0-1.77","1637185365486","FlSearch2.1.7-PREREGISTERED","today","1152.9000000059605","","s","true","[[13,387],[159,564],[387,586],[564,440],[586,212],[440,35],[212,13],[35,159]]","false","8","main_T2_Trial","s","img/Fire_Up_Target.gif","[""img/Fire_Down_Distractor.gif"",""img/Fire_Down_Distractor.gif"",""img/Fire_Down_Distractor.gif"",""img/Fire_Down_Distractor.gif"",""img/Fire_Down_Distractor.gif"",""img/Fire_Down_Distractor.gif"",""img/Fire_Down_Distractor.gif"",""img/Fire_Down_Distractor.gif"",""img/Fire_Down_Distractor.gif"",""img/Fire_Down_Distractor.gif"",""img/Fire_Down_Distractor.gif"",""img/Fire_Down_Distractor.gif""]","8","targetUp_distractorsDown"
"","","","","","html-keyboard-response","170","547324","0.0-14.0-0.0-0.78","1637185365486","FlSearch2.1.7-PREREGISTERED","today","null","","null","","","","","main_T1_ITI","","","","",""
"","","","","","visual-search-circle","171","549189","0.0-14.0-0.0-1.78","1637185365486","FlSearch2.1.7-PREREGISTERED","today","860.7999999821186","","d","true","[[578,187],[279,0],[8,227],[141,554],[492,529]]","true","5","main_T2_Trial","d","img/Fire_Down_Target.gif","[""img/Fire_Up_Distractor.gif"",""img/Fire_Up_Distractor.gif"",""img/Fire_Up_Distractor.gif"",""img/Fire_Up_Distractor.gif"",""img/Fire_Up_Distractor.gif"",""img/Fire_Up_Distractor.gif"",""img/Fire_Up_Distractor.gif"",""img/Fire_Up_Distractor.gif"",""img/Fire_Up_Distractor.gif"",""img/Fire_Up_Distractor.gif"",""img/Fire_Up_Distractor.gif"",""img/Fire_Up_Distractor.gif""]","5","targetDown_distractorsUp"
"","","","","","html-keyboard-response","172","551804","0.0-14.0-0.0-0.79","1637185365486","FlSearch2.1.7-PREREGISTERED","today","2614.800000011921","Wow! You've completed 80 out of 120 trials! </p> <p>  </p><p> Take a quick break, then press any key when you're ready to continue.","s","","","","","main_T1_ITI","","","","",""
"","","","","","visual-search-circle","173","554130","0.0-14.0-0.0-1.79","1637185365486","FlSearch2.1.7-PREREGISTERED","today","1321.199999988079","","s","true","[[10,377],[180,574],[440,565],[594,355],[527,104],[288,0],[58,121]]","false","7","main_T2_Trial","s","img/Fire_Up_Target.gif","[""img/Fire_Down_Distractor.gif"",""img/Fire_Down_Distractor.gif"",""img/Fire_Down_Distractor.gif"",""img/Fire_Down_Distractor.gif"",""img/Fire_Down_Distractor.gif"",""img/Fire_Down_Distractor.gif"",""img/Fire_Down_Distractor.gif"",""img/Fire_Down_Distractor.gif"",""img/Fire_Down_Distractor.gif"",""img/Fire_Down_Distractor.gif"",""img/Fire_Down_Distractor.gif"",""img/Fire_Down_Distractor.gif""]","7","targetUp_distractorsDown"
"","","","","","html-keyboard-response","174","554132","0.0-14.0-0.0-0.80","1637185365486","FlSearch2.1.7-PREREGISTERED","today","null","","null","","","","","main_T1_ITI","","","","",""
"","","","","","visual-search-circle","175","556153","0.0-14.0-0.0-1.80","1637185365486","FlSearch2.1.7-PREREGISTERED","today","1015.4000000059605","","s","true","[[173,28],[8,229],[63,484],[296,599],[532,489],[593,236],[433,31]]","false","7","main_T2_Trial","s","img/Fire_Up_Target.gif","[""img/Fire_Down_Distractor.gif"",""img/Fire_Down_Distractor.gif"",""img/Fire_Down_Distractor.gif"",""img/Fire_Down_Distractor.gif"",""img/Fire_Down_Distractor.gif"",""img/Fire_Down_Distractor.gif"",""img/Fire_Down_Distractor.gif"",""img/Fire_Down_Distractor.gif"",""img/Fire_Down_Distractor.gif"",""img/Fire_Down_Distractor.gif"",""img/Fire_Down_Distractor.gif"",""img/Fire_Down_Distractor.gif""]","7","targetUp_distractorsDown"
"","","","","","html-keyboard-response","176","556157","0.0-14.0-0.0-0.81","1637185365486","FlSearch2.1.7-PREREGISTERED","today","null","","null","","","","","main_T1_ITI","","","","",""
"","","","","","visual-search-circle","177","558347","0.0-14.0-0.0-1.81","1637185365486","FlSearch2.1.7-PREREGISTERED","today","1186.9000000059605","","s","true","[[387,13],[54,127],[60,480],[397,583],[599,294]]","false","5","main_T2_Trial","s","img/Fire_Up_Target.gif","[""img/Fire_Down_Distractor.gif"",""img/Fire_Down_Distractor.gif"",""img/Fire_Down_Distractor.gif"",""img/Fire_Down_Distractor.gif"",""img/Fire_Down_Distractor.gif"",""img/Fire_Down_Distractor.gif"",""img/Fire_Down_Distractor.gif"",""img/Fire_Down_Distractor.gif"",""img/Fire_Down_Distractor.gif"",""img/Fire_Down_Distractor.gif"",""img/Fire_Down_Distractor.gif"",""img/Fire_Down_Distractor.gif""]","5","targetUp_distractorsDown"
"","","","","","html-keyboard-response","178","558349","0.0-14.0-0.0-0.82","1637185365486","FlSearch2.1.7-PREREGISTERED","today","null","","null","","","","","main_T1_ITI","","","","",""
"","","","","","visual-search-circle","179","560366","0.0-14.0-0.0-1.82","1637185365486","FlSearch2.1.7-PREREGISTERED","today","1014.3000000119209","","d","true","[[217,11],[8,227],[91,515],[382,588],[591,372],[508,84]]","true","6","main_T2_Trial","d","img/Fire_Down_Target.gif","[""img/Fire_Up_Distractor.gif"",""img/Fire_Up_Distractor.gif"",""img/Fire_Up_Distractor.gif"",""img/Fire_Up_Distractor.gif"",""img/Fire_Up_Distractor.gif"",""img/Fire_Up_Distractor.gif"",""img/Fire_Up_Distractor.gif"",""img/Fire_Up_Distractor.gif"",""img/Fire_Up_Distractor.gif"",""img/Fire_Up_Distractor.gif"",""img/Fire_Up_Distractor.gif"",""img/Fire_Up_Distractor.gif""]","6","targetDown_distractorsUp"
"","","","","","html-keyboard-response","180","560370","0.0-14.0-0.0-0.83","1637185365486","FlSearch2.1.7-PREREGISTERED","today","null","","null","","","","","main_T1_ITI","","","","",""
"","","","","","visual-search-circle","181","562833","0.0-14.0-0.0-1.83","1637185365486","FlSearch2.1.7-PREREGISTERED","today","1460.2000000178814","","s","true","[[28,426],[426,571],[571,173],[173,28]]","false","4","main_T2_Trial","s","img/Fire_Down_Target.gif","[""img/Fire_Up_Distractor.gif"",""img/Fire_Up_Distractor.gif"",""img/Fire_Up_Distractor.gif"",""img/Fire_Up_Distractor.gif"",""img/Fire_Up_Distractor.gif"",""img/Fire_Up_Distractor.gif"",""img/Fire_Up_Distractor.gif"",""img/Fire_Up_Distractor.gif"",""img/Fire_Up_Distractor.gif"",""img/Fire_Up_Distractor.gif"",""img/Fire_Up_Distractor.gif"",""img/Fire_Up_Distractor.gif""]","4","targetDown_distractorsUp"
"","","","","","html-keyboard-response","182","562836","0.0-14.0-0.0-0.84","1637185365486","FlSearch2.1.7-PREREGISTERED","today","null","","null","","","","","main_T1_ITI","","","","",""
"","","","","","visual-search-circle","183","565226","0.0-14.0-0.0-1.84","1637185365486","FlSearch2.1.7-PREREGISTERED","today","1384.300000011921","","s","true","[[28,426],[229,591],[484,536],[599,303],[489,67],[236,6],[31,166]]","false","7","main_T2_Trial","s","img/Fire_Up_Target.gif","[""img/Fire_Down_Distractor.gif"",""img/Fire_Down_Distractor.gif"",""img/Fire_Down_Distractor.gif"",""img/Fire_Down_Distractor.gif"",""img/Fire_Down_Distractor.gif"",""img/Fire_Down_Distractor.gif"",""img/Fire_Down_Distractor.gif"",""img/Fire_Down_Distractor.gif"",""img/Fire_Down_Distractor.gif"",""img/Fire_Down_Distractor.gif"",""img/Fire_Down_Distractor.gif"",""img/Fire_Down_Distractor.gif""]","7","targetUp_distractorsDown"
"","","","","","html-keyboard-response","184","565230","0.0-14.0-0.0-0.85","1637185365486","FlSearch2.1.7-PREREGISTERED","today","null","","null","","","","","main_T1_ITI","","","","",""
"","","","","","visual-search-circle","185","568411","0.0-14.0-0.0-1.85","1637185365486","FlSearch2.1.7-PREREGISTERED","today","2175.4000000059605","","s","true","[[132,51],[0,276],[94,518],[343,596],[559,451],[579,191],[389,13]]","false","7","main_T2_Trial","s","img/Fire_Down_Target.gif","[""img/Fire_Up_Distractor.gif"",""img/Fire_Up_Distractor.gif"",""img/Fire_Up_Distractor.gif"",""img/Fire_Up_Distractor.gif"",""img/Fire_Up_Distractor.gif"",""img/Fire_Up_Distractor.gif"",""img/Fire_Up_Distractor.gif"",""img/Fire_Up_Distractor.gif"",""img/Fire_Up_Distractor.gif"",""img/Fire_Up_Distractor.gif"",""img/Fire_Up_Distractor.gif"",""img/Fire_Up_Distractor.gif""]","7","targetDown_distractorsUp"
"","","","","","html-keyboard-response","186","568412","0.0-14.0-0.0-0.86","1637185365486","FlSearch2.1.7-PREREGISTERED","today","null","","null","","","","","main_T1_ITI","","","","",""
"","","","","","visual-search-circle","187","570618","0.0-14.0-0.0-1.86","1637185365486","FlSearch2.1.7-PREREGISTERED","today","1201.0999999940395","","d","true","[[159,564],[387,586],[564,440],[586,212],[440,35],[212,13],[35,159],[13,387]]","true","8","main_T2_Trial","d","img/Fire_Up_Target.gif","[""img/Fire_Down_Distractor.gif"",""img/Fire_Down_Distractor.gif"",""img/Fire_Down_Distractor.gif"",""img/Fire_Down_Distractor.gif"",""img/Fire_Down_Distractor.gif"",""img/Fire_Down_Distractor.gif"",""img/Fire_Down_Distractor.gif"",""img/Fire_Down_Distractor.gif"",""img/Fire_Down_Distractor.gif"",""img/Fire_Down_Distractor.gif"",""img/Fire_Down_Distractor.gif"",""img/Fire_Down_Distractor.gif""]","8","targetUp_distractorsDown"
"","","","","","html-keyboard-response","188","570620","0.0-14.0-0.0-0.87","1637185365486","FlSearch2.1.7-PREREGISTERED","today","null","","null","","","","","main_T1_ITI","","","","",""
"","","","","","visual-search-circle","189","573278","0.0-14.0-0.0-1.87","1637185365486","FlSearch2.1.7-PREREGISTERED","today","1652.5","","s","true","[[597,258],[480,60],[258,2],[60,119],[2,341],[119,539],[341,597],[539,480]]","false","8","main_T2_Trial","s","img/Fire_Down_Target.gif","[""img/Fire_Up_Distractor.gif"",""img/Fire_Up_Distractor.gif"",""img/Fire_Up_Distractor.gif"",""img/Fire_Up_Distractor.gif"",""img/Fire_Up_Distractor.gif"",""img/Fire_Up_Distractor.gif"",""img/Fire_Up_Distractor.gif"",""img/Fire_Up_Distractor.gif"",""img/Fire_Up_Distractor.gif"",""img/Fire_Up_Distractor.gif"",""img/Fire_Up_Distractor.gif"",""img/Fire_Up_Distractor.gif""]","8","targetDown_distractorsUp"
"","","","","","html-keyboard-response","190","573279","0.0-14.0-0.0-0.88","1637185365486","FlSearch2.1.7-PREREGISTERED","today","null","","null","","","","","main_T1_ITI","","","","",""
"","","","","","visual-search-circle","191","575374","0.0-14.0-0.0-1.88","1637185365486","FlSearch2.1.7-PREREGISTERED","today","1088.2000000178814","","s","true","[[551,463],[593,237],[463,48],[237,6],[48,136],[6,362],[136,551],[362,593]]","false","8","main_T2_Trial","s","img/Fire_Down_Target.gif","[""img/Fire_Up_Distractor.gif"",""img/Fire_Up_Distractor.gif"",""img/Fire_Up_Distractor.gif"",""img/Fire_Up_Distractor.gif"",""img/Fire_Up_Distractor.gif"",""img/Fire_Up_Distractor.gif"",""img/Fire_Up_Distractor.gif"",""img/Fire_Up_Distractor.gif"",""img/Fire_Up_Distractor.gif"",""img/Fire_Up_Distractor.gif"",""img/Fire_Up_Distractor.gif"",""img/Fire_Up_Distractor.gif""]","8","targetDown_distractorsUp"
"","","","","","html-keyboard-response","192","575375","0.0-14.0-0.0-0.89","1637185365486","FlSearch2.1.7-PREREGISTERED","today","null","","null","","","","","main_T1_ITI","","","","",""
"","","","","","visual-search-circle","193","577296","0.0-14.0-0.0-1.89","1637185365486","FlSearch2.1.7-PREREGISTERED","today","916.8999999761581","","d","true","[[597,263],[357,5],[37,154],[80,504],[426,571]]","true","5","main_T2_Trial","d","img/Fire_Down_Target.gif","[""img/Fire_Up_Distractor.gif"",""img/Fire_Up_Distractor.gif"",""img/Fire_Up_Distractor.gif"",""img/Fire_Up_Distractor.gif"",""img/Fire_Up_Distractor.gif"",""img/Fire_Up_Distractor.gif"",""img/Fire_Up_Distractor.gif"",""img/Fire_Up_Distractor.gif"",""img/Fire_Up_Distractor.gif"",""img/Fire_Up_Distractor.gif"",""img/Fire_Up_Distractor.gif"",""img/Fire_Up_Distractor.gif""]","5","targetDown_distractorsUp"
"","","","","","html-keyboard-response","194","577299","0.0-14.0-0.0-0.90","1637185365486","FlSearch2.1.7-PREREGISTERED","today","null","","null","","","","","main_T1_ITI","","","","",""
"","","","","","visual-search-circle","195","579217","0.0-14.0-0.0-1.90","1637185365486","FlSearch2.1.7-PREREGISTERED","today","914.3999999761581","","s","true","[[77,99],[99,522],[522,500],[500,77]]","false","4","main_T2_Trial","s","img/Fire_Up_Target.gif","[""img/Fire_Down_Distractor.gif"",""img/Fire_Down_Distractor.gif"",""img/Fire_Down_Distractor.gif"",""img/Fire_Down_Distractor.gif"",""img/Fire_Down_Distractor.gif"",""img/Fire_Down_Distractor.gif"",""img/Fire_Down_Distractor.gif"",""img/Fire_Down_Distractor.gif"",""img/Fire_Down_Distractor.gif"",""img/Fire_Down_Distractor.gif"",""img/Fire_Down_Distractor.gif"",""img/Fire_Down_Distractor.gif""]","4","targetUp_distractorsDown"
"","","","","","html-keyboard-response","196","579219","0.0-14.0-0.0-0.91","1637185365486","FlSearch2.1.7-PREREGISTERED","today","null","","null","","","","","main_T1_ITI","","","","",""
"","","","","","visual-search-circle","197","581026","0.0-14.0-0.0-1.91","1637185365486","FlSearch2.1.7-PREREGISTERED","today","803","","d","true","[[522,500],[559,150],[237,6],[1,268],[177,574]]","true","5","main_T2_Trial","d","img/Fire_Up_Target.gif","[""img/Fire_Down_Distractor.gif"",""img/Fire_Down_Distractor.gif"",""img/Fire_Down_Distractor.gif"",""img/Fire_Down_Distractor.gif"",""img/Fire_Down_Distractor.gif"",""img/Fire_Down_Distractor.gif"",""img/Fire_Down_Distractor.gif"",""img/Fire_Down_Distractor.gif"",""img/Fire_Down_Distractor.gif"",""img/Fire_Down_Distractor.gif"",""img/Fire_Down_Distractor.gif"",""img/Fire_Down_Distractor.gif""]","5","targetUp_distractorsDown"
"","","","","","html-keyboard-response","198","581028","0.0-14.0-0.0-0.92","1637185365486","FlSearch2.1.7-PREREGISTERED","today","null","","null","","","","","main_T1_ITI","","","","",""
"","","","","","visual-search-circle","199","583044","0.0-14.0-0.0-1.92","1637185365486","FlSearch2.1.7-PREREGISTERED","today","1011.5","","s","true","[[548,132],[279,0],[30,168],[51,467],[320,599],[569,431]]","false","6","main_T2_Trial","s","img/Fire_Down_Target.gif","[""img/Fire_Up_Distractor.gif"",""img/Fire_Up_Distractor.gif"",""img/Fire_Up_Distractor.gif"",""img/Fire_Up_Distractor.gif"",""img/Fire_Up_Distractor.gif"",""img/Fire_Up_Distractor.gif"",""img/Fire_Up_Distractor.gif"",""img/Fire_Up_Distractor.gif"",""img/Fire_Up_Distractor.gif"",""img/Fire_Up_Distractor.gif"",""img/Fire_Up_Distractor.gif"",""img/Fire_Up_Distractor.gif""]","6","targetDown_distractorsUp"
"","","","","","html-keyboard-response","200","583049","0.0-14.0-0.0-0.93","1637185365486","FlSearch2.1.7-PREREGISTERED","today","null","","null","","","","","main_T1_ITI","","","","",""
"","","","","","visual-search-circle","201","585976","0.0-14.0-0.0-1.93","1637185365486","FlSearch2.1.7-PREREGISTERED","today","1921.7000000178814","","d","true","[[6,237],[99,522],[392,585],[593,362],[500,77],[207,14]]","true","6","main_T2_Trial","d","img/Fire_Up_Target.gif","[""img/Fire_Down_Distractor.gif"",""img/Fire_Down_Distractor.gif"",""img/Fire_Down_Distractor.gif"",""img/Fire_Down_Distractor.gif"",""img/Fire_Down_Distractor.gif"",""img/Fire_Down_Distractor.gif"",""img/Fire_Down_Distractor.gif"",""img/Fire_Down_Distractor.gif"",""img/Fire_Down_Distractor.gif"",""img/Fire_Down_Distractor.gif"",""img/Fire_Down_Distractor.gif"",""img/Fire_Down_Distractor.gif""]","6","targetUp_distractorsDown"
"","","","","","html-keyboard-response","202","585978","0.0-14.0-0.0-0.94","1637185365486","FlSearch2.1.7-PREREGISTERED","today","null","","null","","","","","main_T1_ITI","","","","",""
"","","","","","visual-search-circle","203","587770","0.0-14.0-0.0-1.94","1637185365486","FlSearch2.1.7-PREREGISTERED","today","788.2000000178814","","d","true","[[173,28],[1,273],[127,545],[426,571],[598,326],[472,54]]","true","6","main_T2_Trial","d","img/Fire_Up_Target.gif","[""img/Fire_Down_Distractor.gif"",""img/Fire_Down_Distractor.gif"",""img/Fire_Down_Distractor.gif"",""img/Fire_Down_Distractor.gif"",""img/Fire_Down_Distractor.gif"",""img/Fire_Down_Distractor.gif"",""img/Fire_Down_Distractor.gif"",""img/Fire_Down_Distractor.gif"",""img/Fire_Down_Distractor.gif"",""img/Fire_Down_Distractor.gif"",""img/Fire_Down_Distractor.gif"",""img/Fire_Down_Distractor.gif""]","6","targetUp_distractorsDown"
"","","","","","html-keyboard-response","204","587772","0.0-14.0-0.0-0.95","1637185365486","FlSearch2.1.7-PREREGISTERED","today","null","","null","","","","","main_T1_ITI","","","","",""
"","","","","","visual-search-circle","205","590187","0.0-14.0-0.0-1.95","1637185365486","FlSearch2.1.7-PREREGISTERED","today","1410.300000011921","","s","true","[[268,598],[513,510],[597,264],[457,44],[198,17],[16,203],[47,461]]","false","7","main_T2_Trial","s","img/Fire_Down_Target.gif","[""img/Fire_Up_Distractor.gif"",""img/Fire_Up_Distractor.gif"",""img/Fire_Up_Distractor.gif"",""img/Fire_Up_Distractor.gif"",""img/Fire_Up_Distractor.gif"",""img/Fire_Up_Distractor.gif"",""img/Fire_Up_Distractor.gif"",""img/Fire_Up_Distractor.gif"",""img/Fire_Up_Distractor.gif"",""img/Fire_Up_Distractor.gif"",""img/Fire_Up_Distractor.gif"",""img/Fire_Up_Distractor.gif""]","7","targetDown_distractorsUp"
"","","","","","html-keyboard-response","206","590189","0.0-14.0-0.0-0.96","1637185365486","FlSearch2.1.7-PREREGISTERED","today","null","","null","","","","","main_T1_ITI","","","","",""
"","","","","","visual-search-circle","207","592930","0.0-14.0-0.0-1.96","1637185365486","FlSearch2.1.7-PREREGISTERED","today","1737.3999999761581","","s","true","[[500,77],[207,14],[6,237],[99,522],[392,585],[593,362]]","false","6","main_T2_Trial","s","img/Fire_Up_Target.gif","[""img/Fire_Down_Distractor.gif"",""img/Fire_Down_Distractor.gif"",""img/Fire_Down_Distractor.gif"",""img/Fire_Down_Distractor.gif"",""img/Fire_Down_Distractor.gif"",""img/Fire_Down_Distractor.gif"",""img/Fire_Down_Distractor.gif"",""img/Fire_Down_Distractor.gif"",""img/Fire_Down_Distractor.gif"",""img/Fire_Down_Distractor.gif"",""img/Fire_Down_Distractor.gif"",""img/Fire_Down_Distractor.gif""]","6","targetUp_distractorsDown"
"","","","","","html-keyboard-response","208","592932","0.0-14.0-0.0-0.97","1637185365486","FlSearch2.1.7-PREREGISTERED","today","null","","null","","","","","main_T1_ITI","","","","",""
"","","","","","visual-search-circle","209","595007","0.0-14.0-0.0-1.97","1637185365486","FlSearch2.1.7-PREREGISTERED","today","1070.5999999940395","","d","true","[[352,4],[4,247],[247,595],[595,352]]","true","4","main_T2_Trial","d","img/Fire_Up_Target.gif","[""img/Fire_Down_Distractor.gif"",""img/Fire_Down_Distractor.gif"",""img/Fire_Down_Distractor.gif"",""img/Fire_Down_Distractor.gif"",""img/Fire_Down_Distractor.gif"",""img/Fire_Down_Distractor.gif"",""img/Fire_Down_Distractor.gif"",""img/Fire_Down_Distractor.gif"",""img/Fire_Down_Distractor.gif"",""img/Fire_Down_Distractor.gif"",""img/Fire_Down_Distractor.gif"",""img/Fire_Down_Distractor.gif""]","4","targetUp_distractorsDown"
"","","","","","html-keyboard-response","210","595192","0.0-14.0-0.0-0.98","1637185365486","FlSearch2.1.7-PREREGISTERED","today","null","","null","","","","","main_T1_ITI","","","","",""
"","","","","","visual-search-circle","211","597206","0.0-14.0-0.0-1.98","1637185365486","FlSearch2.1.7-PREREGISTERED","today","1010.6999999880791","","d","true","[[227,8],[8,372],[372,591],[591,227]]","true","4","main_T2_Trial","d","img/Fire_Down_Target.gif","[""img/Fire_Up_Distractor.gif"",""img/Fire_Up_Distractor.gif"",""img/Fire_Up_Distractor.gif"",""img/Fire_Up_Distractor.gif"",""img/Fire_Up_Distractor.gif"",""img/Fire_Up_Distractor.gif"",""img/Fire_Up_Distractor.gif"",""img/Fire_Up_Distractor.gif"",""img/Fire_Up_Distractor.gif"",""img/Fire_Up_Distractor.gif"",""img/Fire_Up_Distractor.gif"",""img/Fire_Up_Distractor.gif""]","4","targetDown_distractorsUp"
"","","","","","html-keyboard-response","212","598913","0.0-14.0-0.0-0.99","1637185365486","FlSearch2.1.7-PREREGISTERED","today","1706.2000000178814","Wow! You've completed 100 out of 120 trials! </p> <p>  </p><p> Take a quick break, then press any key when you're ready to continue.","d","","","","","main_T1_ITI","","","","",""
"","","","","","visual-search-circle","213","600678","0.0-14.0-0.0-1.99","1637185365486","FlSearch2.1.7-PREREGISTERED","today","761.5","","d","true","[[436,567],[567,163],[163,32],[32,436]]","true","4","main_T2_Trial","d","img/Fire_Up_Target.gif","[""img/Fire_Down_Distractor.gif"",""img/Fire_Down_Distractor.gif"",""img/Fire_Down_Distractor.gif"",""img/Fire_Down_Distractor.gif"",""img/Fire_Down_Distractor.gif"",""img/Fire_Down_Distractor.gif"",""img/Fire_Down_Distractor.gif"",""img/Fire_Down_Distractor.gif"",""img/Fire_Down_Distractor.gif"",""img/Fire_Down_Distractor.gif"",""img/Fire_Down_Distractor.gif"",""img/Fire_Down_Distractor.gif""]","4","targetUp_distractorsDown"
"","","","","","html-keyboard-response","214","600680","0.0-14.0-0.0-0.100","1637185365486","FlSearch2.1.7-PREREGISTERED","today","null","","null","","","","","main_T1_ITI","","","","",""
"","","","","","visual-search-circle","215","602685","0.0-14.0-0.0-1.100","1637185365486","FlSearch2.1.7-PREREGISTERED","today","999.5999999940395","","d","true","[[11,217],[132,548],[484,536],[581,197],[289,0]]","true","5","main_T2_Trial","d","img/Fire_Up_Target.gif","[""img/Fire_Down_Distractor.gif"",""img/Fire_Down_Distractor.gif"",""img/Fire_Down_Distractor.gif"",""img/Fire_Down_Distractor.gif"",""img/Fire_Down_Distractor.gif"",""img/Fire_Down_Distractor.gif"",""img/Fire_Down_Distractor.gif"",""img/Fire_Down_Distractor.gif"",""img/Fire_Down_Distractor.gif"",""img/Fire_Down_Distractor.gif"",""img/Fire_Down_Distractor.gif"",""img/Fire_Down_Distractor.gif""]","5","targetUp_distractorsDown"
"","","","","","html-keyboard-response","216","602691","0.0-14.0-0.0-0.101","1637185365486","FlSearch2.1.7-PREREGISTERED","today","null","","null","","","","","main_T1_ITI","","","","",""
"","","","","","visual-search-circle","217","604783","0.0-14.0-0.0-1.101","1637185365486","FlSearch2.1.7-PREREGISTERED","today","1089.4000000059605","","s","true","[[40,450],[362,593],[598,331],[422,25],[77,99]]","false","5","main_T2_Trial","s","img/Fire_Up_Target.gif","[""img/Fire_Down_Distractor.gif"",""img/Fire_Down_Distractor.gif"",""img/Fire_Down_Distractor.gif"",""img/Fire_Down_Distractor.gif"",""img/Fire_Down_Distractor.gif"",""img/Fire_Down_Distractor.gif"",""img/Fire_Down_Distractor.gif"",""img/Fire_Down_Distractor.gif"",""img/Fire_Down_Distractor.gif"",""img/Fire_Down_Distractor.gif"",""img/Fire_Down_Distractor.gif"",""img/Fire_Down_Distractor.gif""]","5","targetUp_distractorsDown"
"","","","","","html-keyboard-response","218","604790","0.0-14.0-0.0-0.102","1637185365486","FlSearch2.1.7-PREREGISTERED","today","null","","null","","","","","main_T1_ITI","","","","",""
"","","","","","visual-search-circle","219","607073","0.0-14.0-0.0-1.102","1637185365486","FlSearch2.1.7-PREREGISTERED","today","1276.800000011921","","d","true","[[1,326],[134,549],[391,585],[580,406],[557,146],[341,2],[93,82]]","true","7","main_T2_Trial","d","img/Fire_Up_Target.gif","[""img/Fire_Down_Distractor.gif"",""img/Fire_Down_Distractor.gif"",""img/Fire_Down_Distractor.gif"",""img/Fire_Down_Distractor.gif"",""img/Fire_Down_Distractor.gif"",""img/Fire_Down_Distractor.gif"",""img/Fire_Down_Distractor.gif"",""img/Fire_Down_Distractor.gif"",""img/Fire_Down_Distractor.gif"",""img/Fire_Down_Distractor.gif"",""img/Fire_Down_Distractor.gif"",""img/Fire_Down_Distractor.gif""]","7","targetUp_distractorsDown"
"","","","","","html-keyboard-response","220","607076","0.0-14.0-0.0-0.103","1637185365486","FlSearch2.1.7-PREREGISTERED","today","null","","null","","","","","main_T1_ITI","","","","",""
"","","","","","visual-search-circle","221","609391","0.0-14.0-0.0-1.103","1637185365486","FlSearch2.1.7-PREREGISTERED","today","1310.0999999940395","","s","true","[[187,578],[447,561],[596,347],[521,98],[280,0],[53,128],[12,385]]","false","7","main_T2_Trial","s","img/Fire_Up_Target.gif","[""img/Fire_Down_Distractor.gif"",""img/Fire_Down_Distractor.gif"",""img/Fire_Down_Distractor.gif"",""img/Fire_Down_Distractor.gif"",""img/Fire_Down_Distractor.gif"",""img/Fire_Down_Distractor.gif"",""img/Fire_Down_Distractor.gif"",""img/Fire_Down_Distractor.gif"",""img/Fire_Down_Distractor.gif"",""img/Fire_Down_Distractor.gif"",""img/Fire_Down_Distractor.gif"",""img/Fire_Down_Distractor.gif""]","7","targetUp_distractorsDown"
"","","","","","html-keyboard-response","222","609393","0.0-14.0-0.0-0.104","1637185365486","FlSearch2.1.7-PREREGISTERED","today","null","","null","","","","","main_T1_ITI","","","","",""
"","","","","","visual-search-circle","223","611620","0.0-14.0-0.0-1.104","1637185365486","FlSearch2.1.7-PREREGISTERED","today","1224.300000011921","","s","true","[[412,578],[599,279],[372,8],[45,141],[70,492]]","false","5","main_T2_Trial","s","img/Fire_Up_Target.gif","[""img/Fire_Down_Distractor.gif"",""img/Fire_Down_Distractor.gif"",""img/Fire_Down_Distractor.gif"",""img/Fire_Down_Distractor.gif"",""img/Fire_Down_Distractor.gif"",""img/Fire_Down_Distractor.gif"",""img/Fire_Down_Distractor.gif"",""img/Fire_Down_Distractor.gif"",""img/Fire_Down_Distractor.gif"",""img/Fire_Down_Distractor.gif"",""img/Fire_Down_Distractor.gif"",""img/Fire_Down_Distractor.gif""]","5","targetUp_distractorsDown"
"","","","","","html-keyboard-response","224","611623","0.0-14.0-0.0-0.105","1637185365486","FlSearch2.1.7-PREREGISTERED","today","null","","null","","","","","main_T1_ITI","","","","",""
"","","","","","visual-search-circle","225","613446","0.0-14.0-0.0-1.105","1637185365486","FlSearch2.1.7-PREREGISTERED","today","818.9000000059605","","d","true","[[28,426],[197,581],[426,571],[581,402],[571,173],[402,18],[173,28],[18,197]]","true","8","main_T2_Trial","d","img/Fire_Down_Target.gif","[""img/Fire_Up_Distractor.gif"",""img/Fire_Up_Distractor.gif"",""img/Fire_Up_Distractor.gif"",""img/Fire_Up_Distractor.gif"",""img/Fire_Up_Distractor.gif"",""img/Fire_Up_Distractor.gif"",""img/Fire_Up_Distractor.gif"",""img/Fire_Up_Distractor.gif"",""img/Fire_Up_Distractor.gif"",""img/Fire_Up_Distractor.gif"",""img/Fire_Up_Distractor.gif"",""img/Fire_Up_Distractor.gif""]","8","targetDown_distractorsUp"
"","","","","","html-keyboard-response","226","613449","0.0-14.0-0.0-0.106","1637185365486","FlSearch2.1.7-PREREGISTERED","today","null","","null","","","","","main_T1_ITI","","","","",""
"","","","","","visual-search-circle","227","615446","0.0-14.0-0.0-1.106","1637185365486","FlSearch2.1.7-PREREGISTERED","today","991.5","","s","true","[[268,1],[66,111],[1,331],[111,533],[331,598],[533,488],[598,268],[488,66]]","false","8","main_T2_Trial","s","img/Fire_Down_Target.gif","[""img/Fire_Up_Distractor.gif"",""img/Fire_Up_Distractor.gif"",""img/Fire_Up_Distractor.gif"",""img/Fire_Up_Distractor.gif"",""img/Fire_Up_Distractor.gif"",""img/Fire_Up_Distractor.gif"",""img/Fire_Up_Distractor.gif"",""img/Fire_Up_Distractor.gif"",""img/Fire_Up_Distractor.gif"",""img/Fire_Up_Distractor.gif"",""img/Fire_Up_Distractor.gif"",""img/Fire_Up_Distractor.gif""]","8","targetDown_distractorsUp"
"","","","","","html-keyboard-response","228","615448","0.0-14.0-0.0-0.107","1637185365486","FlSearch2.1.7-PREREGISTERED","today","null","","null","","","","","main_T1_ITI","","","","",""
"","","","","","visual-search-circle","229","618120","0.0-14.0-0.0-1.107","1637185365486","FlSearch2.1.7-PREREGISTERED","today","1668.4000000059605","","s","true","[[357,594],[597,336],[426,28],[80,95],[37,445]]","false","5","main_T2_Trial","s","img/Fire_Down_Target.gif","[""img/Fire_Up_Distractor.gif"",""img/Fire_Up_Distractor.gif"",""img/Fire_Up_Distractor.gif"",""img/Fire_Up_Distractor.gif"",""img/Fire_Up_Distractor.gif"",""img/Fire_Up_Distractor.gif"",""img/Fire_Up_Distractor.gif"",""img/Fire_Up_Distractor.gif"",""img/Fire_Up_Distractor.gif"",""img/Fire_Up_Distractor.gif"",""img/Fire_Up_Distractor.gif"",""img/Fire_Up_Distractor.gif""]","5","targetDown_distractorsUp"
