"success","timeout","failed_images","failed_audio","failed_video","trial_type","trial_index","time_elapsed","internal_node_id","subject_id","study_id","session_id","rt","stimulus","response","correct","locations","target_present","set_size","task","correct_response","target","foilCM","searchCondition"
"true","false","[]","[]","[]","preload","0","7185","0.0-0.0","598a37f8efe76a00018ea9fe","6186fb1cc52d38b480598eb7","6187378ea775cd9a1c59384d","","","","","","","","","","","",""
"true","","","","","fullscreen","1","16979","0.0-1.0","598a37f8efe76a00018ea9fe","6186fb1cc52d38b480598eb7","6187378ea775cd9a1c59384d","","","","","","","","","","","",""
"","","","","","html-keyboard-response","2","25243","0.0-2.0","598a37f8efe76a00018ea9fe","6186fb1cc52d38b480598eb7","6187378ea775cd9a1c59384d","8260.5","What a beautiful Saturday to do some awesome science! </p> <p>  </p><p> </p>
    By completing this survey or questionnaire, you are consenting to be in this research study. </p>
    Your participation is voluntary and you can stop at any time.
    <p> [Press any key to continue.] </p>
    
    "," ","","","","","","","","",""
"","","","","","video-keyboard-response","3","86035","0.0-3.0","598a37f8efe76a00018ea9fe","6186fb1cc52d38b480598eb7","6187378ea775cd9a1c59384d","60773.5","[""video/TaskInstructions.mp4""]"," ","","","","","","","","",""
"","","","","","html-keyboard-response","4","89729","0.0-4.0","598a37f8efe76a00018ea9fe","6186fb1cc52d38b480598eb7","6187378ea775cd9a1c59384d","3692.399999976158","
    <p>First, we're going to do a few practice trials to make sure you understand the task. You will recieve feedback on each trial. </p>

    <p>[Press any key to begin the familiarization phase.]</p>
    "," ","","","","","","","","",""
"","","","","","visual-search-circle","5","98500","0.0-5.0-0.0","598a37f8efe76a00018ea9fe","6186fb1cc52d38b480598eb7","6187378ea775cd9a1c59384d","7705.799999952316","","s","false","[[562,445],[445,37],[37,154],[154,562]]","true","4","training","d","","",""
"","","","","","html-keyboard-response","6","107381","0.0-6.0","598a37f8efe76a00018ea9fe","6186fb1cc52d38b480598eb7","6187378ea775cd9a1c59384d","8879.100000023842"," <div style='float: center;'><img src='img/feedbackWrong.png'></img> </div> "," ","","","","","","","","",""
"","","","","","visual-search-circle","7","117770","0.0-7.0-0.0","598a37f8efe76a00018ea9fe","6186fb1cc52d38b480598eb7","6187378ea775cd9a1c59384d","9366.399999976158","","s","true","[[548,132],[132,51],[51,467],[467,548]]","false","4","training","s","","",""
"","","","","","html-keyboard-response","8","119974","0.0-8.0","598a37f8efe76a00018ea9fe","6186fb1cc52d38b480598eb7","6187378ea775cd9a1c59384d","2204"," <div style='float: center; '><img src='img/feedbackRight.png'></img> </div> "," ","","","","","","","","",""
"","","","","","visual-search-circle","9","128754","0.0-9.0-0.0","598a37f8efe76a00018ea9fe","6186fb1cc52d38b480598eb7","6187378ea775cd9a1c59384d","7764.299999952316","","s","true","[[522,99],[237,6],[14,207],[77,500],[362,593],[585,392]]","false","6","training","s","","",""
"","","","","","html-keyboard-response","10","130375","0.0-10.0","598a37f8efe76a00018ea9fe","6186fb1cc52d38b480598eb7","6187378ea775cd9a1c59384d","1619.6000000238419"," <div style='float: center; '><img src='img/feedbackRight.png'></img> </div> "," ","","","","","","","","",""
"","","","","","visual-search-circle","11","133591","0.0-11.0-0.0","598a37f8efe76a00018ea9fe","6186fb1cc52d38b480598eb7","6187378ea775cd9a1c59384d","2196.2000000476837","","d","true","[[173,571],[402,581],[571,426],[581,197],[426,28],[197,18],[28,173],[18,402]]","true","8","training","d","","",""
"","","","","","html-keyboard-response","12","134911","0.0-12.0","598a37f8efe76a00018ea9fe","6186fb1cc52d38b480598eb7","6187378ea775cd9a1c59384d","1319.7000000476837"," <div style='float: center; '><img src='img/feedbackRight.png'></img> </div> "," ","","","","","","","","",""
"","","","","","video-keyboard-response","13","139611","0.0-13.0","598a37f8efe76a00018ea9fe","6186fb1cc52d38b480598eb7","6187378ea775cd9a1c59384d","4694.199999928474","[""video/endTraining.mp4""]"," ","","","","","","","","",""
"","","","","","html-keyboard-response","14","139615","0.0-14.0-0.0-0.0","598a37f8efe76a00018ea9fe","6186fb1cc52d38b480598eb7","6187378ea775cd9a1c59384d","null","","null","","","","","fixation","","","",""
"","","","","","visual-search-circle","15","143172","0.0-14.0-0.0-1.0","598a37f8efe76a00018ea9fe","6186fb1cc52d38b480598eb7","6187378ea775cd9a1c59384d","2543.5","","d","true","[[87,87],[87,512],[512,512],[512,87]]","true","4","","","img/Fire_Down_Target.gif","[""img/Fire_Up_Distractor.gif"",""img/Fire_Up_Distractor.gif"",""img/Fire_Up_Distractor.gif"",""img/Fire_Up_Distractor.gif"",""img/Fire_Up_Distractor.gif"",""img/Fire_Up_Distractor.gif"",""img/Fire_Up_Distractor.gif"",""img/Fire_Up_Distractor.gif"",""img/Fire_Up_Distractor.gif"",""img/Fire_Up_Distractor.gif"",""img/Fire_Up_Distractor.gif"",""img/Fire_Up_Distractor.gif""]","targetDown_distractorsUp"
"","","","","","html-keyboard-response","16","143176","0.0-14.0-0.0-0.1","598a37f8efe76a00018ea9fe","6186fb1cc52d38b480598eb7","6187378ea775cd9a1c59384d","null","","null","","","","","fixation","","","",""
"","","","","","visual-search-circle","17","148366","0.0-14.0-0.0-1.1","598a37f8efe76a00018ea9fe","6186fb1cc52d38b480598eb7","6187378ea775cd9a1c59384d","4173.100000023842","","s","true","[[472,54],[173,28],[1,273],[127,545],[426,571],[598,326]]","false","6","","","img/Fire_Up_Target.gif","[""img/Fire_Down_Distractor.gif"",""img/Fire_Down_Distractor.gif"",""img/Fire_Down_Distractor.gif"",""img/Fire_Down_Distractor.gif"",""img/Fire_Down_Distractor.gif"",""img/Fire_Down_Distractor.gif"",""img/Fire_Down_Distractor.gif"",""img/Fire_Down_Distractor.gif"",""img/Fire_Down_Distractor.gif"",""img/Fire_Down_Distractor.gif"",""img/Fire_Down_Distractor.gif"",""img/Fire_Down_Distractor.gif""]","targetUp_distractorsDown"
"","","","","","html-keyboard-response","18","148368","0.0-14.0-0.0-0.2","598a37f8efe76a00018ea9fe","6186fb1cc52d38b480598eb7","6187378ea775cd9a1c59384d","null","","null","","","","","fixation","","","",""
"","","","","","visual-search-circle","19","156836","0.0-14.0-0.0-1.2","598a37f8efe76a00018ea9fe","6186fb1cc52d38b480598eb7","6187378ea775cd9a1c59384d","7448.600000023842","","s","true","[[119,60],[2,336],[182,576],[480,539],[597,263],[417,23]]","false","6","","","img/Fire_Up_Target.gif","[""img/Fire_Down_Distractor.gif"",""img/Fire_Down_Distractor.gif"",""img/Fire_Down_Distractor.gif"",""img/Fire_Down_Distractor.gif"",""img/Fire_Down_Distractor.gif"",""img/Fire_Down_Distractor.gif"",""img/Fire_Down_Distractor.gif"",""img/Fire_Down_Distractor.gif"",""img/Fire_Down_Distractor.gif"",""img/Fire_Down_Distractor.gif"",""img/Fire_Down_Distractor.gif"",""img/Fire_Down_Distractor.gif""]","targetUp_distractorsDown"
"","","","","","html-keyboard-response","20","156839","0.0-14.0-0.0-0.3","598a37f8efe76a00018ea9fe","6186fb1cc52d38b480598eb7","6187378ea775cd9a1c59384d","null","","null","","","","","fixation","","","",""
"","","","","","visual-search-circle","21","163714","0.0-14.0-0.0-1.3","598a37f8efe76a00018ea9fe","6186fb1cc52d38b480598eb7","6187378ea775cd9a1c59384d","5863.200000047684","","d","false","[[512,87],[163,32],[3,346],[253,596],[567,436]]","false","5","","","img/Fire_Down_Target.gif","[""img/Fire_Up_Distractor.gif"",""img/Fire_Up_Distractor.gif"",""img/Fire_Up_Distractor.gif"",""img/Fire_Up_Distractor.gif"",""img/Fire_Up_Distractor.gif"",""img/Fire_Up_Distractor.gif"",""img/Fire_Up_Distractor.gif"",""img/Fire_Up_Distractor.gif"",""img/Fire_Up_Distractor.gif"",""img/Fire_Up_Distractor.gif"",""img/Fire_Up_Distractor.gif"",""img/Fire_Up_Distractor.gif""]","targetDown_distractorsUp"
"","","","","","html-keyboard-response","22","163716","0.0-14.0-0.0-0.4","598a37f8efe76a00018ea9fe","6186fb1cc52d38b480598eb7","6187378ea775cd9a1c59384d","null","","null","","","","","fixation","","","",""
"","","","","","visual-search-circle","23","166810","0.0-14.0-0.0-1.4","598a37f8efe76a00018ea9fe","6186fb1cc52d38b480598eb7","6187378ea775cd9a1c59384d","2076","","d","true","[[222,10],[0,284],[192,580],[533,488],[551,136]]","true","5","","","img/Fire_Up_Target.gif","[""img/Fire_Down_Distractor.gif"",""img/Fire_Down_Distractor.gif"",""img/Fire_Down_Distractor.gif"",""img/Fire_Down_Distractor.gif"",""img/Fire_Down_Distractor.gif"",""img/Fire_Down_Distractor.gif"",""img/Fire_Down_Distractor.gif"",""img/Fire_Down_Distractor.gif"",""img/Fire_Down_Distractor.gif"",""img/Fire_Down_Distractor.gif"",""img/Fire_Down_Distractor.gif"",""img/Fire_Down_Distractor.gif""]","targetUp_distractorsDown"
"","","","","","html-keyboard-response","24","167148","0.0-14.0-0.0-0.5","598a37f8efe76a00018ea9fe","6186fb1cc52d38b480598eb7","6187378ea775cd9a1c59384d","null","","null","","","","","fixation","","","",""
"","","","","","visual-search-circle","25","169770","0.0-14.0-0.0-1.5","598a37f8efe76a00018ea9fe","6186fb1cc52d38b480598eb7","6187378ea775cd9a1c59384d","1604.9000000953674","","d","true","[[589,222],[377,10],[87,87],[10,377],[222,589],[512,512]]","true","6","","","img/Fire_Down_Target.gif","[""img/Fire_Up_Distractor.gif"",""img/Fire_Up_Distractor.gif"",""img/Fire_Up_Distractor.gif"",""img/Fire_Up_Distractor.gif"",""img/Fire_Up_Distractor.gif"",""img/Fire_Up_Distractor.gif"",""img/Fire_Up_Distractor.gif"",""img/Fire_Up_Distractor.gif"",""img/Fire_Up_Distractor.gif"",""img/Fire_Up_Distractor.gif"",""img/Fire_Up_Distractor.gif"",""img/Fire_Up_Distractor.gif""]","targetDown_distractorsUp"
"","","","","","html-keyboard-response","26","169772","0.0-14.0-0.0-0.6","598a37f8efe76a00018ea9fe","6186fb1cc52d38b480598eb7","6187378ea775cd9a1c59384d","null","","null","","","","","fixation","","","",""
"","","","","","visual-search-circle","27","172568","0.0-14.0-0.0-1.6","598a37f8efe76a00018ea9fe","6186fb1cc52d38b480598eb7","6187378ea775cd9a1c59384d","1777.8999999761581","","s","true","[[168,569],[397,583],[569,431],[583,202],[431,30],[202,16],[30,168],[16,397]]","false","8","","","img/Fire_Up_Target.gif","[""img/Fire_Down_Distractor.gif"",""img/Fire_Down_Distractor.gif"",""img/Fire_Down_Distractor.gif"",""img/Fire_Down_Distractor.gif"",""img/Fire_Down_Distractor.gif"",""img/Fire_Down_Distractor.gif"",""img/Fire_Down_Distractor.gif"",""img/Fire_Down_Distractor.gif"",""img/Fire_Down_Distractor.gif"",""img/Fire_Down_Distractor.gif"",""img/Fire_Down_Distractor.gif"",""img/Fire_Down_Distractor.gif""]","targetUp_distractorsDown"
"","","","","","html-keyboard-response","28","172569","0.0-14.0-0.0-0.7","598a37f8efe76a00018ea9fe","6186fb1cc52d38b480598eb7","6187378ea775cd9a1c59384d","null","","null","","","","","fixation","","","",""
"","","","","","visual-search-circle","29","176456","0.0-14.0-0.0-1.7","598a37f8efe76a00018ea9fe","6186fb1cc52d38b480598eb7","6187378ea775cd9a1c59384d","2866.899999976158","","s","true","[[6,237],[68,490],[304,599],[537,483],[591,228],[426,27],[165,31]]","false","7","","","img/Fire_Up_Target.gif","[""img/Fire_Down_Distractor.gif"",""img/Fire_Down_Distractor.gif"",""img/Fire_Down_Distractor.gif"",""img/Fire_Down_Distractor.gif"",""img/Fire_Down_Distractor.gif"",""img/Fire_Down_Distractor.gif"",""img/Fire_Down_Distractor.gif"",""img/Fire_Down_Distractor.gif"",""img/Fire_Down_Distractor.gif"",""img/Fire_Down_Distractor.gif"",""img/Fire_Down_Distractor.gif"",""img/Fire_Down_Distractor.gif""]","targetUp_distractorsDown"
"","","","","","html-keyboard-response","30","176458","0.0-14.0-0.0-0.8","598a37f8efe76a00018ea9fe","6186fb1cc52d38b480598eb7","6187378ea775cd9a1c59384d","null","","null","","","","","fixation","","","",""
"","","","","","visual-search-circle","31","179239","0.0-14.0-0.0-1.8","598a37f8efe76a00018ea9fe","6186fb1cc52d38b480598eb7","6187378ea775cd9a1c59384d","1763.6000000238419","","d","true","[[372,8],[117,61],[0,294],[108,530],[360,593],[567,435],[572,175]]","true","7","","","img/Fire_Up_Target.gif","[""img/Fire_Down_Distractor.gif"",""img/Fire_Down_Distractor.gif"",""img/Fire_Down_Distractor.gif"",""img/Fire_Down_Distractor.gif"",""img/Fire_Down_Distractor.gif"",""img/Fire_Down_Distractor.gif"",""img/Fire_Down_Distractor.gif"",""img/Fire_Down_Distractor.gif"",""img/Fire_Down_Distractor.gif"",""img/Fire_Down_Distractor.gif"",""img/Fire_Down_Distractor.gif"",""img/Fire_Down_Distractor.gif""]","targetUp_distractorsDown"
"","","","","","html-keyboard-response","32","179250","0.0-14.0-0.0-0.9","598a37f8efe76a00018ea9fe","6186fb1cc52d38b480598eb7","6187378ea775cd9a1c59384d","null","","null","","","","","fixation","","","",""
"","","","","","visual-search-circle","33","190561","0.0-14.0-0.0-1.9","598a37f8efe76a00018ea9fe","6186fb1cc52d38b480598eb7","6187378ea775cd9a1c59384d","10293.199999928474","","s","true","[[522,500],[500,77],[77,99],[99,522]]","false","4","","","img/Fire_Down_Target.gif","[""img/Fire_Up_Distractor.gif"",""img/Fire_Up_Distractor.gif"",""img/Fire_Up_Distractor.gif"",""img/Fire_Up_Distractor.gif"",""img/Fire_Up_Distractor.gif"",""img/Fire_Up_Distractor.gif"",""img/Fire_Up_Distractor.gif"",""img/Fire_Up_Distractor.gif"",""img/Fire_Up_Distractor.gif"",""img/Fire_Up_Distractor.gif"",""img/Fire_Up_Distractor.gif"",""img/Fire_Up_Distractor.gif""]","targetDown_distractorsUp"
"","","","","","html-keyboard-response","34","190564","0.0-14.0-0.0-0.10","598a37f8efe76a00018ea9fe","6186fb1cc52d38b480598eb7","6187378ea775cd9a1c59384d","null","","null","","","","","fixation","","","",""
"","","","","","visual-search-circle","35","194815","0.0-14.0-0.0-1.10","598a37f8efe76a00018ea9fe","6186fb1cc52d38b480598eb7","6187378ea775cd9a1c59384d","3240.5","","d","false","[[508,515],[591,227],[382,11],[91,84],[8,372],[217,588]]","false","6","","","img/Fire_Down_Target.gif","[""img/Fire_Up_Distractor.gif"",""img/Fire_Up_Distractor.gif"",""img/Fire_Up_Distractor.gif"",""img/Fire_Up_Distractor.gif"",""img/Fire_Up_Distractor.gif"",""img/Fire_Up_Distractor.gif"",""img/Fire_Up_Distractor.gif"",""img/Fire_Up_Distractor.gif"",""img/Fire_Up_Distractor.gif"",""img/Fire_Up_Distractor.gif"",""img/Fire_Up_Distractor.gif"",""img/Fire_Up_Distractor.gif""]","targetDown_distractorsUp"
"","","","","","html-keyboard-response","36","194825","0.0-14.0-0.0-0.11","598a37f8efe76a00018ea9fe","6186fb1cc52d38b480598eb7","6187378ea775cd9a1c59384d","null","","null","","","","","fixation","","","",""
"","","","","","visual-search-circle","37","197377","0.0-14.0-0.0-1.11","598a37f8efe76a00018ea9fe","6186fb1cc52d38b480598eb7","6187378ea775cd9a1c59384d","1521.1999999284744","","d","true","[[594,357],[445,37],[95,80],[28,426],[336,597]]","true","5","","","img/Fire_Down_Target.gif","[""img/Fire_Up_Distractor.gif"",""img/Fire_Up_Distractor.gif"",""img/Fire_Up_Distractor.gif"",""img/Fire_Up_Distractor.gif"",""img/Fire_Up_Distractor.gif"",""img/Fire_Up_Distractor.gif"",""img/Fire_Up_Distractor.gif"",""img/Fire_Up_Distractor.gif"",""img/Fire_Up_Distractor.gif"",""img/Fire_Up_Distractor.gif"",""img/Fire_Up_Distractor.gif"",""img/Fire_Up_Distractor.gif""]","targetDown_distractorsUp"
"","","","","","html-keyboard-response","38","197379","0.0-14.0-0.0-0.12","598a37f8efe76a00018ea9fe","6186fb1cc52d38b480598eb7","6187378ea775cd9a1c59384d","null","","null","","","","","fixation","","","",""
"","","","","","visual-search-circle","39","207038","0.0-14.0-0.0-1.12","598a37f8efe76a00018ea9fe","6186fb1cc52d38b480598eb7","6187378ea775cd9a1c59384d","8636.600000023842","","d","true","[[99,522],[315,599],[522,500],[599,284],[500,77],[284,0],[77,99],[0,315]]","true","8","","","img/Fire_Up_Target.gif","[""img/Fire_Down_Distractor.gif"",""img/Fire_Down_Distractor.gif"",""img/Fire_Down_Distractor.gif"",""img/Fire_Down_Distractor.gif"",""img/Fire_Down_Distractor.gif"",""img/Fire_Down_Distractor.gif"",""img/Fire_Down_Distractor.gif"",""img/Fire_Down_Distractor.gif"",""img/Fire_Down_Distractor.gif"",""img/Fire_Down_Distractor.gif"",""img/Fire_Down_Distractor.gif"",""img/Fire_Down_Distractor.gif""]","targetUp_distractorsDown"
"","","","","","html-keyboard-response","40","207040","0.0-14.0-0.0-0.13","598a37f8efe76a00018ea9fe","6186fb1cc52d38b480598eb7","6187378ea775cd9a1c59384d","null","","null","","","","","fixation","","","",""
"","","","","","visual-search-circle","41","215190","0.0-14.0-0.0-1.13","598a37f8efe76a00018ea9fe","6186fb1cc52d38b480598eb7","6187378ea775cd9a1c59384d","7132.800000071526","","s","true","[[583,397],[397,16],[16,202],[202,583]]","false","4","","","img/Fire_Up_Target.gif","[""img/Fire_Down_Distractor.gif"",""img/Fire_Down_Distractor.gif"",""img/Fire_Down_Distractor.gif"",""img/Fire_Down_Distractor.gif"",""img/Fire_Down_Distractor.gif"",""img/Fire_Down_Distractor.gif"",""img/Fire_Down_Distractor.gif"",""img/Fire_Down_Distractor.gif"",""img/Fire_Down_Distractor.gif"",""img/Fire_Down_Distractor.gif"",""img/Fire_Down_Distractor.gif"",""img/Fire_Down_Distractor.gif""]","targetUp_distractorsDown"
"","","","","","html-keyboard-response","42","215203","0.0-14.0-0.0-0.14","598a37f8efe76a00018ea9fe","6186fb1cc52d38b480598eb7","6187378ea775cd9a1c59384d","null","","null","","","","","fixation","","","",""
"","","","","","visual-search-circle","43","220416","0.0-14.0-0.0-1.14","598a37f8efe76a00018ea9fe","6186fb1cc52d38b480598eb7","6187378ea775cd9a1c59384d","4202.399999976158","","s","true","[[149,559],[409,579],[586,388],[547,131],[322,0],[80,95],[3,344]]","false","7","","","img/Fire_Down_Target.gif","[""img/Fire_Up_Distractor.gif"",""img/Fire_Up_Distractor.gif"",""img/Fire_Up_Distractor.gif"",""img/Fire_Up_Distractor.gif"",""img/Fire_Up_Distractor.gif"",""img/Fire_Up_Distractor.gif"",""img/Fire_Up_Distractor.gif"",""img/Fire_Up_Distractor.gif"",""img/Fire_Up_Distractor.gif"",""img/Fire_Up_Distractor.gif"",""img/Fire_Up_Distractor.gif"",""img/Fire_Up_Distractor.gif""]","targetDown_distractorsUp"
"","","","","","html-keyboard-response","44","220425","0.0-14.0-0.0-0.15","598a37f8efe76a00018ea9fe","6186fb1cc52d38b480598eb7","6187378ea775cd9a1c59384d","null","","null","","","","","fixation","","","",""
"","","","","","visual-search-circle","45","223997","0.0-14.0-0.0-1.15","598a37f8efe76a00018ea9fe","6186fb1cc52d38b480598eb7","6187378ea775cd9a1c59384d","2561.899999976158","","s","true","[[87,512],[512,512],[512,87],[87,87]]","false","4","","","img/Fire_Down_Target.gif","[""img/Fire_Up_Distractor.gif"",""img/Fire_Up_Distractor.gif"",""img/Fire_Up_Distractor.gif"",""img/Fire_Up_Distractor.gif"",""img/Fire_Up_Distractor.gif"",""img/Fire_Up_Distractor.gif"",""img/Fire_Up_Distractor.gif"",""img/Fire_Up_Distractor.gif"",""img/Fire_Up_Distractor.gif"",""img/Fire_Up_Distractor.gif"",""img/Fire_Up_Distractor.gif"",""img/Fire_Up_Distractor.gif""]","targetDown_distractorsUp"
"","","","","","html-keyboard-response","46","223999","0.0-14.0-0.0-0.16","598a37f8efe76a00018ea9fe","6186fb1cc52d38b480598eb7","6187378ea775cd9a1c59384d","null","","null","","","","","fixation","","","",""
"","","","","","visual-search-circle","47","226383","0.0-14.0-0.0-1.16","598a37f8efe76a00018ea9fe","6186fb1cc52d38b480598eb7","6187378ea775cd9a1c59384d","1372.6999999284744","","d","true","[[599,289],[504,80],[289,0],[80,95],[0,310],[95,519],[310,599],[519,504]]","true","8","","","img/Fire_Up_Target.gif","[""img/Fire_Down_Distractor.gif"",""img/Fire_Down_Distractor.gif"",""img/Fire_Down_Distractor.gif"",""img/Fire_Down_Distractor.gif"",""img/Fire_Down_Distractor.gif"",""img/Fire_Down_Distractor.gif"",""img/Fire_Down_Distractor.gif"",""img/Fire_Down_Distractor.gif"",""img/Fire_Down_Distractor.gif"",""img/Fire_Down_Distractor.gif"",""img/Fire_Down_Distractor.gif"",""img/Fire_Down_Distractor.gif""]","targetUp_distractorsDown"
"","","","","","html-keyboard-response","48","226422","0.0-14.0-0.0-0.17","598a37f8efe76a00018ea9fe","6186fb1cc52d38b480598eb7","6187378ea775cd9a1c59384d","null","","null","","","","","fixation","","","",""
"","","","","","visual-search-circle","49","229674","0.0-14.0-0.0-1.17","598a37f8efe76a00018ea9fe","6186fb1cc52d38b480598eb7","6187378ea775cd9a1c59384d","2236.1999999284744","","d","true","[[107,70],[4,352],[197,581],[492,529],[595,247],[402,18]]","true","6","","","img/Fire_Up_Target.gif","[""img/Fire_Down_Distractor.gif"",""img/Fire_Down_Distractor.gif"",""img/Fire_Down_Distractor.gif"",""img/Fire_Down_Distractor.gif"",""img/Fire_Down_Distractor.gif"",""img/Fire_Down_Distractor.gif"",""img/Fire_Down_Distractor.gif"",""img/Fire_Down_Distractor.gif"",""img/Fire_Down_Distractor.gif"",""img/Fire_Down_Distractor.gif"",""img/Fire_Down_Distractor.gif"",""img/Fire_Down_Distractor.gif""]","targetUp_distractorsDown"
"","","","","","html-keyboard-response","50","229677","0.0-14.0-0.0-0.18","598a37f8efe76a00018ea9fe","6186fb1cc52d38b480598eb7","6187378ea775cd9a1c59384d","null","","null","","","","","fixation","","","",""
"","","","","","visual-search-circle","51","235169","0.0-14.0-0.0-1.18","598a37f8efe76a00018ea9fe","6186fb1cc52d38b480598eb7","6187378ea775cd9a1c59384d","4479.299999952316","","d","true","[[14,207],[49,465],[273,598],[516,507],[597,259],[453,42],[194,19]]","true","7","","","img/Fire_Down_Target.gif","[""img/Fire_Up_Distractor.gif"",""img/Fire_Up_Distractor.gif"",""img/Fire_Up_Distractor.gif"",""img/Fire_Up_Distractor.gif"",""img/Fire_Up_Distractor.gif"",""img/Fire_Up_Distractor.gif"",""img/Fire_Up_Distractor.gif"",""img/Fire_Up_Distractor.gif"",""img/Fire_Up_Distractor.gif"",""img/Fire_Up_Distractor.gif"",""img/Fire_Up_Distractor.gif"",""img/Fire_Up_Distractor.gif""]","targetDown_distractorsUp"
"","","","","","html-keyboard-response","52","238428","0.0-14.0-0.0-0.19","598a37f8efe76a00018ea9fe","6186fb1cc52d38b480598eb7","6187378ea775cd9a1c59384d","3258.100000023842","Wow! You've completed 20 out of 120 trials! </p> <p>  </p><p> Take a quick break, then press any key when you're ready to continue."," ","","","","","fixation","","","",""
"","","","","","visual-search-circle","53","242238","0.0-14.0-0.0-1.19","598a37f8efe76a00018ea9fe","6186fb1cc52d38b480598eb7","6187378ea775cd9a1c59384d","2780.2999999523163","","s","true","[[357,594],[548,467],[594,242],[467,51],[242,5],[51,132],[5,357],[132,548]]","false","8","","","img/Fire_Up_Target.gif","[""img/Fire_Down_Distractor.gif"",""img/Fire_Down_Distractor.gif"",""img/Fire_Down_Distractor.gif"",""img/Fire_Down_Distractor.gif"",""img/Fire_Down_Distractor.gif"",""img/Fire_Down_Distractor.gif"",""img/Fire_Down_Distractor.gif"",""img/Fire_Down_Distractor.gif"",""img/Fire_Down_Distractor.gif"",""img/Fire_Down_Distractor.gif"",""img/Fire_Down_Distractor.gif"",""img/Fire_Down_Distractor.gif""]","targetUp_distractorsDown"
"","","","","","html-keyboard-response","54","242256","0.0-14.0-0.0-0.20","598a37f8efe76a00018ea9fe","6186fb1cc52d38b480598eb7","6187378ea775cd9a1c59384d","null","","null","","","","","fixation","","","",""
"","","","","","visual-search-circle","55","244988","0.0-14.0-0.0-1.20","598a37f8efe76a00018ea9fe","6186fb1cc52d38b480598eb7","6187378ea775cd9a1c59384d","1716","","d","true","[[548,132],[132,51],[51,467],[467,548]]","true","4","","","img/Fire_Down_Target.gif","[""img/Fire_Up_Distractor.gif"",""img/Fire_Up_Distractor.gif"",""img/Fire_Up_Distractor.gif"",""img/Fire_Up_Distractor.gif"",""img/Fire_Up_Distractor.gif"",""img/Fire_Up_Distractor.gif"",""img/Fire_Up_Distractor.gif"",""img/Fire_Up_Distractor.gif"",""img/Fire_Up_Distractor.gif"",""img/Fire_Up_Distractor.gif"",""img/Fire_Up_Distractor.gif"",""img/Fire_Up_Distractor.gif""]","targetDown_distractorsUp"
"","","","","","html-keyboard-response","56","244990","0.0-14.0-0.0-0.21","598a37f8efe76a00018ea9fe","6186fb1cc52d38b480598eb7","6187378ea775cd9a1c59384d","null","","null","","","","","fixation","","","",""
"","","","","","visual-search-circle","57","250739","0.0-14.0-0.0-1.21","598a37f8efe76a00018ea9fe","6186fb1cc52d38b480598eb7","6187378ea775cd9a1c59384d","4737.200000047684","","s","true","[[551,463],[584,205],[403,18],[144,43],[2,261],[84,508],[329,598]]","false","7","","","img/Fire_Down_Target.gif","[""img/Fire_Up_Distractor.gif"",""img/Fire_Up_Distractor.gif"",""img/Fire_Up_Distractor.gif"",""img/Fire_Up_Distractor.gif"",""img/Fire_Up_Distractor.gif"",""img/Fire_Up_Distractor.gif"",""img/Fire_Up_Distractor.gif"",""img/Fire_Up_Distractor.gif"",""img/Fire_Up_Distractor.gif"",""img/Fire_Up_Distractor.gif"",""img/Fire_Up_Distractor.gif"",""img/Fire_Up_Distractor.gif""]","targetDown_distractorsUp"
"","","","","","html-keyboard-response","58","250741","0.0-14.0-0.0-0.22","598a37f8efe76a00018ea9fe","6186fb1cc52d38b480598eb7","6187378ea775cd9a1c59384d","null","","null","","","","","fixation","","","",""
"","","","","","visual-search-circle","59","257828","0.0-14.0-0.0-1.22","598a37f8efe76a00018ea9fe","6186fb1cc52d38b480598eb7","6187378ea775cd9a1c59384d","6073.300000071526","","d","true","[[40,450],[255,596],[504,519],[599,277],[468,52],[211,13],[20,190]]","true","7","","","img/Fire_Up_Target.gif","[""img/Fire_Down_Distractor.gif"",""img/Fire_Down_Distractor.gif"",""img/Fire_Down_Distractor.gif"",""img/Fire_Down_Distractor.gif"",""img/Fire_Down_Distractor.gif"",""img/Fire_Down_Distractor.gif"",""img/Fire_Down_Distractor.gif"",""img/Fire_Down_Distractor.gif"",""img/Fire_Down_Distractor.gif"",""img/Fire_Down_Distractor.gif"",""img/Fire_Down_Distractor.gif"",""img/Fire_Down_Distractor.gif""]","targetUp_distractorsDown"
"","","","","","html-keyboard-response","60","257843","0.0-14.0-0.0-0.23","598a37f8efe76a00018ea9fe","6186fb1cc52d38b480598eb7","6187378ea775cd9a1c59384d","null","","null","","","","","fixation","","","",""
"","","","","","visual-search-circle","61","260900","0.0-14.0-0.0-1.23","598a37f8efe76a00018ea9fe","6186fb1cc52d38b480598eb7","6187378ea775cd9a1c59384d","2039.6000000238419","","d","true","[[217,588],[445,562],[588,382],[562,154],[382,11],[154,37],[11,217],[37,445]]","true","8","","","img/Fire_Down_Target.gif","[""img/Fire_Up_Distractor.gif"",""img/Fire_Up_Distractor.gif"",""img/Fire_Up_Distractor.gif"",""img/Fire_Up_Distractor.gif"",""img/Fire_Up_Distractor.gif"",""img/Fire_Up_Distractor.gif"",""img/Fire_Up_Distractor.gif"",""img/Fire_Up_Distractor.gif"",""img/Fire_Up_Distractor.gif"",""img/Fire_Up_Distractor.gif"",""img/Fire_Up_Distractor.gif"",""img/Fire_Up_Distractor.gif""]","targetDown_distractorsUp"
"","","","","","html-keyboard-response","62","260904","0.0-14.0-0.0-0.24","598a37f8efe76a00018ea9fe","6186fb1cc52d38b480598eb7","6187378ea775cd9a1c59384d","null","","null","","","","","fixation","","","",""
"","","","","","visual-search-circle","63","263979","0.0-14.0-0.0-1.24","598a37f8efe76a00018ea9fe","6186fb1cc52d38b480598eb7","6187378ea775cd9a1c59384d","2064.2000000476837","","s","false","[[37,445],[250,595],[500,523],[599,282],[473,55],[216,11],[22,185]]","true","7","","","img/Fire_Up_Target.gif","[""img/Fire_Down_Distractor.gif"",""img/Fire_Down_Distractor.gif"",""img/Fire_Down_Distractor.gif"",""img/Fire_Down_Distractor.gif"",""img/Fire_Down_Distractor.gif"",""img/Fire_Down_Distractor.gif"",""img/Fire_Down_Distractor.gif"",""img/Fire_Down_Distractor.gif"",""img/Fire_Down_Distractor.gif"",""img/Fire_Down_Distractor.gif"",""img/Fire_Down_Distractor.gif"",""img/Fire_Down_Distractor.gif""]","targetUp_distractorsDown"
"","","","","","html-keyboard-response","64","263981","0.0-14.0-0.0-0.25","598a37f8efe76a00018ea9fe","6186fb1cc52d38b480598eb7","6187378ea775cd9a1c59384d","null","","null","","","","","fixation","","","",""
"","","","","","visual-search-circle","65","267954","0.0-14.0-0.0-1.25","598a37f8efe76a00018ea9fe","6186fb1cc52d38b480598eb7","6187378ea775cd9a1c59384d","2947.399999976158","","s","true","[[279,599],[520,502],[596,253],[448,39],[189,21],[12,213],[52,470]]","false","7","","","img/Fire_Up_Target.gif","[""img/Fire_Down_Distractor.gif"",""img/Fire_Down_Distractor.gif"",""img/Fire_Down_Distractor.gif"",""img/Fire_Down_Distractor.gif"",""img/Fire_Down_Distractor.gif"",""img/Fire_Down_Distractor.gif"",""img/Fire_Down_Distractor.gif"",""img/Fire_Down_Distractor.gif"",""img/Fire_Down_Distractor.gif"",""img/Fire_Down_Distractor.gif"",""img/Fire_Down_Distractor.gif"",""img/Fire_Down_Distractor.gif""]","targetUp_distractorsDown"
"","","","","","html-keyboard-response","66","267976","0.0-14.0-0.0-0.26","598a37f8efe76a00018ea9fe","6186fb1cc52d38b480598eb7","6187378ea775cd9a1c59384d","null","","null","","","","","fixation","","","",""
"","","","","","visual-search-circle","67","273945","0.0-14.0-0.0-1.26","598a37f8efe76a00018ea9fe","6186fb1cc52d38b480598eb7","6187378ea775cd9a1c59384d","4957.700000047684","","s","true","[[557,145],[232,7],[1,273],[182,576],[526,496]]","false","5","","","img/Fire_Up_Target.gif","[""img/Fire_Down_Distractor.gif"",""img/Fire_Down_Distractor.gif"",""img/Fire_Down_Distractor.gif"",""img/Fire_Down_Distractor.gif"",""img/Fire_Down_Distractor.gif"",""img/Fire_Down_Distractor.gif"",""img/Fire_Down_Distractor.gif"",""img/Fire_Down_Distractor.gif"",""img/Fire_Down_Distractor.gif"",""img/Fire_Down_Distractor.gif"",""img/Fire_Down_Distractor.gif"",""img/Fire_Down_Distractor.gif""]","targetUp_distractorsDown"
"","","","","","html-keyboard-response","68","273948","0.0-14.0-0.0-0.27","598a37f8efe76a00018ea9fe","6186fb1cc52d38b480598eb7","6187378ea775cd9a1c59384d","null","","null","","","","","fixation","","","",""
"","","","","","visual-search-circle","69","276186","0.0-14.0-0.0-1.27","598a37f8efe76a00018ea9fe","6186fb1cc52d38b480598eb7","6187378ea775cd9a1c59384d","1217.5","","d","true","[[336,2],[2,263],[263,597],[597,336]]","true","4","","","img/Fire_Up_Target.gif","[""img/Fire_Down_Distractor.gif"",""img/Fire_Down_Distractor.gif"",""img/Fire_Down_Distractor.gif"",""img/Fire_Down_Distractor.gif"",""img/Fire_Down_Distractor.gif"",""img/Fire_Down_Distractor.gif"",""img/Fire_Down_Distractor.gif"",""img/Fire_Down_Distractor.gif"",""img/Fire_Down_Distractor.gif"",""img/Fire_Down_Distractor.gif"",""img/Fire_Down_Distractor.gif"",""img/Fire_Down_Distractor.gif""]","targetUp_distractorsDown"
"","","","","","html-keyboard-response","70","276191","0.0-14.0-0.0-0.28","598a37f8efe76a00018ea9fe","6186fb1cc52d38b480598eb7","6187378ea775cd9a1c59384d","null","","null","","","","","fixation","","","",""
"","","","","","visual-search-circle","71","278804","0.0-14.0-0.0-1.28","598a37f8efe76a00018ea9fe","6186fb1cc52d38b480598eb7","6187378ea775cd9a1c59384d","1599.6999999284744","","d","true","[[289,599],[554,458],[564,159],[310,0],[45,141],[35,440]]","true","6","","","img/Fire_Up_Target.gif","[""img/Fire_Down_Distractor.gif"",""img/Fire_Down_Distractor.gif"",""img/Fire_Down_Distractor.gif"",""img/Fire_Down_Distractor.gif"",""img/Fire_Down_Distractor.gif"",""img/Fire_Down_Distractor.gif"",""img/Fire_Down_Distractor.gif"",""img/Fire_Down_Distractor.gif"",""img/Fire_Down_Distractor.gif"",""img/Fire_Down_Distractor.gif"",""img/Fire_Down_Distractor.gif"",""img/Fire_Down_Distractor.gif""]","targetUp_distractorsDown"
"","","","","","html-keyboard-response","72","278810","0.0-14.0-0.0-0.29","598a37f8efe76a00018ea9fe","6186fb1cc52d38b480598eb7","6187378ea775cd9a1c59384d","null","","null","","","","","fixation","","","",""
"","","","","","visual-search-circle","73","282261","0.0-14.0-0.0-1.29","598a37f8efe76a00018ea9fe","6186fb1cc52d38b480598eb7","6187378ea775cd9a1c59384d","2439.100000023842","","d","true","[[352,4],[35,159],[84,508],[431,569],[597,258]]","true","5","","","img/Fire_Up_Target.gif","[""img/Fire_Down_Distractor.gif"",""img/Fire_Down_Distractor.gif"",""img/Fire_Down_Distractor.gif"",""img/Fire_Down_Distractor.gif"",""img/Fire_Down_Distractor.gif"",""img/Fire_Down_Distractor.gif"",""img/Fire_Down_Distractor.gif"",""img/Fire_Down_Distractor.gif"",""img/Fire_Down_Distractor.gif"",""img/Fire_Down_Distractor.gif"",""img/Fire_Down_Distractor.gif"",""img/Fire_Down_Distractor.gif""]","targetUp_distractorsDown"
"","","","","","html-keyboard-response","74","282263","0.0-14.0-0.0-0.30","598a37f8efe76a00018ea9fe","6186fb1cc52d38b480598eb7","6187378ea775cd9a1c59384d","null","","null","","","","","fixation","","","",""
"","","","","","visual-search-circle","75","284678","0.0-14.0-0.0-1.30","598a37f8efe76a00018ea9fe","6186fb1cc52d38b480598eb7","6187378ea775cd9a1c59384d","1383.3999999761581","","s","true","[[331,1],[111,66],[1,268],[66,488],[268,598],[488,533],[598,331],[533,111]]","false","8","","","img/Fire_Up_Target.gif","[""img/Fire_Down_Distractor.gif"",""img/Fire_Down_Distractor.gif"",""img/Fire_Down_Distractor.gif"",""img/Fire_Down_Distractor.gif"",""img/Fire_Down_Distractor.gif"",""img/Fire_Down_Distractor.gif"",""img/Fire_Down_Distractor.gif"",""img/Fire_Down_Distractor.gif"",""img/Fire_Down_Distractor.gif"",""img/Fire_Down_Distractor.gif"",""img/Fire_Down_Distractor.gif"",""img/Fire_Down_Distractor.gif""]","targetUp_distractorsDown"
"","","","","","html-keyboard-response","76","284680","0.0-14.0-0.0-0.31","598a37f8efe76a00018ea9fe","6186fb1cc52d38b480598eb7","6187378ea775cd9a1c59384d","null","","null","","","","","fixation","","","",""
"","","","","","visual-search-circle","77","287538","0.0-14.0-0.0-1.31","598a37f8efe76a00018ea9fe","6186fb1cc52d38b480598eb7","6187378ea775cd9a1c59384d","1845.6999999284744","","d","true","[[426,28],[127,54],[1,326],[173,571],[472,545],[598,273]]","true","6","","","img/Fire_Down_Target.gif","[""img/Fire_Up_Distractor.gif"",""img/Fire_Up_Distractor.gif"",""img/Fire_Up_Distractor.gif"",""img/Fire_Up_Distractor.gif"",""img/Fire_Up_Distractor.gif"",""img/Fire_Up_Distractor.gif"",""img/Fire_Up_Distractor.gif"",""img/Fire_Up_Distractor.gif"",""img/Fire_Up_Distractor.gif"",""img/Fire_Up_Distractor.gif"",""img/Fire_Up_Distractor.gif"",""img/Fire_Up_Distractor.gif""]","targetDown_distractorsUp"
"","","","","","html-keyboard-response","78","287540","0.0-14.0-0.0-0.32","598a37f8efe76a00018ea9fe","6186fb1cc52d38b480598eb7","6187378ea775cd9a1c59384d","null","","null","","","","","fixation","","","",""
"","","","","","visual-search-circle","79","290511","0.0-14.0-0.0-1.32","598a37f8efe76a00018ea9fe","6186fb1cc52d38b480598eb7","6187378ea775cd9a1c59384d","1959.6000000238419","","d","true","[[576,182],[182,23],[23,417],[417,576]]","true","4","","","img/Fire_Up_Target.gif","[""img/Fire_Down_Distractor.gif"",""img/Fire_Down_Distractor.gif"",""img/Fire_Down_Distractor.gif"",""img/Fire_Down_Distractor.gif"",""img/Fire_Down_Distractor.gif"",""img/Fire_Down_Distractor.gif"",""img/Fire_Down_Distractor.gif"",""img/Fire_Down_Distractor.gif"",""img/Fire_Down_Distractor.gif"",""img/Fire_Down_Distractor.gif"",""img/Fire_Down_Distractor.gif"",""img/Fire_Down_Distractor.gif""]","targetUp_distractorsDown"
"","","","","","html-keyboard-response","80","290515","0.0-14.0-0.0-0.33","598a37f8efe76a00018ea9fe","6186fb1cc52d38b480598eb7","6187378ea775cd9a1c59384d","null","","null","","","","","fixation","","","",""
"","","","","","visual-search-circle","81","292920","0.0-14.0-0.0-1.33","598a37f8efe76a00018ea9fe","6186fb1cc52d38b480598eb7","6187378ea775cd9a1c59384d","1399.2000000476837","","s","true","[[232,7],[13,212],[80,504],[367,592],[586,387],[519,95]]","false","6","","","img/Fire_Down_Target.gif","[""img/Fire_Up_Distractor.gif"",""img/Fire_Up_Distractor.gif"",""img/Fire_Up_Distractor.gif"",""img/Fire_Up_Distractor.gif"",""img/Fire_Up_Distractor.gif"",""img/Fire_Up_Distractor.gif"",""img/Fire_Up_Distractor.gif"",""img/Fire_Up_Distractor.gif"",""img/Fire_Up_Distractor.gif"",""img/Fire_Up_Distractor.gif"",""img/Fire_Up_Distractor.gif"",""img/Fire_Up_Distractor.gif""]","targetDown_distractorsUp"
"","","","","","html-keyboard-response","82","292922","0.0-14.0-0.0-0.34","598a37f8efe76a00018ea9fe","6186fb1cc52d38b480598eb7","6187378ea775cd9a1c59384d","null","","null","","","","","fixation","","","",""
"","","","","","visual-search-circle","83","296834","0.0-14.0-0.0-1.34","598a37f8efe76a00018ea9fe","6186fb1cc52d38b480598eb7","6187378ea775cd9a1c59384d","2902.8000000715256","","d","true","[[66,111],[1,331],[111,533],[331,598],[533,488],[598,268],[488,66],[268,1]]","true","8","","","img/Fire_Up_Target.gif","[""img/Fire_Down_Distractor.gif"",""img/Fire_Down_Distractor.gif"",""img/Fire_Down_Distractor.gif"",""img/Fire_Down_Distractor.gif"",""img/Fire_Down_Distractor.gif"",""img/Fire_Down_Distractor.gif"",""img/Fire_Down_Distractor.gif"",""img/Fire_Down_Distractor.gif"",""img/Fire_Down_Distractor.gif"",""img/Fire_Down_Distractor.gif"",""img/Fire_Down_Distractor.gif"",""img/Fire_Down_Distractor.gif""]","targetUp_distractorsDown"
"","","","","","html-keyboard-response","84","296845","0.0-14.0-0.0-0.35","598a37f8efe76a00018ea9fe","6186fb1cc52d38b480598eb7","6187378ea775cd9a1c59384d","null","","null","","","","","fixation","","","",""
"","","","","","visual-search-circle","85","299839","0.0-14.0-0.0-1.35","598a37f8efe76a00018ea9fe","6186fb1cc52d38b480598eb7","6187378ea775cd9a1c59384d","1984.8999999761581","","s","true","[[177,574],[476,542],[598,268],[422,25],[123,57],[1,331]]","false","6","","","img/Fire_Down_Target.gif","[""img/Fire_Up_Distractor.gif"",""img/Fire_Up_Distractor.gif"",""img/Fire_Up_Distractor.gif"",""img/Fire_Up_Distractor.gif"",""img/Fire_Up_Distractor.gif"",""img/Fire_Up_Distractor.gif"",""img/Fire_Up_Distractor.gif"",""img/Fire_Up_Distractor.gif"",""img/Fire_Up_Distractor.gif"",""img/Fire_Up_Distractor.gif"",""img/Fire_Up_Distractor.gif"",""img/Fire_Up_Distractor.gif""]","targetDown_distractorsUp"
"","","","","","html-keyboard-response","86","299849","0.0-14.0-0.0-0.36","598a37f8efe76a00018ea9fe","6186fb1cc52d38b480598eb7","6187378ea775cd9a1c59384d","null","","null","","","","","fixation","","","",""
"","","","","","visual-search-circle","87","302379","0.0-14.0-0.0-1.36","598a37f8efe76a00018ea9fe","6186fb1cc52d38b480598eb7","6187378ea775cd9a1c59384d","1511.6000000238419","","s","true","[[352,4],[35,159],[84,508],[431,569],[597,258]]","false","5","","","img/Fire_Down_Target.gif","[""img/Fire_Up_Distractor.gif"",""img/Fire_Up_Distractor.gif"",""img/Fire_Up_Distractor.gif"",""img/Fire_Up_Distractor.gif"",""img/Fire_Up_Distractor.gif"",""img/Fire_Up_Distractor.gif"",""img/Fire_Up_Distractor.gif"",""img/Fire_Up_Distractor.gif"",""img/Fire_Up_Distractor.gif"",""img/Fire_Up_Distractor.gif"",""img/Fire_Up_Distractor.gif"",""img/Fire_Up_Distractor.gif""]","targetDown_distractorsUp"
"","","","","","html-keyboard-response","88","302380","0.0-14.0-0.0-0.37","598a37f8efe76a00018ea9fe","6186fb1cc52d38b480598eb7","6187378ea775cd9a1c59384d","null","","null","","","","","fixation","","","",""
"","","","","","visual-search-circle","89","305822","0.0-14.0-0.0-1.37","598a37f8efe76a00018ea9fe","6186fb1cc52d38b480598eb7","6187378ea775cd9a1c59384d","2430.5","","s","true","[[4,352],[258,597],[569,431],[508,84],[159,35]]","false","5","","","img/Fire_Up_Target.gif","[""img/Fire_Down_Distractor.gif"",""img/Fire_Down_Distractor.gif"",""img/Fire_Down_Distractor.gif"",""img/Fire_Down_Distractor.gif"",""img/Fire_Down_Distractor.gif"",""img/Fire_Down_Distractor.gif"",""img/Fire_Down_Distractor.gif"",""img/Fire_Down_Distractor.gif"",""img/Fire_Down_Distractor.gif"",""img/Fire_Down_Distractor.gif"",""img/Fire_Down_Distractor.gif"",""img/Fire_Down_Distractor.gif""]","targetUp_distractorsDown"
"","","","","","html-keyboard-response","90","305824","0.0-14.0-0.0-0.38","598a37f8efe76a00018ea9fe","6186fb1cc52d38b480598eb7","6187378ea775cd9a1c59384d","null","","null","","","","","fixation","","","",""
"","","","","","visual-search-circle","91","308192","0.0-14.0-0.0-1.38","598a37f8efe76a00018ea9fe","6186fb1cc52d38b480598eb7","6187378ea775cd9a1c59384d","1360.7999999523163","","d","true","[[70,492],[492,529],[529,107],[107,70]]","true","4","","","img/Fire_Up_Target.gif","[""img/Fire_Down_Distractor.gif"",""img/Fire_Down_Distractor.gif"",""img/Fire_Down_Distractor.gif"",""img/Fire_Down_Distractor.gif"",""img/Fire_Down_Distractor.gif"",""img/Fire_Down_Distractor.gif"",""img/Fire_Down_Distractor.gif"",""img/Fire_Down_Distractor.gif"",""img/Fire_Down_Distractor.gif"",""img/Fire_Down_Distractor.gif"",""img/Fire_Down_Distractor.gif"",""img/Fire_Down_Distractor.gif""]","targetUp_distractorsDown"
"","","","","","html-keyboard-response","92","311654","0.0-14.0-0.0-0.39","598a37f8efe76a00018ea9fe","6186fb1cc52d38b480598eb7","6187378ea775cd9a1c59384d","3460.2000000476837","Wow! You've completed 40 out of 120 trials! </p> <p>  </p><p> Take a quick break, then press any key when you're ready to continue."," ","","","","","fixation","","","",""
"","","","","","visual-search-circle","93","314287","0.0-14.0-0.0-1.39","598a37f8efe76a00018ea9fe","6186fb1cc52d38b480598eb7","6187378ea775cd9a1c59384d","1622","","d","true","[[382,11],[91,84],[8,372],[217,588],[508,515],[591,227]]","true","6","","","img/Fire_Up_Target.gif","[""img/Fire_Down_Distractor.gif"",""img/Fire_Down_Distractor.gif"",""img/Fire_Down_Distractor.gif"",""img/Fire_Down_Distractor.gif"",""img/Fire_Down_Distractor.gif"",""img/Fire_Down_Distractor.gif"",""img/Fire_Down_Distractor.gif"",""img/Fire_Down_Distractor.gif"",""img/Fire_Down_Distractor.gif"",""img/Fire_Down_Distractor.gif"",""img/Fire_Down_Distractor.gif"",""img/Fire_Down_Distractor.gif""]","targetUp_distractorsDown"
"","","","","","html-keyboard-response","94","314289","0.0-14.0-0.0-0.40","598a37f8efe76a00018ea9fe","6186fb1cc52d38b480598eb7","6187378ea775cd9a1c59384d","null","","null","","","","","fixation","","","",""
"","","","","","visual-search-circle","95","317232","0.0-14.0-0.0-1.40","598a37f8efe76a00018ea9fe","6186fb1cc52d38b480598eb7","6187378ea775cd9a1c59384d","1934.7999999523163","","d","true","[[591,372],[372,8],[8,227],[227,591]]","true","4","","","img/Fire_Up_Target.gif","[""img/Fire_Down_Distractor.gif"",""img/Fire_Down_Distractor.gif"",""img/Fire_Down_Distractor.gif"",""img/Fire_Down_Distractor.gif"",""img/Fire_Down_Distractor.gif"",""img/Fire_Down_Distractor.gif"",""img/Fire_Down_Distractor.gif"",""img/Fire_Down_Distractor.gif"",""img/Fire_Down_Distractor.gif"",""img/Fire_Down_Distractor.gif"",""img/Fire_Down_Distractor.gif"",""img/Fire_Down_Distractor.gif""]","targetUp_distractorsDown"
"","","","","","html-keyboard-response","96","317234","0.0-14.0-0.0-0.41","598a37f8efe76a00018ea9fe","6186fb1cc52d38b480598eb7","6187378ea775cd9a1c59384d","null","","null","","","","","fixation","","","",""
"","","","","","visual-search-circle","97","320169","0.0-14.0-0.0-1.41","598a37f8efe76a00018ea9fe","6186fb1cc52d38b480598eb7","6187378ea775cd9a1c59384d","1913.1000000238419","","s","true","[[574,177],[268,1],[6,237],[149,559],[500,522]]","false","5","","","img/Fire_Down_Target.gif","[""img/Fire_Up_Distractor.gif"",""img/Fire_Up_Distractor.gif"",""img/Fire_Up_Distractor.gif"",""img/Fire_Up_Distractor.gif"",""img/Fire_Up_Distractor.gif"",""img/Fire_Up_Distractor.gif"",""img/Fire_Up_Distractor.gif"",""img/Fire_Up_Distractor.gif"",""img/Fire_Up_Distractor.gif"",""img/Fire_Up_Distractor.gif"",""img/Fire_Up_Distractor.gif"",""img/Fire_Up_Distractor.gif""]","targetDown_distractorsUp"
"","","","","","html-keyboard-response","98","320173","0.0-14.0-0.0-0.42","598a37f8efe76a00018ea9fe","6186fb1cc52d38b480598eb7","6187378ea775cd9a1c59384d","null","","null","","","","","fixation","","","",""
"","","","","","visual-search-circle","99","324587","0.0-14.0-0.0-1.42","598a37f8efe76a00018ea9fe","6186fb1cc52d38b480598eb7","6187378ea775cd9a1c59384d","3396.600000023842","","d","true","[[273,598],[517,506],[597,258],[453,42],[193,19],[14,208],[50,465]]","true","7","","","img/Fire_Up_Target.gif","[""img/Fire_Down_Distractor.gif"",""img/Fire_Down_Distractor.gif"",""img/Fire_Down_Distractor.gif"",""img/Fire_Down_Distractor.gif"",""img/Fire_Down_Distractor.gif"",""img/Fire_Down_Distractor.gif"",""img/Fire_Down_Distractor.gif"",""img/Fire_Down_Distractor.gif"",""img/Fire_Down_Distractor.gif"",""img/Fire_Down_Distractor.gif"",""img/Fire_Down_Distractor.gif"",""img/Fire_Down_Distractor.gif""]","targetUp_distractorsDown"
"","","","","","html-keyboard-response","100","324590","0.0-14.0-0.0-0.43","598a37f8efe76a00018ea9fe","6186fb1cc52d38b480598eb7","6187378ea775cd9a1c59384d","null","","null","","","","","fixation","","","",""
"","","","","","visual-search-circle","101","327829","0.0-14.0-0.0-1.43","598a37f8efe76a00018ea9fe","6186fb1cc52d38b480598eb7","6187378ea775cd9a1c59384d","2226.2000000476837","","d","true","[[136,551],[488,533],[580,192],[284,0],[10,222]]","true","5","","","img/Fire_Up_Target.gif","[""img/Fire_Down_Distractor.gif"",""img/Fire_Down_Distractor.gif"",""img/Fire_Down_Distractor.gif"",""img/Fire_Down_Distractor.gif"",""img/Fire_Down_Distractor.gif"",""img/Fire_Down_Distractor.gif"",""img/Fire_Down_Distractor.gif"",""img/Fire_Down_Distractor.gif"",""img/Fire_Down_Distractor.gif"",""img/Fire_Down_Distractor.gif"",""img/Fire_Down_Distractor.gif"",""img/Fire_Down_Distractor.gif""]","targetUp_distractorsDown"
"","","","","","html-keyboard-response","102","327831","0.0-14.0-0.0-0.44","598a37f8efe76a00018ea9fe","6186fb1cc52d38b480598eb7","6187378ea775cd9a1c59384d","null","","null","","","","","fixation","","","",""
"","","","","","visual-search-circle","103","331434","0.0-14.0-0.0-1.44","598a37f8efe76a00018ea9fe","6186fb1cc52d38b480598eb7","6187378ea775cd9a1c59384d","2580.8000000715256","","s","true","[[578,187],[187,21],[21,412],[412,578]]","false","4","","","img/Fire_Up_Target.gif","[""img/Fire_Down_Distractor.gif"",""img/Fire_Down_Distractor.gif"",""img/Fire_Down_Distractor.gif"",""img/Fire_Down_Distractor.gif"",""img/Fire_Down_Distractor.gif"",""img/Fire_Down_Distractor.gif"",""img/Fire_Down_Distractor.gif"",""img/Fire_Down_Distractor.gif"",""img/Fire_Down_Distractor.gif"",""img/Fire_Down_Distractor.gif"",""img/Fire_Down_Distractor.gif"",""img/Fire_Down_Distractor.gif""]","targetUp_distractorsDown"
"","","","","","html-keyboard-response","104","331437","0.0-14.0-0.0-0.45","598a37f8efe76a00018ea9fe","6186fb1cc52d38b480598eb7","6187378ea775cd9a1c59384d","null","","null","","","","","fixation","","","",""
"","","","","","visual-search-circle","105","337568","0.0-14.0-0.0-1.45","598a37f8efe76a00018ea9fe","6186fb1cc52d38b480598eb7","6187378ea775cd9a1c59384d","5123.899999976158","","d","true","[[472,545],[545,127],[127,54],[54,472]]","true","4","","","img/Fire_Up_Target.gif","[""img/Fire_Down_Distractor.gif"",""img/Fire_Down_Distractor.gif"",""img/Fire_Down_Distractor.gif"",""img/Fire_Down_Distractor.gif"",""img/Fire_Down_Distractor.gif"",""img/Fire_Down_Distractor.gif"",""img/Fire_Down_Distractor.gif"",""img/Fire_Down_Distractor.gif"",""img/Fire_Down_Distractor.gif"",""img/Fire_Down_Distractor.gif"",""img/Fire_Down_Distractor.gif"",""img/Fire_Down_Distractor.gif""]","targetUp_distractorsDown"
"","","","","","html-keyboard-response","106","337574","0.0-14.0-0.0-0.46","598a37f8efe76a00018ea9fe","6186fb1cc52d38b480598eb7","6187378ea775cd9a1c59384d","null","","null","","","","","fixation","","","",""
"","","","","","visual-search-circle","107","340141","0.0-14.0-0.0-1.46","598a37f8efe76a00018ea9fe","6186fb1cc52d38b480598eb7","6187378ea775cd9a1c59384d","1546.8000000715256","","s","true","[[13,212],[127,545],[480,539],[583,202],[294,0]]","false","5","","","img/Fire_Up_Target.gif","[""img/Fire_Down_Distractor.gif"",""img/Fire_Down_Distractor.gif"",""img/Fire_Down_Distractor.gif"",""img/Fire_Down_Distractor.gif"",""img/Fire_Down_Distractor.gif"",""img/Fire_Down_Distractor.gif"",""img/Fire_Down_Distractor.gif"",""img/Fire_Down_Distractor.gif"",""img/Fire_Down_Distractor.gif"",""img/Fire_Down_Distractor.gif"",""img/Fire_Down_Distractor.gif"",""img/Fire_Down_Distractor.gif""]","targetUp_distractorsDown"
"","","","","","html-keyboard-response","108","340143","0.0-14.0-0.0-0.47","598a37f8efe76a00018ea9fe","6186fb1cc52d38b480598eb7","6187378ea775cd9a1c59384d","null","","null","","","","","fixation","","","",""
"","","","","","visual-search-circle","109","342723","0.0-14.0-0.0-1.47","598a37f8efe76a00018ea9fe","6186fb1cc52d38b480598eb7","6187378ea775cd9a1c59384d","1570.8999999761581","","s","true","[[0,320],[168,569],[467,548],[599,279],[431,30],[132,51]]","false","6","","","img/Fire_Up_Target.gif","[""img/Fire_Down_Distractor.gif"",""img/Fire_Down_Distractor.gif"",""img/Fire_Down_Distractor.gif"",""img/Fire_Down_Distractor.gif"",""img/Fire_Down_Distractor.gif"",""img/Fire_Down_Distractor.gif"",""img/Fire_Down_Distractor.gif"",""img/Fire_Down_Distractor.gif"",""img/Fire_Down_Distractor.gif"",""img/Fire_Down_Distractor.gif"",""img/Fire_Down_Distractor.gif"",""img/Fire_Down_Distractor.gif""]","targetUp_distractorsDown"
"","","","","","html-keyboard-response","110","342726","0.0-14.0-0.0-0.48","598a37f8efe76a00018ea9fe","6186fb1cc52d38b480598eb7","6187378ea775cd9a1c59384d","null","","null","","","","","fixation","","","",""
"","","","","","visual-search-circle","111","345641","0.0-14.0-0.0-1.48","598a37f8efe76a00018ea9fe","6186fb1cc52d38b480598eb7","6187378ea775cd9a1c59384d","1885.7999999523163","","d","true","[[596,253],[476,57],[253,3],[57,123],[3,346],[123,542],[346,596],[542,476]]","true","8","","","img/Fire_Down_Target.gif","[""img/Fire_Up_Distractor.gif"",""img/Fire_Up_Distractor.gif"",""img/Fire_Up_Distractor.gif"",""img/Fire_Up_Distractor.gif"",""img/Fire_Up_Distractor.gif"",""img/Fire_Up_Distractor.gif"",""img/Fire_Up_Distractor.gif"",""img/Fire_Up_Distractor.gif"",""img/Fire_Up_Distractor.gif"",""img/Fire_Up_Distractor.gif"",""img/Fire_Up_Distractor.gif"",""img/Fire_Up_Distractor.gif""]","targetDown_distractorsUp"
"","","","","","html-keyboard-response","112","345648","0.0-14.0-0.0-0.49","598a37f8efe76a00018ea9fe","6186fb1cc52d38b480598eb7","6187378ea775cd9a1c59384d","null","","null","","","","","fixation","","","",""
"","","","","","visual-search-circle","113","347967","0.0-14.0-0.0-1.49","598a37f8efe76a00018ea9fe","6186fb1cc52d38b480598eb7","6187378ea775cd9a1c59384d","1291.2999999523163","","d","true","[[402,581],[571,426],[581,197],[426,28],[197,18],[28,173],[18,402],[173,571]]","true","8","","","img/Fire_Down_Target.gif","[""img/Fire_Up_Distractor.gif"",""img/Fire_Up_Distractor.gif"",""img/Fire_Up_Distractor.gif"",""img/Fire_Up_Distractor.gif"",""img/Fire_Up_Distractor.gif"",""img/Fire_Up_Distractor.gif"",""img/Fire_Up_Distractor.gif"",""img/Fire_Up_Distractor.gif"",""img/Fire_Up_Distractor.gif"",""img/Fire_Up_Distractor.gif"",""img/Fire_Up_Distractor.gif"",""img/Fire_Up_Distractor.gif""]","targetDown_distractorsUp"
"","","","","","html-keyboard-response","114","347975","0.0-14.0-0.0-0.50","598a37f8efe76a00018ea9fe","6186fb1cc52d38b480598eb7","6187378ea775cd9a1c59384d","null","","null","","","","","fixation","","","",""
"","","","","","visual-search-circle","115","351240","0.0-14.0-0.0-1.50","598a37f8efe76a00018ea9fe","6186fb1cc52d38b480598eb7","6187378ea775cd9a1c59384d","2249.899999976158","","d","true","[[585,392],[550,134],[326,1],[83,92],[2,340],[146,557],[405,580]]","true","7","","","img/Fire_Down_Target.gif","[""img/Fire_Up_Distractor.gif"",""img/Fire_Up_Distractor.gif"",""img/Fire_Up_Distractor.gif"",""img/Fire_Up_Distractor.gif"",""img/Fire_Up_Distractor.gif"",""img/Fire_Up_Distractor.gif"",""img/Fire_Up_Distractor.gif"",""img/Fire_Up_Distractor.gif"",""img/Fire_Up_Distractor.gif"",""img/Fire_Up_Distractor.gif"",""img/Fire_Up_Distractor.gif"",""img/Fire_Up_Distractor.gif""]","targetDown_distractorsUp"
"","","","","","html-keyboard-response","116","351258","0.0-14.0-0.0-0.51","598a37f8efe76a00018ea9fe","6186fb1cc52d38b480598eb7","6187378ea775cd9a1c59384d","null","","null","","","","","fixation","","","",""
"","","","","","visual-search-circle","117","353708","0.0-14.0-0.0-1.51","598a37f8efe76a00018ea9fe","6186fb1cc52d38b480598eb7","6187378ea775cd9a1c59384d","1436.8000000715256","","d","true","[[599,279],[372,8],[45,141],[70,492],[412,578]]","true","5","","","img/Fire_Down_Target.gif","[""img/Fire_Up_Distractor.gif"",""img/Fire_Up_Distractor.gif"",""img/Fire_Up_Distractor.gif"",""img/Fire_Up_Distractor.gif"",""img/Fire_Up_Distractor.gif"",""img/Fire_Up_Distractor.gif"",""img/Fire_Up_Distractor.gif"",""img/Fire_Up_Distractor.gif"",""img/Fire_Up_Distractor.gif"",""img/Fire_Up_Distractor.gif"",""img/Fire_Up_Distractor.gif"",""img/Fire_Up_Distractor.gif""]","targetDown_distractorsUp"
"","","","","","html-keyboard-response","118","353714","0.0-14.0-0.0-0.52","598a37f8efe76a00018ea9fe","6186fb1cc52d38b480598eb7","6187378ea775cd9a1c59384d","null","","null","","","","","fixation","","","",""
"","","","","","visual-search-circle","119","356457","0.0-14.0-0.0-1.52","598a37f8efe76a00018ea9fe","6186fb1cc52d38b480598eb7","6187378ea775cd9a1c59384d","1721.1000000238419","","s","true","[[6,237],[149,559],[500,522],[574,177],[268,1]]","false","5","","","img/Fire_Up_Target.gif","[""img/Fire_Down_Distractor.gif"",""img/Fire_Down_Distractor.gif"",""img/Fire_Down_Distractor.gif"",""img/Fire_Down_Distractor.gif"",""img/Fire_Down_Distractor.gif"",""img/Fire_Down_Distractor.gif"",""img/Fire_Down_Distractor.gif"",""img/Fire_Down_Distractor.gif"",""img/Fire_Down_Distractor.gif"",""img/Fire_Down_Distractor.gif"",""img/Fire_Down_Distractor.gif"",""img/Fire_Down_Distractor.gif""]","targetUp_distractorsDown"
"","","","","","html-keyboard-response","120","356459","0.0-14.0-0.0-0.53","598a37f8efe76a00018ea9fe","6186fb1cc52d38b480598eb7","6187378ea775cd9a1c59384d","null","","null","","","","","fixation","","","",""
"","","","","","visual-search-circle","121","359160","0.0-14.0-0.0-1.53","598a37f8efe76a00018ea9fe","6186fb1cc52d38b480598eb7","6187378ea775cd9a1c59384d","1692.7000000476837","","d","true","[[346,3],[123,57],[3,253],[57,476],[253,596],[476,542],[596,346],[542,123]]","true","8","","","img/Fire_Down_Target.gif","[""img/Fire_Up_Distractor.gif"",""img/Fire_Up_Distractor.gif"",""img/Fire_Up_Distractor.gif"",""img/Fire_Up_Distractor.gif"",""img/Fire_Up_Distractor.gif"",""img/Fire_Up_Distractor.gif"",""img/Fire_Up_Distractor.gif"",""img/Fire_Up_Distractor.gif"",""img/Fire_Up_Distractor.gif"",""img/Fire_Up_Distractor.gif"",""img/Fire_Up_Distractor.gif"",""img/Fire_Up_Distractor.gif""]","targetDown_distractorsUp"
"","","","","","html-keyboard-response","122","359162","0.0-14.0-0.0-0.54","598a37f8efe76a00018ea9fe","6186fb1cc52d38b480598eb7","6187378ea775cd9a1c59384d","null","","null","","","","","fixation","","","",""
"","","","","","visual-search-circle","123","364720","0.0-14.0-0.0-1.54","598a37f8efe76a00018ea9fe","6186fb1cc52d38b480598eb7","6187378ea775cd9a1c59384d","4530.300000071526","","d","true","[[197,581],[536,484],[548,132],[217,11],[0,289]]","true","5","","","img/Fire_Up_Target.gif","[""img/Fire_Down_Distractor.gif"",""img/Fire_Down_Distractor.gif"",""img/Fire_Down_Distractor.gif"",""img/Fire_Down_Distractor.gif"",""img/Fire_Down_Distractor.gif"",""img/Fire_Down_Distractor.gif"",""img/Fire_Down_Distractor.gif"",""img/Fire_Down_Distractor.gif"",""img/Fire_Down_Distractor.gif"",""img/Fire_Down_Distractor.gif"",""img/Fire_Down_Distractor.gif"",""img/Fire_Down_Distractor.gif""]","targetUp_distractorsDown"
"","","","","","html-keyboard-response","124","364722","0.0-14.0-0.0-0.55","598a37f8efe76a00018ea9fe","6186fb1cc52d38b480598eb7","6187378ea775cd9a1c59384d","null","","null","","","","","fixation","","","",""
"","","","","","visual-search-circle","125","369067","0.0-14.0-0.0-1.55","598a37f8efe76a00018ea9fe","6186fb1cc52d38b480598eb7","6187378ea775cd9a1c59384d","3329.2999999523163","","d","true","[[599,310],[402,18],[63,115],[51,467],[382,588]]","true","5","","","img/Fire_Up_Target.gif","[""img/Fire_Down_Distractor.gif"",""img/Fire_Down_Distractor.gif"",""img/Fire_Down_Distractor.gif"",""img/Fire_Down_Distractor.gif"",""img/Fire_Down_Distractor.gif"",""img/Fire_Down_Distractor.gif"",""img/Fire_Down_Distractor.gif"",""img/Fire_Down_Distractor.gif"",""img/Fire_Down_Distractor.gif"",""img/Fire_Down_Distractor.gif"",""img/Fire_Down_Distractor.gif"",""img/Fire_Down_Distractor.gif""]","targetUp_distractorsDown"
"","","","","","html-keyboard-response","126","369069","0.0-14.0-0.0-0.56","598a37f8efe76a00018ea9fe","6186fb1cc52d38b480598eb7","6187378ea775cd9a1c59384d","null","","null","","","","","fixation","","","",""
"","","","","","visual-search-circle","127","373022","0.0-14.0-0.0-1.56","598a37f8efe76a00018ea9fe","6186fb1cc52d38b480598eb7","6187378ea775cd9a1c59384d","2935","","s","true","[[542,123],[346,3],[123,57],[3,253],[57,476],[253,596],[476,542],[596,346]]","false","8","","","img/Fire_Up_Target.gif","[""img/Fire_Down_Distractor.gif"",""img/Fire_Down_Distractor.gif"",""img/Fire_Down_Distractor.gif"",""img/Fire_Down_Distractor.gif"",""img/Fire_Down_Distractor.gif"",""img/Fire_Down_Distractor.gif"",""img/Fire_Down_Distractor.gif"",""img/Fire_Down_Distractor.gif"",""img/Fire_Down_Distractor.gif"",""img/Fire_Down_Distractor.gif"",""img/Fire_Down_Distractor.gif"",""img/Fire_Down_Distractor.gif""]","targetUp_distractorsDown"
"","","","","","html-keyboard-response","128","373025","0.0-14.0-0.0-0.57","598a37f8efe76a00018ea9fe","6186fb1cc52d38b480598eb7","6187378ea775cd9a1c59384d","null","","null","","","","","fixation","","","",""
"","","","","","visual-search-circle","129","375475","0.0-14.0-0.0-1.57","598a37f8efe76a00018ea9fe","6186fb1cc52d38b480598eb7","6187378ea775cd9a1c59384d","1434.8999999761581","","d","true","[[115,63],[2,263],[63,484],[263,597],[484,536],[597,336],[536,115],[336,2]]","true","8","","","img/Fire_Up_Target.gif","[""img/Fire_Down_Distractor.gif"",""img/Fire_Down_Distractor.gif"",""img/Fire_Down_Distractor.gif"",""img/Fire_Down_Distractor.gif"",""img/Fire_Down_Distractor.gif"",""img/Fire_Down_Distractor.gif"",""img/Fire_Down_Distractor.gif"",""img/Fire_Down_Distractor.gif"",""img/Fire_Down_Distractor.gif"",""img/Fire_Down_Distractor.gif"",""img/Fire_Down_Distractor.gif"",""img/Fire_Down_Distractor.gif""]","targetUp_distractorsDown"
"","","","","","html-keyboard-response","130","375486","0.0-14.0-0.0-0.58","598a37f8efe76a00018ea9fe","6186fb1cc52d38b480598eb7","6187378ea775cd9a1c59384d","null","","null","","","","","fixation","","","",""
"","","","","","visual-search-circle","131","380405","0.0-14.0-0.0-1.58","598a37f8efe76a00018ea9fe","6186fb1cc52d38b480598eb7","6187378ea775cd9a1c59384d","3903.7000000476837","","d","true","[[70,492],[273,598],[492,529],[598,326],[529,107],[326,1],[107,70],[1,273]]","true","8","","","img/Fire_Up_Target.gif","[""img/Fire_Down_Distractor.gif"",""img/Fire_Down_Distractor.gif"",""img/Fire_Down_Distractor.gif"",""img/Fire_Down_Distractor.gif"",""img/Fire_Down_Distractor.gif"",""img/Fire_Down_Distractor.gif"",""img/Fire_Down_Distractor.gif"",""img/Fire_Down_Distractor.gif"",""img/Fire_Down_Distractor.gif"",""img/Fire_Down_Distractor.gif"",""img/Fire_Down_Distractor.gif"",""img/Fire_Down_Distractor.gif""]","targetUp_distractorsDown"
"","","","","","html-keyboard-response","132","381930","0.0-14.0-0.0-0.59","598a37f8efe76a00018ea9fe","6186fb1cc52d38b480598eb7","6187378ea775cd9a1c59384d","1523.8999999761581","Wow! You've completed 60 out of 120 trials! </p> <p>  </p><p> Take a quick break, then press any key when you're ready to continue."," ","","","","","fixation","","","",""
"","","","","","visual-search-circle","133","384919","0.0-14.0-0.0-1.59","598a37f8efe76a00018ea9fe","6186fb1cc52d38b480598eb7","6187378ea775cd9a1c59384d","1968","","d","true","[[599,310],[458,45],[159,35],[0,289],[141,554],[440,564]]","true","6","","","img/Fire_Up_Target.gif","[""img/Fire_Down_Distractor.gif"",""img/Fire_Down_Distractor.gif"",""img/Fire_Down_Distractor.gif"",""img/Fire_Down_Distractor.gif"",""img/Fire_Down_Distractor.gif"",""img/Fire_Down_Distractor.gif"",""img/Fire_Down_Distractor.gif"",""img/Fire_Down_Distractor.gif"",""img/Fire_Down_Distractor.gif"",""img/Fire_Down_Distractor.gif"",""img/Fire_Down_Distractor.gif"",""img/Fire_Down_Distractor.gif""]","targetUp_distractorsDown"
"","","","","","html-keyboard-response","134","384922","0.0-14.0-0.0-0.60","598a37f8efe76a00018ea9fe","6186fb1cc52d38b480598eb7","6187378ea775cd9a1c59384d","null","","null","","","","","fixation","","","",""
"","","","","","visual-search-circle","135","387446","0.0-14.0-0.0-1.60","598a37f8efe76a00018ea9fe","6186fb1cc52d38b480598eb7","6187378ea775cd9a1c59384d","1517.8999999761581","","s","true","[[66,111],[111,533],[533,488],[488,66]]","false","4","","","img/Fire_Up_Target.gif","[""img/Fire_Down_Distractor.gif"",""img/Fire_Down_Distractor.gif"",""img/Fire_Down_Distractor.gif"",""img/Fire_Down_Distractor.gif"",""img/Fire_Down_Distractor.gif"",""img/Fire_Down_Distractor.gif"",""img/Fire_Down_Distractor.gif"",""img/Fire_Down_Distractor.gif"",""img/Fire_Down_Distractor.gif"",""img/Fire_Down_Distractor.gif"",""img/Fire_Down_Distractor.gif"",""img/Fire_Down_Distractor.gif""]","targetUp_distractorsDown"
"","","","","","html-keyboard-response","136","387447","0.0-14.0-0.0-0.61","598a37f8efe76a00018ea9fe","6186fb1cc52d38b480598eb7","6187378ea775cd9a1c59384d","null","","null","","","","","fixation","","","",""
"","","","","","visual-search-circle","137","391289","0.0-14.0-0.0-1.61","598a37f8efe76a00018ea9fe","6186fb1cc52d38b480598eb7","6187378ea775cd9a1c59384d","2836.2000000476837","","s","true","[[150,40],[40,450],[450,559],[559,150]]","false","4","","","img/Fire_Down_Target.gif","[""img/Fire_Up_Distractor.gif"",""img/Fire_Up_Distractor.gif"",""img/Fire_Up_Distractor.gif"",""img/Fire_Up_Distractor.gif"",""img/Fire_Up_Distractor.gif"",""img/Fire_Up_Distractor.gif"",""img/Fire_Up_Distractor.gif"",""img/Fire_Up_Distractor.gif"",""img/Fire_Up_Distractor.gif"",""img/Fire_Up_Distractor.gif"",""img/Fire_Up_Distractor.gif"",""img/Fire_Up_Distractor.gif""]","targetDown_distractorsUp"
"","","","","","html-keyboard-response","138","391291","0.0-14.0-0.0-0.62","598a37f8efe76a00018ea9fe","6186fb1cc52d38b480598eb7","6187378ea775cd9a1c59384d","null","","null","","","","","fixation","","","",""
"","","","","","visual-search-circle","139","394184","0.0-14.0-0.0-1.62","598a37f8efe76a00018ea9fe","6186fb1cc52d38b480598eb7","6187378ea775cd9a1c59384d","1884.8000000715256","","s","true","[[25,422],[192,580],[422,574],[580,407],[574,177],[407,19],[177,25],[19,192]]","false","8","","","img/Fire_Down_Target.gif","[""img/Fire_Up_Distractor.gif"",""img/Fire_Up_Distractor.gif"",""img/Fire_Up_Distractor.gif"",""img/Fire_Up_Distractor.gif"",""img/Fire_Up_Distractor.gif"",""img/Fire_Up_Distractor.gif"",""img/Fire_Up_Distractor.gif"",""img/Fire_Up_Distractor.gif"",""img/Fire_Up_Distractor.gif"",""img/Fire_Up_Distractor.gif"",""img/Fire_Up_Distractor.gif"",""img/Fire_Up_Distractor.gif""]","targetDown_distractorsUp"
"","","","","","html-keyboard-response","140","394188","0.0-14.0-0.0-0.63","598a37f8efe76a00018ea9fe","6186fb1cc52d38b480598eb7","6187378ea775cd9a1c59384d","null","","null","","","","","fixation","","","",""
"","","","","","visual-search-circle","141","396113","0.0-14.0-0.0-1.63","598a37f8efe76a00018ea9fe","6186fb1cc52d38b480598eb7","6187378ea775cd9a1c59384d","912","","d","true","[[173,28],[2,336],[242,594],[562,445],[519,95]]","true","5","","","img/Fire_Down_Target.gif","[""img/Fire_Up_Distractor.gif"",""img/Fire_Up_Distractor.gif"",""img/Fire_Up_Distractor.gif"",""img/Fire_Up_Distractor.gif"",""img/Fire_Up_Distractor.gif"",""img/Fire_Up_Distractor.gif"",""img/Fire_Up_Distractor.gif"",""img/Fire_Up_Distractor.gif"",""img/Fire_Up_Distractor.gif"",""img/Fire_Up_Distractor.gif"",""img/Fire_Up_Distractor.gif"",""img/Fire_Up_Distractor.gif""]","targetDown_distractorsUp"
"","","","","","html-keyboard-response","142","396122","0.0-14.0-0.0-0.64","598a37f8efe76a00018ea9fe","6186fb1cc52d38b480598eb7","6187378ea775cd9a1c59384d","null","","null","","","","","fixation","","","",""
"","","","","","visual-search-circle","143","399566","0.0-14.0-0.0-1.64","598a37f8efe76a00018ea9fe","6186fb1cc52d38b480598eb7","6187378ea775cd9a1c59384d","2430.600000023842","","d","true","[[66,488],[302,599],[535,485],[591,231],[428,28],[167,30],[7,235]]","true","7","","","img/Fire_Up_Target.gif","[""img/Fire_Down_Distractor.gif"",""img/Fire_Down_Distractor.gif"",""img/Fire_Down_Distractor.gif"",""img/Fire_Down_Distractor.gif"",""img/Fire_Down_Distractor.gif"",""img/Fire_Down_Distractor.gif"",""img/Fire_Down_Distractor.gif"",""img/Fire_Down_Distractor.gif"",""img/Fire_Down_Distractor.gif"",""img/Fire_Down_Distractor.gif"",""img/Fire_Down_Distractor.gif"",""img/Fire_Down_Distractor.gif""]","targetUp_distractorsDown"
"","","","","","html-keyboard-response","144","399568","0.0-14.0-0.0-0.65","598a37f8efe76a00018ea9fe","6186fb1cc52d38b480598eb7","6187378ea775cd9a1c59384d","null","","null","","","","","fixation","","","",""
"","","","","","visual-search-circle","145","405621","0.0-14.0-0.0-1.65","598a37f8efe76a00018ea9fe","6186fb1cc52d38b480598eb7","6187378ea775cd9a1c59384d","5042.800000071526","","d","true","[[159,564],[508,515],[569,168],[258,2],[4,247]]","true","5","","","img/Fire_Up_Target.gif","[""img/Fire_Down_Distractor.gif"",""img/Fire_Down_Distractor.gif"",""img/Fire_Down_Distractor.gif"",""img/Fire_Down_Distractor.gif"",""img/Fire_Down_Distractor.gif"",""img/Fire_Down_Distractor.gif"",""img/Fire_Down_Distractor.gif"",""img/Fire_Down_Distractor.gif"",""img/Fire_Down_Distractor.gif"",""img/Fire_Down_Distractor.gif"",""img/Fire_Down_Distractor.gif"",""img/Fire_Down_Distractor.gif""]","targetUp_distractorsDown"
"","","","","","html-keyboard-response","146","405623","0.0-14.0-0.0-0.66","598a37f8efe76a00018ea9fe","6186fb1cc52d38b480598eb7","6187378ea775cd9a1c59384d","null","","null","","","","","fixation","","","",""
"","","","","","visual-search-circle","147","408214","0.0-14.0-0.0-1.66","598a37f8efe76a00018ea9fe","6186fb1cc52d38b480598eb7","6187378ea775cd9a1c59384d","1572.1000000238419","","d","true","[[35,440],[352,595],[597,341],[431,30],[84,91]]","true","5","","","img/Fire_Down_Target.gif","[""img/Fire_Up_Distractor.gif"",""img/Fire_Up_Distractor.gif"",""img/Fire_Up_Distractor.gif"",""img/Fire_Up_Distractor.gif"",""img/Fire_Up_Distractor.gif"",""img/Fire_Up_Distractor.gif"",""img/Fire_Up_Distractor.gif"",""img/Fire_Up_Distractor.gif"",""img/Fire_Up_Distractor.gif"",""img/Fire_Up_Distractor.gif"",""img/Fire_Up_Distractor.gif"",""img/Fire_Up_Distractor.gif""]","targetDown_distractorsUp"
"","","","","","html-keyboard-response","148","408237","0.0-14.0-0.0-0.67","598a37f8efe76a00018ea9fe","6186fb1cc52d38b480598eb7","6187378ea775cd9a1c59384d","null","","null","","","","","fixation","","","",""
"","","","","","visual-search-circle","149","410525","0.0-14.0-0.0-1.67","598a37f8efe76a00018ea9fe","6186fb1cc52d38b480598eb7","6187378ea775cd9a1c59384d","1281.6999999284744","","d","true","[[515,91],[91,84],[84,508],[508,515]]","true","4","","","img/Fire_Down_Target.gif","[""img/Fire_Up_Distractor.gif"",""img/Fire_Up_Distractor.gif"",""img/Fire_Up_Distractor.gif"",""img/Fire_Up_Distractor.gif"",""img/Fire_Up_Distractor.gif"",""img/Fire_Up_Distractor.gif"",""img/Fire_Up_Distractor.gif"",""img/Fire_Up_Distractor.gif"",""img/Fire_Up_Distractor.gif"",""img/Fire_Up_Distractor.gif"",""img/Fire_Up_Distractor.gif"",""img/Fire_Up_Distractor.gif""]","targetDown_distractorsUp"
"","","","","","html-keyboard-response","150","410533","0.0-14.0-0.0-0.68","598a37f8efe76a00018ea9fe","6186fb1cc52d38b480598eb7","6187378ea775cd9a1c59384d","null","","null","","","","","fixation","","","",""
"","","","","","visual-search-circle","151","414761","0.0-14.0-0.0-1.68","598a37f8efe76a00018ea9fe","6186fb1cc52d38b480598eb7","6187378ea775cd9a1c59384d","3216.2999999523163","","s","true","[[377,589],[559,450],[589,222],[449,40],[222,10],[40,150],[10,377],[150,559]]","false","8","","","img/Fire_Down_Target.gif","[""img/Fire_Up_Distractor.gif"",""img/Fire_Up_Distractor.gif"",""img/Fire_Up_Distractor.gif"",""img/Fire_Up_Distractor.gif"",""img/Fire_Up_Distractor.gif"",""img/Fire_Up_Distractor.gif"",""img/Fire_Up_Distractor.gif"",""img/Fire_Up_Distractor.gif"",""img/Fire_Up_Distractor.gif"",""img/Fire_Up_Distractor.gif"",""img/Fire_Up_Distractor.gif"",""img/Fire_Up_Distractor.gif""]","targetDown_distractorsUp"
"","","","","","html-keyboard-response","152","414763","0.0-14.0-0.0-0.69","598a37f8efe76a00018ea9fe","6186fb1cc52d38b480598eb7","6187378ea775cd9a1c59384d","null","","null","","","","","fixation","","","",""
"","","","","","visual-search-circle","153","417462","0.0-14.0-0.0-1.69","598a37f8efe76a00018ea9fe","6186fb1cc52d38b480598eb7","6187378ea775cd9a1c59384d","1690.9000000953674","","s","true","[[70,492],[492,529],[529,107],[107,70]]","false","4","","","img/Fire_Down_Target.gif","[""img/Fire_Up_Distractor.gif"",""img/Fire_Up_Distractor.gif"",""img/Fire_Up_Distractor.gif"",""img/Fire_Up_Distractor.gif"",""img/Fire_Up_Distractor.gif"",""img/Fire_Up_Distractor.gif"",""img/Fire_Up_Distractor.gif"",""img/Fire_Up_Distractor.gif"",""img/Fire_Up_Distractor.gif"",""img/Fire_Up_Distractor.gif"",""img/Fire_Up_Distractor.gif"",""img/Fire_Up_Distractor.gif""]","targetDown_distractorsUp"
"","","","","","html-keyboard-response","154","417464","0.0-14.0-0.0-0.70","598a37f8efe76a00018ea9fe","6186fb1cc52d38b480598eb7","6187378ea775cd9a1c59384d","null","","null","","","","","fixation","","","",""
"","","","","","visual-search-circle","155","420754","0.0-14.0-0.0-1.70","598a37f8efe76a00018ea9fe","6186fb1cc52d38b480598eb7","6187378ea775cd9a1c59384d","2269.1999999284744","","s","true","[[23,417],[219,588],[475,543],[599,314],[497,74],[247,4],[36,157]]","false","7","","","img/Fire_Down_Target.gif","[""img/Fire_Up_Distractor.gif"",""img/Fire_Up_Distractor.gif"",""img/Fire_Up_Distractor.gif"",""img/Fire_Up_Distractor.gif"",""img/Fire_Up_Distractor.gif"",""img/Fire_Up_Distractor.gif"",""img/Fire_Up_Distractor.gif"",""img/Fire_Up_Distractor.gif"",""img/Fire_Up_Distractor.gif"",""img/Fire_Up_Distractor.gif"",""img/Fire_Up_Distractor.gif"",""img/Fire_Up_Distractor.gif""]","targetDown_distractorsUp"
"","","","","","html-keyboard-response","156","420757","0.0-14.0-0.0-0.71","598a37f8efe76a00018ea9fe","6186fb1cc52d38b480598eb7","6187378ea775cd9a1c59384d","null","","null","","","","","fixation","","","",""
"","","","","","visual-search-circle","157","428148","0.0-14.0-0.0-1.71","598a37f8efe76a00018ea9fe","6186fb1cc52d38b480598eb7","6187378ea775cd9a1c59384d","6380.200000047684","","s","true","[[533,111],[111,66],[66,488],[488,533]]","false","4","","","img/Fire_Up_Target.gif","[""img/Fire_Down_Distractor.gif"",""img/Fire_Down_Distractor.gif"",""img/Fire_Down_Distractor.gif"",""img/Fire_Down_Distractor.gif"",""img/Fire_Down_Distractor.gif"",""img/Fire_Down_Distractor.gif"",""img/Fire_Down_Distractor.gif"",""img/Fire_Down_Distractor.gif"",""img/Fire_Down_Distractor.gif"",""img/Fire_Down_Distractor.gif"",""img/Fire_Down_Distractor.gif"",""img/Fire_Down_Distractor.gif""]","targetUp_distractorsDown"
"","","","","","html-keyboard-response","158","428149","0.0-14.0-0.0-0.72","598a37f8efe76a00018ea9fe","6186fb1cc52d38b480598eb7","6187378ea775cd9a1c59384d","null","","null","","","","","fixation","","","",""
"","","","","","visual-search-circle","159","431417","0.0-14.0-0.0-1.72","598a37f8efe76a00018ea9fe","6186fb1cc52d38b480598eb7","6187378ea775cd9a1c59384d","2245.100000023842","","s","true","[[402,581],[571,426],[581,197],[426,28],[197,18],[28,173],[18,402],[173,571]]","false","8","","","img/Fire_Down_Target.gif","[""img/Fire_Up_Distractor.gif"",""img/Fire_Up_Distractor.gif"",""img/Fire_Up_Distractor.gif"",""img/Fire_Up_Distractor.gif"",""img/Fire_Up_Distractor.gif"",""img/Fire_Up_Distractor.gif"",""img/Fire_Up_Distractor.gif"",""img/Fire_Up_Distractor.gif"",""img/Fire_Up_Distractor.gif"",""img/Fire_Up_Distractor.gif"",""img/Fire_Up_Distractor.gif"",""img/Fire_Up_Distractor.gif""]","targetDown_distractorsUp"
"","","","","","html-keyboard-response","160","431419","0.0-14.0-0.0-0.73","598a37f8efe76a00018ea9fe","6186fb1cc52d38b480598eb7","6187378ea775cd9a1c59384d","null","","null","","","","","fixation","","","",""
"","","","","","visual-search-circle","161","434555","0.0-14.0-0.0-1.73","598a37f8efe76a00018ea9fe","6186fb1cc52d38b480598eb7","6187378ea775cd9a1c59384d","2123.100000023842","","s","true","[[422,25],[161,33],[5,242],[71,493],[308,599],[540,479],[590,224]]","false","7","","","img/Fire_Up_Target.gif","[""img/Fire_Down_Distractor.gif"",""img/Fire_Down_Distractor.gif"",""img/Fire_Down_Distractor.gif"",""img/Fire_Down_Distractor.gif"",""img/Fire_Down_Distractor.gif"",""img/Fire_Down_Distractor.gif"",""img/Fire_Down_Distractor.gif"",""img/Fire_Down_Distractor.gif"",""img/Fire_Down_Distractor.gif"",""img/Fire_Down_Distractor.gif"",""img/Fire_Down_Distractor.gif"",""img/Fire_Down_Distractor.gif""]","targetUp_distractorsDown"
"","","","","","html-keyboard-response","162","434558","0.0-14.0-0.0-0.74","598a37f8efe76a00018ea9fe","6186fb1cc52d38b480598eb7","6187378ea775cd9a1c59384d","null","","null","","","","","fixation","","","",""
"","","","","","visual-search-circle","163","436675","0.0-14.0-0.0-1.74","598a37f8efe76a00018ea9fe","6186fb1cc52d38b480598eb7","6187378ea775cd9a1c59384d","1102.5","","d","true","[[258,597],[506,517],[598,274],[466,50],[208,14],[19,193],[41,452]]","true","7","","","img/Fire_Down_Target.gif","[""img/Fire_Up_Distractor.gif"",""img/Fire_Up_Distractor.gif"",""img/Fire_Up_Distractor.gif"",""img/Fire_Up_Distractor.gif"",""img/Fire_Up_Distractor.gif"",""img/Fire_Up_Distractor.gif"",""img/Fire_Up_Distractor.gif"",""img/Fire_Up_Distractor.gif"",""img/Fire_Up_Distractor.gif"",""img/Fire_Up_Distractor.gif"",""img/Fire_Up_Distractor.gif"",""img/Fire_Up_Distractor.gif""]","targetDown_distractorsUp"
"","","","","","html-keyboard-response","164","436679","0.0-14.0-0.0-0.75","598a37f8efe76a00018ea9fe","6186fb1cc52d38b480598eb7","6187378ea775cd9a1c59384d","null","","null","","","","","fixation","","","",""
"","","","","","visual-search-circle","165","438884","0.0-14.0-0.0-1.75","598a37f8efe76a00018ea9fe","6186fb1cc52d38b480598eb7","6187378ea775cd9a1c59384d","1191.6999999284744","","d","true","[[551,463],[533,111],[192,19],[0,315],[222,589]]","true","5","","","img/Fire_Down_Target.gif","[""img/Fire_Up_Distractor.gif"",""img/Fire_Up_Distractor.gif"",""img/Fire_Up_Distractor.gif"",""img/Fire_Up_Distractor.gif"",""img/Fire_Up_Distractor.gif"",""img/Fire_Up_Distractor.gif"",""img/Fire_Up_Distractor.gif"",""img/Fire_Up_Distractor.gif"",""img/Fire_Up_Distractor.gif"",""img/Fire_Up_Distractor.gif"",""img/Fire_Up_Distractor.gif"",""img/Fire_Up_Distractor.gif""]","targetDown_distractorsUp"
"","","","","","html-keyboard-response","166","438889","0.0-14.0-0.0-0.76","598a37f8efe76a00018ea9fe","6186fb1cc52d38b480598eb7","6187378ea775cd9a1c59384d","null","","null","","","","","fixation","","","",""
"","","","","","visual-search-circle","167","441232","0.0-14.0-0.0-1.76","598a37f8efe76a00018ea9fe","6186fb1cc52d38b480598eb7","6187378ea775cd9a1c59384d","1335.2999999523163","","d","true","[[592,367],[504,80],[212,13],[7,232],[95,519],[387,586]]","true","6","","","img/Fire_Down_Target.gif","[""img/Fire_Up_Distractor.gif"",""img/Fire_Up_Distractor.gif"",""img/Fire_Up_Distractor.gif"",""img/Fire_Up_Distractor.gif"",""img/Fire_Up_Distractor.gif"",""img/Fire_Up_Distractor.gif"",""img/Fire_Up_Distractor.gif"",""img/Fire_Up_Distractor.gif"",""img/Fire_Up_Distractor.gif"",""img/Fire_Up_Distractor.gif"",""img/Fire_Up_Distractor.gif"",""img/Fire_Up_Distractor.gif""]","targetDown_distractorsUp"
"","","","","","html-keyboard-response","168","441233","0.0-14.0-0.0-0.77","598a37f8efe76a00018ea9fe","6186fb1cc52d38b480598eb7","6187378ea775cd9a1c59384d","null","","null","","","","","fixation","","","",""
"","","","","","visual-search-circle","169","444800","0.0-14.0-0.0-1.77","598a37f8efe76a00018ea9fe","6186fb1cc52d38b480598eb7","6187378ea775cd9a1c59384d","2547.399999976158","","s","true","[[192,19],[19,407],[407,580],[580,192]]","false","4","","","img/Fire_Up_Target.gif","[""img/Fire_Down_Distractor.gif"",""img/Fire_Down_Distractor.gif"",""img/Fire_Down_Distractor.gif"",""img/Fire_Down_Distractor.gif"",""img/Fire_Down_Distractor.gif"",""img/Fire_Down_Distractor.gif"",""img/Fire_Down_Distractor.gif"",""img/Fire_Down_Distractor.gif"",""img/Fire_Down_Distractor.gif"",""img/Fire_Down_Distractor.gif"",""img/Fire_Down_Distractor.gif"",""img/Fire_Down_Distractor.gif""]","targetUp_distractorsDown"
"","","","","","html-keyboard-response","170","444803","0.0-14.0-0.0-0.78","598a37f8efe76a00018ea9fe","6186fb1cc52d38b480598eb7","6187378ea775cd9a1c59384d","null","","null","","","","","fixation","","","",""
"","","","","","visual-search-circle","171","447453","0.0-14.0-0.0-1.78","598a37f8efe76a00018ea9fe","6186fb1cc52d38b480598eb7","6187378ea775cd9a1c59384d","1644.5","","s","true","[[77,500],[500,522],[522,99],[99,77]]","false","4","","","img/Fire_Down_Target.gif","[""img/Fire_Up_Distractor.gif"",""img/Fire_Up_Distractor.gif"",""img/Fire_Up_Distractor.gif"",""img/Fire_Up_Distractor.gif"",""img/Fire_Up_Distractor.gif"",""img/Fire_Up_Distractor.gif"",""img/Fire_Up_Distractor.gif"",""img/Fire_Up_Distractor.gif"",""img/Fire_Up_Distractor.gif"",""img/Fire_Up_Distractor.gif"",""img/Fire_Up_Distractor.gif"",""img/Fire_Up_Distractor.gif""]","targetDown_distractorsUp"
"","","","","","html-keyboard-response","172","448581","0.0-14.0-0.0-0.79","598a37f8efe76a00018ea9fe","6186fb1cc52d38b480598eb7","6187378ea775cd9a1c59384d","1126.2999999523163","Wow! You've completed 80 out of 120 trials! </p> <p>  </p><p> Take a quick break, then press any key when you're ready to continue."," ","","","","","fixation","","","",""
"","","","","","visual-search-circle","173","451850","0.0-14.0-0.0-1.79","598a37f8efe76a00018ea9fe","6186fb1cc52d38b480598eb7","6187378ea775cd9a1c59384d","2254.899999976158","","s","true","[[42,454],[227,591],[454,557],[591,372],[557,145],[372,8],[145,42],[8,227]]","false","8","","","img/Fire_Down_Target.gif","[""img/Fire_Up_Distractor.gif"",""img/Fire_Up_Distractor.gif"",""img/Fire_Up_Distractor.gif"",""img/Fire_Up_Distractor.gif"",""img/Fire_Up_Distractor.gif"",""img/Fire_Up_Distractor.gif"",""img/Fire_Up_Distractor.gif"",""img/Fire_Up_Distractor.gif"",""img/Fire_Up_Distractor.gif"",""img/Fire_Up_Distractor.gif"",""img/Fire_Up_Distractor.gif"",""img/Fire_Up_Distractor.gif""]","targetDown_distractorsUp"
"","","","","","html-keyboard-response","174","451851","0.0-14.0-0.0-0.80","598a37f8efe76a00018ea9fe","6186fb1cc52d38b480598eb7","6187378ea775cd9a1c59384d","null","","null","","","","","fixation","","","",""
"","","","","","visual-search-circle","175","454079","0.0-14.0-0.0-1.80","598a37f8efe76a00018ea9fe","6186fb1cc52d38b480598eb7","6187378ea775cd9a1c59384d","1205.7000000476837","","d","true","[[488,66],[235,7],[30,167],[28,428],[231,591],[485,535],[599,302]]","true","7","","","img/Fire_Down_Target.gif","[""img/Fire_Up_Distractor.gif"",""img/Fire_Up_Distractor.gif"",""img/Fire_Up_Distractor.gif"",""img/Fire_Up_Distractor.gif"",""img/Fire_Up_Distractor.gif"",""img/Fire_Up_Distractor.gif"",""img/Fire_Up_Distractor.gif"",""img/Fire_Up_Distractor.gif"",""img/Fire_Up_Distractor.gif"",""img/Fire_Up_Distractor.gif"",""img/Fire_Up_Distractor.gif"",""img/Fire_Up_Distractor.gif""]","targetDown_distractorsUp"
"","","","","","html-keyboard-response","176","454080","0.0-14.0-0.0-0.81","598a37f8efe76a00018ea9fe","6186fb1cc52d38b480598eb7","6187378ea775cd9a1c59384d","null","","null","","","","","fixation","","","",""
"","","","","","visual-search-circle","177","456798","0.0-14.0-0.0-1.81","598a37f8efe76a00018ea9fe","6186fb1cc52d38b480598eb7","6187378ea775cd9a1c59384d","1698.3000000715256","","d","true","[[431,30],[30,168],[168,569],[569,431]]","true","4","","","img/Fire_Up_Target.gif","[""img/Fire_Down_Distractor.gif"",""img/Fire_Down_Distractor.gif"",""img/Fire_Down_Distractor.gif"",""img/Fire_Down_Distractor.gif"",""img/Fire_Down_Distractor.gif"",""img/Fire_Down_Distractor.gif"",""img/Fire_Down_Distractor.gif"",""img/Fire_Down_Distractor.gif"",""img/Fire_Down_Distractor.gif"",""img/Fire_Down_Distractor.gif"",""img/Fire_Down_Distractor.gif"",""img/Fire_Down_Distractor.gif""]","targetUp_distractorsDown"
"","","","","","html-keyboard-response","178","456801","0.0-14.0-0.0-0.82","598a37f8efe76a00018ea9fe","6186fb1cc52d38b480598eb7","6187378ea775cd9a1c59384d","null","","null","","","","","fixation","","","",""
"","","","","","visual-search-circle","179","459106","0.0-14.0-0.0-1.82","598a37f8efe76a00018ea9fe","6186fb1cc52d38b480598eb7","6187378ea775cd9a1c59384d","1286","","s","true","[[586,387],[472,54],[119,60],[16,397],[305,599]]","false","5","","","img/Fire_Up_Target.gif","[""img/Fire_Down_Distractor.gif"",""img/Fire_Down_Distractor.gif"",""img/Fire_Down_Distractor.gif"",""img/Fire_Down_Distractor.gif"",""img/Fire_Down_Distractor.gif"",""img/Fire_Down_Distractor.gif"",""img/Fire_Down_Distractor.gif"",""img/Fire_Down_Distractor.gif"",""img/Fire_Down_Distractor.gif"",""img/Fire_Down_Distractor.gif"",""img/Fire_Down_Distractor.gif"",""img/Fire_Down_Distractor.gif""]","targetUp_distractorsDown"
"","","","","","html-keyboard-response","180","459108","0.0-14.0-0.0-0.83","598a37f8efe76a00018ea9fe","6186fb1cc52d38b480598eb7","6187378ea775cd9a1c59384d","null","","null","","","","","fixation","","","",""
"","","","","","visual-search-circle","181","461511","0.0-14.0-0.0-1.83","598a37f8efe76a00018ea9fe","6186fb1cc52d38b480598eb7","6187378ea775cd9a1c59384d","1391.7000000476837","","d","true","[[592,232],[458,45],[232,7],[45,141],[7,367],[141,554],[367,592],[554,458]]","true","8","","","img/Fire_Down_Target.gif","[""img/Fire_Up_Distractor.gif"",""img/Fire_Up_Distractor.gif"",""img/Fire_Up_Distractor.gif"",""img/Fire_Up_Distractor.gif"",""img/Fire_Up_Distractor.gif"",""img/Fire_Up_Distractor.gif"",""img/Fire_Up_Distractor.gif"",""img/Fire_Up_Distractor.gif"",""img/Fire_Up_Distractor.gif"",""img/Fire_Up_Distractor.gif"",""img/Fire_Up_Distractor.gif"",""img/Fire_Up_Distractor.gif""]","targetDown_distractorsUp"
"","","","","","html-keyboard-response","182","461516","0.0-14.0-0.0-0.84","598a37f8efe76a00018ea9fe","6186fb1cc52d38b480598eb7","6187378ea775cd9a1c59384d","null","","null","","","","","fixation","","","",""
"","","","","","visual-search-circle","183","465490","0.0-14.0-0.0-1.84","598a37f8efe76a00018ea9fe","6186fb1cc52d38b480598eb7","6187378ea775cd9a1c59384d","2953.100000023842","","d","true","[[1,273],[127,545],[426,571],[598,326],[472,54],[173,28]]","true","6","","","img/Fire_Up_Target.gif","[""img/Fire_Down_Distractor.gif"",""img/Fire_Down_Distractor.gif"",""img/Fire_Down_Distractor.gif"",""img/Fire_Down_Distractor.gif"",""img/Fire_Down_Distractor.gif"",""img/Fire_Down_Distractor.gif"",""img/Fire_Down_Distractor.gif"",""img/Fire_Down_Distractor.gif"",""img/Fire_Down_Distractor.gif"",""img/Fire_Down_Distractor.gif"",""img/Fire_Down_Distractor.gif"",""img/Fire_Down_Distractor.gif""]","targetUp_distractorsDown"
"","","","","","html-keyboard-response","184","465493","0.0-14.0-0.0-0.85","598a37f8efe76a00018ea9fe","6186fb1cc52d38b480598eb7","6187378ea775cd9a1c59384d","null","","null","","","","","fixation","","","",""
"","","","","","visual-search-circle","185","467912","0.0-14.0-0.0-1.85","598a37f8efe76a00018ea9fe","6186fb1cc52d38b480598eb7","6187378ea775cd9a1c59384d","1403.3999999761581","","s","true","[[583,202],[202,16],[16,397],[397,583]]","false","4","","","img/Fire_Down_Target.gif","[""img/Fire_Up_Distractor.gif"",""img/Fire_Up_Distractor.gif"",""img/Fire_Up_Distractor.gif"",""img/Fire_Up_Distractor.gif"",""img/Fire_Up_Distractor.gif"",""img/Fire_Up_Distractor.gif"",""img/Fire_Up_Distractor.gif"",""img/Fire_Up_Distractor.gif"",""img/Fire_Up_Distractor.gif"",""img/Fire_Up_Distractor.gif"",""img/Fire_Up_Distractor.gif"",""img/Fire_Up_Distractor.gif""]","targetDown_distractorsUp"
"","","","","","html-keyboard-response","186","467914","0.0-14.0-0.0-0.86","598a37f8efe76a00018ea9fe","6186fb1cc52d38b480598eb7","6187378ea775cd9a1c59384d","null","","null","","","","","fixation","","","",""
"","","","","","visual-search-circle","187","472472","0.0-14.0-0.0-1.86","598a37f8efe76a00018ea9fe","6186fb1cc52d38b480598eb7","6187378ea775cd9a1c59384d","3538.7000000476837","","d","true","[[599,305],[491,68],[238,6],[32,165],[27,425],[228,591],[482,537]]","true","7","","","img/Fire_Down_Target.gif","[""img/Fire_Up_Distractor.gif"",""img/Fire_Up_Distractor.gif"",""img/Fire_Up_Distractor.gif"",""img/Fire_Up_Distractor.gif"",""img/Fire_Up_Distractor.gif"",""img/Fire_Up_Distractor.gif"",""img/Fire_Up_Distractor.gif"",""img/Fire_Up_Distractor.gif"",""img/Fire_Up_Distractor.gif"",""img/Fire_Up_Distractor.gif"",""img/Fire_Up_Distractor.gif"",""img/Fire_Up_Distractor.gif""]","targetDown_distractorsUp"
"","","","","","html-keyboard-response","188","472473","0.0-14.0-0.0-0.87","598a37f8efe76a00018ea9fe","6186fb1cc52d38b480598eb7","6187378ea775cd9a1c59384d","null","","null","","","","","fixation","","","",""
"","","","","","visual-search-circle","189","478959","0.0-14.0-0.0-1.87","598a37f8efe76a00018ea9fe","6186fb1cc52d38b480598eb7","6187378ea775cd9a1c59384d","5473.399999976158","","d","true","[[212,13],[35,159],[13,387],[159,564],[387,586],[564,440],[586,212],[440,35]]","true","8","","","img/Fire_Down_Target.gif","[""img/Fire_Up_Distractor.gif"",""img/Fire_Up_Distractor.gif"",""img/Fire_Up_Distractor.gif"",""img/Fire_Up_Distractor.gif"",""img/Fire_Up_Distractor.gif"",""img/Fire_Up_Distractor.gif"",""img/Fire_Up_Distractor.gif"",""img/Fire_Up_Distractor.gif"",""img/Fire_Up_Distractor.gif"",""img/Fire_Up_Distractor.gif"",""img/Fire_Up_Distractor.gif"",""img/Fire_Up_Distractor.gif""]","targetDown_distractorsUp"
"","","","","","html-keyboard-response","190","478971","0.0-14.0-0.0-0.88","598a37f8efe76a00018ea9fe","6186fb1cc52d38b480598eb7","6187378ea775cd9a1c59384d","null","","null","","","","","fixation","","","",""
"","","","","","visual-search-circle","191","484650","0.0-14.0-0.0-1.88","598a37f8efe76a00018ea9fe","6186fb1cc52d38b480598eb7","6187378ea775cd9a1c59384d","4661.099999904633","","s","true","[[187,578],[447,561],[596,347],[521,98],[280,0],[53,128],[12,385]]","false","7","","","img/Fire_Down_Target.gif","[""img/Fire_Up_Distractor.gif"",""img/Fire_Up_Distractor.gif"",""img/Fire_Up_Distractor.gif"",""img/Fire_Up_Distractor.gif"",""img/Fire_Up_Distractor.gif"",""img/Fire_Up_Distractor.gif"",""img/Fire_Up_Distractor.gif"",""img/Fire_Up_Distractor.gif"",""img/Fire_Up_Distractor.gif"",""img/Fire_Up_Distractor.gif"",""img/Fire_Up_Distractor.gif"",""img/Fire_Up_Distractor.gif""]","targetDown_distractorsUp"
"","","","","","html-keyboard-response","192","484654","0.0-14.0-0.0-0.89","598a37f8efe76a00018ea9fe","6186fb1cc52d38b480598eb7","6187378ea775cd9a1c59384d","null","","null","","","","","fixation","","","",""
"","","","","","visual-search-circle","193","486791","0.0-14.0-0.0-1.89","598a37f8efe76a00018ea9fe","6186fb1cc52d38b480598eb7","6187378ea775cd9a1c59384d","1130.6000000238419","","d","true","[[3,346],[346,596],[596,253],[253,3]]","true","4","","","img/Fire_Down_Target.gif","[""img/Fire_Up_Distractor.gif"",""img/Fire_Up_Distractor.gif"",""img/Fire_Up_Distractor.gif"",""img/Fire_Up_Distractor.gif"",""img/Fire_Up_Distractor.gif"",""img/Fire_Up_Distractor.gif"",""img/Fire_Up_Distractor.gif"",""img/Fire_Up_Distractor.gif"",""img/Fire_Up_Distractor.gif"",""img/Fire_Up_Distractor.gif"",""img/Fire_Up_Distractor.gif"",""img/Fire_Up_Distractor.gif""]","targetDown_distractorsUp"
"","","","","","html-keyboard-response","194","486796","0.0-14.0-0.0-0.90","598a37f8efe76a00018ea9fe","6186fb1cc52d38b480598eb7","6187378ea775cd9a1c59384d","null","","null","","","","","fixation","","","",""
"","","","","","visual-search-circle","195","489288","0.0-14.0-0.0-1.90","598a37f8efe76a00018ea9fe","6186fb1cc52d38b480598eb7","6187378ea775cd9a1c59384d","1476.6000000238419","","s","true","[[207,585],[500,522],[593,237],[392,14],[99,77],[6,362]]","false","6","","","img/Fire_Up_Target.gif","[""img/Fire_Down_Distractor.gif"",""img/Fire_Down_Distractor.gif"",""img/Fire_Down_Distractor.gif"",""img/Fire_Down_Distractor.gif"",""img/Fire_Down_Distractor.gif"",""img/Fire_Down_Distractor.gif"",""img/Fire_Down_Distractor.gif"",""img/Fire_Down_Distractor.gif"",""img/Fire_Down_Distractor.gif"",""img/Fire_Down_Distractor.gif"",""img/Fire_Down_Distractor.gif"",""img/Fire_Down_Distractor.gif""]","targetUp_distractorsDown"
"","","","","","html-keyboard-response","196","489290","0.0-14.0-0.0-0.91","598a37f8efe76a00018ea9fe","6186fb1cc52d38b480598eb7","6187378ea775cd9a1c59384d","null","","null","","","","","fixation","","","",""
"","","","","","visual-search-circle","197","491433","0.0-14.0-0.0-1.91","598a37f8efe76a00018ea9fe","6186fb1cc52d38b480598eb7","6187378ea775cd9a1c59384d","1134.8000000715256","","s","true","[[21,412],[214,587],[471,546],[599,319],[501,78],[252,3],[38,152]]","false","7","","","img/Fire_Up_Target.gif","[""img/Fire_Down_Distractor.gif"",""img/Fire_Down_Distractor.gif"",""img/Fire_Down_Distractor.gif"",""img/Fire_Down_Distractor.gif"",""img/Fire_Down_Distractor.gif"",""img/Fire_Down_Distractor.gif"",""img/Fire_Down_Distractor.gif"",""img/Fire_Down_Distractor.gif"",""img/Fire_Down_Distractor.gif"",""img/Fire_Down_Distractor.gif"",""img/Fire_Down_Distractor.gif"",""img/Fire_Down_Distractor.gif""]","targetUp_distractorsDown"
"","","","","","html-keyboard-response","198","491442","0.0-14.0-0.0-0.92","598a37f8efe76a00018ea9fe","6186fb1cc52d38b480598eb7","6187378ea775cd9a1c59384d","null","","null","","","","","fixation","","","",""
"","","","","","visual-search-circle","199","494240","0.0-14.0-0.0-1.92","598a37f8efe76a00018ea9fe","6186fb1cc52d38b480598eb7","6187378ea775cd9a1c59384d","1786.6999999284744","","s","true","[[402,581],[595,352],[492,70],[197,18],[4,247],[107,529]]","false","6","","","img/Fire_Down_Target.gif","[""img/Fire_Up_Distractor.gif"",""img/Fire_Up_Distractor.gif"",""img/Fire_Up_Distractor.gif"",""img/Fire_Up_Distractor.gif"",""img/Fire_Up_Distractor.gif"",""img/Fire_Up_Distractor.gif"",""img/Fire_Up_Distractor.gif"",""img/Fire_Up_Distractor.gif"",""img/Fire_Up_Distractor.gif"",""img/Fire_Up_Distractor.gif"",""img/Fire_Up_Distractor.gif"",""img/Fire_Up_Distractor.gif""]","targetDown_distractorsUp"
"","","","","","html-keyboard-response","200","494254","0.0-14.0-0.0-0.93","598a37f8efe76a00018ea9fe","6186fb1cc52d38b480598eb7","6187378ea775cd9a1c59384d","null","","null","","","","","fixation","","","",""
"","","","","","visual-search-circle","201","496289","0.0-14.0-0.0-1.93","598a37f8efe76a00018ea9fe","6186fb1cc52d38b480598eb7","6187378ea775cd9a1c59384d","1022.1999999284744","","d","true","[[402,18],[63,115],[51,467],[382,588],[599,310]]","true","5","","","img/Fire_Down_Target.gif","[""img/Fire_Up_Distractor.gif"",""img/Fire_Up_Distractor.gif"",""img/Fire_Up_Distractor.gif"",""img/Fire_Up_Distractor.gif"",""img/Fire_Up_Distractor.gif"",""img/Fire_Up_Distractor.gif"",""img/Fire_Up_Distractor.gif"",""img/Fire_Up_Distractor.gif"",""img/Fire_Up_Distractor.gif"",""img/Fire_Up_Distractor.gif"",""img/Fire_Up_Distractor.gif"",""img/Fire_Up_Distractor.gif""]","targetDown_distractorsUp"
"","","","","","html-keyboard-response","202","496292","0.0-14.0-0.0-0.94","598a37f8efe76a00018ea9fe","6186fb1cc52d38b480598eb7","6187378ea775cd9a1c59384d","null","","null","","","","","fixation","","","",""
"","","","","","visual-search-circle","203","500082","0.0-14.0-0.0-1.94","598a37f8efe76a00018ea9fe","6186fb1cc52d38b480598eb7","6187378ea775cd9a1c59384d","2777.2999999523163","","s","true","[[372,8],[45,141],[70,492],[412,578],[599,279]]","false","5","","","img/Fire_Down_Target.gif","[""img/Fire_Up_Distractor.gif"",""img/Fire_Up_Distractor.gif"",""img/Fire_Up_Distractor.gif"",""img/Fire_Up_Distractor.gif"",""img/Fire_Up_Distractor.gif"",""img/Fire_Up_Distractor.gif"",""img/Fire_Up_Distractor.gif"",""img/Fire_Up_Distractor.gif"",""img/Fire_Up_Distractor.gif"",""img/Fire_Up_Distractor.gif"",""img/Fire_Up_Distractor.gif"",""img/Fire_Up_Distractor.gif""]","targetDown_distractorsUp"
"","","","","","html-keyboard-response","204","500085","0.0-14.0-0.0-0.95","598a37f8efe76a00018ea9fe","6186fb1cc52d38b480598eb7","6187378ea775cd9a1c59384d","null","","null","","","","","fixation","","","",""
"","","","","","visual-search-circle","205","503163","0.0-14.0-0.0-1.95","598a37f8efe76a00018ea9fe","6186fb1cc52d38b480598eb7","6187378ea775cd9a1c59384d","2059","","s","true","[[217,588],[508,515],[591,227],[382,11],[91,84],[8,372]]","false","6","","","img/Fire_Up_Target.gif","[""img/Fire_Down_Distractor.gif"",""img/Fire_Down_Distractor.gif"",""img/Fire_Down_Distractor.gif"",""img/Fire_Down_Distractor.gif"",""img/Fire_Down_Distractor.gif"",""img/Fire_Down_Distractor.gif"",""img/Fire_Down_Distractor.gif"",""img/Fire_Down_Distractor.gif"",""img/Fire_Down_Distractor.gif"",""img/Fire_Down_Distractor.gif"",""img/Fire_Down_Distractor.gif"",""img/Fire_Down_Distractor.gif""]","targetUp_distractorsDown"
"","","","","","html-keyboard-response","206","503166","0.0-14.0-0.0-0.96","598a37f8efe76a00018ea9fe","6186fb1cc52d38b480598eb7","6187378ea775cd9a1c59384d","null","","null","","","","","fixation","","","",""
"","","","","","visual-search-circle","207","505348","0.0-14.0-0.0-1.96","598a37f8efe76a00018ea9fe","6186fb1cc52d38b480598eb7","6187378ea775cd9a1c59384d","1163.8000000715256","","d","true","[[454,557],[557,145],[145,42],[42,454]]","true","4","","","img/Fire_Down_Target.gif","[""img/Fire_Up_Distractor.gif"",""img/Fire_Up_Distractor.gif"",""img/Fire_Up_Distractor.gif"",""img/Fire_Up_Distractor.gif"",""img/Fire_Up_Distractor.gif"",""img/Fire_Up_Distractor.gif"",""img/Fire_Up_Distractor.gif"",""img/Fire_Up_Distractor.gif"",""img/Fire_Up_Distractor.gif"",""img/Fire_Up_Distractor.gif"",""img/Fire_Up_Distractor.gif"",""img/Fire_Up_Distractor.gif""]","targetDown_distractorsUp"
"","","","","","html-keyboard-response","208","505367","0.0-14.0-0.0-0.97","598a37f8efe76a00018ea9fe","6186fb1cc52d38b480598eb7","6187378ea775cd9a1c59384d","null","","null","","","","","fixation","","","",""
"","","","","","visual-search-circle","209","507928","0.0-14.0-0.0-1.97","598a37f8efe76a00018ea9fe","6186fb1cc52d38b480598eb7","6187378ea775cd9a1c59384d","1543.1000000238419","","s","true","[[574,177],[331,1],[57,123],[25,422],[268,598],[542,476]]","false","6","","","img/Fire_Up_Target.gif","[""img/Fire_Down_Distractor.gif"",""img/Fire_Down_Distractor.gif"",""img/Fire_Down_Distractor.gif"",""img/Fire_Down_Distractor.gif"",""img/Fire_Down_Distractor.gif"",""img/Fire_Down_Distractor.gif"",""img/Fire_Down_Distractor.gif"",""img/Fire_Down_Distractor.gif"",""img/Fire_Down_Distractor.gif"",""img/Fire_Down_Distractor.gif"",""img/Fire_Down_Distractor.gif"",""img/Fire_Down_Distractor.gif""]","targetUp_distractorsDown"
"","","","","","html-keyboard-response","210","507930","0.0-14.0-0.0-0.98","598a37f8efe76a00018ea9fe","6186fb1cc52d38b480598eb7","6187378ea775cd9a1c59384d","null","","null","","","","","fixation","","","",""
"","","","","","visual-search-circle","211","513891","0.0-14.0-0.0-1.98","598a37f8efe76a00018ea9fe","6186fb1cc52d38b480598eb7","6187378ea775cd9a1c59384d","4940.700000047684","","d","true","[[597,341],[484,63],[187,21],[2,258],[115,536],[412,578]]","true","6","","","img/Fire_Up_Target.gif","[""img/Fire_Down_Distractor.gif"",""img/Fire_Down_Distractor.gif"",""img/Fire_Down_Distractor.gif"",""img/Fire_Down_Distractor.gif"",""img/Fire_Down_Distractor.gif"",""img/Fire_Down_Distractor.gif"",""img/Fire_Down_Distractor.gif"",""img/Fire_Down_Distractor.gif"",""img/Fire_Down_Distractor.gif"",""img/Fire_Down_Distractor.gif"",""img/Fire_Down_Distractor.gif"",""img/Fire_Down_Distractor.gif""]","targetUp_distractorsDown"
"","","","","","html-keyboard-response","212","515120","0.0-14.0-0.0-0.99","598a37f8efe76a00018ea9fe","6186fb1cc52d38b480598eb7","6187378ea775cd9a1c59384d","1227.9000000953674","Wow! You've completed 100 out of 120 trials! </p> <p>  </p><p> Take a quick break, then press any key when you're ready to continue."," ","","","","","fixation","","","",""
"","","","","","visual-search-circle","213","517468","0.0-14.0-0.0-1.99","598a37f8efe76a00018ea9fe","6186fb1cc52d38b480598eb7","6187378ea775cd9a1c59384d","1334.6000000238419","","s","true","[[580,407],[574,177],[407,19],[177,25],[19,192],[25,422],[192,580],[422,574]]","false","8","","","img/Fire_Down_Target.gif","[""img/Fire_Up_Distractor.gif"",""img/Fire_Up_Distractor.gif"",""img/Fire_Up_Distractor.gif"",""img/Fire_Up_Distractor.gif"",""img/Fire_Up_Distractor.gif"",""img/Fire_Up_Distractor.gif"",""img/Fire_Up_Distractor.gif"",""img/Fire_Up_Distractor.gif"",""img/Fire_Up_Distractor.gif"",""img/Fire_Up_Distractor.gif"",""img/Fire_Up_Distractor.gif"",""img/Fire_Up_Distractor.gif""]","targetDown_distractorsUp"
"","","","","","html-keyboard-response","214","517479","0.0-14.0-0.0-0.100","598a37f8efe76a00018ea9fe","6186fb1cc52d38b480598eb7","6187378ea775cd9a1c59384d","null","","null","","","","","fixation","","","",""
"","","","","","visual-search-circle","215","519700","0.0-14.0-0.0-1.100","598a37f8efe76a00018ea9fe","6186fb1cc52d38b480598eb7","6187378ea775cd9a1c59384d","1209.8000000715256","","s","true","[[30,168],[91,515],[440,564],[595,247],[341,2]]","false","5","","","img/Fire_Up_Target.gif","[""img/Fire_Down_Distractor.gif"",""img/Fire_Down_Distractor.gif"",""img/Fire_Down_Distractor.gif"",""img/Fire_Down_Distractor.gif"",""img/Fire_Down_Distractor.gif"",""img/Fire_Down_Distractor.gif"",""img/Fire_Down_Distractor.gif"",""img/Fire_Down_Distractor.gif"",""img/Fire_Down_Distractor.gif"",""img/Fire_Down_Distractor.gif"",""img/Fire_Down_Distractor.gif"",""img/Fire_Down_Distractor.gif""]","targetUp_distractorsDown"
"","","","","","html-keyboard-response","216","519708","0.0-14.0-0.0-0.101","598a37f8efe76a00018ea9fe","6186fb1cc52d38b480598eb7","6187378ea775cd9a1c59384d","null","","null","","","","","fixation","","","",""
"","","","","","visual-search-circle","217","522112","0.0-14.0-0.0-1.101","598a37f8efe76a00018ea9fe","6186fb1cc52d38b480598eb7","6187378ea775cd9a1c59384d","1393.0999999046326","","d","true","[[454,42],[227,8],[42,145],[8,372],[145,557],[372,591],[557,454],[591,227]]","true","8","","","img/Fire_Up_Target.gif","[""img/Fire_Down_Distractor.gif"",""img/Fire_Down_Distractor.gif"",""img/Fire_Down_Distractor.gif"",""img/Fire_Down_Distractor.gif"",""img/Fire_Down_Distractor.gif"",""img/Fire_Down_Distractor.gif"",""img/Fire_Down_Distractor.gif"",""img/Fire_Down_Distractor.gif"",""img/Fire_Down_Distractor.gif"",""img/Fire_Down_Distractor.gif"",""img/Fire_Down_Distractor.gif"",""img/Fire_Down_Distractor.gif""]","targetUp_distractorsDown"
"","","","","","html-keyboard-response","218","522113","0.0-14.0-0.0-0.102","598a37f8efe76a00018ea9fe","6186fb1cc52d38b480598eb7","6187378ea775cd9a1c59384d","null","","null","","","","","fixation","","","",""
"","","","","","visual-search-circle","219","524318","0.0-14.0-0.0-1.102","598a37f8efe76a00018ea9fe","6186fb1cc52d38b480598eb7","6187378ea775cd9a1c59384d","1186.5","","d","true","[[598,326],[506,82],[258,2],[42,146],[19,406],[208,585],[465,549]]","true","7","","","img/Fire_Down_Target.gif","[""img/Fire_Up_Distractor.gif"",""img/Fire_Up_Distractor.gif"",""img/Fire_Up_Distractor.gif"",""img/Fire_Up_Distractor.gif"",""img/Fire_Up_Distractor.gif"",""img/Fire_Up_Distractor.gif"",""img/Fire_Up_Distractor.gif"",""img/Fire_Up_Distractor.gif"",""img/Fire_Up_Distractor.gif"",""img/Fire_Up_Distractor.gif"",""img/Fire_Up_Distractor.gif"",""img/Fire_Up_Distractor.gif""]","targetDown_distractorsUp"
"","","","","","html-keyboard-response","220","524341","0.0-14.0-0.0-0.103","598a37f8efe76a00018ea9fe","6186fb1cc52d38b480598eb7","6187378ea775cd9a1c59384d","null","","null","","","","","fixation","","","",""
