"success","timeout","failed_images","failed_audio","failed_video","trial_type","trial_index","time_elapsed","internal_node_id","subject_id","study_id","session_id","rt","stimulus","response","correct","locations","target_present","set_size","task","correct_response","target","foilCM","searchCondition"
"true","false","[]","[]","[]","preload","0","5725","0.0-0.0","5baa8477abf2ac0001d277e5","6186fb1cc52d38b480598eb7","61871e84c1871022d5e82168","","","","","","","","","","","",""
"true","","","","","fullscreen","1","8587","0.0-1.0","5baa8477abf2ac0001d277e5","6186fb1cc52d38b480598eb7","61871e84c1871022d5e82168","","","","","","","","","","","",""
"","","","","","html-keyboard-response","2","13814","0.0-2.0","5baa8477abf2ac0001d277e5","6186fb1cc52d38b480598eb7","61871e84c1871022d5e82168","5225.899999976158","What a beautiful Saturday to do some awesome science! </p> <p>  </p><p> </p>
    By completing this survey or questionnaire, you are consenting to be in this research study. </p>
    Your participation is voluntary and you can stop at any time.
    <p> [Press any key to continue.] </p>
    
    "," ","","","","","","","","",""
"","","","","","video-keyboard-response","3","34148","0.0-3.0","5baa8477abf2ac0001d277e5","6186fb1cc52d38b480598eb7","61871e84c1871022d5e82168","20332.299999952316","[""video/TaskInstructions.mp4""]","d","","","","","","","","",""
"","","","","","html-keyboard-response","4","37283","0.0-4.0","5baa8477abf2ac0001d277e5","6186fb1cc52d38b480598eb7","61871e84c1871022d5e82168","3133.600000023842","
    <p>First, we're going to do a few practice trials to make sure you understand the task. You will recieve feedback on each trial. </p>

    <p>[Press any key to begin the familiarization phase.]</p>
    ","d","","","","","","","","",""
"","","","","","visual-search-circle","5","42074","0.0-5.0-0.0","5baa8477abf2ac0001d277e5","6186fb1cc52d38b480598eb7","61871e84c1871022d5e82168","3728.5","","s","false","[[0,305],[305,599],[599,294],[294,0]]","true","4","training","d","","",""
"","","","","","html-keyboard-response","6","45611","0.0-6.0","5baa8477abf2ac0001d277e5","6186fb1cc52d38b480598eb7","61871e84c1871022d5e82168","3536.3000000715256"," <div style='float: center;'><img src='img/feedbackWrong.png'></img> </div> ","d","","","","","","","","",""
"","","","","","visual-search-circle","7","50168","0.0-7.0-0.0","5baa8477abf2ac0001d277e5","6186fb1cc52d38b480598eb7","61871e84c1871022d5e82168","3545","","s","true","[[597,263],[263,2],[2,336],[336,597]]","false","4","training","s","","",""
"","","","","","html-keyboard-response","8","51625","0.0-8.0","5baa8477abf2ac0001d277e5","6186fb1cc52d38b480598eb7","61871e84c1871022d5e82168","1456.4000000953674"," <div style='float: center; '><img src='img/feedbackRight.png'></img> </div> ","d","","","","","","","","",""
"","","","","","visual-search-circle","9","55195","0.0-9.0-0.0","5baa8477abf2ac0001d277e5","6186fb1cc52d38b480598eb7","61871e84c1871022d5e82168","2556.8000000715256","","s","true","[[48,463],[315,599],[567,436],[551,136],[284,0],[32,163]]","false","6","training","s","","",""
"","","","","","html-keyboard-response","10","55955","0.0-10.0","5baa8477abf2ac0001d277e5","6186fb1cc52d38b480598eb7","61871e84c1871022d5e82168","759.5"," <div style='float: center; '><img src='img/feedbackRight.png'></img> </div> ","s","","","","","","","","",""
"","","","","","visual-search-circle","11","58219","0.0-11.0-0.0","5baa8477abf2ac0001d277e5","6186fb1cc52d38b480598eb7","61871e84c1871022d5e82168","1244.7999999523163","","d","true","[[597,263],[484,63],[263,2],[63,115],[2,336],[115,536],[336,597],[536,484]]","true","8","training","d","","",""
"","","","","","html-keyboard-response","12","58782","0.0-12.0","5baa8477abf2ac0001d277e5","6186fb1cc52d38b480598eb7","61871e84c1871022d5e82168","562.1000000238419"," <div style='float: center; '><img src='img/feedbackRight.png'></img> </div> ","d","","","","","","","","",""
"","","","","","video-keyboard-response","13","62100","0.0-13.0","5baa8477abf2ac0001d277e5","6186fb1cc52d38b480598eb7","61871e84c1871022d5e82168","3317","[""video/endTraining.mp4""]","d","","","","","","","","",""
"","","","","","html-keyboard-response","14","62102","0.0-14.0-0.0-0.0","5baa8477abf2ac0001d277e5","6186fb1cc52d38b480598eb7","61871e84c1871022d5e82168","null","","null","","","","","fixation","","","",""
"","","","","","visual-search-circle","15","64678","0.0-14.0-0.0-1.0","5baa8477abf2ac0001d277e5","6186fb1cc52d38b480598eb7","61871e84c1871022d5e82168","1560.0999999046326","","d","true","[[597,263],[417,23],[119,60],[2,336],[182,576],[480,539]]","true","6","","","img/Fire_Up_Target.gif","[""img/Fire_Down_Distractor.gif"",""img/Fire_Down_Distractor.gif"",""img/Fire_Down_Distractor.gif"",""img/Fire_Down_Distractor.gif"",""img/Fire_Down_Distractor.gif"",""img/Fire_Down_Distractor.gif"",""img/Fire_Down_Distractor.gif"",""img/Fire_Down_Distractor.gif"",""img/Fire_Down_Distractor.gif"",""img/Fire_Down_Distractor.gif"",""img/Fire_Down_Distractor.gif"",""img/Fire_Down_Distractor.gif""]","targetUp_distractorsDown"
"","","","","","html-keyboard-response","16","64680","0.0-14.0-0.0-0.1","5baa8477abf2ac0001d277e5","6186fb1cc52d38b480598eb7","61871e84c1871022d5e82168","null","","null","","","","","fixation","","","",""
"","","","","","visual-search-circle","17","66975","0.0-14.0-0.0-1.1","5baa8477abf2ac0001d277e5","6186fb1cc52d38b480598eb7","61871e84c1871022d5e82168","1286.1999999284744","","s","true","[[11,382],[154,562],[382,588],[562,445],[588,217],[445,37],[217,11],[37,154]]","false","8","","","img/Fire_Down_Target.gif","[""img/Fire_Up_Distractor.gif"",""img/Fire_Up_Distractor.gif"",""img/Fire_Up_Distractor.gif"",""img/Fire_Up_Distractor.gif"",""img/Fire_Up_Distractor.gif"",""img/Fire_Up_Distractor.gif"",""img/Fire_Up_Distractor.gif"",""img/Fire_Up_Distractor.gif"",""img/Fire_Up_Distractor.gif"",""img/Fire_Up_Distractor.gif"",""img/Fire_Up_Distractor.gif"",""img/Fire_Up_Distractor.gif""]","targetDown_distractorsUp"
"","","","","","html-keyboard-response","18","66977","0.0-14.0-0.0-0.2","5baa8477abf2ac0001d277e5","6186fb1cc52d38b480598eb7","61871e84c1871022d5e82168","null","","null","","","","","fixation","","","",""
"","","","","","visual-search-circle","19","69997","0.0-14.0-0.0-1.2","5baa8477abf2ac0001d277e5","6186fb1cc52d38b480598eb7","61871e84c1871022d5e82168","2008.3999999761581","","s","true","[[247,595],[529,492],[581,197],[352,4],[70,107],[18,402]]","false","6","","","img/Fire_Down_Target.gif","[""img/Fire_Up_Distractor.gif"",""img/Fire_Up_Distractor.gif"",""img/Fire_Up_Distractor.gif"",""img/Fire_Up_Distractor.gif"",""img/Fire_Up_Distractor.gif"",""img/Fire_Up_Distractor.gif"",""img/Fire_Up_Distractor.gif"",""img/Fire_Up_Distractor.gif"",""img/Fire_Up_Distractor.gif"",""img/Fire_Up_Distractor.gif"",""img/Fire_Up_Distractor.gif"",""img/Fire_Up_Distractor.gif""]","targetDown_distractorsUp"
"","","","","","html-keyboard-response","20","70000","0.0-14.0-0.0-0.3","5baa8477abf2ac0001d277e5","6186fb1cc52d38b480598eb7","61871e84c1871022d5e82168","null","","null","","","","","fixation","","","",""
"","","","","","visual-search-circle","21","72696","0.0-14.0-0.0-1.3","5baa8477abf2ac0001d277e5","6186fb1cc52d38b480598eb7","61871e84c1871022d5e82168","1681.5","","s","true","[[586,212],[212,13],[13,387],[387,586]]","false","4","","","img/Fire_Down_Target.gif","[""img/Fire_Up_Distractor.gif"",""img/Fire_Up_Distractor.gif"",""img/Fire_Up_Distractor.gif"",""img/Fire_Up_Distractor.gif"",""img/Fire_Up_Distractor.gif"",""img/Fire_Up_Distractor.gif"",""img/Fire_Up_Distractor.gif"",""img/Fire_Up_Distractor.gif"",""img/Fire_Up_Distractor.gif"",""img/Fire_Up_Distractor.gif"",""img/Fire_Up_Distractor.gif"",""img/Fire_Up_Distractor.gif""]","targetDown_distractorsUp"
"","","","","","html-keyboard-response","22","72697","0.0-14.0-0.0-0.4","5baa8477abf2ac0001d277e5","6186fb1cc52d38b480598eb7","61871e84c1871022d5e82168","null","","null","","","","","fixation","","","",""
"","","","","","visual-search-circle","23","76014","0.0-14.0-0.0-1.4","5baa8477abf2ac0001d277e5","6186fb1cc52d38b480598eb7","61871e84c1871022d5e82168","2306.7000000476837","","s","true","[[559,450],[522,99],[177,25],[1,331],[237,593]]","false","5","","","img/Fire_Up_Target.gif","[""img/Fire_Down_Distractor.gif"",""img/Fire_Down_Distractor.gif"",""img/Fire_Down_Distractor.gif"",""img/Fire_Down_Distractor.gif"",""img/Fire_Down_Distractor.gif"",""img/Fire_Down_Distractor.gif"",""img/Fire_Down_Distractor.gif"",""img/Fire_Down_Distractor.gif"",""img/Fire_Down_Distractor.gif"",""img/Fire_Down_Distractor.gif"",""img/Fire_Down_Distractor.gif"",""img/Fire_Down_Distractor.gif""]","targetUp_distractorsDown"
"","","","","","html-keyboard-response","24","76016","0.0-14.0-0.0-0.5","5baa8477abf2ac0001d277e5","6186fb1cc52d38b480598eb7","61871e84c1871022d5e82168","null","","null","","","","","fixation","","","",""
"","","","","","visual-search-circle","25","78252","0.0-14.0-0.0-1.5","5baa8477abf2ac0001d277e5","6186fb1cc52d38b480598eb7","61871e84c1871022d5e82168","1219.8999999761581","","d","true","[[60,480],[336,597],[576,417],[539,119],[263,2],[23,182]]","true","6","","","img/Fire_Up_Target.gif","[""img/Fire_Down_Distractor.gif"",""img/Fire_Down_Distractor.gif"",""img/Fire_Down_Distractor.gif"",""img/Fire_Down_Distractor.gif"",""img/Fire_Down_Distractor.gif"",""img/Fire_Down_Distractor.gif"",""img/Fire_Down_Distractor.gif"",""img/Fire_Down_Distractor.gif"",""img/Fire_Down_Distractor.gif"",""img/Fire_Down_Distractor.gif"",""img/Fire_Down_Distractor.gif"",""img/Fire_Down_Distractor.gif""]","targetUp_distractorsDown"
"","","","","","html-keyboard-response","26","78254","0.0-14.0-0.0-0.6","5baa8477abf2ac0001d277e5","6186fb1cc52d38b480598eb7","61871e84c1871022d5e82168","null","","null","","","","","fixation","","","",""
"","","","","","visual-search-circle","27","80646","0.0-14.0-0.0-1.6","5baa8477abf2ac0001d277e5","6186fb1cc52d38b480598eb7","61871e84c1871022d5e82168","1385.9000000953674","","s","true","[[300,0],[87,87],[0,299],[87,512],[299,600],[512,512],[600,300],[512,87]]","false","8","","","img/Fire_Up_Target.gif","[""img/Fire_Down_Distractor.gif"",""img/Fire_Down_Distractor.gif"",""img/Fire_Down_Distractor.gif"",""img/Fire_Down_Distractor.gif"",""img/Fire_Down_Distractor.gif"",""img/Fire_Down_Distractor.gif"",""img/Fire_Down_Distractor.gif"",""img/Fire_Down_Distractor.gif"",""img/Fire_Down_Distractor.gif"",""img/Fire_Down_Distractor.gif"",""img/Fire_Down_Distractor.gif"",""img/Fire_Down_Distractor.gif""]","targetUp_distractorsDown"
"","","","","","html-keyboard-response","28","80647","0.0-14.0-0.0-0.7","5baa8477abf2ac0001d277e5","6186fb1cc52d38b480598eb7","61871e84c1871022d5e82168","null","","null","","","","","fixation","","","",""
"","","","","","visual-search-circle","29","82744","0.0-14.0-0.0-1.7","5baa8477abf2ac0001d277e5","6186fb1cc52d38b480598eb7","61871e84c1871022d5e82168","1078.8000000715256","","d","true","[[23,182],[103,526],[454,557],[592,232],[326,1]]","true","5","","","img/Fire_Down_Target.gif","[""img/Fire_Up_Distractor.gif"",""img/Fire_Up_Distractor.gif"",""img/Fire_Up_Distractor.gif"",""img/Fire_Up_Distractor.gif"",""img/Fire_Up_Distractor.gif"",""img/Fire_Up_Distractor.gif"",""img/Fire_Up_Distractor.gif"",""img/Fire_Up_Distractor.gif"",""img/Fire_Up_Distractor.gif"",""img/Fire_Up_Distractor.gif"",""img/Fire_Up_Distractor.gif"",""img/Fire_Up_Distractor.gif""]","targetDown_distractorsUp"
"","","","","","html-keyboard-response","30","82746","0.0-14.0-0.0-0.8","5baa8477abf2ac0001d277e5","6186fb1cc52d38b480598eb7","61871e84c1871022d5e82168","null","","null","","","","","fixation","","","",""
"","","","","","visual-search-circle","31","84966","0.0-14.0-0.0-1.8","5baa8477abf2ac0001d277e5","6186fb1cc52d38b480598eb7","61871e84c1871022d5e82168","1203.2000000476837","","d","true","[[37,445],[445,562],[562,154],[154,37]]","true","4","","","img/Fire_Up_Target.gif","[""img/Fire_Down_Distractor.gif"",""img/Fire_Down_Distractor.gif"",""img/Fire_Down_Distractor.gif"",""img/Fire_Down_Distractor.gif"",""img/Fire_Down_Distractor.gif"",""img/Fire_Down_Distractor.gif"",""img/Fire_Down_Distractor.gif"",""img/Fire_Down_Distractor.gif"",""img/Fire_Down_Distractor.gif"",""img/Fire_Down_Distractor.gif"",""img/Fire_Down_Distractor.gif"",""img/Fire_Down_Distractor.gif""]","targetUp_distractorsDown"
"","","","","","html-keyboard-response","32","84968","0.0-14.0-0.0-0.9","5baa8477abf2ac0001d277e5","6186fb1cc52d38b480598eb7","61871e84c1871022d5e82168","null","","null","","","","","fixation","","","",""
"","","","","","visual-search-circle","33","87171","0.0-14.0-0.0-1.9","5baa8477abf2ac0001d277e5","6186fb1cc52d38b480598eb7","61871e84c1871022d5e82168","1189.5","","d","true","[[3,346],[123,542],[346,596],[542,476],[596,253],[476,57],[253,3],[57,123]]","true","8","","","img/Fire_Up_Target.gif","[""img/Fire_Down_Distractor.gif"",""img/Fire_Down_Distractor.gif"",""img/Fire_Down_Distractor.gif"",""img/Fire_Down_Distractor.gif"",""img/Fire_Down_Distractor.gif"",""img/Fire_Down_Distractor.gif"",""img/Fire_Down_Distractor.gif"",""img/Fire_Down_Distractor.gif"",""img/Fire_Down_Distractor.gif"",""img/Fire_Down_Distractor.gif"",""img/Fire_Down_Distractor.gif"",""img/Fire_Down_Distractor.gif""]","targetUp_distractorsDown"
"","","","","","html-keyboard-response","34","87173","0.0-14.0-0.0-0.10","5baa8477abf2ac0001d277e5","6186fb1cc52d38b480598eb7","61871e84c1871022d5e82168","null","","null","","","","","fixation","","","",""
"","","","","","visual-search-circle","35","89082","0.0-14.0-0.0-1.10","5baa8477abf2ac0001d277e5","6186fb1cc52d38b480598eb7","61871e84c1871022d5e82168","896.3999999761581","","s","false","[[382,11],[154,37],[11,217],[37,445],[217,588],[445,562],[588,382],[562,154]]","true","8","","","img/Fire_Down_Target.gif","[""img/Fire_Up_Distractor.gif"",""img/Fire_Up_Distractor.gif"",""img/Fire_Up_Distractor.gif"",""img/Fire_Up_Distractor.gif"",""img/Fire_Up_Distractor.gif"",""img/Fire_Up_Distractor.gif"",""img/Fire_Up_Distractor.gif"",""img/Fire_Up_Distractor.gif"",""img/Fire_Up_Distractor.gif"",""img/Fire_Up_Distractor.gif"",""img/Fire_Up_Distractor.gif"",""img/Fire_Up_Distractor.gif""]","targetDown_distractorsUp"
"","","","","","html-keyboard-response","36","89083","0.0-14.0-0.0-0.11","5baa8477abf2ac0001d277e5","6186fb1cc52d38b480598eb7","61871e84c1871022d5e82168","null","","null","","","","","fixation","","","",""
"","","","","","visual-search-circle","37","91452","0.0-14.0-0.0-1.11","5baa8477abf2ac0001d277e5","6186fb1cc52d38b480598eb7","61871e84c1871022d5e82168","1353.2000000476837","","s","true","[[45,458],[372,591],[599,320],[412,21],[70,107]]","false","5","","","img/Fire_Down_Target.gif","[""img/Fire_Up_Distractor.gif"",""img/Fire_Up_Distractor.gif"",""img/Fire_Up_Distractor.gif"",""img/Fire_Up_Distractor.gif"",""img/Fire_Up_Distractor.gif"",""img/Fire_Up_Distractor.gif"",""img/Fire_Up_Distractor.gif"",""img/Fire_Up_Distractor.gif"",""img/Fire_Up_Distractor.gif"",""img/Fire_Up_Distractor.gif"",""img/Fire_Up_Distractor.gif"",""img/Fire_Up_Distractor.gif""]","targetDown_distractorsUp"
"","","","","","html-keyboard-response","38","91454","0.0-14.0-0.0-0.12","5baa8477abf2ac0001d277e5","6186fb1cc52d38b480598eb7","61871e84c1871022d5e82168","null","","null","","","","","fixation","","","",""
"","","","","","visual-search-circle","39","93830","0.0-14.0-0.0-1.12","5baa8477abf2ac0001d277e5","6186fb1cc52d38b480598eb7","61871e84c1871022d5e82168","1359.7000000476837","","s","true","[[14,392],[392,585],[585,207],[207,14]]","false","4","","","img/Fire_Up_Target.gif","[""img/Fire_Down_Distractor.gif"",""img/Fire_Down_Distractor.gif"",""img/Fire_Down_Distractor.gif"",""img/Fire_Down_Distractor.gif"",""img/Fire_Down_Distractor.gif"",""img/Fire_Down_Distractor.gif"",""img/Fire_Down_Distractor.gif"",""img/Fire_Down_Distractor.gif"",""img/Fire_Down_Distractor.gif"",""img/Fire_Down_Distractor.gif"",""img/Fire_Down_Distractor.gif"",""img/Fire_Down_Distractor.gif""]","targetUp_distractorsDown"
"","","","","","html-keyboard-response","40","93832","0.0-14.0-0.0-0.13","5baa8477abf2ac0001d277e5","6186fb1cc52d38b480598eb7","61871e84c1871022d5e82168","null","","null","","","","","fixation","","","",""
"","","","","","visual-search-circle","41","96414","0.0-14.0-0.0-1.13","5baa8477abf2ac0001d277e5","6186fb1cc52d38b480598eb7","61871e84c1871022d5e82168","1573.6000000238419","","s","true","[[3,253],[78,502],[320,599],[546,470],[587,213],[411,21],[151,39]]","false","7","","","img/Fire_Up_Target.gif","[""img/Fire_Down_Distractor.gif"",""img/Fire_Down_Distractor.gif"",""img/Fire_Down_Distractor.gif"",""img/Fire_Down_Distractor.gif"",""img/Fire_Down_Distractor.gif"",""img/Fire_Down_Distractor.gif"",""img/Fire_Down_Distractor.gif"",""img/Fire_Down_Distractor.gif"",""img/Fire_Down_Distractor.gif"",""img/Fire_Down_Distractor.gif"",""img/Fire_Down_Distractor.gif"",""img/Fire_Down_Distractor.gif""]","targetUp_distractorsDown"
"","","","","","html-keyboard-response","42","96420","0.0-14.0-0.0-0.14","5baa8477abf2ac0001d277e5","6186fb1cc52d38b480598eb7","61871e84c1871022d5e82168","null","","null","","","","","fixation","","","",""
"","","","","","visual-search-circle","43","98385","0.0-14.0-0.0-1.14","5baa8477abf2ac0001d277e5","6186fb1cc52d38b480598eb7","61871e84c1871022d5e82168","951.1000000238419","","d","true","[[227,8],[8,372],[372,591],[591,227]]","true","4","","","img/Fire_Down_Target.gif","[""img/Fire_Up_Distractor.gif"",""img/Fire_Up_Distractor.gif"",""img/Fire_Up_Distractor.gif"",""img/Fire_Up_Distractor.gif"",""img/Fire_Up_Distractor.gif"",""img/Fire_Up_Distractor.gif"",""img/Fire_Up_Distractor.gif"",""img/Fire_Up_Distractor.gif"",""img/Fire_Up_Distractor.gif"",""img/Fire_Up_Distractor.gif"",""img/Fire_Up_Distractor.gif"",""img/Fire_Up_Distractor.gif""]","targetDown_distractorsUp"
"","","","","","html-keyboard-response","44","98386","0.0-14.0-0.0-0.15","5baa8477abf2ac0001d277e5","6186fb1cc52d38b480598eb7","61871e84c1871022d5e82168","null","","null","","","","","fixation","","","",""
"","","","","","visual-search-circle","45","100633","0.0-14.0-0.0-1.15","5baa8477abf2ac0001d277e5","6186fb1cc52d38b480598eb7","61871e84c1871022d5e82168","1234.5","","s","false","[[336,597],[576,417],[539,119],[263,2],[23,182],[60,480]]","true","6","","","img/Fire_Up_Target.gif","[""img/Fire_Down_Distractor.gif"",""img/Fire_Down_Distractor.gif"",""img/Fire_Down_Distractor.gif"",""img/Fire_Down_Distractor.gif"",""img/Fire_Down_Distractor.gif"",""img/Fire_Down_Distractor.gif"",""img/Fire_Down_Distractor.gif"",""img/Fire_Down_Distractor.gif"",""img/Fire_Down_Distractor.gif"",""img/Fire_Down_Distractor.gif"",""img/Fire_Down_Distractor.gif"",""img/Fire_Down_Distractor.gif""]","targetUp_distractorsDown"
"","","","","","html-keyboard-response","46","100635","0.0-14.0-0.0-0.16","5baa8477abf2ac0001d277e5","6186fb1cc52d38b480598eb7","61871e84c1871022d5e82168","null","","null","","","","","fixation","","","",""
"","","","","","visual-search-circle","47","103062","0.0-14.0-0.0-1.16","5baa8477abf2ac0001d277e5","6186fb1cc52d38b480598eb7","61871e84c1871022d5e82168","1419.1000000238419","","d","true","[[564,440],[515,91],[168,30],[2,341],[247,595]]","true","5","","","img/Fire_Up_Target.gif","[""img/Fire_Down_Distractor.gif"",""img/Fire_Down_Distractor.gif"",""img/Fire_Down_Distractor.gif"",""img/Fire_Down_Distractor.gif"",""img/Fire_Down_Distractor.gif"",""img/Fire_Down_Distractor.gif"",""img/Fire_Down_Distractor.gif"",""img/Fire_Down_Distractor.gif"",""img/Fire_Down_Distractor.gif"",""img/Fire_Down_Distractor.gif"",""img/Fire_Down_Distractor.gif"",""img/Fire_Down_Distractor.gif""]","targetUp_distractorsDown"
"","","","","","html-keyboard-response","48","103066","0.0-14.0-0.0-0.17","5baa8477abf2ac0001d277e5","6186fb1cc52d38b480598eb7","61871e84c1871022d5e82168","null","","null","","","","","fixation","","","",""
"","","","","","visual-search-circle","49","106172","0.0-14.0-0.0-1.17","5baa8477abf2ac0001d277e5","6186fb1cc52d38b480598eb7","61871e84c1871022d5e82168","2093.0999999046326","","s","true","[[569,168],[258,2],[4,247],[159,564],[508,515]]","false","5","","","img/Fire_Down_Target.gif","[""img/Fire_Up_Distractor.gif"",""img/Fire_Up_Distractor.gif"",""img/Fire_Up_Distractor.gif"",""img/Fire_Up_Distractor.gif"",""img/Fire_Up_Distractor.gif"",""img/Fire_Up_Distractor.gif"",""img/Fire_Up_Distractor.gif"",""img/Fire_Up_Distractor.gif"",""img/Fire_Up_Distractor.gif"",""img/Fire_Up_Distractor.gif"",""img/Fire_Up_Distractor.gif"",""img/Fire_Up_Distractor.gif""]","targetDown_distractorsUp"
"","","","","","html-keyboard-response","50","106173","0.0-14.0-0.0-0.18","5baa8477abf2ac0001d277e5","6186fb1cc52d38b480598eb7","61871e84c1871022d5e82168","null","","null","","","","","fixation","","","",""
"","","","","","visual-search-circle","51","109251","0.0-14.0-0.0-1.18","5baa8477abf2ac0001d277e5","6186fb1cc52d38b480598eb7","61871e84c1871022d5e82168","2074.899999976158","","d","true","[[377,589],[599,315],[407,19],[66,111],[48,463]]","true","5","","","img/Fire_Up_Target.gif","[""img/Fire_Down_Distractor.gif"",""img/Fire_Down_Distractor.gif"",""img/Fire_Down_Distractor.gif"",""img/Fire_Down_Distractor.gif"",""img/Fire_Down_Distractor.gif"",""img/Fire_Down_Distractor.gif"",""img/Fire_Down_Distractor.gif"",""img/Fire_Down_Distractor.gif"",""img/Fire_Down_Distractor.gif"",""img/Fire_Down_Distractor.gif"",""img/Fire_Down_Distractor.gif"",""img/Fire_Down_Distractor.gif""]","targetUp_distractorsDown"
"","","","","","html-keyboard-response","52","112920","0.0-14.0-0.0-0.19","5baa8477abf2ac0001d277e5","6186fb1cc52d38b480598eb7","61871e84c1871022d5e82168","3668.5","Wow! You've completed 20 out of 120 trials! </p> <p>  </p><p> Take a quick break, then press any key when you're ready to continue.","d","","","","","fixation","","","",""
"","","","","","visual-search-circle","53","115162","0.0-14.0-0.0-1.19","5baa8477abf2ac0001d277e5","6186fb1cc52d38b480598eb7","61871e84c1871022d5e82168","1233.3000000715256","","d","true","[[372,8],[145,42],[8,227],[42,454],[227,591],[454,557],[591,372],[557,145]]","true","8","","","img/Fire_Down_Target.gif","[""img/Fire_Up_Distractor.gif"",""img/Fire_Up_Distractor.gif"",""img/Fire_Up_Distractor.gif"",""img/Fire_Up_Distractor.gif"",""img/Fire_Up_Distractor.gif"",""img/Fire_Up_Distractor.gif"",""img/Fire_Up_Distractor.gif"",""img/Fire_Up_Distractor.gif"",""img/Fire_Up_Distractor.gif"",""img/Fire_Up_Distractor.gif"",""img/Fire_Up_Distractor.gif"",""img/Fire_Up_Distractor.gif""]","targetDown_distractorsUp"
"","","","","","html-keyboard-response","54","115163","0.0-14.0-0.0-0.20","5baa8477abf2ac0001d277e5","6186fb1cc52d38b480598eb7","61871e84c1871022d5e82168","null","","null","","","","","fixation","","","",""
"","","","","","visual-search-circle","55","117564","0.0-14.0-0.0-1.20","5baa8477abf2ac0001d277e5","6186fb1cc52d38b480598eb7","61871e84c1871022d5e82168","1396","","s","true","[[202,16],[17,199],[45,458],[264,597],[511,513],[598,267],[460,46]]","false","7","","","img/Fire_Down_Target.gif","[""img/Fire_Up_Distractor.gif"",""img/Fire_Up_Distractor.gif"",""img/Fire_Up_Distractor.gif"",""img/Fire_Up_Distractor.gif"",""img/Fire_Up_Distractor.gif"",""img/Fire_Up_Distractor.gif"",""img/Fire_Up_Distractor.gif"",""img/Fire_Up_Distractor.gif"",""img/Fire_Up_Distractor.gif"",""img/Fire_Up_Distractor.gif"",""img/Fire_Up_Distractor.gif"",""img/Fire_Up_Distractor.gif""]","targetDown_distractorsUp"
"","","","","","html-keyboard-response","56","117565","0.0-14.0-0.0-0.21","5baa8477abf2ac0001d277e5","6186fb1cc52d38b480598eb7","61871e84c1871022d5e82168","null","","null","","","","","fixation","","","",""
"","","","","","visual-search-circle","57","119316","0.0-14.0-0.0-1.21","5baa8477abf2ac0001d277e5","6186fb1cc52d38b480598eb7","61871e84c1871022d5e82168","740.8999999761581","","d","true","[[576,417],[496,73],[145,42],[7,367],[273,598]]","true","5","","","img/Fire_Down_Target.gif","[""img/Fire_Up_Distractor.gif"",""img/Fire_Up_Distractor.gif"",""img/Fire_Up_Distractor.gif"",""img/Fire_Up_Distractor.gif"",""img/Fire_Up_Distractor.gif"",""img/Fire_Up_Distractor.gif"",""img/Fire_Up_Distractor.gif"",""img/Fire_Up_Distractor.gif"",""img/Fire_Up_Distractor.gif"",""img/Fire_Up_Distractor.gif"",""img/Fire_Up_Distractor.gif"",""img/Fire_Up_Distractor.gif""]","targetDown_distractorsUp"
"","","","","","html-keyboard-response","58","119318","0.0-14.0-0.0-0.22","5baa8477abf2ac0001d277e5","6186fb1cc52d38b480598eb7","61871e84c1871022d5e82168","null","","null","","","","","fixation","","","",""
"","","","","","visual-search-circle","59","122804","0.0-14.0-0.0-1.22","5baa8477abf2ac0001d277e5","6186fb1cc52d38b480598eb7","61871e84c1871022d5e82168","2469.7000000476837","","s","true","[[57,476],[392,585],[600,300],[392,14],[57,123]]","false","5","","","img/Fire_Down_Target.gif","[""img/Fire_Up_Distractor.gif"",""img/Fire_Up_Distractor.gif"",""img/Fire_Up_Distractor.gif"",""img/Fire_Up_Distractor.gif"",""img/Fire_Up_Distractor.gif"",""img/Fire_Up_Distractor.gif"",""img/Fire_Up_Distractor.gif"",""img/Fire_Up_Distractor.gif"",""img/Fire_Up_Distractor.gif"",""img/Fire_Up_Distractor.gif"",""img/Fire_Up_Distractor.gif"",""img/Fire_Up_Distractor.gif""]","targetDown_distractorsUp"
"","","","","","html-keyboard-response","60","122806","0.0-14.0-0.0-0.23","5baa8477abf2ac0001d277e5","6186fb1cc52d38b480598eb7","61871e84c1871022d5e82168","null","","null","","","","","fixation","","","",""
"","","","","","visual-search-circle","61","125212","0.0-14.0-0.0-1.23","5baa8477abf2ac0001d277e5","6186fb1cc52d38b480598eb7","61871e84c1871022d5e82168","1386.6999999284744","","s","true","[[212,13],[21,189],[39,449],[254,596],[503,520],[599,278],[469,52]]","false","7","","","img/Fire_Down_Target.gif","[""img/Fire_Up_Distractor.gif"",""img/Fire_Up_Distractor.gif"",""img/Fire_Up_Distractor.gif"",""img/Fire_Up_Distractor.gif"",""img/Fire_Up_Distractor.gif"",""img/Fire_Up_Distractor.gif"",""img/Fire_Up_Distractor.gif"",""img/Fire_Up_Distractor.gif"",""img/Fire_Up_Distractor.gif"",""img/Fire_Up_Distractor.gif"",""img/Fire_Up_Distractor.gif"",""img/Fire_Up_Distractor.gif""]","targetDown_distractorsUp"
"","","","","","html-keyboard-response","62","125214","0.0-14.0-0.0-0.24","5baa8477abf2ac0001d277e5","6186fb1cc52d38b480598eb7","61871e84c1871022d5e82168","null","","null","","","","","fixation","","","",""
"","","","","","visual-search-circle","63","127388","0.0-14.0-0.0-1.24","5baa8477abf2ac0001d277e5","6186fb1cc52d38b480598eb7","61871e84c1871022d5e82168","1159.3000000715256","","s","true","[[48,136],[6,362],[136,551],[362,593],[551,463],[593,237],[463,48],[237,6]]","false","8","","","img/Fire_Down_Target.gif","[""img/Fire_Up_Distractor.gif"",""img/Fire_Up_Distractor.gif"",""img/Fire_Up_Distractor.gif"",""img/Fire_Up_Distractor.gif"",""img/Fire_Up_Distractor.gif"",""img/Fire_Up_Distractor.gif"",""img/Fire_Up_Distractor.gif"",""img/Fire_Up_Distractor.gif"",""img/Fire_Up_Distractor.gif"",""img/Fire_Up_Distractor.gif"",""img/Fire_Up_Distractor.gif"",""img/Fire_Up_Distractor.gif""]","targetDown_distractorsUp"
"","","","","","html-keyboard-response","64","127389","0.0-14.0-0.0-0.25","5baa8477abf2ac0001d277e5","6186fb1cc52d38b480598eb7","61871e84c1871022d5e82168","null","","null","","","","","fixation","","","",""
"","","","","","visual-search-circle","65","129862","0.0-14.0-0.0-1.25","5baa8477abf2ac0001d277e5","6186fb1cc52d38b480598eb7","61871e84c1871022d5e82168","1468.5","","s","true","[[19,192],[66,488],[346,596],[580,407],[533,111],[253,3]]","false","6","","","img/Fire_Down_Target.gif","[""img/Fire_Up_Distractor.gif"",""img/Fire_Up_Distractor.gif"",""img/Fire_Up_Distractor.gif"",""img/Fire_Up_Distractor.gif"",""img/Fire_Up_Distractor.gif"",""img/Fire_Up_Distractor.gif"",""img/Fire_Up_Distractor.gif"",""img/Fire_Up_Distractor.gif"",""img/Fire_Up_Distractor.gif"",""img/Fire_Up_Distractor.gif"",""img/Fire_Up_Distractor.gif"",""img/Fire_Up_Distractor.gif""]","targetDown_distractorsUp"
"","","","","","html-keyboard-response","66","129864","0.0-14.0-0.0-0.26","5baa8477abf2ac0001d277e5","6186fb1cc52d38b480598eb7","61871e84c1871022d5e82168","null","","null","","","","","fixation","","","",""
"","","","","","visual-search-circle","67","133176","0.0-14.0-0.0-1.26","5baa8477abf2ac0001d277e5","6186fb1cc52d38b480598eb7","61871e84c1871022d5e82168","2301.5999999046326","","s","true","[[574,422],[422,25],[25,177],[177,574]]","false","4","","","img/Fire_Down_Target.gif","[""img/Fire_Up_Distractor.gif"",""img/Fire_Up_Distractor.gif"",""img/Fire_Up_Distractor.gif"",""img/Fire_Up_Distractor.gif"",""img/Fire_Up_Distractor.gif"",""img/Fire_Up_Distractor.gif"",""img/Fire_Up_Distractor.gif"",""img/Fire_Up_Distractor.gif"",""img/Fire_Up_Distractor.gif"",""img/Fire_Up_Distractor.gif"",""img/Fire_Up_Distractor.gif"",""img/Fire_Up_Distractor.gif""]","targetDown_distractorsUp"
"","","","","","html-keyboard-response","68","133178","0.0-14.0-0.0-0.27","5baa8477abf2ac0001d277e5","6186fb1cc52d38b480598eb7","61871e84c1871022d5e82168","null","","null","","","","","fixation","","","",""
"","","","","","visual-search-circle","69","135685","0.0-14.0-0.0-1.27","5baa8477abf2ac0001d277e5","6186fb1cc52d38b480598eb7","61871e84c1871022d5e82168","1494","","d","true","[[512,87],[266,1],[45,140],[16,399],[200,583],[459,554],[598,333]]","true","7","","","img/Fire_Down_Target.gif","[""img/Fire_Up_Distractor.gif"",""img/Fire_Up_Distractor.gif"",""img/Fire_Up_Distractor.gif"",""img/Fire_Up_Distractor.gif"",""img/Fire_Up_Distractor.gif"",""img/Fire_Up_Distractor.gif"",""img/Fire_Up_Distractor.gif"",""img/Fire_Up_Distractor.gif"",""img/Fire_Up_Distractor.gif"",""img/Fire_Up_Distractor.gif"",""img/Fire_Up_Distractor.gif"",""img/Fire_Up_Distractor.gif""]","targetDown_distractorsUp"
"","","","","","html-keyboard-response","70","135689","0.0-14.0-0.0-0.28","5baa8477abf2ac0001d277e5","6186fb1cc52d38b480598eb7","61871e84c1871022d5e82168","null","","null","","","","","fixation","","","",""
"","","","","","visual-search-circle","71","137600","0.0-14.0-0.0-1.28","5baa8477abf2ac0001d277e5","6186fb1cc52d38b480598eb7","61871e84c1871022d5e82168","896.8999999761581","","d","true","[[581,197],[395,15],[137,47],[1,270],[90,514],[337,597],[555,456]]","true","7","","","img/Fire_Down_Target.gif","[""img/Fire_Up_Distractor.gif"",""img/Fire_Up_Distractor.gif"",""img/Fire_Up_Distractor.gif"",""img/Fire_Up_Distractor.gif"",""img/Fire_Up_Distractor.gif"",""img/Fire_Up_Distractor.gif"",""img/Fire_Up_Distractor.gif"",""img/Fire_Up_Distractor.gif"",""img/Fire_Up_Distractor.gif"",""img/Fire_Up_Distractor.gif"",""img/Fire_Up_Distractor.gif"",""img/Fire_Up_Distractor.gif""]","targetDown_distractorsUp"
"","","","","","html-keyboard-response","72","137602","0.0-14.0-0.0-0.29","5baa8477abf2ac0001d277e5","6186fb1cc52d38b480598eb7","61871e84c1871022d5e82168","null","","null","","","","","fixation","","","",""
"","","","","","visual-search-circle","73","139338","0.0-14.0-0.0-1.29","5baa8477abf2ac0001d277e5","6186fb1cc52d38b480598eb7","61871e84c1871022d5e82168","732.6000000238419","","d","true","[[10,377],[222,589],[512,512],[589,222],[377,10],[87,87]]","true","6","","","img/Fire_Down_Target.gif","[""img/Fire_Up_Distractor.gif"",""img/Fire_Up_Distractor.gif"",""img/Fire_Up_Distractor.gif"",""img/Fire_Up_Distractor.gif"",""img/Fire_Up_Distractor.gif"",""img/Fire_Up_Distractor.gif"",""img/Fire_Up_Distractor.gif"",""img/Fire_Up_Distractor.gif"",""img/Fire_Up_Distractor.gif"",""img/Fire_Up_Distractor.gif"",""img/Fire_Up_Distractor.gif"",""img/Fire_Up_Distractor.gif""]","targetDown_distractorsUp"
"","","","","","html-keyboard-response","74","139340","0.0-14.0-0.0-0.30","5baa8477abf2ac0001d277e5","6186fb1cc52d38b480598eb7","61871e84c1871022d5e82168","null","","null","","","","","fixation","","","",""
"","","","","","visual-search-circle","75","142064","0.0-14.0-0.0-1.30","5baa8477abf2ac0001d277e5","6186fb1cc52d38b480598eb7","61871e84c1871022d5e82168","1708.9000000953674","","d","false","[[589,377],[463,48],[111,66],[19,407],[315,599]]","false","5","","","img/Fire_Down_Target.gif","[""img/Fire_Up_Distractor.gif"",""img/Fire_Up_Distractor.gif"",""img/Fire_Up_Distractor.gif"",""img/Fire_Up_Distractor.gif"",""img/Fire_Up_Distractor.gif"",""img/Fire_Up_Distractor.gif"",""img/Fire_Up_Distractor.gif"",""img/Fire_Up_Distractor.gif"",""img/Fire_Up_Distractor.gif"",""img/Fire_Up_Distractor.gif"",""img/Fire_Up_Distractor.gif"",""img/Fire_Up_Distractor.gif""]","targetDown_distractorsUp"
"","","","","","html-keyboard-response","76","142066","0.0-14.0-0.0-0.31","5baa8477abf2ac0001d277e5","6186fb1cc52d38b480598eb7","61871e84c1871022d5e82168","null","","null","","","","","fixation","","","",""
"","","","","","visual-search-circle","77","144455","0.0-14.0-0.0-1.31","5baa8477abf2ac0001d277e5","6186fb1cc52d38b480598eb7","61871e84c1871022d5e82168","1376.1000000238419","","d","true","[[480,539],[539,119],[119,60],[60,480]]","true","4","","","img/Fire_Up_Target.gif","[""img/Fire_Down_Distractor.gif"",""img/Fire_Down_Distractor.gif"",""img/Fire_Down_Distractor.gif"",""img/Fire_Down_Distractor.gif"",""img/Fire_Down_Distractor.gif"",""img/Fire_Down_Distractor.gif"",""img/Fire_Down_Distractor.gif"",""img/Fire_Down_Distractor.gif"",""img/Fire_Down_Distractor.gif"",""img/Fire_Down_Distractor.gif"",""img/Fire_Down_Distractor.gif"",""img/Fire_Down_Distractor.gif""]","targetUp_distractorsDown"
"","","","","","html-keyboard-response","78","144457","0.0-14.0-0.0-0.32","5baa8477abf2ac0001d277e5","6186fb1cc52d38b480598eb7","61871e84c1871022d5e82168","null","","null","","","","","fixation","","","",""
"","","","","","visual-search-circle","79","146922","0.0-14.0-0.0-1.32","5baa8477abf2ac0001d277e5","6186fb1cc52d38b480598eb7","61871e84c1871022d5e82168","1459.1999999284744","","s","true","[[268,1],[25,177],[57,476],[331,598],[574,422],[542,123]]","false","6","","","img/Fire_Down_Target.gif","[""img/Fire_Up_Distractor.gif"",""img/Fire_Up_Distractor.gif"",""img/Fire_Up_Distractor.gif"",""img/Fire_Up_Distractor.gif"",""img/Fire_Up_Distractor.gif"",""img/Fire_Up_Distractor.gif"",""img/Fire_Up_Distractor.gif"",""img/Fire_Up_Distractor.gif"",""img/Fire_Up_Distractor.gif"",""img/Fire_Up_Distractor.gif"",""img/Fire_Up_Distractor.gif"",""img/Fire_Up_Distractor.gif""]","targetDown_distractorsUp"
"","","","","","html-keyboard-response","80","146923","0.0-14.0-0.0-0.33","5baa8477abf2ac0001d277e5","6186fb1cc52d38b480598eb7","61871e84c1871022d5e82168","null","","null","","","","","fixation","","","",""
"","","","","","visual-search-circle","81","148984","0.0-14.0-0.0-1.33","5baa8477abf2ac0001d277e5","6186fb1cc52d38b480598eb7","61871e84c1871022d5e82168","1042.8000000715256","","d","true","[[522,99],[237,6],[14,207],[77,500],[362,593],[585,392]]","true","6","","","img/Fire_Up_Target.gif","[""img/Fire_Down_Distractor.gif"",""img/Fire_Down_Distractor.gif"",""img/Fire_Down_Distractor.gif"",""img/Fire_Down_Distractor.gif"",""img/Fire_Down_Distractor.gif"",""img/Fire_Down_Distractor.gif"",""img/Fire_Down_Distractor.gif"",""img/Fire_Down_Distractor.gif"",""img/Fire_Down_Distractor.gif"",""img/Fire_Down_Distractor.gif"",""img/Fire_Down_Distractor.gif"",""img/Fire_Down_Distractor.gif""]","targetUp_distractorsDown"
"","","","","","html-keyboard-response","82","148986","0.0-14.0-0.0-0.34","5baa8477abf2ac0001d277e5","6186fb1cc52d38b480598eb7","61871e84c1871022d5e82168","null","","null","","","","","fixation","","","",""
"","","","","","visual-search-circle","83","151104","0.0-14.0-0.0-1.34","5baa8477abf2ac0001d277e5","6186fb1cc52d38b480598eb7","61871e84c1871022d5e82168","1115","","d","true","[[8,227],[227,591],[591,372],[372,8]]","true","4","","","img/Fire_Down_Target.gif","[""img/Fire_Up_Distractor.gif"",""img/Fire_Up_Distractor.gif"",""img/Fire_Up_Distractor.gif"",""img/Fire_Up_Distractor.gif"",""img/Fire_Up_Distractor.gif"",""img/Fire_Up_Distractor.gif"",""img/Fire_Up_Distractor.gif"",""img/Fire_Up_Distractor.gif"",""img/Fire_Up_Distractor.gif"",""img/Fire_Up_Distractor.gif"",""img/Fire_Up_Distractor.gif"",""img/Fire_Up_Distractor.gif""]","targetDown_distractorsUp"
"","","","","","html-keyboard-response","84","151106","0.0-14.0-0.0-0.35","5baa8477abf2ac0001d277e5","6186fb1cc52d38b480598eb7","61871e84c1871022d5e82168","null","","null","","","","","fixation","","","",""
"","","","","","visual-search-circle","85","154989","0.0-14.0-0.0-1.35","5baa8477abf2ac0001d277e5","6186fb1cc52d38b480598eb7","61871e84c1871022d5e82168","2880","","s","false","[[19,192],[192,580],[580,407],[407,19]]","true","4","","","img/Fire_Up_Target.gif","[""img/Fire_Down_Distractor.gif"",""img/Fire_Down_Distractor.gif"",""img/Fire_Down_Distractor.gif"",""img/Fire_Down_Distractor.gif"",""img/Fire_Down_Distractor.gif"",""img/Fire_Down_Distractor.gif"",""img/Fire_Down_Distractor.gif"",""img/Fire_Down_Distractor.gif"",""img/Fire_Down_Distractor.gif"",""img/Fire_Down_Distractor.gif"",""img/Fire_Down_Distractor.gif"",""img/Fire_Down_Distractor.gif""]","targetUp_distractorsDown"
"","","","","","html-keyboard-response","86","154990","0.0-14.0-0.0-0.36","5baa8477abf2ac0001d277e5","6186fb1cc52d38b480598eb7","61871e84c1871022d5e82168","null","","null","","","","","fixation","","","",""
"","","","","","visual-search-circle","87","157022","0.0-14.0-0.0-1.36","5baa8477abf2ac0001d277e5","6186fb1cc52d38b480598eb7","61871e84c1871022d5e82168","1027.2000000476837","","s","true","[[42,145],[73,496],[417,576],[598,273],[367,7]]","false","5","","","img/Fire_Up_Target.gif","[""img/Fire_Down_Distractor.gif"",""img/Fire_Down_Distractor.gif"",""img/Fire_Down_Distractor.gif"",""img/Fire_Down_Distractor.gif"",""img/Fire_Down_Distractor.gif"",""img/Fire_Down_Distractor.gif"",""img/Fire_Down_Distractor.gif"",""img/Fire_Down_Distractor.gif"",""img/Fire_Down_Distractor.gif"",""img/Fire_Down_Distractor.gif"",""img/Fire_Down_Distractor.gif"",""img/Fire_Down_Distractor.gif""]","targetUp_distractorsDown"
"","","","","","html-keyboard-response","88","157024","0.0-14.0-0.0-0.37","5baa8477abf2ac0001d277e5","6186fb1cc52d38b480598eb7","61871e84c1871022d5e82168","null","","null","","","","","fixation","","","",""
"","","","","","visual-search-circle","89","159115","0.0-14.0-0.0-1.37","5baa8477abf2ac0001d277e5","6186fb1cc52d38b480598eb7","61871e84c1871022d5e82168","1079.0999999046326","","d","true","[[40,150],[20,409],[211,586],[468,547],[599,322],[504,80],[255,3]]","true","7","","","img/Fire_Up_Target.gif","[""img/Fire_Down_Distractor.gif"",""img/Fire_Down_Distractor.gif"",""img/Fire_Down_Distractor.gif"",""img/Fire_Down_Distractor.gif"",""img/Fire_Down_Distractor.gif"",""img/Fire_Down_Distractor.gif"",""img/Fire_Down_Distractor.gif"",""img/Fire_Down_Distractor.gif"",""img/Fire_Down_Distractor.gif"",""img/Fire_Down_Distractor.gif"",""img/Fire_Down_Distractor.gif"",""img/Fire_Down_Distractor.gif""]","targetUp_distractorsDown"
"","","","","","html-keyboard-response","90","159117","0.0-14.0-0.0-0.38","5baa8477abf2ac0001d277e5","6186fb1cc52d38b480598eb7","61871e84c1871022d5e82168","null","","null","","","","","fixation","","","",""
"","","","","","visual-search-circle","91","162159","0.0-14.0-0.0-1.38","5baa8477abf2ac0001d277e5","6186fb1cc52d38b480598eb7","61871e84c1871022d5e82168","2029.2000000476837","","d","true","[[10,377],[284,599],[580,407],[488,66],[136,48]]","true","5","","","img/Fire_Up_Target.gif","[""img/Fire_Down_Distractor.gif"",""img/Fire_Down_Distractor.gif"",""img/Fire_Down_Distractor.gif"",""img/Fire_Down_Distractor.gif"",""img/Fire_Down_Distractor.gif"",""img/Fire_Down_Distractor.gif"",""img/Fire_Down_Distractor.gif"",""img/Fire_Down_Distractor.gif"",""img/Fire_Down_Distractor.gif"",""img/Fire_Down_Distractor.gif"",""img/Fire_Down_Distractor.gif"",""img/Fire_Down_Distractor.gif""]","targetUp_distractorsDown"
"","","","","","html-keyboard-response","92","184978","0.0-14.0-0.0-0.39","5baa8477abf2ac0001d277e5","6186fb1cc52d38b480598eb7","61871e84c1871022d5e82168","22819.799999952316","Wow! You've completed 40 out of 120 trials! </p> <p>  </p><p> Take a quick break, then press any key when you're ready to continue.","s","","","","","fixation","","","",""
"","","","","","visual-search-circle","93","186864","0.0-14.0-0.0-1.39","5baa8477abf2ac0001d277e5","6186fb1cc52d38b480598eb7","61871e84c1871022d5e82168","881.2999999523163","","d","true","[[564,440],[440,35],[35,159],[159,564]]","true","4","","","img/Fire_Down_Target.gif","[""img/Fire_Up_Distractor.gif"",""img/Fire_Up_Distractor.gif"",""img/Fire_Up_Distractor.gif"",""img/Fire_Up_Distractor.gif"",""img/Fire_Up_Distractor.gif"",""img/Fire_Up_Distractor.gif"",""img/Fire_Up_Distractor.gif"",""img/Fire_Up_Distractor.gif"",""img/Fire_Up_Distractor.gif"",""img/Fire_Up_Distractor.gif"",""img/Fire_Up_Distractor.gif"",""img/Fire_Up_Distractor.gif""]","targetDown_distractorsUp"
"","","","","","html-keyboard-response","94","186867","0.0-14.0-0.0-0.40","5baa8477abf2ac0001d277e5","6186fb1cc52d38b480598eb7","61871e84c1871022d5e82168","null","","null","","","","","fixation","","","",""
"","","","","","visual-search-circle","95","188719","0.0-14.0-0.0-1.40","5baa8477abf2ac0001d277e5","6186fb1cc52d38b480598eb7","61871e84c1871022d5e82168","842.3000000715256","","d","true","[[258,2],[41,147],[19,406],[208,585],[466,549],[598,325],[506,82]]","true","7","","","img/Fire_Down_Target.gif","[""img/Fire_Up_Distractor.gif"",""img/Fire_Up_Distractor.gif"",""img/Fire_Up_Distractor.gif"",""img/Fire_Up_Distractor.gif"",""img/Fire_Up_Distractor.gif"",""img/Fire_Up_Distractor.gif"",""img/Fire_Up_Distractor.gif"",""img/Fire_Up_Distractor.gif"",""img/Fire_Up_Distractor.gif"",""img/Fire_Up_Distractor.gif"",""img/Fire_Up_Distractor.gif"",""img/Fire_Up_Distractor.gif""]","targetDown_distractorsUp"
"","","","","","html-keyboard-response","96","188721","0.0-14.0-0.0-0.41","5baa8477abf2ac0001d277e5","6186fb1cc52d38b480598eb7","61871e84c1871022d5e82168","null","","null","","","","","fixation","","","",""
"","","","","","visual-search-circle","97","190574","0.0-14.0-0.0-1.41","5baa8477abf2ac0001d277e5","6186fb1cc52d38b480598eb7","61871e84c1871022d5e82168","845.1000000238419","","d","true","[[397,16],[103,73],[5,357],[202,583],[496,526],[594,242]]","true","6","","","img/Fire_Down_Target.gif","[""img/Fire_Up_Distractor.gif"",""img/Fire_Up_Distractor.gif"",""img/Fire_Up_Distractor.gif"",""img/Fire_Up_Distractor.gif"",""img/Fire_Up_Distractor.gif"",""img/Fire_Up_Distractor.gif"",""img/Fire_Up_Distractor.gif"",""img/Fire_Up_Distractor.gif"",""img/Fire_Up_Distractor.gif"",""img/Fire_Up_Distractor.gif"",""img/Fire_Up_Distractor.gif"",""img/Fire_Up_Distractor.gif""]","targetDown_distractorsUp"
"","","","","","html-keyboard-response","98","190578","0.0-14.0-0.0-0.42","5baa8477abf2ac0001d277e5","6186fb1cc52d38b480598eb7","61871e84c1871022d5e82168","null","","null","","","","","fixation","","","",""
"","","","","","visual-search-circle","99","192358","0.0-14.0-0.0-1.42","5baa8477abf2ac0001d277e5","6186fb1cc52d38b480598eb7","61871e84c1871022d5e82168","774.8000000715256","","d","true","[[30,168],[16,397],[168,569],[397,583],[569,431],[583,202],[431,30],[202,16]]","true","8","","","img/Fire_Up_Target.gif","[""img/Fire_Down_Distractor.gif"",""img/Fire_Down_Distractor.gif"",""img/Fire_Down_Distractor.gif"",""img/Fire_Down_Distractor.gif"",""img/Fire_Down_Distractor.gif"",""img/Fire_Down_Distractor.gif"",""img/Fire_Down_Distractor.gif"",""img/Fire_Down_Distractor.gif"",""img/Fire_Down_Distractor.gif"",""img/Fire_Down_Distractor.gif"",""img/Fire_Down_Distractor.gif"",""img/Fire_Down_Distractor.gif""]","targetUp_distractorsDown"
"","","","","","html-keyboard-response","100","192360","0.0-14.0-0.0-0.43","5baa8477abf2ac0001d277e5","6186fb1cc52d38b480598eb7","61871e84c1871022d5e82168","null","","null","","","","","fixation","","","",""
"","","","","","visual-search-circle","101","195293","0.0-14.0-0.0-1.43","5baa8477abf2ac0001d277e5","6186fb1cc52d38b480598eb7","61871e84c1871022d5e82168","1918","","d","true","[[202,16],[30,168],[16,397],[168,569],[397,583],[569,431],[583,202],[431,30]]","true","8","","","img/Fire_Down_Target.gif","[""img/Fire_Up_Distractor.gif"",""img/Fire_Up_Distractor.gif"",""img/Fire_Up_Distractor.gif"",""img/Fire_Up_Distractor.gif"",""img/Fire_Up_Distractor.gif"",""img/Fire_Up_Distractor.gif"",""img/Fire_Up_Distractor.gif"",""img/Fire_Up_Distractor.gif"",""img/Fire_Up_Distractor.gif"",""img/Fire_Up_Distractor.gif"",""img/Fire_Up_Distractor.gif"",""img/Fire_Up_Distractor.gif""]","targetDown_distractorsUp"
"","","","","","html-keyboard-response","102","195295","0.0-14.0-0.0-0.44","5baa8477abf2ac0001d277e5","6186fb1cc52d38b480598eb7","61871e84c1871022d5e82168","null","","null","","","","","fixation","","","",""
"","","","","","visual-search-circle","103","197242","0.0-14.0-0.0-1.44","5baa8477abf2ac0001d277e5","6186fb1cc52d38b480598eb7","61871e84c1871022d5e82168","931.5","","s","true","[[533,111],[111,66],[66,488],[488,533]]","false","4","","","img/Fire_Up_Target.gif","[""img/Fire_Down_Distractor.gif"",""img/Fire_Down_Distractor.gif"",""img/Fire_Down_Distractor.gif"",""img/Fire_Down_Distractor.gif"",""img/Fire_Down_Distractor.gif"",""img/Fire_Down_Distractor.gif"",""img/Fire_Down_Distractor.gif"",""img/Fire_Down_Distractor.gif"",""img/Fire_Down_Distractor.gif"",""img/Fire_Down_Distractor.gif"",""img/Fire_Down_Distractor.gif"",""img/Fire_Down_Distractor.gif""]","targetUp_distractorsDown"
"","","","","","html-keyboard-response","104","197244","0.0-14.0-0.0-0.45","5baa8477abf2ac0001d277e5","6186fb1cc52d38b480598eb7","61871e84c1871022d5e82168","null","","null","","","","","fixation","","","",""
"","","","","","visual-search-circle","105","199247","0.0-14.0-0.0-1.45","5baa8477abf2ac0001d277e5","6186fb1cc52d38b480598eb7","61871e84c1871022d5e82168","990.6999999284744","","s","true","[[73,496],[357,594],[583,397],[526,103],[242,5],[16,202]]","false","6","","","img/Fire_Up_Target.gif","[""img/Fire_Down_Distractor.gif"",""img/Fire_Down_Distractor.gif"",""img/Fire_Down_Distractor.gif"",""img/Fire_Down_Distractor.gif"",""img/Fire_Down_Distractor.gif"",""img/Fire_Down_Distractor.gif"",""img/Fire_Down_Distractor.gif"",""img/Fire_Down_Distractor.gif"",""img/Fire_Down_Distractor.gif"",""img/Fire_Down_Distractor.gif"",""img/Fire_Down_Distractor.gif"",""img/Fire_Down_Distractor.gif""]","targetUp_distractorsDown"
"","","","","","html-keyboard-response","106","199254","0.0-14.0-0.0-0.46","5baa8477abf2ac0001d277e5","6186fb1cc52d38b480598eb7","61871e84c1871022d5e82168","null","","null","","","","","fixation","","","",""
"","","","","","visual-search-circle","107","201522","0.0-14.0-0.0-1.46","5baa8477abf2ac0001d277e5","6186fb1cc52d38b480598eb7","61871e84c1871022d5e82168","1251.6000000238419","","s","true","[[591,372],[538,117],[305,0],[69,108],[6,360],[164,567],[424,572]]","false","7","","","img/Fire_Up_Target.gif","[""img/Fire_Down_Distractor.gif"",""img/Fire_Down_Distractor.gif"",""img/Fire_Down_Distractor.gif"",""img/Fire_Down_Distractor.gif"",""img/Fire_Down_Distractor.gif"",""img/Fire_Down_Distractor.gif"",""img/Fire_Down_Distractor.gif"",""img/Fire_Down_Distractor.gif"",""img/Fire_Down_Distractor.gif"",""img/Fire_Down_Distractor.gif"",""img/Fire_Down_Distractor.gif"",""img/Fire_Down_Distractor.gif""]","targetUp_distractorsDown"
"","","","","","html-keyboard-response","108","201523","0.0-14.0-0.0-0.47","5baa8477abf2ac0001d277e5","6186fb1cc52d38b480598eb7","61871e84c1871022d5e82168","null","","null","","","","","fixation","","","",""
"","","","","","visual-search-circle","109","204304","0.0-14.0-0.0-1.47","5baa8477abf2ac0001d277e5","6186fb1cc52d38b480598eb7","61871e84c1871022d5e82168","1765.5999999046326","","d","true","[[42,145],[8,372],[145,557],[372,591],[557,454],[591,227],[454,42],[227,8]]","true","8","","","img/Fire_Up_Target.gif","[""img/Fire_Down_Distractor.gif"",""img/Fire_Down_Distractor.gif"",""img/Fire_Down_Distractor.gif"",""img/Fire_Down_Distractor.gif"",""img/Fire_Down_Distractor.gif"",""img/Fire_Down_Distractor.gif"",""img/Fire_Down_Distractor.gif"",""img/Fire_Down_Distractor.gif"",""img/Fire_Down_Distractor.gif"",""img/Fire_Down_Distractor.gif"",""img/Fire_Down_Distractor.gif"",""img/Fire_Down_Distractor.gif""]","targetUp_distractorsDown"
"","","","","","html-keyboard-response","110","204307","0.0-14.0-0.0-0.48","5baa8477abf2ac0001d277e5","6186fb1cc52d38b480598eb7","61871e84c1871022d5e82168","null","","null","","","","","fixation","","","",""
"","","","","","visual-search-circle","111","206276","0.0-14.0-0.0-1.48","5baa8477abf2ac0001d277e5","6186fb1cc52d38b480598eb7","61871e84c1871022d5e82168","960.5","","s","true","[[559,450],[522,99],[177,25],[1,331],[237,593]]","false","5","","","img/Fire_Up_Target.gif","[""img/Fire_Down_Distractor.gif"",""img/Fire_Down_Distractor.gif"",""img/Fire_Down_Distractor.gif"",""img/Fire_Down_Distractor.gif"",""img/Fire_Down_Distractor.gif"",""img/Fire_Down_Distractor.gif"",""img/Fire_Down_Distractor.gif"",""img/Fire_Down_Distractor.gif"",""img/Fire_Down_Distractor.gif"",""img/Fire_Down_Distractor.gif"",""img/Fire_Down_Distractor.gif"",""img/Fire_Down_Distractor.gif""]","targetUp_distractorsDown"
"","","","","","html-keyboard-response","112","206278","0.0-14.0-0.0-0.49","5baa8477abf2ac0001d277e5","6186fb1cc52d38b480598eb7","61871e84c1871022d5e82168","null","","null","","","","","fixation","","","",""
"","","","","","visual-search-circle","113","208301","0.0-14.0-0.0-1.49","5baa8477abf2ac0001d277e5","6186fb1cc52d38b480598eb7","61871e84c1871022d5e82168","1012.2999999523163","","s","true","[[6,237],[149,559],[500,522],[574,177],[268,1]]","false","5","","","img/Fire_Up_Target.gif","[""img/Fire_Down_Distractor.gif"",""img/Fire_Down_Distractor.gif"",""img/Fire_Down_Distractor.gif"",""img/Fire_Down_Distractor.gif"",""img/Fire_Down_Distractor.gif"",""img/Fire_Down_Distractor.gif"",""img/Fire_Down_Distractor.gif"",""img/Fire_Down_Distractor.gif"",""img/Fire_Down_Distractor.gif"",""img/Fire_Down_Distractor.gif"",""img/Fire_Down_Distractor.gif"",""img/Fire_Down_Distractor.gif""]","targetUp_distractorsDown"
"","","","","","html-keyboard-response","114","208303","0.0-14.0-0.0-0.50","5baa8477abf2ac0001d277e5","6186fb1cc52d38b480598eb7","61871e84c1871022d5e82168","null","","null","","","","","fixation","","","",""
"","","","","","visual-search-circle","115","210392","0.0-14.0-0.0-1.50","5baa8477abf2ac0001d277e5","6186fb1cc52d38b480598eb7","61871e84c1871022d5e82168","1081.6000000238419","","s","true","[[367,592],[586,387],[519,95],[232,7],[13,212],[80,504]]","false","6","","","img/Fire_Up_Target.gif","[""img/Fire_Down_Distractor.gif"",""img/Fire_Down_Distractor.gif"",""img/Fire_Down_Distractor.gif"",""img/Fire_Down_Distractor.gif"",""img/Fire_Down_Distractor.gif"",""img/Fire_Down_Distractor.gif"",""img/Fire_Down_Distractor.gif"",""img/Fire_Down_Distractor.gif"",""img/Fire_Down_Distractor.gif"",""img/Fire_Down_Distractor.gif"",""img/Fire_Down_Distractor.gif"",""img/Fire_Down_Distractor.gif""]","targetUp_distractorsDown"
"","","","","","html-keyboard-response","116","210394","0.0-14.0-0.0-0.51","5baa8477abf2ac0001d277e5","6186fb1cc52d38b480598eb7","61871e84c1871022d5e82168","null","","null","","","","","fixation","","","",""
"","","","","","visual-search-circle","117","212758","0.0-14.0-0.0-1.51","5baa8477abf2ac0001d277e5","6186fb1cc52d38b480598eb7","61871e84c1871022d5e82168","1353.2999999523163","","s","true","[[454,42],[227,8],[42,145],[8,372],[145,557],[372,591],[557,454],[591,227]]","false","8","","","img/Fire_Down_Target.gif","[""img/Fire_Up_Distractor.gif"",""img/Fire_Up_Distractor.gif"",""img/Fire_Up_Distractor.gif"",""img/Fire_Up_Distractor.gif"",""img/Fire_Up_Distractor.gif"",""img/Fire_Up_Distractor.gif"",""img/Fire_Up_Distractor.gif"",""img/Fire_Up_Distractor.gif"",""img/Fire_Up_Distractor.gif"",""img/Fire_Up_Distractor.gif"",""img/Fire_Up_Distractor.gif"",""img/Fire_Up_Distractor.gif""]","targetDown_distractorsUp"
"","","","","","html-keyboard-response","118","212760","0.0-14.0-0.0-0.52","5baa8477abf2ac0001d277e5","6186fb1cc52d38b480598eb7","61871e84c1871022d5e82168","null","","null","","","","","fixation","","","",""
"","","","","","visual-search-circle","119","214706","0.0-14.0-0.0-1.52","5baa8477abf2ac0001d277e5","6186fb1cc52d38b480598eb7","61871e84c1871022d5e82168","940.6000000238419","","s","true","[[263,2],[44,142],[17,401],[203,584],[462,552],[598,330],[510,85]]","false","7","","","img/Fire_Up_Target.gif","[""img/Fire_Down_Distractor.gif"",""img/Fire_Down_Distractor.gif"",""img/Fire_Down_Distractor.gif"",""img/Fire_Down_Distractor.gif"",""img/Fire_Down_Distractor.gif"",""img/Fire_Down_Distractor.gif"",""img/Fire_Down_Distractor.gif"",""img/Fire_Down_Distractor.gif"",""img/Fire_Down_Distractor.gif"",""img/Fire_Down_Distractor.gif"",""img/Fire_Down_Distractor.gif"",""img/Fire_Down_Distractor.gif""]","targetUp_distractorsDown"
"","","","","","html-keyboard-response","120","214709","0.0-14.0-0.0-0.53","5baa8477abf2ac0001d277e5","6186fb1cc52d38b480598eb7","61871e84c1871022d5e82168","null","","null","","","","","fixation","","","",""
"","","","","","visual-search-circle","121","216800","0.0-14.0-0.0-1.53","5baa8477abf2ac0001d277e5","6186fb1cc52d38b480598eb7","61871e84c1871022d5e82168","1081.7999999523163","","s","false","[[279,599],[520,502],[596,253],[448,39],[189,21],[12,213],[52,470]]","true","7","","","img/Fire_Up_Target.gif","[""img/Fire_Down_Distractor.gif"",""img/Fire_Down_Distractor.gif"",""img/Fire_Down_Distractor.gif"",""img/Fire_Down_Distractor.gif"",""img/Fire_Down_Distractor.gif"",""img/Fire_Down_Distractor.gif"",""img/Fire_Down_Distractor.gif"",""img/Fire_Down_Distractor.gif"",""img/Fire_Down_Distractor.gif"",""img/Fire_Down_Distractor.gif"",""img/Fire_Down_Distractor.gif"",""img/Fire_Down_Distractor.gif""]","targetUp_distractorsDown"
"","","","","","html-keyboard-response","122","216805","0.0-14.0-0.0-0.54","5baa8477abf2ac0001d277e5","6186fb1cc52d38b480598eb7","61871e84c1871022d5e82168","null","","null","","","","","fixation","","","",""
"","","","","","visual-search-circle","123","219245","0.0-14.0-0.0-1.54","5baa8477abf2ac0001d277e5","6186fb1cc52d38b480598eb7","61871e84c1871022d5e82168","1429","","d","true","[[136,551],[394,584],[581,403],[556,144],[338,2],[91,84],[1,329]]","true","7","","","img/Fire_Up_Target.gif","[""img/Fire_Down_Distractor.gif"",""img/Fire_Down_Distractor.gif"",""img/Fire_Down_Distractor.gif"",""img/Fire_Down_Distractor.gif"",""img/Fire_Down_Distractor.gif"",""img/Fire_Down_Distractor.gif"",""img/Fire_Down_Distractor.gif"",""img/Fire_Down_Distractor.gif"",""img/Fire_Down_Distractor.gif"",""img/Fire_Down_Distractor.gif"",""img/Fire_Down_Distractor.gif"",""img/Fire_Down_Distractor.gif""]","targetUp_distractorsDown"
"","","","","","html-keyboard-response","124","219247","0.0-14.0-0.0-0.55","5baa8477abf2ac0001d277e5","6186fb1cc52d38b480598eb7","61871e84c1871022d5e82168","null","","null","","","","","fixation","","","",""
"","","","","","visual-search-circle","125","221222","0.0-14.0-0.0-1.55","5baa8477abf2ac0001d277e5","6186fb1cc52d38b480598eb7","61871e84c1871022d5e82168","963","","s","false","[[596,346],[542,123],[346,3],[123,57],[3,253],[57,476],[253,596],[476,542]]","true","8","","","img/Fire_Down_Target.gif","[""img/Fire_Up_Distractor.gif"",""img/Fire_Up_Distractor.gif"",""img/Fire_Up_Distractor.gif"",""img/Fire_Up_Distractor.gif"",""img/Fire_Up_Distractor.gif"",""img/Fire_Up_Distractor.gif"",""img/Fire_Up_Distractor.gif"",""img/Fire_Up_Distractor.gif"",""img/Fire_Up_Distractor.gif"",""img/Fire_Up_Distractor.gif"",""img/Fire_Up_Distractor.gif"",""img/Fire_Up_Distractor.gif""]","targetDown_distractorsUp"
"","","","","","html-keyboard-response","126","221224","0.0-14.0-0.0-0.56","5baa8477abf2ac0001d277e5","6186fb1cc52d38b480598eb7","61871e84c1871022d5e82168","null","","null","","","","","fixation","","","",""
"","","","","","visual-search-circle","127","223571","0.0-14.0-0.0-1.56","5baa8477abf2ac0001d277e5","6186fb1cc52d38b480598eb7","61871e84c1871022d5e82168","1335.7000000476837","","s","true","[[4,247],[159,564],[508,515],[569,168],[258,2]]","false","5","","","img/Fire_Up_Target.gif","[""img/Fire_Down_Distractor.gif"",""img/Fire_Down_Distractor.gif"",""img/Fire_Down_Distractor.gif"",""img/Fire_Down_Distractor.gif"",""img/Fire_Down_Distractor.gif"",""img/Fire_Down_Distractor.gif"",""img/Fire_Down_Distractor.gif"",""img/Fire_Down_Distractor.gif"",""img/Fire_Down_Distractor.gif"",""img/Fire_Down_Distractor.gif"",""img/Fire_Down_Distractor.gif"",""img/Fire_Down_Distractor.gif""]","targetUp_distractorsDown"
"","","","","","html-keyboard-response","128","223573","0.0-14.0-0.0-0.57","5baa8477abf2ac0001d277e5","6186fb1cc52d38b480598eb7","61871e84c1871022d5e82168","null","","null","","","","","fixation","","","",""
"","","","","","visual-search-circle","129","225777","0.0-14.0-0.0-1.57","5baa8477abf2ac0001d277e5","6186fb1cc52d38b480598eb7","61871e84c1871022d5e82168","1193.5999999046326","","s","true","[[10,377],[149,559],[377,589],[559,450],[589,222],[449,40],[222,10],[40,150]]","false","8","","","img/Fire_Down_Target.gif","[""img/Fire_Up_Distractor.gif"",""img/Fire_Up_Distractor.gif"",""img/Fire_Up_Distractor.gif"",""img/Fire_Up_Distractor.gif"",""img/Fire_Up_Distractor.gif"",""img/Fire_Up_Distractor.gif"",""img/Fire_Up_Distractor.gif"",""img/Fire_Up_Distractor.gif"",""img/Fire_Up_Distractor.gif"",""img/Fire_Up_Distractor.gif"",""img/Fire_Up_Distractor.gif"",""img/Fire_Up_Distractor.gif""]","targetDown_distractorsUp"
"","","","","","html-keyboard-response","130","225779","0.0-14.0-0.0-0.58","5baa8477abf2ac0001d277e5","6186fb1cc52d38b480598eb7","61871e84c1871022d5e82168","null","","null","","","","","fixation","","","",""
"","","","","","visual-search-circle","131","227596","0.0-14.0-0.0-1.58","5baa8477abf2ac0001d277e5","6186fb1cc52d38b480598eb7","61871e84c1871022d5e82168","808.7000000476837","","d","true","[[588,217],[372,8],[84,91],[11,382],[227,591],[515,508]]","true","6","","","img/Fire_Down_Target.gif","[""img/Fire_Up_Distractor.gif"",""img/Fire_Up_Distractor.gif"",""img/Fire_Up_Distractor.gif"",""img/Fire_Up_Distractor.gif"",""img/Fire_Up_Distractor.gif"",""img/Fire_Up_Distractor.gif"",""img/Fire_Up_Distractor.gif"",""img/Fire_Up_Distractor.gif"",""img/Fire_Up_Distractor.gif"",""img/Fire_Up_Distractor.gif"",""img/Fire_Up_Distractor.gif"",""img/Fire_Up_Distractor.gif""]","targetDown_distractorsUp"
"","","","","","html-keyboard-response","132","229695","0.0-14.0-0.0-0.59","5baa8477abf2ac0001d277e5","6186fb1cc52d38b480598eb7","61871e84c1871022d5e82168","2099.1999999284744","Wow! You've completed 60 out of 120 trials! </p> <p>  </p><p> Take a quick break, then press any key when you're ready to continue.","d","","","","","fixation","","","",""
"","","","","","visual-search-circle","133","231653","0.0-14.0-0.0-1.59","5baa8477abf2ac0001d277e5","6186fb1cc52d38b480598eb7","61871e84c1871022d5e82168","948.6999999284744","","d","true","[[42,454],[260,597],[507,516],[598,272],[464,49],[206,14],[18,195]]","true","7","","","img/Fire_Up_Target.gif","[""img/Fire_Down_Distractor.gif"",""img/Fire_Down_Distractor.gif"",""img/Fire_Down_Distractor.gif"",""img/Fire_Down_Distractor.gif"",""img/Fire_Down_Distractor.gif"",""img/Fire_Down_Distractor.gif"",""img/Fire_Down_Distractor.gif"",""img/Fire_Down_Distractor.gif"",""img/Fire_Down_Distractor.gif"",""img/Fire_Down_Distractor.gif"",""img/Fire_Down_Distractor.gif"",""img/Fire_Down_Distractor.gif""]","targetUp_distractorsDown"
"","","","","","html-keyboard-response","134","231654","0.0-14.0-0.0-0.60","5baa8477abf2ac0001d277e5","6186fb1cc52d38b480598eb7","61871e84c1871022d5e82168","null","","null","","","","","fixation","","","",""
"","","","","","visual-search-circle","135","233410","0.0-14.0-0.0-1.60","5baa8477abf2ac0001d277e5","6186fb1cc52d38b480598eb7","61871e84c1871022d5e82168","741.7999999523163","","s","true","[[5,242],[51,467],[242,594],[467,548],[594,357],[548,132],[357,5],[132,51]]","false","8","","","img/Fire_Up_Target.gif","[""img/Fire_Down_Distractor.gif"",""img/Fire_Down_Distractor.gif"",""img/Fire_Down_Distractor.gif"",""img/Fire_Down_Distractor.gif"",""img/Fire_Down_Distractor.gif"",""img/Fire_Down_Distractor.gif"",""img/Fire_Down_Distractor.gif"",""img/Fire_Down_Distractor.gif"",""img/Fire_Down_Distractor.gif"",""img/Fire_Down_Distractor.gif"",""img/Fire_Down_Distractor.gif"",""img/Fire_Down_Distractor.gif""]","targetUp_distractorsDown"
"","","","","","html-keyboard-response","136","233412","0.0-14.0-0.0-0.61","5baa8477abf2ac0001d277e5","6186fb1cc52d38b480598eb7","61871e84c1871022d5e82168","null","","null","","","","","fixation","","","",""
"","","","","","visual-search-circle","137","235853","0.0-14.0-0.0-1.61","5baa8477abf2ac0001d277e5","6186fb1cc52d38b480598eb7","61871e84c1871022d5e82168","1438.6000000238419","","s","true","[[557,454],[454,42],[42,145],[145,557]]","false","4","","","img/Fire_Down_Target.gif","[""img/Fire_Up_Distractor.gif"",""img/Fire_Up_Distractor.gif"",""img/Fire_Up_Distractor.gif"",""img/Fire_Up_Distractor.gif"",""img/Fire_Up_Distractor.gif"",""img/Fire_Up_Distractor.gif"",""img/Fire_Up_Distractor.gif"",""img/Fire_Up_Distractor.gif"",""img/Fire_Up_Distractor.gif"",""img/Fire_Up_Distractor.gif"",""img/Fire_Up_Distractor.gif"",""img/Fire_Up_Distractor.gif""]","targetDown_distractorsUp"
"","","","","","html-keyboard-response","138","235855","0.0-14.0-0.0-0.62","5baa8477abf2ac0001d277e5","6186fb1cc52d38b480598eb7","61871e84c1871022d5e82168","null","","null","","","","","fixation","","","",""
"","","","","","visual-search-circle","139","237953","0.0-14.0-0.0-1.62","5baa8477abf2ac0001d277e5","6186fb1cc52d38b480598eb7","61871e84c1871022d5e82168","1090.7999999523163","","s","true","[[212,586],[545,472],[539,119],[202,16],[0,305]]","false","5","","","img/Fire_Down_Target.gif","[""img/Fire_Up_Distractor.gif"",""img/Fire_Up_Distractor.gif"",""img/Fire_Up_Distractor.gif"",""img/Fire_Up_Distractor.gif"",""img/Fire_Up_Distractor.gif"",""img/Fire_Up_Distractor.gif"",""img/Fire_Up_Distractor.gif"",""img/Fire_Up_Distractor.gif"",""img/Fire_Up_Distractor.gif"",""img/Fire_Up_Distractor.gif"",""img/Fire_Up_Distractor.gif"",""img/Fire_Up_Distractor.gif""]","targetDown_distractorsUp"
"","","","","","html-keyboard-response","140","237954","0.0-14.0-0.0-0.63","5baa8477abf2ac0001d277e5","6186fb1cc52d38b480598eb7","61871e84c1871022d5e82168","null","","null","","","","","fixation","","","",""
"","","","","","visual-search-circle","141","239986","0.0-14.0-0.0-1.63","5baa8477abf2ac0001d277e5","6186fb1cc52d38b480598eb7","61871e84c1871022d5e82168","1027.0999999046326","","s","true","[[463,48],[163,32],[0,284],[136,551],[436,567],[599,315]]","false","6","","","img/Fire_Up_Target.gif","[""img/Fire_Down_Distractor.gif"",""img/Fire_Down_Distractor.gif"",""img/Fire_Down_Distractor.gif"",""img/Fire_Down_Distractor.gif"",""img/Fire_Down_Distractor.gif"",""img/Fire_Down_Distractor.gif"",""img/Fire_Down_Distractor.gif"",""img/Fire_Down_Distractor.gif"",""img/Fire_Down_Distractor.gif"",""img/Fire_Down_Distractor.gif"",""img/Fire_Down_Distractor.gif"",""img/Fire_Down_Distractor.gif""]","targetUp_distractorsDown"
"","","","","","html-keyboard-response","142","239988","0.0-14.0-0.0-0.64","5baa8477abf2ac0001d277e5","6186fb1cc52d38b480598eb7","61871e84c1871022d5e82168","null","","null","","","","","fixation","","","",""
"","","","","","visual-search-circle","143","242010","0.0-14.0-0.0-1.64","5baa8477abf2ac0001d277e5","6186fb1cc52d38b480598eb7","61871e84c1871022d5e82168","1010.7000000476837","","s","true","[[145,557],[404,581],[585,393],[550,135],[327,1],[83,92],[2,339]]","false","7","","","img/Fire_Up_Target.gif","[""img/Fire_Down_Distractor.gif"",""img/Fire_Down_Distractor.gif"",""img/Fire_Down_Distractor.gif"",""img/Fire_Down_Distractor.gif"",""img/Fire_Down_Distractor.gif"",""img/Fire_Down_Distractor.gif"",""img/Fire_Down_Distractor.gif"",""img/Fire_Down_Distractor.gif"",""img/Fire_Down_Distractor.gif"",""img/Fire_Down_Distractor.gif"",""img/Fire_Down_Distractor.gif"",""img/Fire_Down_Distractor.gif""]","targetUp_distractorsDown"
"","","","","","html-keyboard-response","144","242013","0.0-14.0-0.0-0.65","5baa8477abf2ac0001d277e5","6186fb1cc52d38b480598eb7","61871e84c1871022d5e82168","null","","null","","","","","fixation","","","",""
"","","","","","visual-search-circle","145","243960","0.0-14.0-0.0-1.65","5baa8477abf2ac0001d277e5","6186fb1cc52d38b480598eb7","61871e84c1871022d5e82168","935.6000000238419","","d","true","[[431,30],[171,29],[7,231],[64,485],[298,599],[533,488],[592,234]]","true","7","","","img/Fire_Down_Target.gif","[""img/Fire_Up_Distractor.gif"",""img/Fire_Up_Distractor.gif"",""img/Fire_Up_Distractor.gif"",""img/Fire_Up_Distractor.gif"",""img/Fire_Up_Distractor.gif"",""img/Fire_Up_Distractor.gif"",""img/Fire_Up_Distractor.gif"",""img/Fire_Up_Distractor.gif"",""img/Fire_Up_Distractor.gif"",""img/Fire_Up_Distractor.gif"",""img/Fire_Up_Distractor.gif"",""img/Fire_Up_Distractor.gif""]","targetDown_distractorsUp"
"","","","","","html-keyboard-response","146","243962","0.0-14.0-0.0-0.66","5baa8477abf2ac0001d277e5","6186fb1cc52d38b480598eb7","61871e84c1871022d5e82168","null","","null","","","","","fixation","","","",""
"","","","","","visual-search-circle","147","246395","0.0-14.0-0.0-1.66","5baa8477abf2ac0001d277e5","6186fb1cc52d38b480598eb7","61871e84c1871022d5e82168","1427.6999999284744","","d","true","[[310,599],[519,504],[599,289],[504,80],[289,0],[80,95],[0,310],[95,519]]","true","8","","","img/Fire_Up_Target.gif","[""img/Fire_Down_Distractor.gif"",""img/Fire_Down_Distractor.gif"",""img/Fire_Down_Distractor.gif"",""img/Fire_Down_Distractor.gif"",""img/Fire_Down_Distractor.gif"",""img/Fire_Down_Distractor.gif"",""img/Fire_Down_Distractor.gif"",""img/Fire_Down_Distractor.gif"",""img/Fire_Down_Distractor.gif"",""img/Fire_Down_Distractor.gif"",""img/Fire_Down_Distractor.gif"",""img/Fire_Down_Distractor.gif""]","targetUp_distractorsDown"
"","","","","","html-keyboard-response","148","246397","0.0-14.0-0.0-0.67","5baa8477abf2ac0001d277e5","6186fb1cc52d38b480598eb7","61871e84c1871022d5e82168","null","","null","","","","","fixation","","","",""
"","","","","","visual-search-circle","149","248650","0.0-14.0-0.0-1.67","5baa8477abf2ac0001d277e5","6186fb1cc52d38b480598eb7","61871e84c1871022d5e82168","1248","","d","true","[[458,554],[598,334],[512,88],[267,1],[46,139],[16,398],[200,582]]","true","7","","","img/Fire_Down_Target.gif","[""img/Fire_Up_Distractor.gif"",""img/Fire_Up_Distractor.gif"",""img/Fire_Up_Distractor.gif"",""img/Fire_Up_Distractor.gif"",""img/Fire_Up_Distractor.gif"",""img/Fire_Up_Distractor.gif"",""img/Fire_Up_Distractor.gif"",""img/Fire_Up_Distractor.gif"",""img/Fire_Up_Distractor.gif"",""img/Fire_Up_Distractor.gif"",""img/Fire_Up_Distractor.gif"",""img/Fire_Up_Distractor.gif""]","targetDown_distractorsUp"
"","","","","","html-keyboard-response","150","248651","0.0-14.0-0.0-0.68","5baa8477abf2ac0001d277e5","6186fb1cc52d38b480598eb7","61871e84c1871022d5e82168","null","","null","","","","","fixation","","","",""
"","","","","","visual-search-circle","151","250663","0.0-14.0-0.0-1.68","5baa8477abf2ac0001d277e5","6186fb1cc52d38b480598eb7","61871e84c1871022d5e82168","1000.1999999284744","","s","true","[[5,357],[202,583],[496,526],[594,242],[397,16],[103,73]]","false","6","","","img/Fire_Down_Target.gif","[""img/Fire_Up_Distractor.gif"",""img/Fire_Up_Distractor.gif"",""img/Fire_Up_Distractor.gif"",""img/Fire_Up_Distractor.gif"",""img/Fire_Up_Distractor.gif"",""img/Fire_Up_Distractor.gif"",""img/Fire_Up_Distractor.gif"",""img/Fire_Up_Distractor.gif"",""img/Fire_Up_Distractor.gif"",""img/Fire_Up_Distractor.gif"",""img/Fire_Up_Distractor.gif"",""img/Fire_Up_Distractor.gif""]","targetDown_distractorsUp"
"","","","","","html-keyboard-response","152","250665","0.0-14.0-0.0-0.69","5baa8477abf2ac0001d277e5","6186fb1cc52d38b480598eb7","61871e84c1871022d5e82168","null","","null","","","","","fixation","","","",""
"","","","","","visual-search-circle","153","252490","0.0-14.0-0.0-1.69","5baa8477abf2ac0001d277e5","6186fb1cc52d38b480598eb7","61871e84c1871022d5e82168","813.5","","d","true","[[40,450],[299,600],[559,450],[559,150],[300,0],[40,150]]","true","6","","","img/Fire_Down_Target.gif","[""img/Fire_Up_Distractor.gif"",""img/Fire_Up_Distractor.gif"",""img/Fire_Up_Distractor.gif"",""img/Fire_Up_Distractor.gif"",""img/Fire_Up_Distractor.gif"",""img/Fire_Up_Distractor.gif"",""img/Fire_Up_Distractor.gif"",""img/Fire_Up_Distractor.gif"",""img/Fire_Up_Distractor.gif"",""img/Fire_Up_Distractor.gif"",""img/Fire_Up_Distractor.gif"",""img/Fire_Up_Distractor.gif""]","targetDown_distractorsUp"
"","","","","","html-keyboard-response","154","252492","0.0-14.0-0.0-0.70","5baa8477abf2ac0001d277e5","6186fb1cc52d38b480598eb7","61871e84c1871022d5e82168","null","","null","","","","","fixation","","","",""
"","","","","","visual-search-circle","155","254724","0.0-14.0-0.0-1.70","5baa8477abf2ac0001d277e5","6186fb1cc52d38b480598eb7","61871e84c1871022d5e82168","1214","","s","true","[[557,454],[591,227],[454,42],[227,8],[42,145],[8,372],[145,557],[372,591]]","false","8","","","img/Fire_Up_Target.gif","[""img/Fire_Down_Distractor.gif"",""img/Fire_Down_Distractor.gif"",""img/Fire_Down_Distractor.gif"",""img/Fire_Down_Distractor.gif"",""img/Fire_Down_Distractor.gif"",""img/Fire_Down_Distractor.gif"",""img/Fire_Down_Distractor.gif"",""img/Fire_Down_Distractor.gif"",""img/Fire_Down_Distractor.gif"",""img/Fire_Down_Distractor.gif"",""img/Fire_Down_Distractor.gif"",""img/Fire_Down_Distractor.gif""]","targetUp_distractorsDown"
"","","","","","html-keyboard-response","156","254727","0.0-14.0-0.0-0.71","5baa8477abf2ac0001d277e5","6186fb1cc52d38b480598eb7","61871e84c1871022d5e82168","null","","null","","","","","fixation","","","",""
"","","","","","visual-search-circle","157","256771","0.0-14.0-0.0-1.71","5baa8477abf2ac0001d277e5","6186fb1cc52d38b480598eb7","61871e84c1871022d5e82168","1031.7000000476837","","s","true","[[412,21],[152,38],[3,252],[78,501],[319,599],[546,471],[587,214]]","false","7","","","img/Fire_Down_Target.gif","[""img/Fire_Up_Distractor.gif"",""img/Fire_Up_Distractor.gif"",""img/Fire_Up_Distractor.gif"",""img/Fire_Up_Distractor.gif"",""img/Fire_Up_Distractor.gif"",""img/Fire_Up_Distractor.gif"",""img/Fire_Up_Distractor.gif"",""img/Fire_Up_Distractor.gif"",""img/Fire_Up_Distractor.gif"",""img/Fire_Up_Distractor.gif"",""img/Fire_Up_Distractor.gif"",""img/Fire_Up_Distractor.gif""]","targetDown_distractorsUp"
"","","","","","html-keyboard-response","158","256774","0.0-14.0-0.0-0.72","5baa8477abf2ac0001d277e5","6186fb1cc52d38b480598eb7","61871e84c1871022d5e82168","null","","null","","","","","fixation","","","",""
"","","","","","visual-search-circle","159","259095","0.0-14.0-0.0-1.72","5baa8477abf2ac0001d277e5","6186fb1cc52d38b480598eb7","61871e84c1871022d5e82168","1315.6000000238419","","d","false","[[73,103],[16,397],[242,594],[526,496],[583,202],[357,5]]","false","6","","","img/Fire_Down_Target.gif","[""img/Fire_Up_Distractor.gif"",""img/Fire_Up_Distractor.gif"",""img/Fire_Up_Distractor.gif"",""img/Fire_Up_Distractor.gif"",""img/Fire_Up_Distractor.gif"",""img/Fire_Up_Distractor.gif"",""img/Fire_Up_Distractor.gif"",""img/Fire_Up_Distractor.gif"",""img/Fire_Up_Distractor.gif"",""img/Fire_Up_Distractor.gif"",""img/Fire_Up_Distractor.gif"",""img/Fire_Up_Distractor.gif""]","targetDown_distractorsUp"
"","","","","","html-keyboard-response","160","259097","0.0-14.0-0.0-0.73","5baa8477abf2ac0001d277e5","6186fb1cc52d38b480598eb7","61871e84c1871022d5e82168","null","","null","","","","","fixation","","","",""
"","","","","","visual-search-circle","161","261240","0.0-14.0-0.0-1.73","5baa8477abf2ac0001d277e5","6186fb1cc52d38b480598eb7","61871e84c1871022d5e82168","1134.0999999046326","","d","true","[[539,480],[480,60],[60,119],[119,539]]","true","4","","","img/Fire_Up_Target.gif","[""img/Fire_Down_Distractor.gif"",""img/Fire_Down_Distractor.gif"",""img/Fire_Down_Distractor.gif"",""img/Fire_Down_Distractor.gif"",""img/Fire_Down_Distractor.gif"",""img/Fire_Down_Distractor.gif"",""img/Fire_Down_Distractor.gif"",""img/Fire_Down_Distractor.gif"",""img/Fire_Down_Distractor.gif"",""img/Fire_Down_Distractor.gif"",""img/Fire_Down_Distractor.gif"",""img/Fire_Down_Distractor.gif""]","targetUp_distractorsDown"
"","","","","","html-keyboard-response","162","261242","0.0-14.0-0.0-0.74","5baa8477abf2ac0001d277e5","6186fb1cc52d38b480598eb7","61871e84c1871022d5e82168","null","","null","","","","","fixation","","","",""
"","","","","","visual-search-circle","163","264044","0.0-14.0-0.0-1.74","5baa8477abf2ac0001d277e5","6186fb1cc52d38b480598eb7","61871e84c1871022d5e82168","1790.6000000238419","","s","true","[[268,598],[542,476],[574,177],[331,1],[57,123],[25,422]]","false","6","","","img/Fire_Up_Target.gif","[""img/Fire_Down_Distractor.gif"",""img/Fire_Down_Distractor.gif"",""img/Fire_Down_Distractor.gif"",""img/Fire_Down_Distractor.gif"",""img/Fire_Down_Distractor.gif"",""img/Fire_Down_Distractor.gif"",""img/Fire_Down_Distractor.gif"",""img/Fire_Down_Distractor.gif"",""img/Fire_Down_Distractor.gif"",""img/Fire_Down_Distractor.gif"",""img/Fire_Down_Distractor.gif"",""img/Fire_Down_Distractor.gif""]","targetUp_distractorsDown"
"","","","","","html-keyboard-response","164","264047","0.0-14.0-0.0-0.75","5baa8477abf2ac0001d277e5","6186fb1cc52d38b480598eb7","61871e84c1871022d5e82168","null","","null","","","","","fixation","","","",""
"","","","","","visual-search-circle","165","266861","0.0-14.0-0.0-1.75","5baa8477abf2ac0001d277e5","6186fb1cc52d38b480598eb7","61871e84c1871022d5e82168","1811.1000000238419","","s","true","[[402,18],[18,197],[197,581],[581,402]]","false","4","","","img/Fire_Down_Target.gif","[""img/Fire_Up_Distractor.gif"",""img/Fire_Up_Distractor.gif"",""img/Fire_Up_Distractor.gif"",""img/Fire_Up_Distractor.gif"",""img/Fire_Up_Distractor.gif"",""img/Fire_Up_Distractor.gif"",""img/Fire_Up_Distractor.gif"",""img/Fire_Up_Distractor.gif"",""img/Fire_Up_Distractor.gif"",""img/Fire_Up_Distractor.gif"",""img/Fire_Up_Distractor.gif"",""img/Fire_Up_Distractor.gif""]","targetDown_distractorsUp"
"","","","","","html-keyboard-response","166","266862","0.0-14.0-0.0-0.76","5baa8477abf2ac0001d277e5","6186fb1cc52d38b480598eb7","61871e84c1871022d5e82168","null","","null","","","","","fixation","","","",""
"","","","","","visual-search-circle","167","269172","0.0-14.0-0.0-1.76","5baa8477abf2ac0001d277e5","6186fb1cc52d38b480598eb7","61871e84c1871022d5e82168","1299.6000000238419","","s","true","[[426,571],[581,402],[571,173],[402,18],[173,28],[18,197],[28,426],[197,581]]","false","8","","","img/Fire_Up_Target.gif","[""img/Fire_Down_Distractor.gif"",""img/Fire_Down_Distractor.gif"",""img/Fire_Down_Distractor.gif"",""img/Fire_Down_Distractor.gif"",""img/Fire_Down_Distractor.gif"",""img/Fire_Down_Distractor.gif"",""img/Fire_Down_Distractor.gif"",""img/Fire_Down_Distractor.gif"",""img/Fire_Down_Distractor.gif"",""img/Fire_Down_Distractor.gif"",""img/Fire_Down_Distractor.gif"",""img/Fire_Down_Distractor.gif""]","targetUp_distractorsDown"
"","","","","","html-keyboard-response","168","269176","0.0-14.0-0.0-0.77","5baa8477abf2ac0001d277e5","6186fb1cc52d38b480598eb7","61871e84c1871022d5e82168","null","","null","","","","","fixation","","","",""
"","","","","","visual-search-circle","169","271275","0.0-14.0-0.0-1.77","5baa8477abf2ac0001d277e5","6186fb1cc52d38b480598eb7","61871e84c1871022d5e82168","1089.3999999761581","","s","true","[[0,320],[320,599],[599,279],[279,0]]","false","4","","","img/Fire_Up_Target.gif","[""img/Fire_Down_Distractor.gif"",""img/Fire_Down_Distractor.gif"",""img/Fire_Down_Distractor.gif"",""img/Fire_Down_Distractor.gif"",""img/Fire_Down_Distractor.gif"",""img/Fire_Down_Distractor.gif"",""img/Fire_Down_Distractor.gif"",""img/Fire_Down_Distractor.gif"",""img/Fire_Down_Distractor.gif"",""img/Fire_Down_Distractor.gif"",""img/Fire_Down_Distractor.gif"",""img/Fire_Down_Distractor.gif""]","targetUp_distractorsDown"
"","","","","","html-keyboard-response","170","271280","0.0-14.0-0.0-0.78","5baa8477abf2ac0001d277e5","6186fb1cc52d38b480598eb7","61871e84c1871022d5e82168","null","","null","","","","","fixation","","","",""
"","","","","","visual-search-circle","171","273397","0.0-14.0-0.0-1.78","5baa8477abf2ac0001d277e5","6186fb1cc52d38b480598eb7","61871e84c1871022d5e82168","1106.8999999761581","","d","true","[[559,150],[344,3],[95,80],[0,322],[131,547],[388,586],[579,409]]","true","7","","","img/Fire_Down_Target.gif","[""img/Fire_Up_Distractor.gif"",""img/Fire_Up_Distractor.gif"",""img/Fire_Up_Distractor.gif"",""img/Fire_Up_Distractor.gif"",""img/Fire_Up_Distractor.gif"",""img/Fire_Up_Distractor.gif"",""img/Fire_Up_Distractor.gif"",""img/Fire_Up_Distractor.gif"",""img/Fire_Up_Distractor.gif"",""img/Fire_Up_Distractor.gif"",""img/Fire_Up_Distractor.gif"",""img/Fire_Up_Distractor.gif""]","targetDown_distractorsUp"
"","","","","","html-keyboard-response","172","385280","0.0-14.0-0.0-0.79","5baa8477abf2ac0001d277e5","6186fb1cc52d38b480598eb7","61871e84c1871022d5e82168","111881.89999997616","Wow! You've completed 80 out of 120 trials! </p> <p>  </p><p> Take a quick break, then press any key when you're ready to continue.","d","","","","","fixation","","","",""
"","","","","","visual-search-circle","173","387093","0.0-14.0-0.0-1.79","5baa8477abf2ac0001d277e5","6186fb1cc52d38b480598eb7","61871e84c1871022d5e82168","796.8999999761581","","d","true","[[331,1],[111,66],[1,268],[66,488],[268,598],[488,533],[598,331],[533,111]]","true","8","","","img/Fire_Up_Target.gif","[""img/Fire_Down_Distractor.gif"",""img/Fire_Down_Distractor.gif"",""img/Fire_Down_Distractor.gif"",""img/Fire_Down_Distractor.gif"",""img/Fire_Down_Distractor.gif"",""img/Fire_Down_Distractor.gif"",""img/Fire_Down_Distractor.gif"",""img/Fire_Down_Distractor.gif"",""img/Fire_Down_Distractor.gif"",""img/Fire_Down_Distractor.gif"",""img/Fire_Down_Distractor.gif"",""img/Fire_Down_Distractor.gif""]","targetUp_distractorsDown"
"","","","","","html-keyboard-response","174","387095","0.0-14.0-0.0-0.80","5baa8477abf2ac0001d277e5","6186fb1cc52d38b480598eb7","61871e84c1871022d5e82168","null","","null","","","","","fixation","","","",""
"","","","","","visual-search-circle","175","388794","0.0-14.0-0.0-1.80","5baa8477abf2ac0001d277e5","6186fb1cc52d38b480598eb7","61871e84c1871022d5e82168","695.8999999761581","","s","true","[[159,564],[508,515],[569,168],[258,2],[4,247]]","false","5","","","img/Fire_Down_Target.gif","[""img/Fire_Up_Distractor.gif"",""img/Fire_Up_Distractor.gif"",""img/Fire_Up_Distractor.gif"",""img/Fire_Up_Distractor.gif"",""img/Fire_Up_Distractor.gif"",""img/Fire_Up_Distractor.gif"",""img/Fire_Up_Distractor.gif"",""img/Fire_Up_Distractor.gif"",""img/Fire_Up_Distractor.gif"",""img/Fire_Up_Distractor.gif"",""img/Fire_Up_Distractor.gif"",""img/Fire_Up_Distractor.gif""]","targetDown_distractorsUp"
"","","","","","html-keyboard-response","176","388797","0.0-14.0-0.0-0.81","5baa8477abf2ac0001d277e5","6186fb1cc52d38b480598eb7","61871e84c1871022d5e82168","null","","null","","","","","fixation","","","",""
"","","","","","visual-search-circle","177","390492","0.0-14.0-0.0-1.81","5baa8477abf2ac0001d277e5","6186fb1cc52d38b480598eb7","61871e84c1871022d5e82168","691.0999999046326","","s","true","[[0,305],[305,599],[599,294],[294,0]]","false","4","","","img/Fire_Up_Target.gif","[""img/Fire_Down_Distractor.gif"",""img/Fire_Down_Distractor.gif"",""img/Fire_Down_Distractor.gif"",""img/Fire_Down_Distractor.gif"",""img/Fire_Down_Distractor.gif"",""img/Fire_Down_Distractor.gif"",""img/Fire_Down_Distractor.gif"",""img/Fire_Down_Distractor.gif"",""img/Fire_Down_Distractor.gif"",""img/Fire_Down_Distractor.gif"",""img/Fire_Down_Distractor.gif"",""img/Fire_Down_Distractor.gif""]","targetUp_distractorsDown"
"","","","","","html-keyboard-response","178","390494","0.0-14.0-0.0-0.82","5baa8477abf2ac0001d277e5","6186fb1cc52d38b480598eb7","61871e84c1871022d5e82168","null","","null","","","","","fixation","","","",""
"","","","","","visual-search-circle","179","392297","0.0-14.0-0.0-1.82","5baa8477abf2ac0001d277e5","6186fb1cc52d38b480598eb7","61871e84c1871022d5e82168","787.1000000238419","","d","true","[[48,463],[463,551],[551,136],[136,48]]","true","4","","","img/Fire_Up_Target.gif","[""img/Fire_Down_Distractor.gif"",""img/Fire_Down_Distractor.gif"",""img/Fire_Down_Distractor.gif"",""img/Fire_Down_Distractor.gif"",""img/Fire_Down_Distractor.gif"",""img/Fire_Down_Distractor.gif"",""img/Fire_Down_Distractor.gif"",""img/Fire_Down_Distractor.gif"",""img/Fire_Down_Distractor.gif"",""img/Fire_Down_Distractor.gif"",""img/Fire_Down_Distractor.gif"",""img/Fire_Down_Distractor.gif""]","targetUp_distractorsDown"
"","","","","","html-keyboard-response","180","392299","0.0-14.0-0.0-0.83","5baa8477abf2ac0001d277e5","6186fb1cc52d38b480598eb7","61871e84c1871022d5e82168","null","","null","","","","","fixation","","","",""
"","","","","","visual-search-circle","181","394330","0.0-14.0-0.0-1.83","5baa8477abf2ac0001d277e5","6186fb1cc52d38b480598eb7","61871e84c1871022d5e82168","1023.3000000715256","","s","true","[[315,599],[522,500],[599,284],[500,77],[284,0],[77,99],[0,315],[99,522]]","false","8","","","img/Fire_Up_Target.gif","[""img/Fire_Down_Distractor.gif"",""img/Fire_Down_Distractor.gif"",""img/Fire_Down_Distractor.gif"",""img/Fire_Down_Distractor.gif"",""img/Fire_Down_Distractor.gif"",""img/Fire_Down_Distractor.gif"",""img/Fire_Down_Distractor.gif"",""img/Fire_Down_Distractor.gif"",""img/Fire_Down_Distractor.gif"",""img/Fire_Down_Distractor.gif"",""img/Fire_Down_Distractor.gif"",""img/Fire_Down_Distractor.gif""]","targetUp_distractorsDown"
"","","","","","html-keyboard-response","182","394334","0.0-14.0-0.0-0.84","5baa8477abf2ac0001d277e5","6186fb1cc52d38b480598eb7","61871e84c1871022d5e82168","null","","null","","","","","fixation","","","",""
"","","","","","visual-search-circle","183","396354","0.0-14.0-0.0-1.84","5baa8477abf2ac0001d277e5","6186fb1cc52d38b480598eb7","61871e84c1871022d5e82168","1010.8000000715256","","s","true","[[310,0],[95,80],[0,289],[80,504],[289,599],[504,519],[599,310],[519,95]]","false","8","","","img/Fire_Down_Target.gif","[""img/Fire_Up_Distractor.gif"",""img/Fire_Up_Distractor.gif"",""img/Fire_Up_Distractor.gif"",""img/Fire_Up_Distractor.gif"",""img/Fire_Up_Distractor.gif"",""img/Fire_Up_Distractor.gif"",""img/Fire_Up_Distractor.gif"",""img/Fire_Up_Distractor.gif"",""img/Fire_Up_Distractor.gif"",""img/Fire_Up_Distractor.gif"",""img/Fire_Up_Distractor.gif"",""img/Fire_Up_Distractor.gif""]","targetDown_distractorsUp"
"","","","","","html-keyboard-response","184","396355","0.0-14.0-0.0-0.85","5baa8477abf2ac0001d277e5","6186fb1cc52d38b480598eb7","61871e84c1871022d5e82168","null","","null","","","","","fixation","","","",""
"","","","","","visual-search-circle","185","398171","0.0-14.0-0.0-1.85","5baa8477abf2ac0001d277e5","6186fb1cc52d38b480598eb7","61871e84c1871022d5e82168","813.4000000953674","","d","true","[[111,533],[533,488],[488,66],[66,111]]","true","4","","","img/Fire_Down_Target.gif","[""img/Fire_Up_Distractor.gif"",""img/Fire_Up_Distractor.gif"",""img/Fire_Up_Distractor.gif"",""img/Fire_Up_Distractor.gif"",""img/Fire_Up_Distractor.gif"",""img/Fire_Up_Distractor.gif"",""img/Fire_Up_Distractor.gif"",""img/Fire_Up_Distractor.gif"",""img/Fire_Up_Distractor.gif"",""img/Fire_Up_Distractor.gif"",""img/Fire_Up_Distractor.gif"",""img/Fire_Up_Distractor.gif""]","targetDown_distractorsUp"
"","","","","","html-keyboard-response","186","398174","0.0-14.0-0.0-0.86","5baa8477abf2ac0001d277e5","6186fb1cc52d38b480598eb7","61871e84c1871022d5e82168","null","","null","","","","","fixation","","","",""
"","","","","","visual-search-circle","187","400174","0.0-14.0-0.0-1.86","5baa8477abf2ac0001d277e5","6186fb1cc52d38b480598eb7","61871e84c1871022d5e82168","982.5999999046326","","s","false","[[480,539],[597,263],[417,23],[119,60],[2,336],[182,576]]","true","6","","","img/Fire_Down_Target.gif","[""img/Fire_Up_Distractor.gif"",""img/Fire_Up_Distractor.gif"",""img/Fire_Up_Distractor.gif"",""img/Fire_Up_Distractor.gif"",""img/Fire_Up_Distractor.gif"",""img/Fire_Up_Distractor.gif"",""img/Fire_Up_Distractor.gif"",""img/Fire_Up_Distractor.gif"",""img/Fire_Up_Distractor.gif"",""img/Fire_Up_Distractor.gif"",""img/Fire_Up_Distractor.gif"",""img/Fire_Up_Distractor.gif""]","targetDown_distractorsUp"
"","","","","","html-keyboard-response","188","400177","0.0-14.0-0.0-0.87","5baa8477abf2ac0001d277e5","6186fb1cc52d38b480598eb7","61871e84c1871022d5e82168","null","","null","","","","","fixation","","","",""
"","","","","","visual-search-circle","189","402218","0.0-14.0-0.0-1.87","5baa8477abf2ac0001d277e5","6186fb1cc52d38b480598eb7","61871e84c1871022d5e82168","1038.6000000238419","","s","true","[[426,28],[28,173],[173,571],[571,426]]","false","4","","","img/Fire_Up_Target.gif","[""img/Fire_Down_Distractor.gif"",""img/Fire_Down_Distractor.gif"",""img/Fire_Down_Distractor.gif"",""img/Fire_Down_Distractor.gif"",""img/Fire_Down_Distractor.gif"",""img/Fire_Down_Distractor.gif"",""img/Fire_Down_Distractor.gif"",""img/Fire_Down_Distractor.gif"",""img/Fire_Down_Distractor.gif"",""img/Fire_Down_Distractor.gif"",""img/Fire_Down_Distractor.gif"",""img/Fire_Down_Distractor.gif""]","targetUp_distractorsDown"
"","","","","","html-keyboard-response","190","402220","0.0-14.0-0.0-0.88","5baa8477abf2ac0001d277e5","6186fb1cc52d38b480598eb7","61871e84c1871022d5e82168","null","","null","","","","","fixation","","","",""
"","","","","","visual-search-circle","191","404694","0.0-14.0-0.0-1.88","5baa8477abf2ac0001d277e5","6186fb1cc52d38b480598eb7","61871e84c1871022d5e82168","1457.6999999284744","","s","true","[[536,115],[115,63],[63,484],[484,536]]","false","4","","","img/Fire_Up_Target.gif","[""img/Fire_Down_Distractor.gif"",""img/Fire_Down_Distractor.gif"",""img/Fire_Down_Distractor.gif"",""img/Fire_Down_Distractor.gif"",""img/Fire_Down_Distractor.gif"",""img/Fire_Down_Distractor.gif"",""img/Fire_Down_Distractor.gif"",""img/Fire_Down_Distractor.gif"",""img/Fire_Down_Distractor.gif"",""img/Fire_Down_Distractor.gif"",""img/Fire_Down_Distractor.gif"",""img/Fire_Down_Distractor.gif""]","targetUp_distractorsDown"
"","","","","","html-keyboard-response","192","404696","0.0-14.0-0.0-0.89","5baa8477abf2ac0001d277e5","6186fb1cc52d38b480598eb7","61871e84c1871022d5e82168","null","","null","","","","","fixation","","","",""
"","","","","","visual-search-circle","193","407428","0.0-14.0-0.0-1.89","5baa8477abf2ac0001d277e5","6186fb1cc52d38b480598eb7","61871e84c1871022d5e82168","1726.8999999761581","","d","true","[[11,382],[227,591],[515,508],[588,217],[372,8],[84,91]]","true","6","","","img/Fire_Up_Target.gif","[""img/Fire_Down_Distractor.gif"",""img/Fire_Down_Distractor.gif"",""img/Fire_Down_Distractor.gif"",""img/Fire_Down_Distractor.gif"",""img/Fire_Down_Distractor.gif"",""img/Fire_Down_Distractor.gif"",""img/Fire_Down_Distractor.gif"",""img/Fire_Down_Distractor.gif"",""img/Fire_Down_Distractor.gif"",""img/Fire_Down_Distractor.gif"",""img/Fire_Down_Distractor.gif"",""img/Fire_Down_Distractor.gif""]","targetUp_distractorsDown"
"","","","","","html-keyboard-response","194","407429","0.0-14.0-0.0-0.90","5baa8477abf2ac0001d277e5","6186fb1cc52d38b480598eb7","61871e84c1871022d5e82168","null","","null","","","","","fixation","","","",""
"","","","","","visual-search-circle","195","409250","0.0-14.0-0.0-1.90","5baa8477abf2ac0001d277e5","6186fb1cc52d38b480598eb7","61871e84c1871022d5e82168","815.6999999284744","","d","true","[[571,173],[263,2],[5,242],[154,562],[504,519]]","true","5","","","img/Fire_Down_Target.gif","[""img/Fire_Up_Distractor.gif"",""img/Fire_Up_Distractor.gif"",""img/Fire_Up_Distractor.gif"",""img/Fire_Up_Distractor.gif"",""img/Fire_Up_Distractor.gif"",""img/Fire_Up_Distractor.gif"",""img/Fire_Up_Distractor.gif"",""img/Fire_Up_Distractor.gif"",""img/Fire_Up_Distractor.gif"",""img/Fire_Up_Distractor.gif"",""img/Fire_Up_Distractor.gif"",""img/Fire_Up_Distractor.gif""]","targetDown_distractorsUp"
"","","","","","html-keyboard-response","196","409252","0.0-14.0-0.0-0.91","5baa8477abf2ac0001d277e5","6186fb1cc52d38b480598eb7","61871e84c1871022d5e82168","null","","null","","","","","fixation","","","",""
"","","","","","visual-search-circle","197","411302","0.0-14.0-0.0-1.91","5baa8477abf2ac0001d277e5","6186fb1cc52d38b480598eb7","61871e84c1871022d5e82168","1037.6999999284744","","s","true","[[567,163],[315,0],[48,136],[32,436],[284,599],[551,463]]","false","6","","","img/Fire_Up_Target.gif","[""img/Fire_Down_Distractor.gif"",""img/Fire_Down_Distractor.gif"",""img/Fire_Down_Distractor.gif"",""img/Fire_Down_Distractor.gif"",""img/Fire_Down_Distractor.gif"",""img/Fire_Down_Distractor.gif"",""img/Fire_Down_Distractor.gif"",""img/Fire_Down_Distractor.gif"",""img/Fire_Down_Distractor.gif"",""img/Fire_Down_Distractor.gif"",""img/Fire_Down_Distractor.gif"",""img/Fire_Down_Distractor.gif""]","targetUp_distractorsDown"
"","","","","","html-keyboard-response","198","411303","0.0-14.0-0.0-0.92","5baa8477abf2ac0001d277e5","6186fb1cc52d38b480598eb7","61871e84c1871022d5e82168","null","","null","","","","","fixation","","","",""
"","","","","","visual-search-circle","199","413170","0.0-14.0-0.0-1.92","5baa8477abf2ac0001d277e5","6186fb1cc52d38b480598eb7","61871e84c1871022d5e82168","847.1000000238419","","d","true","[[253,3],[57,123],[3,346],[123,542],[346,596],[542,476],[596,253],[476,57]]","true","8","","","img/Fire_Up_Target.gif","[""img/Fire_Down_Distractor.gif"",""img/Fire_Down_Distractor.gif"",""img/Fire_Down_Distractor.gif"",""img/Fire_Down_Distractor.gif"",""img/Fire_Down_Distractor.gif"",""img/Fire_Down_Distractor.gif"",""img/Fire_Down_Distractor.gif"",""img/Fire_Down_Distractor.gif"",""img/Fire_Down_Distractor.gif"",""img/Fire_Down_Distractor.gif"",""img/Fire_Down_Distractor.gif"",""img/Fire_Down_Distractor.gif""]","targetUp_distractorsDown"
"","","","","","html-keyboard-response","200","413172","0.0-14.0-0.0-0.93","5baa8477abf2ac0001d277e5","6186fb1cc52d38b480598eb7","61871e84c1871022d5e82168","null","","null","","","","","fixation","","","",""
"","","","","","visual-search-circle","201","415398","0.0-14.0-0.0-1.93","5baa8477abf2ac0001d277e5","6186fb1cc52d38b480598eb7","61871e84c1871022d5e82168","1220.8999999761581","","s","true","[[426,28],[166,31],[6,236],[67,489],[303,599],[536,484],[591,229]]","false","7","","","img/Fire_Down_Target.gif","[""img/Fire_Up_Distractor.gif"",""img/Fire_Up_Distractor.gif"",""img/Fire_Up_Distractor.gif"",""img/Fire_Up_Distractor.gif"",""img/Fire_Up_Distractor.gif"",""img/Fire_Up_Distractor.gif"",""img/Fire_Up_Distractor.gif"",""img/Fire_Up_Distractor.gif"",""img/Fire_Up_Distractor.gif"",""img/Fire_Up_Distractor.gif"",""img/Fire_Up_Distractor.gif"",""img/Fire_Up_Distractor.gif""]","targetDown_distractorsUp"
"","","","","","html-keyboard-response","202","415399","0.0-14.0-0.0-0.94","5baa8477abf2ac0001d277e5","6186fb1cc52d38b480598eb7","61871e84c1871022d5e82168","null","","null","","","","","fixation","","","",""
"","","","","","visual-search-circle","203","417226","0.0-14.0-0.0-1.94","5baa8477abf2ac0001d277e5","6186fb1cc52d38b480598eb7","61871e84c1871022d5e82168","807.1000000238419","","s","true","[[593,237],[434,31],[173,27],[8,228],[62,483],[295,599],[531,490]]","false","7","","","img/Fire_Up_Target.gif","[""img/Fire_Down_Distractor.gif"",""img/Fire_Down_Distractor.gif"",""img/Fire_Down_Distractor.gif"",""img/Fire_Down_Distractor.gif"",""img/Fire_Down_Distractor.gif"",""img/Fire_Down_Distractor.gif"",""img/Fire_Down_Distractor.gif"",""img/Fire_Down_Distractor.gif"",""img/Fire_Down_Distractor.gif"",""img/Fire_Down_Distractor.gif"",""img/Fire_Down_Distractor.gif"",""img/Fire_Down_Distractor.gif""]","targetUp_distractorsDown"
"","","","","","html-keyboard-response","204","417228","0.0-14.0-0.0-0.95","5baa8477abf2ac0001d277e5","6186fb1cc52d38b480598eb7","61871e84c1871022d5e82168","null","","null","","","","","fixation","","","",""
"","","","","","visual-search-circle","205","419473","0.0-14.0-0.0-1.95","5baa8477abf2ac0001d277e5","6186fb1cc52d38b480598eb7","61871e84c1871022d5e82168","1237.6000000238419","","s","true","[[576,417],[578,187],[417,23],[187,21],[23,182],[21,412],[182,576],[412,578]]","false","8","","","img/Fire_Up_Target.gif","[""img/Fire_Down_Distractor.gif"",""img/Fire_Down_Distractor.gif"",""img/Fire_Down_Distractor.gif"",""img/Fire_Down_Distractor.gif"",""img/Fire_Down_Distractor.gif"",""img/Fire_Down_Distractor.gif"",""img/Fire_Down_Distractor.gif"",""img/Fire_Down_Distractor.gif"",""img/Fire_Down_Distractor.gif"",""img/Fire_Down_Distractor.gif"",""img/Fire_Down_Distractor.gif"",""img/Fire_Down_Distractor.gif""]","targetUp_distractorsDown"
"","","","","","html-keyboard-response","206","419474","0.0-14.0-0.0-0.96","5baa8477abf2ac0001d277e5","6186fb1cc52d38b480598eb7","61871e84c1871022d5e82168","null","","null","","","","","fixation","","","",""
"","","","","","visual-search-circle","207","421488","0.0-14.0-0.0-1.96","5baa8477abf2ac0001d277e5","6186fb1cc52d38b480598eb7","61871e84c1871022d5e82168","1008.6000000238419","","d","true","[[320,599],[569,431],[548,132],[279,0],[30,168],[51,467]]","true","6","","","img/Fire_Down_Target.gif","[""img/Fire_Up_Distractor.gif"",""img/Fire_Up_Distractor.gif"",""img/Fire_Up_Distractor.gif"",""img/Fire_Up_Distractor.gif"",""img/Fire_Up_Distractor.gif"",""img/Fire_Up_Distractor.gif"",""img/Fire_Up_Distractor.gif"",""img/Fire_Up_Distractor.gif"",""img/Fire_Up_Distractor.gif"",""img/Fire_Up_Distractor.gif"",""img/Fire_Up_Distractor.gif"",""img/Fire_Up_Distractor.gif""]","targetDown_distractorsUp"
"","","","","","html-keyboard-response","208","421490","0.0-14.0-0.0-0.97","5baa8477abf2ac0001d277e5","6186fb1cc52d38b480598eb7","61871e84c1871022d5e82168","null","","null","","","","","fixation","","","",""
"","","","","","visual-search-circle","209","423340","0.0-14.0-0.0-1.97","5baa8477abf2ac0001d277e5","6186fb1cc52d38b480598eb7","61871e84c1871022d5e82168","838.3999999761581","","d","true","[[397,583],[583,202],[202,16],[16,397]]","true","4","","","img/Fire_Down_Target.gif","[""img/Fire_Up_Distractor.gif"",""img/Fire_Up_Distractor.gif"",""img/Fire_Up_Distractor.gif"",""img/Fire_Up_Distractor.gif"",""img/Fire_Up_Distractor.gif"",""img/Fire_Up_Distractor.gif"",""img/Fire_Up_Distractor.gif"",""img/Fire_Up_Distractor.gif"",""img/Fire_Up_Distractor.gif"",""img/Fire_Up_Distractor.gif"",""img/Fire_Up_Distractor.gif"",""img/Fire_Up_Distractor.gif""]","targetDown_distractorsUp"
"","","","","","html-keyboard-response","210","423341","0.0-14.0-0.0-0.98","5baa8477abf2ac0001d277e5","6186fb1cc52d38b480598eb7","61871e84c1871022d5e82168","null","","null","","","","","fixation","","","",""
"","","","","","visual-search-circle","211","427700","0.0-14.0-0.0-1.98","5baa8477abf2ac0001d277e5","6186fb1cc52d38b480598eb7","61871e84c1871022d5e82168","3345.2999999523163","","d","true","[[533,488],[598,268],[488,66],[268,1],[66,111],[1,331],[111,533],[331,598]]","true","8","","","img/Fire_Down_Target.gif","[""img/Fire_Up_Distractor.gif"",""img/Fire_Up_Distractor.gif"",""img/Fire_Up_Distractor.gif"",""img/Fire_Up_Distractor.gif"",""img/Fire_Up_Distractor.gif"",""img/Fire_Up_Distractor.gif"",""img/Fire_Up_Distractor.gif"",""img/Fire_Up_Distractor.gif"",""img/Fire_Up_Distractor.gif"",""img/Fire_Up_Distractor.gif"",""img/Fire_Up_Distractor.gif"",""img/Fire_Up_Distractor.gif""]","targetDown_distractorsUp"
"","","","","","html-keyboard-response","212","428502","0.0-14.0-0.0-0.99","5baa8477abf2ac0001d277e5","6186fb1cc52d38b480598eb7","61871e84c1871022d5e82168","802.2999999523163","Wow! You've completed 100 out of 120 trials! </p> <p>  </p><p> Take a quick break, then press any key when you're ready to continue.","d","","","","","fixation","","","",""
"","","","","","visual-search-circle","213","430688","0.0-14.0-0.0-1.99","5baa8477abf2ac0001d277e5","6186fb1cc52d38b480598eb7","61871e84c1871022d5e82168","1173.6000000238419","","d","true","[[107,70],[21,412],[320,599],[591,372],[458,45]]","true","5","","","img/Fire_Up_Target.gif","[""img/Fire_Down_Distractor.gif"",""img/Fire_Down_Distractor.gif"",""img/Fire_Down_Distractor.gif"",""img/Fire_Down_Distractor.gif"",""img/Fire_Down_Distractor.gif"",""img/Fire_Down_Distractor.gif"",""img/Fire_Down_Distractor.gif"",""img/Fire_Down_Distractor.gif"",""img/Fire_Down_Distractor.gif"",""img/Fire_Down_Distractor.gif"",""img/Fire_Down_Distractor.gif"",""img/Fire_Down_Distractor.gif""]","targetUp_distractorsDown"
"","","","","","html-keyboard-response","214","430689","0.0-14.0-0.0-0.100","5baa8477abf2ac0001d277e5","6186fb1cc52d38b480598eb7","61871e84c1871022d5e82168","null","","null","","","","","fixation","","","",""
"","","","","","visual-search-circle","215","432680","0.0-14.0-0.0-1.100","5baa8477abf2ac0001d277e5","6186fb1cc52d38b480598eb7","61871e84c1871022d5e82168","973.5","","s","true","[[222,589],[589,377],[377,10],[10,222]]","false","4","","","img/Fire_Down_Target.gif","[""img/Fire_Up_Distractor.gif"",""img/Fire_Up_Distractor.gif"",""img/Fire_Up_Distractor.gif"",""img/Fire_Up_Distractor.gif"",""img/Fire_Up_Distractor.gif"",""img/Fire_Up_Distractor.gif"",""img/Fire_Up_Distractor.gif"",""img/Fire_Up_Distractor.gif"",""img/Fire_Up_Distractor.gif"",""img/Fire_Up_Distractor.gif"",""img/Fire_Up_Distractor.gif"",""img/Fire_Up_Distractor.gif""]","targetDown_distractorsUp"
"","","","","","html-keyboard-response","216","432682","0.0-14.0-0.0-0.101","5baa8477abf2ac0001d277e5","6186fb1cc52d38b480598eb7","61871e84c1871022d5e82168","null","","null","","","","","fixation","","","",""
"","","","","","visual-search-circle","217","434603","0.0-14.0-0.0-1.101","5baa8477abf2ac0001d277e5","6186fb1cc52d38b480598eb7","61871e84c1871022d5e82168","903.2999999523163","","d","true","[[177,574],[407,580],[574,422],[580,192],[422,25],[192,19],[25,177],[19,407]]","true","8","","","img/Fire_Down_Target.gif","[""img/Fire_Up_Distractor.gif"",""img/Fire_Up_Distractor.gif"",""img/Fire_Up_Distractor.gif"",""img/Fire_Up_Distractor.gif"",""img/Fire_Up_Distractor.gif"",""img/Fire_Up_Distractor.gif"",""img/Fire_Up_Distractor.gif"",""img/Fire_Up_Distractor.gif"",""img/Fire_Up_Distractor.gif"",""img/Fire_Up_Distractor.gif"",""img/Fire_Up_Distractor.gif"",""img/Fire_Up_Distractor.gif""]","targetDown_distractorsUp"
"","","","","","html-keyboard-response","218","434604","0.0-14.0-0.0-0.102","5baa8477abf2ac0001d277e5","6186fb1cc52d38b480598eb7","61871e84c1871022d5e82168","null","","null","","","","","fixation","","","",""
"","","","","","visual-search-circle","219","437058","0.0-14.0-0.0-1.102","5baa8477abf2ac0001d277e5","6186fb1cc52d38b480598eb7","61871e84c1871022d5e82168","1437.1000000238419","","d","true","[[207,14],[14,392],[392,585],[585,207]]","true","4","","","img/Fire_Down_Target.gif","[""img/Fire_Up_Distractor.gif"",""img/Fire_Up_Distractor.gif"",""img/Fire_Up_Distractor.gif"",""img/Fire_Up_Distractor.gif"",""img/Fire_Up_Distractor.gif"",""img/Fire_Up_Distractor.gif"",""img/Fire_Up_Distractor.gif"",""img/Fire_Up_Distractor.gif"",""img/Fire_Up_Distractor.gif"",""img/Fire_Up_Distractor.gif"",""img/Fire_Up_Distractor.gif"",""img/Fire_Up_Distractor.gif""]","targetDown_distractorsUp"
"","","","","","html-keyboard-response","220","437060","0.0-14.0-0.0-0.103","5baa8477abf2ac0001d277e5","6186fb1cc52d38b480598eb7","61871e84c1871022d5e82168","null","","null","","","","","fixation","","","",""
"","","","","","visual-search-circle","221","439055","0.0-14.0-0.0-1.103","5baa8477abf2ac0001d277e5","6186fb1cc52d38b480598eb7","61871e84c1871022d5e82168","993","","d","true","[[476,57],[123,57],[14,392],[299,600],[585,392]]","true","5","","","img/Fire_Down_Target.gif","[""img/Fire_Up_Distractor.gif"",""img/Fire_Up_Distractor.gif"",""img/Fire_Up_Distractor.gif"",""img/Fire_Up_Distractor.gif"",""img/Fire_Up_Distractor.gif"",""img/Fire_Up_Distractor.gif"",""img/Fire_Up_Distractor.gif"",""img/Fire_Up_Distractor.gif"",""img/Fire_Up_Distractor.gif"",""img/Fire_Up_Distractor.gif"",""img/Fire_Up_Distractor.gif"",""img/Fire_Up_Distractor.gif""]","targetDown_distractorsUp"
