"success","timeout","failed_images","failed_audio","failed_video","trial_type","trial_index","time_elapsed","internal_node_id","subject_id","study_id","session_id","rt","stimulus","response","correct","locations","target_present","set_size","task","correct_response","target","foilCM","searchCondition"
"true","false","[]","[]","[]","preload","0","51872","0.0-0.0","5c55007647e6020001de175b","6186fb1cc52d38b480598eb7","6187176481163d84519c61c0","","","","","","","","","","","",""
"true","","","","","fullscreen","1","61743","0.0-1.0","5c55007647e6020001de175b","6186fb1cc52d38b480598eb7","6187176481163d84519c61c0","","","","","","","","","","","",""
"","","","","","html-keyboard-response","2","71814","0.0-2.0","5c55007647e6020001de175b","6186fb1cc52d38b480598eb7","6187176481163d84519c61c0","10068.60000038147","What a beautiful Saturday to do some awesome science! </p> <p>  </p><p> </p>
    By completing this survey or questionnaire, you are consenting to be in this research study. </p>
    Your participation is voluntary and you can stop at any time.
    <p> [Press any key to continue.] </p>
    
    ","enter","","","","","","","","",""
"","","","","","video-keyboard-response","3","150298","0.0-3.0","5c55007647e6020001de175b","6186fb1cc52d38b480598eb7","6187176481163d84519c61c0","78476.19999980927","[""video/TaskInstructions.mp4""]","enter","","","","","","","","",""
"","","","","","html-keyboard-response","4","159063","0.0-4.0","5c55007647e6020001de175b","6186fb1cc52d38b480598eb7","6187176481163d84519c61c0","8774.599999904633","
    <p>First, we're going to do a few practice trials to make sure you understand the task. You will recieve feedback on each trial. </p>

    <p>[Press any key to begin the familiarization phase.]</p>
    ","enter","","","","","","","","",""
"","","","","","visual-search-circle","5","164225","0.0-5.0-0.0","5c55007647e6020001de175b","6186fb1cc52d38b480598eb7","6187176481163d84519c61c0","4094.1000003814697","","d","true","[[145,557],[557,454],[454,42],[42,145]]","true","4","training","d","","",""
"","","","","","html-keyboard-response","6","168356","0.0-6.0","5c55007647e6020001de175b","6186fb1cc52d38b480598eb7","6187176481163d84519c61c0","4129.199999809265"," <div style='float: center; '><img src='img/feedbackRight.png'></img> </div> ","enter","","","","","","","","",""
"","","","","","visual-search-circle","7","172787","0.0-7.0-0.0","5c55007647e6020001de175b","6186fb1cc52d38b480598eb7","6187176481163d84519c61c0","3421.7000002861023","","d","false","[[268,1],[1,331],[331,598],[598,268]]","false","4","training","s","","",""
"","","","","","html-keyboard-response","8","174095","0.0-8.0","5c55007647e6020001de175b","6186fb1cc52d38b480598eb7","6187176481163d84519c61c0","1304.3000001907349"," <div style='float: center;'><img src='img/feedbackWrong.png'></img> </div> ","enter","","","","","","","","",""
"","","","","","visual-search-circle","9","178585","0.0-9.0-0.0","5c55007647e6020001de175b","6186fb1cc52d38b480598eb7","6187176481163d84519c61c0","3476.0999999046326","","d","false","[[16,397],[242,594],[526,496],[583,202],[357,5],[73,103]]","false","6","training","s","","",""
"","","","","","html-keyboard-response","10","179525","0.0-10.0","5c55007647e6020001de175b","6186fb1cc52d38b480598eb7","6187176481163d84519c61c0","938.0999999046326"," <div style='float: center;'><img src='img/feedbackWrong.png'></img> </div> ","enter","","","","","","","","",""
"","","","","","visual-search-circle","11","183766","0.0-11.0-0.0","5c55007647e6020001de175b","6186fb1cc52d38b480598eb7","6187176481163d84519c61c0","3227.5999999046326","","s","false","[[279,599],[496,526],[599,320],[526,103],[320,0],[103,73],[0,279],[73,496]]","true","8","training","d","","",""
"","","","","","html-keyboard-response","12","186808","0.0-12.0","5c55007647e6020001de175b","6186fb1cc52d38b480598eb7","6187176481163d84519c61c0","3040.0999999046326"," <div style='float: center;'><img src='img/feedbackWrong.png'></img> </div> ","enter","","","","","","","","",""
"","","","","","video-keyboard-response","13","204897","0.0-13.0","5c55007647e6020001de175b","6186fb1cc52d38b480598eb7","6187176481163d84519c61c0","18083.099999904633","[""video/endTraining.mp4""]","enter","","","","","","","","",""
"","","","","","html-keyboard-response","14","204914","0.0-14.0-0.0-0.0","5c55007647e6020001de175b","6186fb1cc52d38b480598eb7","6187176481163d84519c61c0","null","","null","","","","","fixation","","","",""
"","","","","","visual-search-circle","15","210190","0.0-14.0-0.0-1.0","5c55007647e6020001de175b","6186fb1cc52d38b480598eb7","6187176481163d84519c61c0","4268.099999904633","","d","true","[[192,580],[580,407],[407,19],[19,192]]","true","4","","","img/Fire_Down_Target.gif","[""img/Fire_Up_Distractor.gif"",""img/Fire_Up_Distractor.gif"",""img/Fire_Up_Distractor.gif"",""img/Fire_Up_Distractor.gif"",""img/Fire_Up_Distractor.gif"",""img/Fire_Up_Distractor.gif"",""img/Fire_Up_Distractor.gif"",""img/Fire_Up_Distractor.gif"",""img/Fire_Up_Distractor.gif"",""img/Fire_Up_Distractor.gif"",""img/Fire_Up_Distractor.gif"",""img/Fire_Up_Distractor.gif""]","targetDown_distractorsUp"
"","","","","","html-keyboard-response","16","210242","0.0-14.0-0.0-0.1","5c55007647e6020001de175b","6186fb1cc52d38b480598eb7","6187176481163d84519c61c0","null","","null","","","","","fixation","","","",""
"","","","","","visual-search-circle","17","214321","0.0-14.0-0.0-1.1","5c55007647e6020001de175b","6186fb1cc52d38b480598eb7","6187176481163d84519c61c0","3043.2999997138977","","s","true","[[522,500],[599,284],[500,77],[284,0],[77,99],[0,315],[99,522],[315,599]]","false","8","","","img/Fire_Down_Target.gif","[""img/Fire_Up_Distractor.gif"",""img/Fire_Up_Distractor.gif"",""img/Fire_Up_Distractor.gif"",""img/Fire_Up_Distractor.gif"",""img/Fire_Up_Distractor.gif"",""img/Fire_Up_Distractor.gif"",""img/Fire_Up_Distractor.gif"",""img/Fire_Up_Distractor.gif"",""img/Fire_Up_Distractor.gif"",""img/Fire_Up_Distractor.gif"",""img/Fire_Up_Distractor.gif"",""img/Fire_Up_Distractor.gif""]","targetDown_distractorsUp"
"","","","","","html-keyboard-response","18","214332","0.0-14.0-0.0-0.2","5c55007647e6020001de175b","6186fb1cc52d38b480598eb7","6187176481163d84519c61c0","null","","null","","","","","fixation","","","",""
"","","","","","visual-search-circle","19","217816","0.0-14.0-0.0-1.2","5c55007647e6020001de175b","6186fb1cc52d38b480598eb7","6187176481163d84519c61c0","2466.800000190735","","d","true","[[450,40],[40,150],[149,559],[559,450]]","true","4","","","img/Fire_Down_Target.gif","[""img/Fire_Up_Distractor.gif"",""img/Fire_Up_Distractor.gif"",""img/Fire_Up_Distractor.gif"",""img/Fire_Up_Distractor.gif"",""img/Fire_Up_Distractor.gif"",""img/Fire_Up_Distractor.gif"",""img/Fire_Up_Distractor.gif"",""img/Fire_Up_Distractor.gif"",""img/Fire_Up_Distractor.gif"",""img/Fire_Up_Distractor.gif"",""img/Fire_Up_Distractor.gif"",""img/Fire_Up_Distractor.gif""]","targetDown_distractorsUp"
"","","","","","html-keyboard-response","20","217839","0.0-14.0-0.0-0.3","5c55007647e6020001de175b","6186fb1cc52d38b480598eb7","6187176481163d84519c61c0","null","","null","","","","","fixation","","","",""
"","","","","","visual-search-circle","21","222045","0.0-14.0-0.0-1.3","5c55007647e6020001de175b","6186fb1cc52d38b480598eb7","6187176481163d84519c61c0","3168.0999999046326","","d","false","[[588,382],[562,154],[382,11],[154,37],[11,217],[37,445],[217,588],[445,562]]","false","8","","","img/Fire_Down_Target.gif","[""img/Fire_Up_Distractor.gif"",""img/Fire_Up_Distractor.gif"",""img/Fire_Up_Distractor.gif"",""img/Fire_Up_Distractor.gif"",""img/Fire_Up_Distractor.gif"",""img/Fire_Up_Distractor.gif"",""img/Fire_Up_Distractor.gif"",""img/Fire_Up_Distractor.gif"",""img/Fire_Up_Distractor.gif"",""img/Fire_Up_Distractor.gif"",""img/Fire_Up_Distractor.gif"",""img/Fire_Up_Distractor.gif""]","targetDown_distractorsUp"
"","","","","","html-keyboard-response","22","222048","0.0-14.0-0.0-0.4","5c55007647e6020001de175b","6186fb1cc52d38b480598eb7","6187176481163d84519c61c0","null","","null","","","","","fixation","","","",""
"","","","","","visual-search-circle","23","226890","0.0-14.0-0.0-1.4","5c55007647e6020001de175b","6186fb1cc52d38b480598eb7","6187176481163d84519c61c0","3834.1000003814697","","s","true","[[397,583],[583,202],[202,16],[16,397]]","false","4","","","img/Fire_Down_Target.gif","[""img/Fire_Up_Distractor.gif"",""img/Fire_Up_Distractor.gif"",""img/Fire_Up_Distractor.gif"",""img/Fire_Up_Distractor.gif"",""img/Fire_Up_Distractor.gif"",""img/Fire_Up_Distractor.gif"",""img/Fire_Up_Distractor.gif"",""img/Fire_Up_Distractor.gif"",""img/Fire_Up_Distractor.gif"",""img/Fire_Up_Distractor.gif"",""img/Fire_Up_Distractor.gif"",""img/Fire_Up_Distractor.gif""]","targetDown_distractorsUp"
"","","","","","html-keyboard-response","24","226895","0.0-14.0-0.0-0.5","5c55007647e6020001de175b","6186fb1cc52d38b480598eb7","6187176481163d84519c61c0","null","","null","","","","","fixation","","","",""
"","","","","","visual-search-circle","25","232627","0.0-14.0-0.0-1.5","5c55007647e6020001de175b","6186fb1cc52d38b480598eb7","6187176481163d84519c61c0","4715.599999904633","","s","true","[[336,2],[89,85],[1,330],[137,552],[396,584],[582,401],[555,142]]","false","7","","","img/Fire_Up_Target.gif","[""img/Fire_Down_Distractor.gif"",""img/Fire_Down_Distractor.gif"",""img/Fire_Down_Distractor.gif"",""img/Fire_Down_Distractor.gif"",""img/Fire_Down_Distractor.gif"",""img/Fire_Down_Distractor.gif"",""img/Fire_Down_Distractor.gif"",""img/Fire_Down_Distractor.gif"",""img/Fire_Down_Distractor.gif"",""img/Fire_Down_Distractor.gif"",""img/Fire_Down_Distractor.gif"",""img/Fire_Down_Distractor.gif""]","targetUp_distractorsDown"
"","","","","","html-keyboard-response","26","232631","0.0-14.0-0.0-0.6","5c55007647e6020001de175b","6186fb1cc52d38b480598eb7","6187176481163d84519c61c0","null","","null","","","","","fixation","","","",""
"","","","","","visual-search-circle","27","237850","0.0-14.0-0.0-1.6","5c55007647e6020001de175b","6186fb1cc52d38b480598eb7","6187176481163d84519c61c0","4208","","s","true","[[13,387],[294,599],[583,397],[480,60],[127,54]]","false","5","","","img/Fire_Down_Target.gif","[""img/Fire_Up_Distractor.gif"",""img/Fire_Up_Distractor.gif"",""img/Fire_Up_Distractor.gif"",""img/Fire_Up_Distractor.gif"",""img/Fire_Up_Distractor.gif"",""img/Fire_Up_Distractor.gif"",""img/Fire_Up_Distractor.gif"",""img/Fire_Up_Distractor.gif"",""img/Fire_Up_Distractor.gif"",""img/Fire_Up_Distractor.gif"",""img/Fire_Up_Distractor.gif"",""img/Fire_Up_Distractor.gif""]","targetDown_distractorsUp"
"","","","","","html-keyboard-response","28","237872","0.0-14.0-0.0-0.7","5c55007647e6020001de175b","6186fb1cc52d38b480598eb7","6187176481163d84519c61c0","null","","null","","","","","fixation","","","",""
"","","","","","visual-search-circle","29","240818","0.0-14.0-0.0-1.7","5c55007647e6020001de175b","6186fb1cc52d38b480598eb7","6187176481163d84519c61c0","1927.1999998092651","","d","true","[[592,232],[326,1],[23,182],[103,526],[454,557]]","true","5","","","img/Fire_Up_Target.gif","[""img/Fire_Down_Distractor.gif"",""img/Fire_Down_Distractor.gif"",""img/Fire_Down_Distractor.gif"",""img/Fire_Down_Distractor.gif"",""img/Fire_Down_Distractor.gif"",""img/Fire_Down_Distractor.gif"",""img/Fire_Down_Distractor.gif"",""img/Fire_Down_Distractor.gif"",""img/Fire_Down_Distractor.gif"",""img/Fire_Down_Distractor.gif"",""img/Fire_Down_Distractor.gif"",""img/Fire_Down_Distractor.gif""]","targetUp_distractorsDown"
"","","","","","html-keyboard-response","30","240825","0.0-14.0-0.0-0.8","5c55007647e6020001de175b","6186fb1cc52d38b480598eb7","6187176481163d84519c61c0","null","","null","","","","","fixation","","","",""
"","","","","","visual-search-circle","31","245976","0.0-14.0-0.0-1.8","5c55007647e6020001de175b","6186fb1cc52d38b480598eb7","6187176481163d84519c61c0","4143.400000095367","","d","true","[[119,60],[60,480],[480,539],[539,119]]","true","4","","","img/Fire_Down_Target.gif","[""img/Fire_Up_Distractor.gif"",""img/Fire_Up_Distractor.gif"",""img/Fire_Up_Distractor.gif"",""img/Fire_Up_Distractor.gif"",""img/Fire_Up_Distractor.gif"",""img/Fire_Up_Distractor.gif"",""img/Fire_Up_Distractor.gif"",""img/Fire_Up_Distractor.gif"",""img/Fire_Up_Distractor.gif"",""img/Fire_Up_Distractor.gif"",""img/Fire_Up_Distractor.gif"",""img/Fire_Up_Distractor.gif""]","targetDown_distractorsUp"
"","","","","","html-keyboard-response","32","245982","0.0-14.0-0.0-0.9","5c55007647e6020001de175b","6186fb1cc52d38b480598eb7","6187176481163d84519c61c0","null","","null","","","","","fixation","","","",""
"","","","","","visual-search-circle","33","252267","0.0-14.0-0.0-1.9","5c55007647e6020001de175b","6186fb1cc52d38b480598eb7","6187176481163d84519c61c0","5272.60000038147","","d","true","[[222,10],[40,150],[10,377],[149,559],[377,589],[559,450],[589,222],[449,40]]","true","8","","","img/Fire_Down_Target.gif","[""img/Fire_Up_Distractor.gif"",""img/Fire_Up_Distractor.gif"",""img/Fire_Up_Distractor.gif"",""img/Fire_Up_Distractor.gif"",""img/Fire_Up_Distractor.gif"",""img/Fire_Up_Distractor.gif"",""img/Fire_Up_Distractor.gif"",""img/Fire_Up_Distractor.gif"",""img/Fire_Up_Distractor.gif"",""img/Fire_Up_Distractor.gif"",""img/Fire_Up_Distractor.gif"",""img/Fire_Up_Distractor.gif""]","targetDown_distractorsUp"
"","","","","","html-keyboard-response","34","252271","0.0-14.0-0.0-0.10","5c55007647e6020001de175b","6186fb1cc52d38b480598eb7","6187176481163d84519c61c0","null","","null","","","","","fixation","","","",""
"","","","","","visual-search-circle","35","256878","0.0-14.0-0.0-1.10","5c55007647e6020001de175b","6186fb1cc52d38b480598eb7","6187176481163d84519c61c0","3585.2000002861023","","s","true","[[467,51],[242,5],[51,132],[5,357],[132,548],[357,594],[548,467],[594,242]]","false","8","","","img/Fire_Down_Target.gif","[""img/Fire_Up_Distractor.gif"",""img/Fire_Up_Distractor.gif"",""img/Fire_Up_Distractor.gif"",""img/Fire_Up_Distractor.gif"",""img/Fire_Up_Distractor.gif"",""img/Fire_Up_Distractor.gif"",""img/Fire_Up_Distractor.gif"",""img/Fire_Up_Distractor.gif"",""img/Fire_Up_Distractor.gif"",""img/Fire_Up_Distractor.gif"",""img/Fire_Up_Distractor.gif"",""img/Fire_Up_Distractor.gif""]","targetDown_distractorsUp"
"","","","","","html-keyboard-response","36","256889","0.0-14.0-0.0-0.11","5c55007647e6020001de175b","6186fb1cc52d38b480598eb7","6187176481163d84519c61c0","null","","null","","","","","fixation","","","",""
"","","","","","visual-search-circle","37","261440","0.0-14.0-0.0-1.11","5c55007647e6020001de175b","6186fb1cc52d38b480598eb7","6187176481163d84519c61c0","3537.9000000953674","","d","true","[[107,70],[21,412],[320,599],[591,372],[458,45]]","true","5","","","img/Fire_Down_Target.gif","[""img/Fire_Up_Distractor.gif"",""img/Fire_Up_Distractor.gif"",""img/Fire_Up_Distractor.gif"",""img/Fire_Up_Distractor.gif"",""img/Fire_Up_Distractor.gif"",""img/Fire_Up_Distractor.gif"",""img/Fire_Up_Distractor.gif"",""img/Fire_Up_Distractor.gif"",""img/Fire_Up_Distractor.gif"",""img/Fire_Up_Distractor.gif"",""img/Fire_Up_Distractor.gif"",""img/Fire_Up_Distractor.gif""]","targetDown_distractorsUp"
"","","","","","html-keyboard-response","38","261459","0.0-14.0-0.0-0.12","5c55007647e6020001de175b","6186fb1cc52d38b480598eb7","6187176481163d84519c61c0","null","","null","","","","","fixation","","","",""
"","","","","","visual-search-circle","39","266977","0.0-14.0-0.0-1.12","5c55007647e6020001de175b","6186fb1cc52d38b480598eb7","6187176481163d84519c61c0","4496","","d","true","[[145,42],[7,367],[273,598],[576,417],[496,73]]","true","5","","","img/Fire_Down_Target.gif","[""img/Fire_Up_Distractor.gif"",""img/Fire_Up_Distractor.gif"",""img/Fire_Up_Distractor.gif"",""img/Fire_Up_Distractor.gif"",""img/Fire_Up_Distractor.gif"",""img/Fire_Up_Distractor.gif"",""img/Fire_Up_Distractor.gif"",""img/Fire_Up_Distractor.gif"",""img/Fire_Up_Distractor.gif"",""img/Fire_Up_Distractor.gif"",""img/Fire_Up_Distractor.gif"",""img/Fire_Up_Distractor.gif""]","targetDown_distractorsUp"
"","","","","","html-keyboard-response","40","266981","0.0-14.0-0.0-0.13","5c55007647e6020001de175b","6186fb1cc52d38b480598eb7","6187176481163d84519c61c0","null","","null","","","","","fixation","","","",""
"","","","","","visual-search-circle","41","270018","0.0-14.0-0.0-1.13","5c55007647e6020001de175b","6186fb1cc52d38b480598eb7","6187176481163d84519c61c0","2016.7999997138977","","s","false","[[472,54],[173,28],[1,273],[127,545],[426,571],[598,326]]","true","6","","","img/Fire_Up_Target.gif","[""img/Fire_Down_Distractor.gif"",""img/Fire_Down_Distractor.gif"",""img/Fire_Down_Distractor.gif"",""img/Fire_Down_Distractor.gif"",""img/Fire_Down_Distractor.gif"",""img/Fire_Down_Distractor.gif"",""img/Fire_Down_Distractor.gif"",""img/Fire_Down_Distractor.gif"",""img/Fire_Down_Distractor.gif"",""img/Fire_Down_Distractor.gif"",""img/Fire_Down_Distractor.gif"",""img/Fire_Down_Distractor.gif""]","targetUp_distractorsDown"
"","","","","","html-keyboard-response","42","270040","0.0-14.0-0.0-0.14","5c55007647e6020001de175b","6186fb1cc52d38b480598eb7","6187176481163d84519c61c0","null","","null","","","","","fixation","","","",""
"","","","","","visual-search-circle","43","275880","0.0-14.0-0.0-1.14","5c55007647e6020001de175b","6186fb1cc52d38b480598eb7","6187176481163d84519c61c0","4827","","s","false","[[284,0],[55,125],[11,381],[184,576],[444,563],[595,351],[524,100]]","true","7","","","img/Fire_Up_Target.gif","[""img/Fire_Down_Distractor.gif"",""img/Fire_Down_Distractor.gif"",""img/Fire_Down_Distractor.gif"",""img/Fire_Down_Distractor.gif"",""img/Fire_Down_Distractor.gif"",""img/Fire_Down_Distractor.gif"",""img/Fire_Down_Distractor.gif"",""img/Fire_Down_Distractor.gif"",""img/Fire_Down_Distractor.gif"",""img/Fire_Down_Distractor.gif"",""img/Fire_Down_Distractor.gif"",""img/Fire_Down_Distractor.gif""]","targetUp_distractorsDown"
"","","","","","html-keyboard-response","44","275928","0.0-14.0-0.0-0.15","5c55007647e6020001de175b","6186fb1cc52d38b480598eb7","6187176481163d84519c61c0","null","","null","","","","","fixation","","","",""
"","","","","","visual-search-circle","45","281130","0.0-14.0-0.0-1.15","5c55007647e6020001de175b","6186fb1cc52d38b480598eb7","6187176481163d84519c61c0","4179.5","","s","true","[[25,177],[57,476],[331,598],[574,422],[542,123],[268,1]]","false","6","","","img/Fire_Down_Target.gif","[""img/Fire_Up_Distractor.gif"",""img/Fire_Up_Distractor.gif"",""img/Fire_Up_Distractor.gif"",""img/Fire_Up_Distractor.gif"",""img/Fire_Up_Distractor.gif"",""img/Fire_Up_Distractor.gif"",""img/Fire_Up_Distractor.gif"",""img/Fire_Up_Distractor.gif"",""img/Fire_Up_Distractor.gif"",""img/Fire_Up_Distractor.gif"",""img/Fire_Up_Distractor.gif"",""img/Fire_Up_Distractor.gif""]","targetDown_distractorsUp"
"","","","","","html-keyboard-response","46","281132","0.0-14.0-0.0-0.16","5c55007647e6020001de175b","6186fb1cc52d38b480598eb7","6187176481163d84519c61c0","null","","null","","","","","fixation","","","",""
"","","","","","visual-search-circle","47","285128","0.0-14.0-0.0-1.16","5c55007647e6020001de175b","6186fb1cc52d38b480598eb7","6187176481163d84519c61c0","2985","","d","true","[[382,11],[51,132],[63,484],[402,581],[599,289]]","true","5","","","img/Fire_Up_Target.gif","[""img/Fire_Down_Distractor.gif"",""img/Fire_Down_Distractor.gif"",""img/Fire_Down_Distractor.gif"",""img/Fire_Down_Distractor.gif"",""img/Fire_Down_Distractor.gif"",""img/Fire_Down_Distractor.gif"",""img/Fire_Down_Distractor.gif"",""img/Fire_Down_Distractor.gif"",""img/Fire_Down_Distractor.gif"",""img/Fire_Down_Distractor.gif"",""img/Fire_Down_Distractor.gif"",""img/Fire_Down_Distractor.gif""]","targetUp_distractorsDown"
"","","","","","html-keyboard-response","48","285145","0.0-14.0-0.0-0.17","5c55007647e6020001de175b","6186fb1cc52d38b480598eb7","6187176481163d84519c61c0","null","","null","","","","","fixation","","","",""
"","","","","","visual-search-circle","49","291263","0.0-14.0-0.0-1.17","5c55007647e6020001de175b","6186fb1cc52d38b480598eb7","6187176481163d84519c61c0","5108.599999904633","","d","false","[[51,467],[320,599],[569,431],[548,132],[279,0],[30,168]]","false","6","","","img/Fire_Up_Target.gif","[""img/Fire_Down_Distractor.gif"",""img/Fire_Down_Distractor.gif"",""img/Fire_Down_Distractor.gif"",""img/Fire_Down_Distractor.gif"",""img/Fire_Down_Distractor.gif"",""img/Fire_Down_Distractor.gif"",""img/Fire_Down_Distractor.gif"",""img/Fire_Down_Distractor.gif"",""img/Fire_Down_Distractor.gif"",""img/Fire_Down_Distractor.gif"",""img/Fire_Down_Distractor.gif"",""img/Fire_Down_Distractor.gif""]","targetUp_distractorsDown"
"","","","","","html-keyboard-response","50","291418","0.0-14.0-0.0-0.18","5c55007647e6020001de175b","6186fb1cc52d38b480598eb7","6187176481163d84519c61c0","null","","null","","","","","fixation","","","",""
"","","","","","visual-search-circle","51","296195","0.0-14.0-0.0-1.18","5c55007647e6020001de175b","6186fb1cc52d38b480598eb7","6187176481163d84519c61c0","3767.9000000953674","","d","true","[[95,519],[445,562],[594,242],[336,2],[28,173]]","true","5","","","img/Fire_Down_Target.gif","[""img/Fire_Up_Distractor.gif"",""img/Fire_Up_Distractor.gif"",""img/Fire_Up_Distractor.gif"",""img/Fire_Up_Distractor.gif"",""img/Fire_Up_Distractor.gif"",""img/Fire_Up_Distractor.gif"",""img/Fire_Up_Distractor.gif"",""img/Fire_Up_Distractor.gif"",""img/Fire_Up_Distractor.gif"",""img/Fire_Up_Distractor.gif"",""img/Fire_Up_Distractor.gif"",""img/Fire_Up_Distractor.gif""]","targetDown_distractorsUp"
"","","","","","html-keyboard-response","52","311416","0.0-14.0-0.0-0.19","5c55007647e6020001de175b","6186fb1cc52d38b480598eb7","6187176481163d84519c61c0","15219.5","Wow! You've completed 20 out of 120 trials! </p> <p>  </p><p> Take a quick break, then press any key when you're ready to continue.","enter","","","","","fixation","","","",""
"","","","","","visual-search-circle","53","313947","0.0-14.0-0.0-1.19","5c55007647e6020001de175b","6186fb1cc52d38b480598eb7","6187176481163d84519c61c0","1515.5","","s","false","[[458,45],[45,141],[141,554],[554,458]]","true","4","","","img/Fire_Down_Target.gif","[""img/Fire_Up_Distractor.gif"",""img/Fire_Up_Distractor.gif"",""img/Fire_Up_Distractor.gif"",""img/Fire_Up_Distractor.gif"",""img/Fire_Up_Distractor.gif"",""img/Fire_Up_Distractor.gif"",""img/Fire_Up_Distractor.gif"",""img/Fire_Up_Distractor.gif"",""img/Fire_Up_Distractor.gif"",""img/Fire_Up_Distractor.gif"",""img/Fire_Up_Distractor.gif"",""img/Fire_Up_Distractor.gif""]","targetDown_distractorsUp"
"","","","","","html-keyboard-response","54","313950","0.0-14.0-0.0-0.20","5c55007647e6020001de175b","6186fb1cc52d38b480598eb7","6187176481163d84519c61c0","null","","null","","","","","fixation","","","",""
"","","","","","visual-search-circle","55","316737","0.0-14.0-0.0-1.20","5c55007647e6020001de175b","6186fb1cc52d38b480598eb7","6187176481163d84519c61c0","1764.5999999046326","","s","false","[[320,599],[547,470],[587,213],[410,21],[151,39],[3,253],[79,502]]","true","7","","","img/Fire_Up_Target.gif","[""img/Fire_Down_Distractor.gif"",""img/Fire_Down_Distractor.gif"",""img/Fire_Down_Distractor.gif"",""img/Fire_Down_Distractor.gif"",""img/Fire_Down_Distractor.gif"",""img/Fire_Down_Distractor.gif"",""img/Fire_Down_Distractor.gif"",""img/Fire_Down_Distractor.gif"",""img/Fire_Down_Distractor.gif"",""img/Fire_Down_Distractor.gif"",""img/Fire_Down_Distractor.gif"",""img/Fire_Down_Distractor.gif""]","targetUp_distractorsDown"
"","","","","","html-keyboard-response","56","316741","0.0-14.0-0.0-0.21","5c55007647e6020001de175b","6186fb1cc52d38b480598eb7","6187176481163d84519c61c0","null","","null","","","","","fixation","","","",""
"","","","","","visual-search-circle","57","319390","0.0-14.0-0.0-1.21","5c55007647e6020001de175b","6186fb1cc52d38b480598eb7","6187176481163d84519c61c0","1637.1999998092651","","d","false","[[136,48],[10,377],[284,599],[580,407],[488,66]]","false","5","","","img/Fire_Down_Target.gif","[""img/Fire_Up_Distractor.gif"",""img/Fire_Up_Distractor.gif"",""img/Fire_Up_Distractor.gif"",""img/Fire_Up_Distractor.gif"",""img/Fire_Up_Distractor.gif"",""img/Fire_Up_Distractor.gif"",""img/Fire_Up_Distractor.gif"",""img/Fire_Up_Distractor.gif"",""img/Fire_Up_Distractor.gif"",""img/Fire_Up_Distractor.gif"",""img/Fire_Up_Distractor.gif"",""img/Fire_Up_Distractor.gif""]","targetDown_distractorsUp"
"","","","","","html-keyboard-response","58","319394","0.0-14.0-0.0-0.22","5c55007647e6020001de175b","6186fb1cc52d38b480598eb7","6187176481163d84519c61c0","null","","null","","","","","fixation","","","",""
"","","","","","visual-search-circle","59","322916","0.0-14.0-0.0-1.22","5c55007647e6020001de175b","6186fb1cc52d38b480598eb7","6187176481163d84519c61c0","2514.5","","d","false","[[581,197],[352,4],[70,107],[18,402],[247,595],[529,492]]","false","6","","","img/Fire_Down_Target.gif","[""img/Fire_Up_Distractor.gif"",""img/Fire_Up_Distractor.gif"",""img/Fire_Up_Distractor.gif"",""img/Fire_Up_Distractor.gif"",""img/Fire_Up_Distractor.gif"",""img/Fire_Up_Distractor.gif"",""img/Fire_Up_Distractor.gif"",""img/Fire_Up_Distractor.gif"",""img/Fire_Up_Distractor.gif"",""img/Fire_Up_Distractor.gif"",""img/Fire_Up_Distractor.gif"",""img/Fire_Up_Distractor.gif""]","targetDown_distractorsUp"
"","","","","","html-keyboard-response","60","322920","0.0-14.0-0.0-0.23","5c55007647e6020001de175b","6186fb1cc52d38b480598eb7","6187176481163d84519c61c0","null","","null","","","","","fixation","","","",""
"","","","","","visual-search-circle","61","327912","0.0-14.0-0.0-1.23","5c55007647e6020001de175b","6186fb1cc52d38b480598eb7","6187176481163d84519c61c0","3975.1000003814697","","d","true","[[315,599],[544,474],[588,218],[415,23],[155,36],[4,248],[75,499]]","true","7","","","img/Fire_Up_Target.gif","[""img/Fire_Down_Distractor.gif"",""img/Fire_Down_Distractor.gif"",""img/Fire_Down_Distractor.gif"",""img/Fire_Down_Distractor.gif"",""img/Fire_Down_Distractor.gif"",""img/Fire_Down_Distractor.gif"",""img/Fire_Down_Distractor.gif"",""img/Fire_Down_Distractor.gif"",""img/Fire_Down_Distractor.gif"",""img/Fire_Down_Distractor.gif"",""img/Fire_Down_Distractor.gif"",""img/Fire_Down_Distractor.gif""]","targetUp_distractorsDown"
"","","","","","html-keyboard-response","62","327978","0.0-14.0-0.0-0.24","5c55007647e6020001de175b","6186fb1cc52d38b480598eb7","6187176481163d84519c61c0","null","","null","","","","","fixation","","","",""
"","","","","","visual-search-circle","63","331383","0.0-14.0-0.0-1.24","5c55007647e6020001de175b","6186fb1cc52d38b480598eb7","6187176481163d84519c61c0","2393.9000000953674","","s","true","[[331,598],[593,362],[449,40],[99,77],[25,422]]","false","5","","","img/Fire_Up_Target.gif","[""img/Fire_Down_Distractor.gif"",""img/Fire_Down_Distractor.gif"",""img/Fire_Down_Distractor.gif"",""img/Fire_Down_Distractor.gif"",""img/Fire_Down_Distractor.gif"",""img/Fire_Down_Distractor.gif"",""img/Fire_Down_Distractor.gif"",""img/Fire_Down_Distractor.gif"",""img/Fire_Down_Distractor.gif"",""img/Fire_Down_Distractor.gif"",""img/Fire_Down_Distractor.gif"",""img/Fire_Down_Distractor.gif""]","targetUp_distractorsDown"
"","","","","","html-keyboard-response","64","331386","0.0-14.0-0.0-0.25","5c55007647e6020001de175b","6186fb1cc52d38b480598eb7","6187176481163d84519c61c0","null","","null","","","","","fixation","","","",""
"","","","","","visual-search-circle","65","336371","0.0-14.0-0.0-1.25","5c55007647e6020001de175b","6186fb1cc52d38b480598eb7","6187176481163d84519c61c0","3964.5","","d","true","[[263,2],[44,142],[17,401],[203,584],[462,552],[598,330],[510,85]]","true","7","","","img/Fire_Up_Target.gif","[""img/Fire_Down_Distractor.gif"",""img/Fire_Down_Distractor.gif"",""img/Fire_Down_Distractor.gif"",""img/Fire_Down_Distractor.gif"",""img/Fire_Down_Distractor.gif"",""img/Fire_Down_Distractor.gif"",""img/Fire_Down_Distractor.gif"",""img/Fire_Down_Distractor.gif"",""img/Fire_Down_Distractor.gif"",""img/Fire_Down_Distractor.gif"",""img/Fire_Down_Distractor.gif"",""img/Fire_Down_Distractor.gif""]","targetUp_distractorsDown"
"","","","","","html-keyboard-response","66","336379","0.0-14.0-0.0-0.26","5c55007647e6020001de175b","6186fb1cc52d38b480598eb7","6187176481163d84519c61c0","null","","null","","","","","fixation","","","",""
"","","","","","visual-search-circle","67","340343","0.0-14.0-0.0-1.26","5c55007647e6020001de175b","6186fb1cc52d38b480598eb7","6187176481163d84519c61c0","2948","","s","true","[[594,357],[357,5],[5,242],[242,594]]","false","4","","","img/Fire_Up_Target.gif","[""img/Fire_Down_Distractor.gif"",""img/Fire_Down_Distractor.gif"",""img/Fire_Down_Distractor.gif"",""img/Fire_Down_Distractor.gif"",""img/Fire_Down_Distractor.gif"",""img/Fire_Down_Distractor.gif"",""img/Fire_Down_Distractor.gif"",""img/Fire_Down_Distractor.gif"",""img/Fire_Down_Distractor.gif"",""img/Fire_Down_Distractor.gif"",""img/Fire_Down_Distractor.gif"",""img/Fire_Down_Distractor.gif""]","targetUp_distractorsDown"
"","","","","","html-keyboard-response","68","340345","0.0-14.0-0.0-0.27","5c55007647e6020001de175b","6186fb1cc52d38b480598eb7","6187176481163d84519c61c0","null","","null","","","","","fixation","","","",""
"","","","","","visual-search-circle","69","344785","0.0-14.0-0.0-1.27","5c55007647e6020001de175b","6186fb1cc52d38b480598eb7","6187176481163d84519c61c0","3422.8999996185303","","d","true","[[445,562],[594,242],[336,2],[28,173],[95,519]]","true","5","","","img/Fire_Down_Target.gif","[""img/Fire_Up_Distractor.gif"",""img/Fire_Up_Distractor.gif"",""img/Fire_Up_Distractor.gif"",""img/Fire_Up_Distractor.gif"",""img/Fire_Up_Distractor.gif"",""img/Fire_Up_Distractor.gif"",""img/Fire_Up_Distractor.gif"",""img/Fire_Up_Distractor.gif"",""img/Fire_Up_Distractor.gif"",""img/Fire_Up_Distractor.gif"",""img/Fire_Up_Distractor.gif"",""img/Fire_Up_Distractor.gif""]","targetDown_distractorsUp"
"","","","","","html-keyboard-response","70","344852","0.0-14.0-0.0-0.28","5c55007647e6020001de175b","6186fb1cc52d38b480598eb7","6187176481163d84519c61c0","null","","null","","","","","fixation","","","",""
"","","","","","visual-search-circle","71","349533","0.0-14.0-0.0-1.28","5c55007647e6020001de175b","6186fb1cc52d38b480598eb7","6187176481163d84519c61c0","3666.7000002861023","","d","false","[[73,103],[4,354],[158,564],[418,575],[589,379],[542,123],[312,0]]","false","7","","","img/Fire_Down_Target.gif","[""img/Fire_Up_Distractor.gif"",""img/Fire_Up_Distractor.gif"",""img/Fire_Up_Distractor.gif"",""img/Fire_Up_Distractor.gif"",""img/Fire_Up_Distractor.gif"",""img/Fire_Up_Distractor.gif"",""img/Fire_Up_Distractor.gif"",""img/Fire_Up_Distractor.gif"",""img/Fire_Up_Distractor.gif"",""img/Fire_Up_Distractor.gif"",""img/Fire_Up_Distractor.gif"",""img/Fire_Up_Distractor.gif""]","targetDown_distractorsUp"
"","","","","","html-keyboard-response","72","349535","0.0-14.0-0.0-0.29","5c55007647e6020001de175b","6186fb1cc52d38b480598eb7","6187176481163d84519c61c0","null","","null","","","","","fixation","","","",""
"","","","","","visual-search-circle","73","352775","0.0-14.0-0.0-1.29","5c55007647e6020001de175b","6186fb1cc52d38b480598eb7","6187176481163d84519c61c0","2224.0999999046326","","s","true","[[564,440],[554,141],[289,0],[35,159],[45,458],[310,599]]","false","6","","","img/Fire_Up_Target.gif","[""img/Fire_Down_Distractor.gif"",""img/Fire_Down_Distractor.gif"",""img/Fire_Down_Distractor.gif"",""img/Fire_Down_Distractor.gif"",""img/Fire_Down_Distractor.gif"",""img/Fire_Down_Distractor.gif"",""img/Fire_Down_Distractor.gif"",""img/Fire_Down_Distractor.gif"",""img/Fire_Down_Distractor.gif"",""img/Fire_Down_Distractor.gif"",""img/Fire_Down_Distractor.gif"",""img/Fire_Down_Distractor.gif""]","targetUp_distractorsDown"
"","","","","","html-keyboard-response","74","352779","0.0-14.0-0.0-0.30","5c55007647e6020001de175b","6186fb1cc52d38b480598eb7","6187176481163d84519c61c0","null","","null","","","","","fixation","","","",""
"","","","","","visual-search-circle","75","355309","0.0-14.0-0.0-1.30","5c55007647e6020001de175b","6186fb1cc52d38b480598eb7","6187176481163d84519c61c0","1511.8000001907349","","d","true","[[583,202],[294,0],[13,212],[127,545],[480,539]]","true","5","","","img/Fire_Up_Target.gif","[""img/Fire_Down_Distractor.gif"",""img/Fire_Down_Distractor.gif"",""img/Fire_Down_Distractor.gif"",""img/Fire_Down_Distractor.gif"",""img/Fire_Down_Distractor.gif"",""img/Fire_Down_Distractor.gif"",""img/Fire_Down_Distractor.gif"",""img/Fire_Down_Distractor.gif"",""img/Fire_Down_Distractor.gif"",""img/Fire_Down_Distractor.gif"",""img/Fire_Down_Distractor.gif"",""img/Fire_Down_Distractor.gif""]","targetUp_distractorsDown"
"","","","","","html-keyboard-response","76","355356","0.0-14.0-0.0-0.31","5c55007647e6020001de175b","6186fb1cc52d38b480598eb7","6187176481163d84519c61c0","null","","null","","","","","fixation","","","",""
"","","","","","visual-search-circle","77","358400","0.0-14.0-0.0-1.31","5c55007647e6020001de175b","6186fb1cc52d38b480598eb7","6187176481163d84519c61c0","2035.2000002861023","","s","true","[[548,132],[279,0],[30,168],[51,467],[320,599],[569,431]]","false","6","","","img/Fire_Down_Target.gif","[""img/Fire_Up_Distractor.gif"",""img/Fire_Up_Distractor.gif"",""img/Fire_Up_Distractor.gif"",""img/Fire_Up_Distractor.gif"",""img/Fire_Up_Distractor.gif"",""img/Fire_Up_Distractor.gif"",""img/Fire_Up_Distractor.gif"",""img/Fire_Up_Distractor.gif"",""img/Fire_Up_Distractor.gif"",""img/Fire_Up_Distractor.gif"",""img/Fire_Up_Distractor.gif"",""img/Fire_Up_Distractor.gif""]","targetDown_distractorsUp"
"","","","","","html-keyboard-response","78","358403","0.0-14.0-0.0-0.32","5c55007647e6020001de175b","6186fb1cc52d38b480598eb7","6187176481163d84519c61c0","null","","null","","","","","fixation","","","",""
"","","","","","visual-search-circle","79","361542","0.0-14.0-0.0-1.32","5c55007647e6020001de175b","6186fb1cc52d38b480598eb7","6187176481163d84519c61c0","2129.5999999046326","","s","false","[[57,476],[476,542],[542,123],[123,57]]","true","4","","","img/Fire_Up_Target.gif","[""img/Fire_Down_Distractor.gif"",""img/Fire_Down_Distractor.gif"",""img/Fire_Down_Distractor.gif"",""img/Fire_Down_Distractor.gif"",""img/Fire_Down_Distractor.gif"",""img/Fire_Down_Distractor.gif"",""img/Fire_Down_Distractor.gif"",""img/Fire_Down_Distractor.gif"",""img/Fire_Down_Distractor.gif"",""img/Fire_Down_Distractor.gif"",""img/Fire_Down_Distractor.gif"",""img/Fire_Down_Distractor.gif""]","targetUp_distractorsDown"
"","","","","","html-keyboard-response","80","361546","0.0-14.0-0.0-0.33","5c55007647e6020001de175b","6186fb1cc52d38b480598eb7","6187176481163d84519c61c0","null","","null","","","","","fixation","","","",""
"","","","","","visual-search-circle","81","364966","0.0-14.0-0.0-1.33","5c55007647e6020001de175b","6186fb1cc52d38b480598eb7","6187176481163d84519c61c0","2400.2999997138977","","s","false","[[28,173],[95,519],[445,562],[594,242],[336,2]]","true","5","","","img/Fire_Up_Target.gif","[""img/Fire_Down_Distractor.gif"",""img/Fire_Down_Distractor.gif"",""img/Fire_Down_Distractor.gif"",""img/Fire_Down_Distractor.gif"",""img/Fire_Down_Distractor.gif"",""img/Fire_Down_Distractor.gif"",""img/Fire_Down_Distractor.gif"",""img/Fire_Down_Distractor.gif"",""img/Fire_Down_Distractor.gif"",""img/Fire_Down_Distractor.gif"",""img/Fire_Down_Distractor.gif"",""img/Fire_Down_Distractor.gif""]","targetUp_distractorsDown"
"","","","","","html-keyboard-response","82","364997","0.0-14.0-0.0-0.34","5c55007647e6020001de175b","6186fb1cc52d38b480598eb7","6187176481163d84519c61c0","null","","null","","","","","fixation","","","",""
"","","","","","visual-search-circle","83","367829","0.0-14.0-0.0-1.34","5c55007647e6020001de175b","6186fb1cc52d38b480598eb7","6187176481163d84519c61c0","1809.5999999046326","","d","true","[[28,173],[54,472],[326,598],[571,426],[545,127],[273,1]]","true","6","","","img/Fire_Down_Target.gif","[""img/Fire_Up_Distractor.gif"",""img/Fire_Up_Distractor.gif"",""img/Fire_Up_Distractor.gif"",""img/Fire_Up_Distractor.gif"",""img/Fire_Up_Distractor.gif"",""img/Fire_Up_Distractor.gif"",""img/Fire_Up_Distractor.gif"",""img/Fire_Up_Distractor.gif"",""img/Fire_Up_Distractor.gif"",""img/Fire_Up_Distractor.gif"",""img/Fire_Up_Distractor.gif"",""img/Fire_Up_Distractor.gif""]","targetDown_distractorsUp"
"","","","","","html-keyboard-response","84","367840","0.0-14.0-0.0-0.35","5c55007647e6020001de175b","6186fb1cc52d38b480598eb7","6187176481163d84519c61c0","null","","null","","","","","fixation","","","",""
"","","","","","visual-search-circle","85","371840","0.0-14.0-0.0-1.35","5c55007647e6020001de175b","6186fb1cc52d38b480598eb7","6187176481163d84519c61c0","2980","","d","true","[[154,562],[454,557],[599,294],[445,37],[145,42],[0,305]]","true","6","","","img/Fire_Up_Target.gif","[""img/Fire_Down_Distractor.gif"",""img/Fire_Down_Distractor.gif"",""img/Fire_Down_Distractor.gif"",""img/Fire_Down_Distractor.gif"",""img/Fire_Down_Distractor.gif"",""img/Fire_Down_Distractor.gif"",""img/Fire_Down_Distractor.gif"",""img/Fire_Down_Distractor.gif"",""img/Fire_Down_Distractor.gif"",""img/Fire_Down_Distractor.gif"",""img/Fire_Down_Distractor.gif"",""img/Fire_Down_Distractor.gif""]","targetUp_distractorsDown"
"","","","","","html-keyboard-response","86","371872","0.0-14.0-0.0-0.36","5c55007647e6020001de175b","6186fb1cc52d38b480598eb7","6187176481163d84519c61c0","null","","null","","","","","fixation","","","",""
"","","","","","visual-search-circle","87","378554","0.0-14.0-0.0-1.36","5c55007647e6020001de175b","6186fb1cc52d38b480598eb7","6187176481163d84519c61c0","5662.099999904633","","s","false","[[445,562],[588,382],[562,154],[382,11],[154,37],[11,217],[37,445],[217,588]]","true","8","","","img/Fire_Up_Target.gif","[""img/Fire_Down_Distractor.gif"",""img/Fire_Down_Distractor.gif"",""img/Fire_Down_Distractor.gif"",""img/Fire_Down_Distractor.gif"",""img/Fire_Down_Distractor.gif"",""img/Fire_Down_Distractor.gif"",""img/Fire_Down_Distractor.gif"",""img/Fire_Down_Distractor.gif"",""img/Fire_Down_Distractor.gif"",""img/Fire_Down_Distractor.gif"",""img/Fire_Down_Distractor.gif"",""img/Fire_Down_Distractor.gif""]","targetUp_distractorsDown"
"","","","","","html-keyboard-response","88","378565","0.0-14.0-0.0-0.37","5c55007647e6020001de175b","6186fb1cc52d38b480598eb7","6187176481163d84519c61c0","null","","null","","","","","fixation","","","",""
"","","","","","visual-search-circle","89","381987","0.0-14.0-0.0-1.37","5c55007647e6020001de175b","6186fb1cc52d38b480598eb7","6187176481163d84519c61c0","2415.9000000953674","","d","true","[[597,336],[336,2],[2,263],[263,597]]","true","4","","","img/Fire_Up_Target.gif","[""img/Fire_Down_Distractor.gif"",""img/Fire_Down_Distractor.gif"",""img/Fire_Down_Distractor.gif"",""img/Fire_Down_Distractor.gif"",""img/Fire_Down_Distractor.gif"",""img/Fire_Down_Distractor.gif"",""img/Fire_Down_Distractor.gif"",""img/Fire_Down_Distractor.gif"",""img/Fire_Down_Distractor.gif"",""img/Fire_Down_Distractor.gif"",""img/Fire_Down_Distractor.gif"",""img/Fire_Down_Distractor.gif""]","targetUp_distractorsDown"
"","","","","","html-keyboard-response","90","382018","0.0-14.0-0.0-0.38","5c55007647e6020001de175b","6186fb1cc52d38b480598eb7","6187176481163d84519c61c0","null","","null","","","","","fixation","","","",""
"","","","","","visual-search-circle","91","384788","0.0-14.0-0.0-1.38","5c55007647e6020001de175b","6186fb1cc52d38b480598eb7","6187176481163d84519c61c0","1762.0999999046326","","s","false","[[357,5],[37,154],[80,504],[426,571],[597,263]]","true","5","","","img/Fire_Up_Target.gif","[""img/Fire_Down_Distractor.gif"",""img/Fire_Down_Distractor.gif"",""img/Fire_Down_Distractor.gif"",""img/Fire_Down_Distractor.gif"",""img/Fire_Down_Distractor.gif"",""img/Fire_Down_Distractor.gif"",""img/Fire_Down_Distractor.gif"",""img/Fire_Down_Distractor.gif"",""img/Fire_Down_Distractor.gif"",""img/Fire_Down_Distractor.gif"",""img/Fire_Down_Distractor.gif"",""img/Fire_Down_Distractor.gif""]","targetUp_distractorsDown"
"","","","","","html-keyboard-response","92","387519","0.0-14.0-0.0-0.39","5c55007647e6020001de175b","6186fb1cc52d38b480598eb7","6187176481163d84519c61c0","2729.699999809265","Wow! You've completed 40 out of 120 trials! </p> <p>  </p><p> Take a quick break, then press any key when you're ready to continue.","enter","","","","","fixation","","","",""
"","","","","","visual-search-circle","93","390936","0.0-14.0-0.0-1.39","5c55007647e6020001de175b","6186fb1cc52d38b480598eb7","6187176481163d84519c61c0","2405.800000190735","","d","false","[[595,352],[524,101],[285,0],[56,124],[11,381],[183,576],[443,563]]","false","7","","","img/Fire_Down_Target.gif","[""img/Fire_Up_Distractor.gif"",""img/Fire_Up_Distractor.gif"",""img/Fire_Up_Distractor.gif"",""img/Fire_Up_Distractor.gif"",""img/Fire_Up_Distractor.gif"",""img/Fire_Up_Distractor.gif"",""img/Fire_Up_Distractor.gif"",""img/Fire_Up_Distractor.gif"",""img/Fire_Up_Distractor.gif"",""img/Fire_Up_Distractor.gif"",""img/Fire_Up_Distractor.gif"",""img/Fire_Up_Distractor.gif""]","targetDown_distractorsUp"
"","","","","","html-keyboard-response","94","390941","0.0-14.0-0.0-0.40","5c55007647e6020001de175b","6186fb1cc52d38b480598eb7","6187176481163d84519c61c0","null","","null","","","","","fixation","","","",""
"","","","","","visual-search-circle","95","394713","0.0-14.0-0.0-1.40","5c55007647e6020001de175b","6186fb1cc52d38b480598eb7","6187176481163d84519c61c0","2751","","s","true","[[91,515],[382,588],[591,372],[508,84],[217,11],[8,227]]","false","6","","","img/Fire_Down_Target.gif","[""img/Fire_Up_Distractor.gif"",""img/Fire_Up_Distractor.gif"",""img/Fire_Up_Distractor.gif"",""img/Fire_Up_Distractor.gif"",""img/Fire_Up_Distractor.gif"",""img/Fire_Up_Distractor.gif"",""img/Fire_Up_Distractor.gif"",""img/Fire_Up_Distractor.gif"",""img/Fire_Up_Distractor.gif"",""img/Fire_Up_Distractor.gif"",""img/Fire_Up_Distractor.gif"",""img/Fire_Up_Distractor.gif""]","targetDown_distractorsUp"
"","","","","","html-keyboard-response","96","394715","0.0-14.0-0.0-0.41","5c55007647e6020001de175b","6186fb1cc52d38b480598eb7","6187176481163d84519c61c0","null","","null","","","","","fixation","","","",""
"","","","","","visual-search-circle","97","397677","0.0-14.0-0.0-1.41","5c55007647e6020001de175b","6186fb1cc52d38b480598eb7","6187176481163d84519c61c0","1952.2000002861023","","s","false","[[242,5],[51,132],[5,357],[132,548],[357,594],[548,467],[594,242],[467,51]]","true","8","","","img/Fire_Up_Target.gif","[""img/Fire_Down_Distractor.gif"",""img/Fire_Down_Distractor.gif"",""img/Fire_Down_Distractor.gif"",""img/Fire_Down_Distractor.gif"",""img/Fire_Down_Distractor.gif"",""img/Fire_Down_Distractor.gif"",""img/Fire_Down_Distractor.gif"",""img/Fire_Down_Distractor.gif"",""img/Fire_Down_Distractor.gif"",""img/Fire_Down_Distractor.gif"",""img/Fire_Down_Distractor.gif"",""img/Fire_Down_Distractor.gif""]","targetUp_distractorsDown"
"","","","","","html-keyboard-response","98","397680","0.0-14.0-0.0-0.42","5c55007647e6020001de175b","6186fb1cc52d38b480598eb7","6187176481163d84519c61c0","null","","null","","","","","fixation","","","",""
"","","","","","visual-search-circle","99","400833","0.0-14.0-0.0-1.42","5c55007647e6020001de175b","6186fb1cc52d38b480598eb7","6187176481163d84519c61c0","2145.800000190735","","d","false","[[66,488],[407,580],[599,284],[377,10],[48,136]]","false","5","","","img/Fire_Up_Target.gif","[""img/Fire_Down_Distractor.gif"",""img/Fire_Down_Distractor.gif"",""img/Fire_Down_Distractor.gif"",""img/Fire_Down_Distractor.gif"",""img/Fire_Down_Distractor.gif"",""img/Fire_Down_Distractor.gif"",""img/Fire_Down_Distractor.gif"",""img/Fire_Down_Distractor.gif"",""img/Fire_Down_Distractor.gif"",""img/Fire_Down_Distractor.gif"",""img/Fire_Down_Distractor.gif"",""img/Fire_Down_Distractor.gif""]","targetUp_distractorsDown"
"","","","","","html-keyboard-response","100","400835","0.0-14.0-0.0-0.43","5c55007647e6020001de175b","6186fb1cc52d38b480598eb7","6187176481163d84519c61c0","null","","null","","","","","fixation","","","",""
"","","","","","visual-search-circle","101","406473","0.0-14.0-0.0-1.43","5c55007647e6020001de175b","6186fb1cc52d38b480598eb7","6187176481163d84519c61c0","4623","","s","false","[[588,217],[415,22],[155,37],[4,249],[76,499],[316,599],[544,473]]","true","7","","","img/Fire_Down_Target.gif","[""img/Fire_Up_Distractor.gif"",""img/Fire_Up_Distractor.gif"",""img/Fire_Up_Distractor.gif"",""img/Fire_Up_Distractor.gif"",""img/Fire_Up_Distractor.gif"",""img/Fire_Up_Distractor.gif"",""img/Fire_Up_Distractor.gif"",""img/Fire_Up_Distractor.gif"",""img/Fire_Up_Distractor.gif"",""img/Fire_Up_Distractor.gif"",""img/Fire_Up_Distractor.gif"",""img/Fire_Up_Distractor.gif""]","targetDown_distractorsUp"
"","","","","","html-keyboard-response","102","406495","0.0-14.0-0.0-0.44","5c55007647e6020001de175b","6186fb1cc52d38b480598eb7","6187176481163d84519c61c0","null","","null","","","","","fixation","","","",""
"","","","","","visual-search-circle","103","411976","0.0-14.0-0.0-1.44","5c55007647e6020001de175b","6186fb1cc52d38b480598eb7","6187176481163d84519c61c0","4469.700000286102","","d","false","[[554,458],[458,45],[45,141],[141,554]]","false","4","","","img/Fire_Down_Target.gif","[""img/Fire_Up_Distractor.gif"",""img/Fire_Up_Distractor.gif"",""img/Fire_Up_Distractor.gif"",""img/Fire_Up_Distractor.gif"",""img/Fire_Up_Distractor.gif"",""img/Fire_Up_Distractor.gif"",""img/Fire_Up_Distractor.gif"",""img/Fire_Up_Distractor.gif"",""img/Fire_Up_Distractor.gif"",""img/Fire_Up_Distractor.gif"",""img/Fire_Up_Distractor.gif"",""img/Fire_Up_Distractor.gif""]","targetDown_distractorsUp"
"","","","","","html-keyboard-response","104","412015","0.0-14.0-0.0-0.45","5c55007647e6020001de175b","6186fb1cc52d38b480598eb7","6187176481163d84519c61c0","null","","null","","","","","fixation","","","",""
"","","","","","visual-search-circle","105","416133","0.0-14.0-0.0-1.45","5c55007647e6020001de175b","6186fb1cc52d38b480598eb7","6187176481163d84519c61c0","3108","","s","true","[[23,417],[219,588],[475,543],[599,314],[497,74],[247,4],[36,157]]","false","7","","","img/Fire_Up_Target.gif","[""img/Fire_Down_Distractor.gif"",""img/Fire_Down_Distractor.gif"",""img/Fire_Down_Distractor.gif"",""img/Fire_Down_Distractor.gif"",""img/Fire_Down_Distractor.gif"",""img/Fire_Down_Distractor.gif"",""img/Fire_Down_Distractor.gif"",""img/Fire_Down_Distractor.gif"",""img/Fire_Down_Distractor.gif"",""img/Fire_Down_Distractor.gif"",""img/Fire_Down_Distractor.gif"",""img/Fire_Down_Distractor.gif""]","targetUp_distractorsDown"
"","","","","","html-keyboard-response","106","416139","0.0-14.0-0.0-0.46","5c55007647e6020001de175b","6186fb1cc52d38b480598eb7","6187176481163d84519c61c0","null","","null","","","","","fixation","","","",""
"","","","","","visual-search-circle","107","419280","0.0-14.0-0.0-1.46","5c55007647e6020001de175b","6186fb1cc52d38b480598eb7","6187176481163d84519c61c0","2131.300000190735","","s","true","[[536,115],[115,63],[63,484],[484,536]]","false","4","","","img/Fire_Up_Target.gif","[""img/Fire_Down_Distractor.gif"",""img/Fire_Down_Distractor.gif"",""img/Fire_Down_Distractor.gif"",""img/Fire_Down_Distractor.gif"",""img/Fire_Down_Distractor.gif"",""img/Fire_Down_Distractor.gif"",""img/Fire_Down_Distractor.gif"",""img/Fire_Down_Distractor.gif"",""img/Fire_Down_Distractor.gif"",""img/Fire_Down_Distractor.gif"",""img/Fire_Down_Distractor.gif"",""img/Fire_Down_Distractor.gif""]","targetUp_distractorsDown"
"","","","","","html-keyboard-response","108","419291","0.0-14.0-0.0-0.47","5c55007647e6020001de175b","6186fb1cc52d38b480598eb7","6187176481163d84519c61c0","null","","null","","","","","fixation","","","",""
"","","","","","visual-search-circle","109","422311","0.0-14.0-0.0-1.47","5c55007647e6020001de175b","6186fb1cc52d38b480598eb7","6187176481163d84519c61c0","2000.1999998092651","","s","true","[[279,0],[73,103],[0,320],[103,526],[320,599],[526,496],[599,279],[496,73]]","false","8","","","img/Fire_Up_Target.gif","[""img/Fire_Down_Distractor.gif"",""img/Fire_Down_Distractor.gif"",""img/Fire_Down_Distractor.gif"",""img/Fire_Down_Distractor.gif"",""img/Fire_Down_Distractor.gif"",""img/Fire_Down_Distractor.gif"",""img/Fire_Down_Distractor.gif"",""img/Fire_Down_Distractor.gif"",""img/Fire_Down_Distractor.gif"",""img/Fire_Down_Distractor.gif"",""img/Fire_Down_Distractor.gif"",""img/Fire_Down_Distractor.gif""]","targetUp_distractorsDown"
"","","","","","html-keyboard-response","110","422316","0.0-14.0-0.0-0.48","5c55007647e6020001de175b","6186fb1cc52d38b480598eb7","6187176481163d84519c61c0","null","","null","","","","","fixation","","","",""
"","","","","","visual-search-circle","111","425763","0.0-14.0-0.0-1.48","5c55007647e6020001de175b","6186fb1cc52d38b480598eb7","6187176481163d84519c61c0","2438.5999999046326","","s","true","[[25,422],[224,590],[479,540],[599,308],[493,71],[242,5],[33,161]]","false","7","","","img/Fire_Up_Target.gif","[""img/Fire_Down_Distractor.gif"",""img/Fire_Down_Distractor.gif"",""img/Fire_Down_Distractor.gif"",""img/Fire_Down_Distractor.gif"",""img/Fire_Down_Distractor.gif"",""img/Fire_Down_Distractor.gif"",""img/Fire_Down_Distractor.gif"",""img/Fire_Down_Distractor.gif"",""img/Fire_Down_Distractor.gif"",""img/Fire_Down_Distractor.gif"",""img/Fire_Down_Distractor.gif"",""img/Fire_Down_Distractor.gif""]","targetUp_distractorsDown"
"","","","","","html-keyboard-response","112","425766","0.0-14.0-0.0-0.49","5c55007647e6020001de175b","6186fb1cc52d38b480598eb7","6187176481163d84519c61c0","null","","null","","","","","fixation","","","",""
"","","","","","visual-search-circle","113","428781","0.0-14.0-0.0-1.49","5c55007647e6020001de175b","6186fb1cc52d38b480598eb7","6187176481163d84519c61c0","2008.3000001907349","","d","true","[[594,357],[357,5],[5,242],[242,594]]","true","4","","","img/Fire_Down_Target.gif","[""img/Fire_Up_Distractor.gif"",""img/Fire_Up_Distractor.gif"",""img/Fire_Up_Distractor.gif"",""img/Fire_Up_Distractor.gif"",""img/Fire_Up_Distractor.gif"",""img/Fire_Up_Distractor.gif"",""img/Fire_Up_Distractor.gif"",""img/Fire_Up_Distractor.gif"",""img/Fire_Up_Distractor.gif"",""img/Fire_Up_Distractor.gif"",""img/Fire_Up_Distractor.gif"",""img/Fire_Up_Distractor.gif""]","targetDown_distractorsUp"
"","","","","","html-keyboard-response","114","428784","0.0-14.0-0.0-0.50","5c55007647e6020001de175b","6186fb1cc52d38b480598eb7","6187176481163d84519c61c0","null","","null","","","","","fixation","","","",""
"","","","","","visual-search-circle","115","434622","0.0-14.0-0.0-1.50","5c55007647e6020001de175b","6186fb1cc52d38b480598eb7","6187176481163d84519c61c0","4829.400000095367","","d","false","[[542,123],[123,57],[57,476],[476,542]]","false","4","","","img/Fire_Down_Target.gif","[""img/Fire_Up_Distractor.gif"",""img/Fire_Up_Distractor.gif"",""img/Fire_Up_Distractor.gif"",""img/Fire_Up_Distractor.gif"",""img/Fire_Up_Distractor.gif"",""img/Fire_Up_Distractor.gif"",""img/Fire_Up_Distractor.gif"",""img/Fire_Up_Distractor.gif"",""img/Fire_Up_Distractor.gif"",""img/Fire_Up_Distractor.gif"",""img/Fire_Up_Distractor.gif"",""img/Fire_Up_Distractor.gif""]","targetDown_distractorsUp"
"","","","","","html-keyboard-response","116","434624","0.0-14.0-0.0-0.51","5c55007647e6020001de175b","6186fb1cc52d38b480598eb7","6187176481163d84519c61c0","null","","null","","","","","fixation","","","",""
"","","","","","visual-search-circle","117","440664","0.0-14.0-0.0-1.51","5c55007647e6020001de175b","6186fb1cc52d38b480598eb7","6187176481163d84519c61c0","5016.700000286102","","d","true","[[70,492],[273,598],[492,529],[598,326],[529,107],[326,1],[107,70],[1,273]]","true","8","","","img/Fire_Down_Target.gif","[""img/Fire_Up_Distractor.gif"",""img/Fire_Up_Distractor.gif"",""img/Fire_Up_Distractor.gif"",""img/Fire_Up_Distractor.gif"",""img/Fire_Up_Distractor.gif"",""img/Fire_Up_Distractor.gif"",""img/Fire_Up_Distractor.gif"",""img/Fire_Up_Distractor.gif"",""img/Fire_Up_Distractor.gif"",""img/Fire_Up_Distractor.gif"",""img/Fire_Up_Distractor.gif"",""img/Fire_Up_Distractor.gif""]","targetDown_distractorsUp"
"","","","","","html-keyboard-response","118","440669","0.0-14.0-0.0-0.52","5c55007647e6020001de175b","6186fb1cc52d38b480598eb7","6187176481163d84519c61c0","null","","null","","","","","fixation","","","",""
"","","","","","visual-search-circle","119","448389","0.0-14.0-0.0-1.52","5c55007647e6020001de175b","6186fb1cc52d38b480598eb7","6187176481163d84519c61c0","6714.099999904633","","s","true","[[597,336],[426,28],[80,95],[37,445],[357,594]]","false","5","","","img/Fire_Up_Target.gif","[""img/Fire_Down_Distractor.gif"",""img/Fire_Down_Distractor.gif"",""img/Fire_Down_Distractor.gif"",""img/Fire_Down_Distractor.gif"",""img/Fire_Down_Distractor.gif"",""img/Fire_Down_Distractor.gif"",""img/Fire_Down_Distractor.gif"",""img/Fire_Down_Distractor.gif"",""img/Fire_Down_Distractor.gif"",""img/Fire_Down_Distractor.gif"",""img/Fire_Down_Distractor.gif"",""img/Fire_Down_Distractor.gif""]","targetUp_distractorsDown"
"","","","","","html-keyboard-response","120","448392","0.0-14.0-0.0-0.53","5c55007647e6020001de175b","6186fb1cc52d38b480598eb7","6187176481163d84519c61c0","null","","null","","","","","fixation","","","",""
"","","","","","visual-search-circle","121","451240","0.0-14.0-0.0-1.53","5c55007647e6020001de175b","6186fb1cc52d38b480598eb7","6187176481163d84519c61c0","1837.3999996185303","","d","true","[[8,372],[145,557],[372,591],[557,454],[591,227],[454,42],[227,8],[42,145]]","true","8","","","img/Fire_Down_Target.gif","[""img/Fire_Up_Distractor.gif"",""img/Fire_Up_Distractor.gif"",""img/Fire_Up_Distractor.gif"",""img/Fire_Up_Distractor.gif"",""img/Fire_Up_Distractor.gif"",""img/Fire_Up_Distractor.gif"",""img/Fire_Up_Distractor.gif"",""img/Fire_Up_Distractor.gif"",""img/Fire_Up_Distractor.gif"",""img/Fire_Up_Distractor.gif"",""img/Fire_Up_Distractor.gif"",""img/Fire_Up_Distractor.gif""]","targetDown_distractorsUp"
"","","","","","html-keyboard-response","122","451244","0.0-14.0-0.0-0.54","5c55007647e6020001de175b","6186fb1cc52d38b480598eb7","6187176481163d84519c61c0","null","","null","","","","","fixation","","","",""
"","","","","","visual-search-circle","123","456765","0.0-14.0-0.0-1.54","5c55007647e6020001de175b","6186fb1cc52d38b480598eb7","6187176481163d84519c61c0","4500.199999809265","","d","true","[[187,578],[447,561],[596,347],[521,98],[280,0],[53,128],[12,385]]","true","7","","","img/Fire_Down_Target.gif","[""img/Fire_Up_Distractor.gif"",""img/Fire_Up_Distractor.gif"",""img/Fire_Up_Distractor.gif"",""img/Fire_Up_Distractor.gif"",""img/Fire_Up_Distractor.gif"",""img/Fire_Up_Distractor.gif"",""img/Fire_Up_Distractor.gif"",""img/Fire_Up_Distractor.gif"",""img/Fire_Up_Distractor.gif"",""img/Fire_Up_Distractor.gif"",""img/Fire_Up_Distractor.gif"",""img/Fire_Up_Distractor.gif""]","targetDown_distractorsUp"
"","","","","","html-keyboard-response","124","456769","0.0-14.0-0.0-0.55","5c55007647e6020001de175b","6186fb1cc52d38b480598eb7","6187176481163d84519c61c0","null","","null","","","","","fixation","","","",""
"","","","","","visual-search-circle","125","462739","0.0-14.0-0.0-1.55","5c55007647e6020001de175b","6186fb1cc52d38b480598eb7","6187176481163d84519c61c0","4958.099999904633","","d","true","[[299,600],[585,392],[476,57],[123,57],[14,392]]","true","5","","","img/Fire_Down_Target.gif","[""img/Fire_Up_Distractor.gif"",""img/Fire_Up_Distractor.gif"",""img/Fire_Up_Distractor.gif"",""img/Fire_Up_Distractor.gif"",""img/Fire_Up_Distractor.gif"",""img/Fire_Up_Distractor.gif"",""img/Fire_Up_Distractor.gif"",""img/Fire_Up_Distractor.gif"",""img/Fire_Up_Distractor.gif"",""img/Fire_Up_Distractor.gif"",""img/Fire_Up_Distractor.gif"",""img/Fire_Up_Distractor.gif""]","targetDown_distractorsUp"
"","","","","","html-keyboard-response","126","462771","0.0-14.0-0.0-0.56","5c55007647e6020001de175b","6186fb1cc52d38b480598eb7","6187176481163d84519c61c0","null","","null","","","","","fixation","","","",""
"","","","","","visual-search-circle","127","467167","0.0-14.0-0.0-1.56","5c55007647e6020001de175b","6186fb1cc52d38b480598eb7","6187176481163d84519c61c0","3384.4000000953674","","s","false","[[0,305],[117,537],[371,591],[572,425],[567,165],[361,6],[108,68]]","true","7","","","img/Fire_Down_Target.gif","[""img/Fire_Up_Distractor.gif"",""img/Fire_Up_Distractor.gif"",""img/Fire_Up_Distractor.gif"",""img/Fire_Up_Distractor.gif"",""img/Fire_Up_Distractor.gif"",""img/Fire_Up_Distractor.gif"",""img/Fire_Up_Distractor.gif"",""img/Fire_Up_Distractor.gif"",""img/Fire_Up_Distractor.gif"",""img/Fire_Up_Distractor.gif"",""img/Fire_Up_Distractor.gif"",""img/Fire_Up_Distractor.gif""]","targetDown_distractorsUp"
"","","","","","html-keyboard-response","128","467187","0.0-14.0-0.0-0.57","5c55007647e6020001de175b","6186fb1cc52d38b480598eb7","6187176481163d84519c61c0","null","","null","","","","","fixation","","","",""
"","","","","","visual-search-circle","129","470899","0.0-14.0-0.0-1.57","5c55007647e6020001de175b","6186fb1cc52d38b480598eb7","6187176481163d84519c61c0","2701.5999999046326","","d","true","[[594,242],[242,5],[5,357],[357,594]]","true","4","","","img/Fire_Down_Target.gif","[""img/Fire_Up_Distractor.gif"",""img/Fire_Up_Distractor.gif"",""img/Fire_Up_Distractor.gif"",""img/Fire_Up_Distractor.gif"",""img/Fire_Up_Distractor.gif"",""img/Fire_Up_Distractor.gif"",""img/Fire_Up_Distractor.gif"",""img/Fire_Up_Distractor.gif"",""img/Fire_Up_Distractor.gif"",""img/Fire_Up_Distractor.gif"",""img/Fire_Up_Distractor.gif"",""img/Fire_Up_Distractor.gif""]","targetDown_distractorsUp"
"","","","","","html-keyboard-response","130","470905","0.0-14.0-0.0-0.58","5c55007647e6020001de175b","6186fb1cc52d38b480598eb7","6187176481163d84519c61c0","null","","null","","","","","fixation","","","",""
"","","","","","visual-search-circle","131","475364","0.0-14.0-0.0-1.58","5c55007647e6020001de175b","6186fb1cc52d38b480598eb7","6187176481163d84519c61c0","3452.9000000953674","","s","true","[[57,476],[476,542],[542,123],[123,57]]","false","4","","","img/Fire_Down_Target.gif","[""img/Fire_Up_Distractor.gif"",""img/Fire_Up_Distractor.gif"",""img/Fire_Up_Distractor.gif"",""img/Fire_Up_Distractor.gif"",""img/Fire_Up_Distractor.gif"",""img/Fire_Up_Distractor.gif"",""img/Fire_Up_Distractor.gif"",""img/Fire_Up_Distractor.gif"",""img/Fire_Up_Distractor.gif"",""img/Fire_Up_Distractor.gif"",""img/Fire_Up_Distractor.gif"",""img/Fire_Up_Distractor.gif""]","targetDown_distractorsUp"
"","","","","","html-keyboard-response","132","478911","0.0-14.0-0.0-0.59","5c55007647e6020001de175b","6186fb1cc52d38b480598eb7","6187176481163d84519c61c0","3545.7000002861023","Wow! You've completed 60 out of 120 trials! </p> <p>  </p><p> Take a quick break, then press any key when you're ready to continue.","d","","","","","fixation","","","",""
"","","","","","visual-search-circle","133","482424","0.0-14.0-0.0-1.59","5c55007647e6020001de175b","6186fb1cc52d38b480598eb7","6187176481163d84519c61c0","2500.8999996185303","","s","true","[[42,454],[454,557],[557,145],[145,42]]","false","4","","","img/Fire_Up_Target.gif","[""img/Fire_Down_Distractor.gif"",""img/Fire_Down_Distractor.gif"",""img/Fire_Down_Distractor.gif"",""img/Fire_Down_Distractor.gif"",""img/Fire_Down_Distractor.gif"",""img/Fire_Down_Distractor.gif"",""img/Fire_Down_Distractor.gif"",""img/Fire_Down_Distractor.gif"",""img/Fire_Down_Distractor.gif"",""img/Fire_Down_Distractor.gif"",""img/Fire_Down_Distractor.gif"",""img/Fire_Down_Distractor.gif""]","targetUp_distractorsDown"
"","","","","","html-keyboard-response","134","482430","0.0-14.0-0.0-0.60","5c55007647e6020001de175b","6186fb1cc52d38b480598eb7","6187176481163d84519c61c0","null","","null","","","","","fixation","","","",""
"","","","","","visual-search-circle","135","486748","0.0-14.0-0.0-1.60","5c55007647e6020001de175b","6186fb1cc52d38b480598eb7","6187176481163d84519c61c0","3309.4000000953674","","s","false","[[7,367],[212,586],[504,519],[592,232],[387,13],[95,80]]","true","6","","","img/Fire_Up_Target.gif","[""img/Fire_Down_Distractor.gif"",""img/Fire_Down_Distractor.gif"",""img/Fire_Down_Distractor.gif"",""img/Fire_Down_Distractor.gif"",""img/Fire_Down_Distractor.gif"",""img/Fire_Down_Distractor.gif"",""img/Fire_Down_Distractor.gif"",""img/Fire_Down_Distractor.gif"",""img/Fire_Down_Distractor.gif"",""img/Fire_Down_Distractor.gif"",""img/Fire_Down_Distractor.gif"",""img/Fire_Down_Distractor.gif""]","targetUp_distractorsDown"
"","","","","","html-keyboard-response","136","486767","0.0-14.0-0.0-0.61","5c55007647e6020001de175b","6186fb1cc52d38b480598eb7","6187176481163d84519c61c0","null","","null","","","","","fixation","","","",""
"","","","","","visual-search-circle","137","492679","0.0-14.0-0.0-1.61","5c55007647e6020001de175b","6186fb1cc52d38b480598eb7","6187176481163d84519c61c0","4888.800000190735","","d","false","[[141,45],[8,372],[279,599],[578,412],[492,70]]","false","5","","","img/Fire_Down_Target.gif","[""img/Fire_Up_Distractor.gif"",""img/Fire_Up_Distractor.gif"",""img/Fire_Up_Distractor.gif"",""img/Fire_Up_Distractor.gif"",""img/Fire_Up_Distractor.gif"",""img/Fire_Up_Distractor.gif"",""img/Fire_Up_Distractor.gif"",""img/Fire_Up_Distractor.gif"",""img/Fire_Up_Distractor.gif"",""img/Fire_Up_Distractor.gif"",""img/Fire_Up_Distractor.gif"",""img/Fire_Up_Distractor.gif""]","targetDown_distractorsUp"
"","","","","","html-keyboard-response","138","492696","0.0-14.0-0.0-0.62","5c55007647e6020001de175b","6186fb1cc52d38b480598eb7","6187176481163d84519c61c0","null","","null","","","","","fixation","","","",""
"","","","","","visual-search-circle","139","495553","0.0-14.0-0.0-1.62","5c55007647e6020001de175b","6186fb1cc52d38b480598eb7","6187176481163d84519c61c0","1832.0999999046326","","s","false","[[472,54],[215,12],[22,186],[38,446],[251,596],[501,522],[599,281]]","true","7","","","img/Fire_Down_Target.gif","[""img/Fire_Up_Distractor.gif"",""img/Fire_Up_Distractor.gif"",""img/Fire_Up_Distractor.gif"",""img/Fire_Up_Distractor.gif"",""img/Fire_Up_Distractor.gif"",""img/Fire_Up_Distractor.gif"",""img/Fire_Up_Distractor.gif"",""img/Fire_Up_Distractor.gif"",""img/Fire_Up_Distractor.gif"",""img/Fire_Up_Distractor.gif"",""img/Fire_Up_Distractor.gif"",""img/Fire_Up_Distractor.gif""]","targetDown_distractorsUp"
"","","","","","html-keyboard-response","140","495563","0.0-14.0-0.0-0.63","5c55007647e6020001de175b","6186fb1cc52d38b480598eb7","6187176481163d84519c61c0","null","","null","","","","","fixation","","","",""
"","","","","","visual-search-circle","141","499923","0.0-14.0-0.0-1.63","5c55007647e6020001de175b","6186fb1cc52d38b480598eb7","6187176481163d84519c61c0","3349.699999809265","","d","true","[[294,599],[531,491],[593,238],[434,32],[174,27],[8,228],[62,482]]","true","7","","","img/Fire_Up_Target.gif","[""img/Fire_Down_Distractor.gif"",""img/Fire_Down_Distractor.gif"",""img/Fire_Down_Distractor.gif"",""img/Fire_Down_Distractor.gif"",""img/Fire_Down_Distractor.gif"",""img/Fire_Down_Distractor.gif"",""img/Fire_Down_Distractor.gif"",""img/Fire_Down_Distractor.gif"",""img/Fire_Down_Distractor.gif"",""img/Fire_Down_Distractor.gif"",""img/Fire_Down_Distractor.gif"",""img/Fire_Down_Distractor.gif""]","targetUp_distractorsDown"
"","","","","","html-keyboard-response","142","499927","0.0-14.0-0.0-0.64","5c55007647e6020001de175b","6186fb1cc52d38b480598eb7","6187176481163d84519c61c0","null","","null","","","","","fixation","","","",""
"","","","","","visual-search-circle","143","507190","0.0-14.0-0.0-1.64","5c55007647e6020001de175b","6186fb1cc52d38b480598eb7","6187176481163d84519c61c0","6251.200000286102","","d","true","[[123,542],[542,476],[476,57],[57,123]]","true","4","","","img/Fire_Up_Target.gif","[""img/Fire_Down_Distractor.gif"",""img/Fire_Down_Distractor.gif"",""img/Fire_Down_Distractor.gif"",""img/Fire_Down_Distractor.gif"",""img/Fire_Down_Distractor.gif"",""img/Fire_Down_Distractor.gif"",""img/Fire_Down_Distractor.gif"",""img/Fire_Down_Distractor.gif"",""img/Fire_Down_Distractor.gif"",""img/Fire_Down_Distractor.gif"",""img/Fire_Down_Distractor.gif"",""img/Fire_Down_Distractor.gif""]","targetUp_distractorsDown"
"","","","","","html-keyboard-response","144","507194","0.0-14.0-0.0-0.65","5c55007647e6020001de175b","6186fb1cc52d38b480598eb7","6187176481163d84519c61c0","null","","null","","","","","fixation","","","",""
"","","","","","visual-search-circle","145","511714","0.0-14.0-0.0-1.65","5c55007647e6020001de175b","6186fb1cc52d38b480598eb7","6187176481163d84519c61c0","3504.5","","s","true","[[10,377],[149,559],[377,589],[559,450],[589,222],[449,40],[222,10],[40,150]]","false","8","","","img/Fire_Down_Target.gif","[""img/Fire_Up_Distractor.gif"",""img/Fire_Up_Distractor.gif"",""img/Fire_Up_Distractor.gif"",""img/Fire_Up_Distractor.gif"",""img/Fire_Up_Distractor.gif"",""img/Fire_Up_Distractor.gif"",""img/Fire_Up_Distractor.gif"",""img/Fire_Up_Distractor.gif"",""img/Fire_Up_Distractor.gif"",""img/Fire_Up_Distractor.gif"",""img/Fire_Up_Distractor.gif"",""img/Fire_Up_Distractor.gif""]","targetDown_distractorsUp"
"","","","","","html-keyboard-response","146","511718","0.0-14.0-0.0-0.66","5c55007647e6020001de175b","6186fb1cc52d38b480598eb7","6187176481163d84519c61c0","null","","null","","","","","fixation","","","",""
"","","","","","visual-search-circle","147","521515","0.0-14.0-0.0-1.66","5c55007647e6020001de175b","6186fb1cc52d38b480598eb7","6187176481163d84519c61c0","8778.299999713898","","s","true","[[279,0],[0,320],[320,599],[599,279]]","false","4","","","img/Fire_Up_Target.gif","[""img/Fire_Down_Distractor.gif"",""img/Fire_Down_Distractor.gif"",""img/Fire_Down_Distractor.gif"",""img/Fire_Down_Distractor.gif"",""img/Fire_Down_Distractor.gif"",""img/Fire_Down_Distractor.gif"",""img/Fire_Down_Distractor.gif"",""img/Fire_Down_Distractor.gif"",""img/Fire_Down_Distractor.gif"",""img/Fire_Down_Distractor.gif"",""img/Fire_Down_Distractor.gif"",""img/Fire_Down_Distractor.gif""]","targetUp_distractorsDown"
"","","","","","html-keyboard-response","148","521518","0.0-14.0-0.0-0.67","5c55007647e6020001de175b","6186fb1cc52d38b480598eb7","6187176481163d84519c61c0","null","","null","","","","","fixation","","","",""
"","","","","","visual-search-circle","149","526895","0.0-14.0-0.0-1.67","5c55007647e6020001de175b","6186fb1cc52d38b480598eb7","6187176481163d84519c61c0","4357.900000095367","","s","true","[[392,585],[585,207],[207,14],[14,392]]","false","4","","","img/Fire_Up_Target.gif","[""img/Fire_Down_Distractor.gif"",""img/Fire_Down_Distractor.gif"",""img/Fire_Down_Distractor.gif"",""img/Fire_Down_Distractor.gif"",""img/Fire_Down_Distractor.gif"",""img/Fire_Down_Distractor.gif"",""img/Fire_Down_Distractor.gif"",""img/Fire_Down_Distractor.gif"",""img/Fire_Down_Distractor.gif"",""img/Fire_Down_Distractor.gif"",""img/Fire_Down_Distractor.gif"",""img/Fire_Down_Distractor.gif""]","targetUp_distractorsDown"
"","","","","","html-keyboard-response","150","526900","0.0-14.0-0.0-0.68","5c55007647e6020001de175b","6186fb1cc52d38b480598eb7","6187176481163d84519c61c0","null","","null","","","","","fixation","","","",""
"","","","","","visual-search-circle","151","530400","0.0-14.0-0.0-1.68","5c55007647e6020001de175b","6186fb1cc52d38b480598eb7","6187176481163d84519c61c0","2476.199999809265","","d","false","[[545,127],[273,1],[28,173],[54,472],[326,598],[571,426]]","false","6","","","img/Fire_Down_Target.gif","[""img/Fire_Up_Distractor.gif"",""img/Fire_Up_Distractor.gif"",""img/Fire_Up_Distractor.gif"",""img/Fire_Up_Distractor.gif"",""img/Fire_Up_Distractor.gif"",""img/Fire_Up_Distractor.gif"",""img/Fire_Up_Distractor.gif"",""img/Fire_Up_Distractor.gif"",""img/Fire_Up_Distractor.gif"",""img/Fire_Up_Distractor.gif"",""img/Fire_Up_Distractor.gif"",""img/Fire_Up_Distractor.gif""]","targetDown_distractorsUp"
"","","","","","html-keyboard-response","152","530404","0.0-14.0-0.0-0.69","5c55007647e6020001de175b","6186fb1cc52d38b480598eb7","6187176481163d84519c61c0","null","","null","","","","","fixation","","","",""
"","","","","","visual-search-circle","153","536105","0.0-14.0-0.0-1.69","5c55007647e6020001de175b","6186fb1cc52d38b480598eb7","6187176481163d84519c61c0","4683.300000190735","","s","true","[[581,197],[289,0],[11,217],[132,548],[484,536]]","false","5","","","img/Fire_Up_Target.gif","[""img/Fire_Down_Distractor.gif"",""img/Fire_Down_Distractor.gif"",""img/Fire_Down_Distractor.gif"",""img/Fire_Down_Distractor.gif"",""img/Fire_Down_Distractor.gif"",""img/Fire_Down_Distractor.gif"",""img/Fire_Down_Distractor.gif"",""img/Fire_Down_Distractor.gif"",""img/Fire_Down_Distractor.gif"",""img/Fire_Down_Distractor.gif"",""img/Fire_Down_Distractor.gif"",""img/Fire_Down_Distractor.gif""]","targetUp_distractorsDown"
"","","","","","html-keyboard-response","154","536108","0.0-14.0-0.0-0.70","5c55007647e6020001de175b","6186fb1cc52d38b480598eb7","6187176481163d84519c61c0","null","","null","","","","","fixation","","","",""
"","","","","","visual-search-circle","155","540766","0.0-14.0-0.0-1.70","5c55007647e6020001de175b","6186fb1cc52d38b480598eb7","6187176481163d84519c61c0","3642.800000190735","","d","false","[[576,417],[539,119],[263,2],[23,182],[60,480],[336,597]]","false","6","","","img/Fire_Up_Target.gif","[""img/Fire_Down_Distractor.gif"",""img/Fire_Down_Distractor.gif"",""img/Fire_Down_Distractor.gif"",""img/Fire_Down_Distractor.gif"",""img/Fire_Down_Distractor.gif"",""img/Fire_Down_Distractor.gif"",""img/Fire_Down_Distractor.gif"",""img/Fire_Down_Distractor.gif"",""img/Fire_Down_Distractor.gif"",""img/Fire_Down_Distractor.gif"",""img/Fire_Down_Distractor.gif"",""img/Fire_Down_Distractor.gif""]","targetUp_distractorsDown"
"","","","","","html-keyboard-response","156","540791","0.0-14.0-0.0-0.71","5c55007647e6020001de175b","6186fb1cc52d38b480598eb7","6187176481163d84519c61c0","null","","null","","","","","fixation","","","",""
"","","","","","visual-search-circle","157","543788","0.0-14.0-0.0-1.71","5c55007647e6020001de175b","6186fb1cc52d38b480598eb7","6187176481163d84519c61c0","1978.5999999046326","","d","true","[[564,159],[310,0],[45,141],[35,440],[289,599],[554,458]]","true","6","","","img/Fire_Down_Target.gif","[""img/Fire_Up_Distractor.gif"",""img/Fire_Up_Distractor.gif"",""img/Fire_Up_Distractor.gif"",""img/Fire_Up_Distractor.gif"",""img/Fire_Up_Distractor.gif"",""img/Fire_Up_Distractor.gif"",""img/Fire_Up_Distractor.gif"",""img/Fire_Up_Distractor.gif"",""img/Fire_Up_Distractor.gif"",""img/Fire_Up_Distractor.gif"",""img/Fire_Up_Distractor.gif"",""img/Fire_Up_Distractor.gif""]","targetDown_distractorsUp"
"","","","","","html-keyboard-response","158","543794","0.0-14.0-0.0-0.72","5c55007647e6020001de175b","6186fb1cc52d38b480598eb7","6187176481163d84519c61c0","null","","null","","","","","fixation","","","",""
"","","","","","visual-search-circle","159","547486","0.0-14.0-0.0-1.72","5c55007647e6020001de175b","6186fb1cc52d38b480598eb7","6187176481163d84519c61c0","2677.7999997138977","","s","true","[[207,585],[585,392],[392,14],[14,207]]","false","4","","","img/Fire_Down_Target.gif","[""img/Fire_Up_Distractor.gif"",""img/Fire_Up_Distractor.gif"",""img/Fire_Up_Distractor.gif"",""img/Fire_Up_Distractor.gif"",""img/Fire_Up_Distractor.gif"",""img/Fire_Up_Distractor.gif"",""img/Fire_Up_Distractor.gif"",""img/Fire_Up_Distractor.gif"",""img/Fire_Up_Distractor.gif"",""img/Fire_Up_Distractor.gif"",""img/Fire_Up_Distractor.gif"",""img/Fire_Up_Distractor.gif""]","targetDown_distractorsUp"
"","","","","","html-keyboard-response","160","547489","0.0-14.0-0.0-0.73","5c55007647e6020001de175b","6186fb1cc52d38b480598eb7","6187176481163d84519c61c0","null","","null","","","","","fixation","","","",""
"","","","","","visual-search-circle","161","551305","0.0-14.0-0.0-1.73","5c55007647e6020001de175b","6186fb1cc52d38b480598eb7","6187176481163d84519c61c0","2804.2999997138977","","d","true","[[539,480],[576,182],[336,2],[60,119],[23,417],[263,597]]","true","6","","","img/Fire_Down_Target.gif","[""img/Fire_Up_Distractor.gif"",""img/Fire_Up_Distractor.gif"",""img/Fire_Up_Distractor.gif"",""img/Fire_Up_Distractor.gif"",""img/Fire_Up_Distractor.gif"",""img/Fire_Up_Distractor.gif"",""img/Fire_Up_Distractor.gif"",""img/Fire_Up_Distractor.gif"",""img/Fire_Up_Distractor.gif"",""img/Fire_Up_Distractor.gif"",""img/Fire_Up_Distractor.gif"",""img/Fire_Up_Distractor.gif""]","targetDown_distractorsUp"
"","","","","","html-keyboard-response","162","551315","0.0-14.0-0.0-0.74","5c55007647e6020001de175b","6186fb1cc52d38b480598eb7","6187176481163d84519c61c0","null","","null","","","","","fixation","","","",""
"","","","","","visual-search-circle","163","558053","0.0-14.0-0.0-1.74","5c55007647e6020001de175b","6186fb1cc52d38b480598eb7","6187176481163d84519c61c0","5720.700000286102","","s","false","[[508,84],[294,0],[84,91],[0,305],[91,515],[305,599],[515,508],[599,294]]","true","8","","","img/Fire_Up_Target.gif","[""img/Fire_Down_Distractor.gif"",""img/Fire_Down_Distractor.gif"",""img/Fire_Down_Distractor.gif"",""img/Fire_Down_Distractor.gif"",""img/Fire_Down_Distractor.gif"",""img/Fire_Down_Distractor.gif"",""img/Fire_Down_Distractor.gif"",""img/Fire_Down_Distractor.gif"",""img/Fire_Down_Distractor.gif"",""img/Fire_Down_Distractor.gif"",""img/Fire_Down_Distractor.gif"",""img/Fire_Down_Distractor.gif""]","targetUp_distractorsDown"
"","","","","","html-keyboard-response","164","558082","0.0-14.0-0.0-0.75","5c55007647e6020001de175b","6186fb1cc52d38b480598eb7","6187176481163d84519c61c0","null","","null","","","","","fixation","","","",""
"","","","","","visual-search-circle","165","561802","0.0-14.0-0.0-1.75","5c55007647e6020001de175b","6186fb1cc52d38b480598eb7","6187176481163d84519c61c0","2697.0999999046326","","d","true","[[163,32],[0,284],[136,551],[436,567],[599,315],[463,48]]","true","6","","","img/Fire_Up_Target.gif","[""img/Fire_Down_Distractor.gif"",""img/Fire_Down_Distractor.gif"",""img/Fire_Down_Distractor.gif"",""img/Fire_Down_Distractor.gif"",""img/Fire_Down_Distractor.gif"",""img/Fire_Down_Distractor.gif"",""img/Fire_Down_Distractor.gif"",""img/Fire_Down_Distractor.gif"",""img/Fire_Down_Distractor.gif"",""img/Fire_Down_Distractor.gif"",""img/Fire_Down_Distractor.gif"",""img/Fire_Down_Distractor.gif""]","targetUp_distractorsDown"
"","","","","","html-keyboard-response","166","561842","0.0-14.0-0.0-0.76","5c55007647e6020001de175b","6186fb1cc52d38b480598eb7","6187176481163d84519c61c0","null","","null","","","","","fixation","","","",""
"","","","","","visual-search-circle","167","565328","0.0-14.0-0.0-1.76","5c55007647e6020001de175b","6186fb1cc52d38b480598eb7","6187176481163d84519c61c0","2466.9000000953674","","d","true","[[54,472],[281,599],[522,501],[596,251],[446,38],[186,22],[12,215]]","true","7","","","img/Fire_Down_Target.gif","[""img/Fire_Up_Distractor.gif"",""img/Fire_Up_Distractor.gif"",""img/Fire_Up_Distractor.gif"",""img/Fire_Up_Distractor.gif"",""img/Fire_Up_Distractor.gif"",""img/Fire_Up_Distractor.gif"",""img/Fire_Up_Distractor.gif"",""img/Fire_Up_Distractor.gif"",""img/Fire_Up_Distractor.gif"",""img/Fire_Up_Distractor.gif"",""img/Fire_Up_Distractor.gif"",""img/Fire_Up_Distractor.gif""]","targetDown_distractorsUp"
"","","","","","html-keyboard-response","168","565342","0.0-14.0-0.0-0.77","5c55007647e6020001de175b","6186fb1cc52d38b480598eb7","6187176481163d84519c61c0","null","","null","","","","","fixation","","","",""
"","","","","","visual-search-circle","169","568850","0.0-14.0-0.0-1.77","5c55007647e6020001de175b","6186fb1cc52d38b480598eb7","6187176481163d84519c61c0","2490.9000000953674","","s","false","[[346,3],[123,57],[3,253],[57,476],[253,596],[476,542],[596,346],[542,123]]","true","8","","","img/Fire_Up_Target.gif","[""img/Fire_Down_Distractor.gif"",""img/Fire_Down_Distractor.gif"",""img/Fire_Down_Distractor.gif"",""img/Fire_Down_Distractor.gif"",""img/Fire_Down_Distractor.gif"",""img/Fire_Down_Distractor.gif"",""img/Fire_Down_Distractor.gif"",""img/Fire_Down_Distractor.gif"",""img/Fire_Down_Distractor.gif"",""img/Fire_Down_Distractor.gif"",""img/Fire_Down_Distractor.gif"",""img/Fire_Down_Distractor.gif""]","targetUp_distractorsDown"
"","","","","","html-keyboard-response","170","568856","0.0-14.0-0.0-0.78","5c55007647e6020001de175b","6186fb1cc52d38b480598eb7","6187176481163d84519c61c0","null","","null","","","","","fixation","","","",""
"","","","","","visual-search-circle","171","572768","0.0-14.0-0.0-1.78","5c55007647e6020001de175b","6186fb1cc52d38b480598eb7","6187176481163d84519c61c0","2889.7000002861023","","d","false","[[159,35],[13,212],[35,440],[212,586],[440,564],[586,387],[564,159],[387,13]]","false","8","","","img/Fire_Up_Target.gif","[""img/Fire_Down_Distractor.gif"",""img/Fire_Down_Distractor.gif"",""img/Fire_Down_Distractor.gif"",""img/Fire_Down_Distractor.gif"",""img/Fire_Down_Distractor.gif"",""img/Fire_Down_Distractor.gif"",""img/Fire_Down_Distractor.gif"",""img/Fire_Down_Distractor.gif"",""img/Fire_Down_Distractor.gif"",""img/Fire_Down_Distractor.gif"",""img/Fire_Down_Distractor.gif"",""img/Fire_Down_Distractor.gif""]","targetUp_distractorsDown"
"","","","","","html-keyboard-response","172","576951","0.0-14.0-0.0-0.79","5c55007647e6020001de175b","6186fb1cc52d38b480598eb7","6187176481163d84519c61c0","4181.900000095367","Wow! You've completed 80 out of 120 trials! </p> <p>  </p><p> Take a quick break, then press any key when you're ready to continue.","d","","","","","fixation","","","",""
"","","","","","visual-search-circle","173","582790","0.0-14.0-0.0-1.79","5c55007647e6020001de175b","6186fb1cc52d38b480598eb7","6187176481163d84519c61c0","4832.099999904633","","s","false","[[554,141],[141,45],[45,458],[458,554]]","true","4","","","img/Fire_Up_Target.gif","[""img/Fire_Down_Distractor.gif"",""img/Fire_Down_Distractor.gif"",""img/Fire_Down_Distractor.gif"",""img/Fire_Down_Distractor.gif"",""img/Fire_Down_Distractor.gif"",""img/Fire_Down_Distractor.gif"",""img/Fire_Down_Distractor.gif"",""img/Fire_Down_Distractor.gif"",""img/Fire_Down_Distractor.gif"",""img/Fire_Down_Distractor.gif"",""img/Fire_Down_Distractor.gif"",""img/Fire_Down_Distractor.gif""]","targetUp_distractorsDown"
"","","","","","html-keyboard-response","174","582794","0.0-14.0-0.0-0.80","5c55007647e6020001de175b","6186fb1cc52d38b480598eb7","6187176481163d84519c61c0","null","","null","","","","","fixation","","","",""
"","","","","","visual-search-circle","175","586322","0.0-14.0-0.0-1.80","5c55007647e6020001de175b","6186fb1cc52d38b480598eb7","6187176481163d84519c61c0","2513","","s","true","[[592,232],[429,29],[169,30],[7,233],[65,487],[300,599],[535,486]]","false","7","","","img/Fire_Up_Target.gif","[""img/Fire_Down_Distractor.gif"",""img/Fire_Down_Distractor.gif"",""img/Fire_Down_Distractor.gif"",""img/Fire_Down_Distractor.gif"",""img/Fire_Down_Distractor.gif"",""img/Fire_Down_Distractor.gif"",""img/Fire_Down_Distractor.gif"",""img/Fire_Down_Distractor.gif"",""img/Fire_Down_Distractor.gif"",""img/Fire_Down_Distractor.gif"",""img/Fire_Down_Distractor.gif"",""img/Fire_Down_Distractor.gif""]","targetUp_distractorsDown"
"","","","","","html-keyboard-response","176","586326","0.0-14.0-0.0-0.81","5c55007647e6020001de175b","6186fb1cc52d38b480598eb7","6187176481163d84519c61c0","null","","null","","","","","fixation","","","",""
"","","","","","visual-search-circle","177","591370","0.0-14.0-0.0-1.81","5c55007647e6020001de175b","6186fb1cc52d38b480598eb7","6187176481163d84519c61c0","4027.800000190735","","d","false","[[580,407],[488,66],[136,48],[10,377],[284,599]]","false","5","","","img/Fire_Down_Target.gif","[""img/Fire_Up_Distractor.gif"",""img/Fire_Up_Distractor.gif"",""img/Fire_Up_Distractor.gif"",""img/Fire_Up_Distractor.gif"",""img/Fire_Up_Distractor.gif"",""img/Fire_Up_Distractor.gif"",""img/Fire_Up_Distractor.gif"",""img/Fire_Up_Distractor.gif"",""img/Fire_Up_Distractor.gif"",""img/Fire_Up_Distractor.gif"",""img/Fire_Up_Distractor.gif"",""img/Fire_Up_Distractor.gif""]","targetDown_distractorsUp"
"","","","","","html-keyboard-response","178","591374","0.0-14.0-0.0-0.82","5c55007647e6020001de175b","6186fb1cc52d38b480598eb7","6187176481163d84519c61c0","null","","null","","","","","fixation","","","",""
"","","","","","visual-search-circle","179","595732","0.0-14.0-0.0-1.82","5c55007647e6020001de175b","6186fb1cc52d38b480598eb7","6187176481163d84519c61c0","3334.800000190735","","s","true","[[588,217],[445,37],[217,11],[37,154],[11,382],[154,562],[382,588],[562,445]]","false","8","","","img/Fire_Up_Target.gif","[""img/Fire_Down_Distractor.gif"",""img/Fire_Down_Distractor.gif"",""img/Fire_Down_Distractor.gif"",""img/Fire_Down_Distractor.gif"",""img/Fire_Down_Distractor.gif"",""img/Fire_Down_Distractor.gif"",""img/Fire_Down_Distractor.gif"",""img/Fire_Down_Distractor.gif"",""img/Fire_Down_Distractor.gif"",""img/Fire_Down_Distractor.gif"",""img/Fire_Down_Distractor.gif"",""img/Fire_Down_Distractor.gif""]","targetUp_distractorsDown"
"","","","","","html-keyboard-response","180","595736","0.0-14.0-0.0-0.83","5c55007647e6020001de175b","6186fb1cc52d38b480598eb7","6187176481163d84519c61c0","null","","null","","","","","fixation","","","",""
"","","","","","visual-search-circle","181","599757","0.0-14.0-0.0-1.83","5c55007647e6020001de175b","6186fb1cc52d38b480598eb7","6187176481163d84519c61c0","3005.0999999046326","","s","false","[[599,284],[284,0],[0,315],[315,599]]","true","4","","","img/Fire_Up_Target.gif","[""img/Fire_Down_Distractor.gif"",""img/Fire_Down_Distractor.gif"",""img/Fire_Down_Distractor.gif"",""img/Fire_Down_Distractor.gif"",""img/Fire_Down_Distractor.gif"",""img/Fire_Down_Distractor.gif"",""img/Fire_Down_Distractor.gif"",""img/Fire_Down_Distractor.gif"",""img/Fire_Down_Distractor.gif"",""img/Fire_Down_Distractor.gif"",""img/Fire_Down_Distractor.gif"",""img/Fire_Down_Distractor.gif""]","targetUp_distractorsDown"
"","","","","","html-keyboard-response","182","599762","0.0-14.0-0.0-0.84","5c55007647e6020001de175b","6186fb1cc52d38b480598eb7","6187176481163d84519c61c0","null","","null","","","","","fixation","","","",""
"","","","","","visual-search-circle","183","603189","0.0-14.0-0.0-1.84","5c55007647e6020001de175b","6186fb1cc52d38b480598eb7","6187176481163d84519c61c0","2415.2999997138977","","s","true","[[28,426],[336,597],[594,357],[445,37],[95,80]]","false","5","","","img/Fire_Down_Target.gif","[""img/Fire_Up_Distractor.gif"",""img/Fire_Up_Distractor.gif"",""img/Fire_Up_Distractor.gif"",""img/Fire_Up_Distractor.gif"",""img/Fire_Up_Distractor.gif"",""img/Fire_Up_Distractor.gif"",""img/Fire_Up_Distractor.gif"",""img/Fire_Up_Distractor.gif"",""img/Fire_Up_Distractor.gif"",""img/Fire_Up_Distractor.gif"",""img/Fire_Up_Distractor.gif"",""img/Fire_Up_Distractor.gif""]","targetDown_distractorsUp"
"","","","","","html-keyboard-response","184","603192","0.0-14.0-0.0-0.85","5c55007647e6020001de175b","6186fb1cc52d38b480598eb7","6187176481163d84519c61c0","null","","null","","","","","fixation","","","",""
"","","","","","visual-search-circle","185","605714","0.0-14.0-0.0-1.85","5c55007647e6020001de175b","6186fb1cc52d38b480598eb7","6187176481163d84519c61c0","1504.3999996185303","","d","true","[[279,0],[8,227],[141,554],[492,529],[578,187]]","true","5","","","img/Fire_Down_Target.gif","[""img/Fire_Up_Distractor.gif"",""img/Fire_Up_Distractor.gif"",""img/Fire_Up_Distractor.gif"",""img/Fire_Up_Distractor.gif"",""img/Fire_Up_Distractor.gif"",""img/Fire_Up_Distractor.gif"",""img/Fire_Up_Distractor.gif"",""img/Fire_Up_Distractor.gif"",""img/Fire_Up_Distractor.gif"",""img/Fire_Up_Distractor.gif"",""img/Fire_Up_Distractor.gif"",""img/Fire_Up_Distractor.gif""]","targetDown_distractorsUp"
"","","","","","html-keyboard-response","186","605723","0.0-14.0-0.0-0.86","5c55007647e6020001de175b","6186fb1cc52d38b480598eb7","6187176481163d84519c61c0","null","","null","","","","","fixation","","","",""
"","","","","","visual-search-circle","187","610286","0.0-14.0-0.0-1.86","5c55007647e6020001de175b","6186fb1cc52d38b480598eb7","6187176481163d84519c61c0","3546.2999997138977","","d","false","[[598,331],[331,1],[1,268],[268,598]]","false","4","","","img/Fire_Down_Target.gif","[""img/Fire_Up_Distractor.gif"",""img/Fire_Up_Distractor.gif"",""img/Fire_Up_Distractor.gif"",""img/Fire_Up_Distractor.gif"",""img/Fire_Up_Distractor.gif"",""img/Fire_Up_Distractor.gif"",""img/Fire_Up_Distractor.gif"",""img/Fire_Up_Distractor.gif"",""img/Fire_Up_Distractor.gif"",""img/Fire_Up_Distractor.gif"",""img/Fire_Up_Distractor.gif"",""img/Fire_Up_Distractor.gif""]","targetDown_distractorsUp"
"","","","","","html-keyboard-response","188","610323","0.0-14.0-0.0-0.87","5c55007647e6020001de175b","6186fb1cc52d38b480598eb7","6187176481163d84519c61c0","null","","null","","","","","fixation","","","",""
"","","","","","visual-search-circle","189","613326","0.0-14.0-0.0-1.87","5c55007647e6020001de175b","6186fb1cc52d38b480598eb7","6187176481163d84519c61c0","1983.1000003814697","","s","true","[[7,367],[212,586],[504,519],[592,232],[387,13],[95,80]]","false","6","","","img/Fire_Up_Target.gif","[""img/Fire_Down_Distractor.gif"",""img/Fire_Down_Distractor.gif"",""img/Fire_Down_Distractor.gif"",""img/Fire_Down_Distractor.gif"",""img/Fire_Down_Distractor.gif"",""img/Fire_Down_Distractor.gif"",""img/Fire_Down_Distractor.gif"",""img/Fire_Down_Distractor.gif"",""img/Fire_Down_Distractor.gif"",""img/Fire_Down_Distractor.gif"",""img/Fire_Down_Distractor.gif"",""img/Fire_Down_Distractor.gif""]","targetUp_distractorsDown"
"","","","","","html-keyboard-response","190","613331","0.0-14.0-0.0-0.88","5c55007647e6020001de175b","6186fb1cc52d38b480598eb7","6187176481163d84519c61c0","null","","null","","","","","fixation","","","",""
"","","","","","visual-search-circle","191","617422","0.0-14.0-0.0-1.88","5c55007647e6020001de175b","6186fb1cc52d38b480598eb7","6187176481163d84519c61c0","3076.199999809265","","s","true","[[4,247],[247,595],[595,352],[352,4]]","false","4","","","img/Fire_Up_Target.gif","[""img/Fire_Down_Distractor.gif"",""img/Fire_Down_Distractor.gif"",""img/Fire_Down_Distractor.gif"",""img/Fire_Down_Distractor.gif"",""img/Fire_Down_Distractor.gif"",""img/Fire_Down_Distractor.gif"",""img/Fire_Down_Distractor.gif"",""img/Fire_Down_Distractor.gif"",""img/Fire_Down_Distractor.gif"",""img/Fire_Down_Distractor.gif"",""img/Fire_Down_Distractor.gif"",""img/Fire_Down_Distractor.gif""]","targetUp_distractorsDown"
"","","","","","html-keyboard-response","192","617424","0.0-14.0-0.0-0.89","5c55007647e6020001de175b","6186fb1cc52d38b480598eb7","6187176481163d84519c61c0","null","","null","","","","","fixation","","","",""
"","","","","","visual-search-circle","193","619749","0.0-14.0-0.0-1.89","5c55007647e6020001de175b","6186fb1cc52d38b480598eb7","6187176481163d84519c61c0","1305.6999998092651","","d","false","[[533,488],[551,136],[222,10],[0,284],[192,580]]","false","5","","","img/Fire_Up_Target.gif","[""img/Fire_Down_Distractor.gif"",""img/Fire_Down_Distractor.gif"",""img/Fire_Down_Distractor.gif"",""img/Fire_Down_Distractor.gif"",""img/Fire_Down_Distractor.gif"",""img/Fire_Down_Distractor.gif"",""img/Fire_Down_Distractor.gif"",""img/Fire_Down_Distractor.gif"",""img/Fire_Down_Distractor.gif"",""img/Fire_Down_Distractor.gif"",""img/Fire_Down_Distractor.gif"",""img/Fire_Down_Distractor.gif""]","targetUp_distractorsDown"
"","","","","","html-keyboard-response","194","619753","0.0-14.0-0.0-0.90","5c55007647e6020001de175b","6186fb1cc52d38b480598eb7","6187176481163d84519c61c0","null","","null","","","","","fixation","","","",""
"","","","","","visual-search-circle","195","624776","0.0-14.0-0.0-1.90","5c55007647e6020001de175b","6186fb1cc52d38b480598eb7","6187176481163d84519c61c0","4003.199999809265","","s","true","[[454,42],[195,18],[14,206],[49,464],[272,598],[516,507],[597,260]]","false","7","","","img/Fire_Down_Target.gif","[""img/Fire_Up_Distractor.gif"",""img/Fire_Up_Distractor.gif"",""img/Fire_Up_Distractor.gif"",""img/Fire_Up_Distractor.gif"",""img/Fire_Up_Distractor.gif"",""img/Fire_Up_Distractor.gif"",""img/Fire_Up_Distractor.gif"",""img/Fire_Up_Distractor.gif"",""img/Fire_Up_Distractor.gif"",""img/Fire_Up_Distractor.gif"",""img/Fire_Up_Distractor.gif"",""img/Fire_Up_Distractor.gif""]","targetDown_distractorsUp"
"","","","","","html-keyboard-response","196","624780","0.0-14.0-0.0-0.91","5c55007647e6020001de175b","6186fb1cc52d38b480598eb7","6187176481163d84519c61c0","null","","null","","","","","fixation","","","",""
"","","","","","visual-search-circle","197","627664","0.0-14.0-0.0-1.91","5c55007647e6020001de175b","6186fb1cc52d38b480598eb7","6187176481163d84519c61c0","1856.9000000953674","","d","true","[[426,571],[581,402],[571,173],[402,18],[173,28],[18,197],[28,426],[197,581]]","true","8","","","img/Fire_Up_Target.gif","[""img/Fire_Down_Distractor.gif"",""img/Fire_Down_Distractor.gif"",""img/Fire_Down_Distractor.gif"",""img/Fire_Down_Distractor.gif"",""img/Fire_Down_Distractor.gif"",""img/Fire_Down_Distractor.gif"",""img/Fire_Down_Distractor.gif"",""img/Fire_Down_Distractor.gif"",""img/Fire_Down_Distractor.gif"",""img/Fire_Down_Distractor.gif"",""img/Fire_Down_Distractor.gif"",""img/Fire_Down_Distractor.gif""]","targetUp_distractorsDown"
"","","","","","html-keyboard-response","198","627677","0.0-14.0-0.0-0.92","5c55007647e6020001de175b","6186fb1cc52d38b480598eb7","6187176481163d84519c61c0","null","","null","","","","","fixation","","","",""
"","","","","","visual-search-circle","199","630671","0.0-14.0-0.0-1.92","5c55007647e6020001de175b","6186fb1cc52d38b480598eb7","6187176481163d84519c61c0","1974.3000001907349","","s","true","[[237,6],[31,165],[27,426],[228,591],[483,537],[599,304],[490,68]]","false","7","","","img/Fire_Up_Target.gif","[""img/Fire_Down_Distractor.gif"",""img/Fire_Down_Distractor.gif"",""img/Fire_Down_Distractor.gif"",""img/Fire_Down_Distractor.gif"",""img/Fire_Down_Distractor.gif"",""img/Fire_Down_Distractor.gif"",""img/Fire_Down_Distractor.gif"",""img/Fire_Down_Distractor.gif"",""img/Fire_Down_Distractor.gif"",""img/Fire_Down_Distractor.gif"",""img/Fire_Down_Distractor.gif"",""img/Fire_Down_Distractor.gif""]","targetUp_distractorsDown"
"","","","","","html-keyboard-response","200","630680","0.0-14.0-0.0-0.93","5c55007647e6020001de175b","6186fb1cc52d38b480598eb7","6187176481163d84519c61c0","null","","null","","","","","fixation","","","",""
"","","","","","visual-search-circle","201","635381","0.0-14.0-0.0-1.93","5c55007647e6020001de175b","6186fb1cc52d38b480598eb7","6187176481163d84519c61c0","3679.800000190735","","s","true","[[500,77],[250,4],[37,153],[22,413],[215,587],[472,545],[599,317]]","false","7","","","img/Fire_Down_Target.gif","[""img/Fire_Up_Distractor.gif"",""img/Fire_Up_Distractor.gif"",""img/Fire_Up_Distractor.gif"",""img/Fire_Up_Distractor.gif"",""img/Fire_Up_Distractor.gif"",""img/Fire_Up_Distractor.gif"",""img/Fire_Up_Distractor.gif"",""img/Fire_Up_Distractor.gif"",""img/Fire_Up_Distractor.gif"",""img/Fire_Up_Distractor.gif"",""img/Fire_Up_Distractor.gif"",""img/Fire_Up_Distractor.gif""]","targetDown_distractorsUp"
"","","","","","html-keyboard-response","202","635383","0.0-14.0-0.0-0.94","5c55007647e6020001de175b","6186fb1cc52d38b480598eb7","6187176481163d84519c61c0","null","","null","","","","","fixation","","","",""
"","","","","","visual-search-circle","203","640227","0.0-14.0-0.0-1.94","5c55007647e6020001de175b","6186fb1cc52d38b480598eb7","6187176481163d84519c61c0","3831.7999997138977","","s","true","[[592,367],[504,80],[212,13],[7,232],[95,519],[387,586]]","false","6","","","img/Fire_Up_Target.gif","[""img/Fire_Down_Distractor.gif"",""img/Fire_Down_Distractor.gif"",""img/Fire_Down_Distractor.gif"",""img/Fire_Down_Distractor.gif"",""img/Fire_Down_Distractor.gif"",""img/Fire_Down_Distractor.gif"",""img/Fire_Down_Distractor.gif"",""img/Fire_Down_Distractor.gif"",""img/Fire_Down_Distractor.gif"",""img/Fire_Down_Distractor.gif"",""img/Fire_Down_Distractor.gif"",""img/Fire_Down_Distractor.gif""]","targetUp_distractorsDown"
"","","","","","html-keyboard-response","204","640233","0.0-14.0-0.0-0.95","5c55007647e6020001de175b","6186fb1cc52d38b480598eb7","6187176481163d84519c61c0","null","","null","","","","","fixation","","","",""
"","","","","","visual-search-circle","205","643624","0.0-14.0-0.0-1.95","5c55007647e6020001de175b","6186fb1cc52d38b480598eb7","6187176481163d84519c61c0","2374.5999999046326","","s","true","[[436,32],[207,14],[32,163],[14,392],[163,567],[392,585],[567,436],[585,207]]","false","8","","","img/Fire_Up_Target.gif","[""img/Fire_Down_Distractor.gif"",""img/Fire_Down_Distractor.gif"",""img/Fire_Down_Distractor.gif"",""img/Fire_Down_Distractor.gif"",""img/Fire_Down_Distractor.gif"",""img/Fire_Down_Distractor.gif"",""img/Fire_Down_Distractor.gif"",""img/Fire_Down_Distractor.gif"",""img/Fire_Down_Distractor.gif"",""img/Fire_Down_Distractor.gif"",""img/Fire_Down_Distractor.gif"",""img/Fire_Down_Distractor.gif""]","targetUp_distractorsDown"
"","","","","","html-keyboard-response","206","643627","0.0-14.0-0.0-0.96","5c55007647e6020001de175b","6186fb1cc52d38b480598eb7","6187176481163d84519c61c0","null","","null","","","","","fixation","","","",""
"","","","","","visual-search-circle","207","647084","0.0-14.0-0.0-1.96","5c55007647e6020001de175b","6186fb1cc52d38b480598eb7","6187176481163d84519c61c0","2436.9000000953674","","d","true","[[1,273],[93,517],[341,597],[557,453],[580,193],[391,14],[134,50]]","true","7","","","img/Fire_Down_Target.gif","[""img/Fire_Up_Distractor.gif"",""img/Fire_Up_Distractor.gif"",""img/Fire_Up_Distractor.gif"",""img/Fire_Up_Distractor.gif"",""img/Fire_Up_Distractor.gif"",""img/Fire_Up_Distractor.gif"",""img/Fire_Up_Distractor.gif"",""img/Fire_Up_Distractor.gif"",""img/Fire_Up_Distractor.gif"",""img/Fire_Up_Distractor.gif"",""img/Fire_Up_Distractor.gif"",""img/Fire_Up_Distractor.gif""]","targetDown_distractorsUp"
"","","","","","html-keyboard-response","208","647088","0.0-14.0-0.0-0.97","5c55007647e6020001de175b","6186fb1cc52d38b480598eb7","6187176481163d84519c61c0","null","","null","","","","","fixation","","","",""
"","","","","","visual-search-circle","209","651892","0.0-14.0-0.0-1.97","5c55007647e6020001de175b","6186fb1cc52d38b480598eb7","6187176481163d84519c61c0","3795.199999809265","","s","false","[[70,107],[18,402],[247,595],[529,492],[581,197],[352,4]]","true","6","","","img/Fire_Down_Target.gif","[""img/Fire_Up_Distractor.gif"",""img/Fire_Up_Distractor.gif"",""img/Fire_Up_Distractor.gif"",""img/Fire_Up_Distractor.gif"",""img/Fire_Up_Distractor.gif"",""img/Fire_Up_Distractor.gif"",""img/Fire_Up_Distractor.gif"",""img/Fire_Up_Distractor.gif"",""img/Fire_Up_Distractor.gif"",""img/Fire_Up_Distractor.gif"",""img/Fire_Up_Distractor.gif"",""img/Fire_Up_Distractor.gif""]","targetDown_distractorsUp"
"","","","","","html-keyboard-response","210","651898","0.0-14.0-0.0-0.98","5c55007647e6020001de175b","6186fb1cc52d38b480598eb7","6187176481163d84519c61c0","null","","null","","","","","fixation","","","",""
"","","","","","visual-search-circle","211","654344","0.0-14.0-0.0-1.98","5c55007647e6020001de175b","6186fb1cc52d38b480598eb7","6187176481163d84519c61c0","1432.5","","s","true","[[0,305],[212,586],[545,472],[539,119],[202,16]]","false","5","","","img/Fire_Up_Target.gif","[""img/Fire_Down_Distractor.gif"",""img/Fire_Down_Distractor.gif"",""img/Fire_Down_Distractor.gif"",""img/Fire_Down_Distractor.gif"",""img/Fire_Down_Distractor.gif"",""img/Fire_Down_Distractor.gif"",""img/Fire_Down_Distractor.gif"",""img/Fire_Down_Distractor.gif"",""img/Fire_Down_Distractor.gif"",""img/Fire_Down_Distractor.gif"",""img/Fire_Down_Distractor.gif"",""img/Fire_Down_Distractor.gif""]","targetUp_distractorsDown"
"","","","","","html-keyboard-response","212","655456","0.0-14.0-0.0-0.99","5c55007647e6020001de175b","6186fb1cc52d38b480598eb7","6187176481163d84519c61c0","1111","Wow! You've completed 100 out of 120 trials! </p> <p>  </p><p> Take a quick break, then press any key when you're ready to continue.","d","","","","","fixation","","","",""
"","","","","","visual-search-circle","213","659444","0.0-14.0-0.0-1.99","5c55007647e6020001de175b","6186fb1cc52d38b480598eb7","6187176481163d84519c61c0","2981.5999999046326","","d","false","[[294,599],[583,397],[480,60],[127,54],[13,387]]","false","5","","","img/Fire_Down_Target.gif","[""img/Fire_Up_Distractor.gif"",""img/Fire_Up_Distractor.gif"",""img/Fire_Up_Distractor.gif"",""img/Fire_Up_Distractor.gif"",""img/Fire_Up_Distractor.gif"",""img/Fire_Up_Distractor.gif"",""img/Fire_Up_Distractor.gif"",""img/Fire_Up_Distractor.gif"",""img/Fire_Up_Distractor.gif"",""img/Fire_Up_Distractor.gif"",""img/Fire_Up_Distractor.gif"",""img/Fire_Up_Distractor.gif""]","targetDown_distractorsUp"
"","","","","","html-keyboard-response","214","659448","0.0-14.0-0.0-0.100","5c55007647e6020001de175b","6186fb1cc52d38b480598eb7","6187176481163d84519c61c0","null","","null","","","","","fixation","","","",""
"","","","","","visual-search-circle","215","663455","0.0-14.0-0.0-1.100","5c55007647e6020001de175b","6186fb1cc52d38b480598eb7","6187176481163d84519c61c0","2991.2999997138977","","s","false","[[123,542],[476,542],[585,207],[300,0],[14,207]]","true","5","","","img/Fire_Up_Target.gif","[""img/Fire_Down_Distractor.gif"",""img/Fire_Down_Distractor.gif"",""img/Fire_Down_Distractor.gif"",""img/Fire_Down_Distractor.gif"",""img/Fire_Down_Distractor.gif"",""img/Fire_Down_Distractor.gif"",""img/Fire_Down_Distractor.gif"",""img/Fire_Down_Distractor.gif"",""img/Fire_Down_Distractor.gif"",""img/Fire_Down_Distractor.gif"",""img/Fire_Down_Distractor.gif"",""img/Fire_Down_Distractor.gif""]","targetUp_distractorsDown"
"","","","","","html-keyboard-response","216","663467","0.0-14.0-0.0-0.101","5c55007647e6020001de175b","6186fb1cc52d38b480598eb7","6187176481163d84519c61c0","null","","null","","","","","fixation","","","",""
"","","","","","visual-search-circle","217","670251","0.0-14.0-0.0-1.101","5c55007647e6020001de175b","6186fb1cc52d38b480598eb7","6187176481163d84519c61c0","5769.5","","s","true","[[279,599],[496,526],[599,320],[526,103],[320,0],[103,73],[0,279],[73,496]]","false","8","","","img/Fire_Down_Target.gif","[""img/Fire_Up_Distractor.gif"",""img/Fire_Up_Distractor.gif"",""img/Fire_Up_Distractor.gif"",""img/Fire_Up_Distractor.gif"",""img/Fire_Up_Distractor.gif"",""img/Fire_Up_Distractor.gif"",""img/Fire_Up_Distractor.gif"",""img/Fire_Up_Distractor.gif"",""img/Fire_Up_Distractor.gif"",""img/Fire_Up_Distractor.gif"",""img/Fire_Up_Distractor.gif"",""img/Fire_Up_Distractor.gif""]","targetDown_distractorsUp"
"","","","","","html-keyboard-response","218","670256","0.0-14.0-0.0-0.102","5c55007647e6020001de175b","6186fb1cc52d38b480598eb7","6187176481163d84519c61c0","null","","null","","","","","fixation","","","",""
"","","","","","visual-search-circle","219","674904","0.0-14.0-0.0-1.102","5c55007647e6020001de175b","6186fb1cc52d38b480598eb7","6187176481163d84519c61c0","3624.199999809265","","s","true","[[237,6],[14,207],[77,500],[362,593],[585,392],[522,99]]","false","6","","","img/Fire_Up_Target.gif","[""img/Fire_Down_Distractor.gif"",""img/Fire_Down_Distractor.gif"",""img/Fire_Down_Distractor.gif"",""img/Fire_Down_Distractor.gif"",""img/Fire_Down_Distractor.gif"",""img/Fire_Down_Distractor.gif"",""img/Fire_Down_Distractor.gif"",""img/Fire_Down_Distractor.gif"",""img/Fire_Down_Distractor.gif"",""img/Fire_Down_Distractor.gif"",""img/Fire_Down_Distractor.gif"",""img/Fire_Down_Distractor.gif""]","targetUp_distractorsDown"
"","","","","","html-keyboard-response","220","674908","0.0-14.0-0.0-0.103","5c55007647e6020001de175b","6186fb1cc52d38b480598eb7","6187176481163d84519c61c0","null","","null","","","","","fixation","","","",""
"","","","","","visual-search-circle","221","679899","0.0-14.0-0.0-1.103","5c55007647e6020001de175b","6186fb1cc52d38b480598eb7","6187176481163d84519c61c0","3980.2000002861023","","s","true","[[1,326],[134,549],[391,585],[580,406],[557,146],[341,2],[93,82]]","false","7","","","img/Fire_Down_Target.gif","[""img/Fire_Up_Distractor.gif"",""img/Fire_Up_Distractor.gif"",""img/Fire_Up_Distractor.gif"",""img/Fire_Up_Distractor.gif"",""img/Fire_Up_Distractor.gif"",""img/Fire_Up_Distractor.gif"",""img/Fire_Up_Distractor.gif"",""img/Fire_Up_Distractor.gif"",""img/Fire_Up_Distractor.gif"",""img/Fire_Up_Distractor.gif"",""img/Fire_Up_Distractor.gif"",""img/Fire_Up_Distractor.gif""]","targetDown_distractorsUp"
