"success","timeout","failed_images","failed_audio","failed_video","trial_type","trial_index","time_elapsed","internal_node_id","subject_id","study_id","session_id","rt","stimulus","response","correct","locations","target_present","set_size","task","correct_response","target","foilCM","searchCondition"
"true","false","[]","[]","[]","preload","0","78046","0.0-0.0","5cea276085712e00190bcc66","6186fb1cc52d38b480598eb7","6187318d27d2358c282b4769","","","","","","","","","","","",""
"true","","","","","fullscreen","1","90367","0.0-1.0","5cea276085712e00190bcc66","6186fb1cc52d38b480598eb7","6187318d27d2358c282b4769","","","","","","","","","","","",""
"","","","","","html-keyboard-response","2","98008","0.0-2.0","5cea276085712e00190bcc66","6186fb1cc52d38b480598eb7","6187318d27d2358c282b4769","7638.939999975264","What a beautiful Saturday to do some awesome science! </p> <p>  </p><p> </p>
    By completing this survey or questionnaire, you are consenting to be in this research study. </p>
    Your participation is voluntary and you can stop at any time.
    <p> [Press any key to continue.] </p>
    
    "," ","","","","","","","","",""
"","","","","","video-keyboard-response","3","124412","0.0-3.0","5cea276085712e00190bcc66","6186fb1cc52d38b480598eb7","6187318d27d2358c282b4769","26399.49500001967","[""video/TaskInstructions.mp4""]"," ","","","","","","","","",""
"","","","","","html-keyboard-response","4","131830","0.0-4.0","5cea276085712e00190bcc66","6186fb1cc52d38b480598eb7","6187318d27d2358c282b4769","7416.465000016615","
    <p>First, we're going to do a few practice trials to make sure you understand the task. You will recieve feedback on each trial. </p>

    <p>[Press any key to begin the familiarization phase.]</p>
    "," ","","","","","","","","",""
"","","","","","visual-search-circle","5","135645","0.0-5.0-0.0","5cea276085712e00190bcc66","6186fb1cc52d38b480598eb7","6187318d27d2358c282b4769","2754.4599999673665","","d","true","[[545,127],[127,54],[54,472],[472,545]]","true","4","training","d","","",""
"","","","","","html-keyboard-response","6","139594","0.0-6.0","5cea276085712e00190bcc66","6186fb1cc52d38b480598eb7","6187318d27d2358c282b4769","3948.1200000736862"," <div style='float: center; '><img src='img/feedbackRight.png'></img> </div> "," ","","","","","","","","",""
"","","","","","visual-search-circle","7","142075","0.0-7.0-0.0","5cea276085712e00190bcc66","6186fb1cc52d38b480598eb7","6187318d27d2358c282b4769","1471.7650001402944","","s","true","[[40,450],[450,559],[559,150],[150,40]]","false","4","training","s","","",""
"","","","","","html-keyboard-response","8","143604","0.0-8.0","5cea276085712e00190bcc66","6186fb1cc52d38b480598eb7","6187318d27d2358c282b4769","1527.765000006184"," <div style='float: center; '><img src='img/feedbackRight.png'></img> </div> "," ","","","","","","","","",""
"","","","","","visual-search-circle","9","146547","0.0-9.0-0.0","5cea276085712e00190bcc66","6186fb1cc52d38b480598eb7","6187318d27d2358c282b4769","1933.8500001467764","","d","false","[[28,426],[273,598],[545,472],[571,173],[326,1],[54,127]]","false","6","training","s","","",""
"","","","","","html-keyboard-response","10","148696","0.0-10.0","5cea276085712e00190bcc66","6186fb1cc52d38b480598eb7","6187318d27d2358c282b4769","2147.5150000769645"," <div style='float: center;'><img src='img/feedbackWrong.png'></img> </div> "," ","","","","","","","","",""
"","","","","","visual-search-circle","11","153259","0.0-11.0-0.0","5cea276085712e00190bcc66","6186fb1cc52d38b480598eb7","6187318d27d2358c282b4769","3551.454999949783","","d","true","[[66,111],[1,331],[111,533],[331,598],[533,488],[598,268],[488,66],[268,1]]","true","8","training","d","","",""
"","","","","","html-keyboard-response","12","154736","0.0-12.0","5cea276085712e00190bcc66","6186fb1cc52d38b480598eb7","6187318d27d2358c282b4769","1475.4749999847263"," <div style='float: center; '><img src='img/feedbackRight.png'></img> </div> "," ","","","","","","","","",""
"","","","","","video-keyboard-response","13","157232","0.0-13.0","5cea276085712e00190bcc66","6186fb1cc52d38b480598eb7","6187318d27d2358c282b4769","2492.619999917224","[""video/endTraining.mp4""]"," ","","","","","","","","",""
"","","","","","html-keyboard-response","14","157236","0.0-14.0-0.0-0.0","5cea276085712e00190bcc66","6186fb1cc52d38b480598eb7","6187318d27d2358c282b4769","null","","null","","","","","fixation","","","",""
"","","","","","visual-search-circle","15","160648","0.0-14.0-0.0-1.0","5cea276085712e00190bcc66","6186fb1cc52d38b480598eb7","6187318d27d2358c282b4769","2405.490000033751","","d","true","[[508,515],[515,91],[91,84],[84,508]]","true","4","","","img/Fire_Up_Target.gif","[""img/Fire_Down_Distractor.gif"",""img/Fire_Down_Distractor.gif"",""img/Fire_Down_Distractor.gif"",""img/Fire_Down_Distractor.gif"",""img/Fire_Down_Distractor.gif"",""img/Fire_Down_Distractor.gif"",""img/Fire_Down_Distractor.gif"",""img/Fire_Down_Distractor.gif"",""img/Fire_Down_Distractor.gif"",""img/Fire_Down_Distractor.gif"",""img/Fire_Down_Distractor.gif"",""img/Fire_Down_Distractor.gif""]","targetUp_distractorsDown"
"","","","","","html-keyboard-response","16","160651","0.0-14.0-0.0-0.1","5cea276085712e00190bcc66","6186fb1cc52d38b480598eb7","6187318d27d2358c282b4769","null","","null","","","","","fixation","","","",""
"","","","","","visual-search-circle","17","162994","0.0-14.0-0.0-1.1","5cea276085712e00190bcc66","6186fb1cc52d38b480598eb7","6187318d27d2358c282b4769","1336.250000167638","","d","true","[[585,392],[476,57],[123,57],[14,392],[299,600]]","true","5","","","img/Fire_Up_Target.gif","[""img/Fire_Down_Distractor.gif"",""img/Fire_Down_Distractor.gif"",""img/Fire_Down_Distractor.gif"",""img/Fire_Down_Distractor.gif"",""img/Fire_Down_Distractor.gif"",""img/Fire_Down_Distractor.gif"",""img/Fire_Down_Distractor.gif"",""img/Fire_Down_Distractor.gif"",""img/Fire_Down_Distractor.gif"",""img/Fire_Down_Distractor.gif"",""img/Fire_Down_Distractor.gif"",""img/Fire_Down_Distractor.gif""]","targetUp_distractorsDown"
"","","","","","html-keyboard-response","18","162996","0.0-14.0-0.0-0.2","5cea276085712e00190bcc66","6186fb1cc52d38b480598eb7","6187318d27d2358c282b4769","null","","null","","","","","fixation","","","",""
"","","","","","visual-search-circle","19","165208","0.0-14.0-0.0-1.2","5cea276085712e00190bcc66","6186fb1cc52d38b480598eb7","6187318d27d2358c282b4769","1207.0400000084192","","s","true","[[576,182],[336,2],[60,119],[23,417],[263,597],[539,480]]","false","6","","","img/Fire_Down_Target.gif","[""img/Fire_Up_Distractor.gif"",""img/Fire_Up_Distractor.gif"",""img/Fire_Up_Distractor.gif"",""img/Fire_Up_Distractor.gif"",""img/Fire_Up_Distractor.gif"",""img/Fire_Up_Distractor.gif"",""img/Fire_Up_Distractor.gif"",""img/Fire_Up_Distractor.gif"",""img/Fire_Up_Distractor.gif"",""img/Fire_Up_Distractor.gif"",""img/Fire_Up_Distractor.gif"",""img/Fire_Up_Distractor.gif""]","targetDown_distractorsUp"
"","","","","","html-keyboard-response","20","165212","0.0-14.0-0.0-0.3","5cea276085712e00190bcc66","6186fb1cc52d38b480598eb7","6187318d27d2358c282b4769","null","","null","","","","","fixation","","","",""
"","","","","","visual-search-circle","21","167479","0.0-14.0-0.0-1.3","5cea276085712e00190bcc66","6186fb1cc52d38b480598eb7","6187318d27d2358c282b4769","1262.855000095442","","d","true","[[336,2],[2,263],[263,597],[597,336]]","true","4","","","img/Fire_Up_Target.gif","[""img/Fire_Down_Distractor.gif"",""img/Fire_Down_Distractor.gif"",""img/Fire_Down_Distractor.gif"",""img/Fire_Down_Distractor.gif"",""img/Fire_Down_Distractor.gif"",""img/Fire_Down_Distractor.gif"",""img/Fire_Down_Distractor.gif"",""img/Fire_Down_Distractor.gif"",""img/Fire_Down_Distractor.gif"",""img/Fire_Down_Distractor.gif"",""img/Fire_Down_Distractor.gif"",""img/Fire_Down_Distractor.gif""]","targetUp_distractorsDown"
"","","","","","html-keyboard-response","22","167481","0.0-14.0-0.0-0.4","5cea276085712e00190bcc66","6186fb1cc52d38b480598eb7","6187318d27d2358c282b4769","null","","null","","","","","fixation","","","",""
"","","","","","visual-search-circle","23","169499","0.0-14.0-0.0-1.4","5cea276085712e00190bcc66","6186fb1cc52d38b480598eb7","6187318d27d2358c282b4769","1011.3599998876452","","s","true","[[253,596],[533,488],[580,192],[346,3],[66,111],[19,407]]","false","6","","","img/Fire_Up_Target.gif","[""img/Fire_Down_Distractor.gif"",""img/Fire_Down_Distractor.gif"",""img/Fire_Down_Distractor.gif"",""img/Fire_Down_Distractor.gif"",""img/Fire_Down_Distractor.gif"",""img/Fire_Down_Distractor.gif"",""img/Fire_Down_Distractor.gif"",""img/Fire_Down_Distractor.gif"",""img/Fire_Down_Distractor.gif"",""img/Fire_Down_Distractor.gif"",""img/Fire_Down_Distractor.gif"",""img/Fire_Down_Distractor.gif""]","targetUp_distractorsDown"
"","","","","","html-keyboard-response","24","169501","0.0-14.0-0.0-0.5","5cea276085712e00190bcc66","6186fb1cc52d38b480598eb7","6187318d27d2358c282b4769","null","","null","","","","","fixation","","","",""
"","","","","","visual-search-circle","25","172209","0.0-14.0-0.0-1.5","5cea276085712e00190bcc66","6186fb1cc52d38b480598eb7","6187318d27d2358c282b4769","1702.0350000821054","","s","true","[[454,557],[592,232],[326,1],[23,182],[103,526]]","false","5","","","img/Fire_Down_Target.gif","[""img/Fire_Up_Distractor.gif"",""img/Fire_Up_Distractor.gif"",""img/Fire_Up_Distractor.gif"",""img/Fire_Up_Distractor.gif"",""img/Fire_Up_Distractor.gif"",""img/Fire_Up_Distractor.gif"",""img/Fire_Up_Distractor.gif"",""img/Fire_Up_Distractor.gif"",""img/Fire_Up_Distractor.gif"",""img/Fire_Up_Distractor.gif"",""img/Fire_Up_Distractor.gif"",""img/Fire_Up_Distractor.gif""]","targetDown_distractorsUp"
"","","","","","html-keyboard-response","26","172211","0.0-14.0-0.0-0.6","5cea276085712e00190bcc66","6186fb1cc52d38b480598eb7","6187318d27d2358c282b4769","null","","null","","","","","fixation","","","",""
"","","","","","visual-search-circle","27","174643","0.0-14.0-0.0-1.6","5cea276085712e00190bcc66","6186fb1cc52d38b480598eb7","6187318d27d2358c282b4769","1427.1749998442829","","d","true","[[294,599],[599,305],[305,0],[0,294]]","true","4","","","img/Fire_Up_Target.gif","[""img/Fire_Down_Distractor.gif"",""img/Fire_Down_Distractor.gif"",""img/Fire_Down_Distractor.gif"",""img/Fire_Down_Distractor.gif"",""img/Fire_Down_Distractor.gif"",""img/Fire_Down_Distractor.gif"",""img/Fire_Down_Distractor.gif"",""img/Fire_Down_Distractor.gif"",""img/Fire_Down_Distractor.gif"",""img/Fire_Down_Distractor.gif"",""img/Fire_Down_Distractor.gif"",""img/Fire_Down_Distractor.gif""]","targetUp_distractorsDown"
"","","","","","html-keyboard-response","28","174645","0.0-14.0-0.0-0.7","5cea276085712e00190bcc66","6186fb1cc52d38b480598eb7","6187318d27d2358c282b4769","null","","null","","","","","fixation","","","",""
"","","","","","visual-search-circle","29","177904","0.0-14.0-0.0-1.7","5cea276085712e00190bcc66","6186fb1cc52d38b480598eb7","6187318d27d2358c282b4769","2248.3950001187623","","d","true","[[315,0],[99,77],[0,284],[77,500],[284,599],[500,522],[599,315],[522,99]]","true","8","","","img/Fire_Up_Target.gif","[""img/Fire_Down_Distractor.gif"",""img/Fire_Down_Distractor.gif"",""img/Fire_Down_Distractor.gif"",""img/Fire_Down_Distractor.gif"",""img/Fire_Down_Distractor.gif"",""img/Fire_Down_Distractor.gif"",""img/Fire_Down_Distractor.gif"",""img/Fire_Down_Distractor.gif"",""img/Fire_Down_Distractor.gif"",""img/Fire_Down_Distractor.gif"",""img/Fire_Down_Distractor.gif"",""img/Fire_Down_Distractor.gif""]","targetUp_distractorsDown"
"","","","","","html-keyboard-response","30","177907","0.0-14.0-0.0-0.8","5cea276085712e00190bcc66","6186fb1cc52d38b480598eb7","6187318d27d2358c282b4769","null","","null","","","","","fixation","","","",""
"","","","","","visual-search-circle","31","180151","0.0-14.0-0.0-1.8","5cea276085712e00190bcc66","6186fb1cc52d38b480598eb7","6187318d27d2358c282b4769","1236.975000007078","","d","true","[[3,253],[78,502],[320,599],[546,470],[587,213],[411,21],[151,39]]","true","7","","","img/Fire_Down_Target.gif","[""img/Fire_Up_Distractor.gif"",""img/Fire_Up_Distractor.gif"",""img/Fire_Up_Distractor.gif"",""img/Fire_Up_Distractor.gif"",""img/Fire_Up_Distractor.gif"",""img/Fire_Up_Distractor.gif"",""img/Fire_Up_Distractor.gif"",""img/Fire_Up_Distractor.gif"",""img/Fire_Up_Distractor.gif"",""img/Fire_Up_Distractor.gif"",""img/Fire_Up_Distractor.gif"",""img/Fire_Up_Distractor.gif""]","targetDown_distractorsUp"
"","","","","","html-keyboard-response","32","180154","0.0-14.0-0.0-0.9","5cea276085712e00190bcc66","6186fb1cc52d38b480598eb7","6187318d27d2358c282b4769","null","","null","","","","","fixation","","","",""
"","","","","","visual-search-circle","33","182323","0.0-14.0-0.0-1.9","5cea276085712e00190bcc66","6186fb1cc52d38b480598eb7","6187318d27d2358c282b4769","1164.545000065118","","s","true","[[87,512],[512,512],[512,87],[87,87]]","false","4","","","img/Fire_Up_Target.gif","[""img/Fire_Down_Distractor.gif"",""img/Fire_Down_Distractor.gif"",""img/Fire_Down_Distractor.gif"",""img/Fire_Down_Distractor.gif"",""img/Fire_Down_Distractor.gif"",""img/Fire_Down_Distractor.gif"",""img/Fire_Down_Distractor.gif"",""img/Fire_Down_Distractor.gif"",""img/Fire_Down_Distractor.gif"",""img/Fire_Down_Distractor.gif"",""img/Fire_Down_Distractor.gif"",""img/Fire_Down_Distractor.gif""]","targetUp_distractorsDown"
"","","","","","html-keyboard-response","34","182329","0.0-14.0-0.0-0.10","5cea276085712e00190bcc66","6186fb1cc52d38b480598eb7","6187318d27d2358c282b4769","null","","null","","","","","fixation","","","",""
"","","","","","visual-search-circle","35","185534","0.0-14.0-0.0-1.10","5cea276085712e00190bcc66","6186fb1cc52d38b480598eb7","6187318d27d2358c282b4769","2201.2450001202524","","s","false","[[533,111],[111,66],[66,488],[488,533]]","true","4","","","img/Fire_Up_Target.gif","[""img/Fire_Down_Distractor.gif"",""img/Fire_Down_Distractor.gif"",""img/Fire_Down_Distractor.gif"",""img/Fire_Down_Distractor.gif"",""img/Fire_Down_Distractor.gif"",""img/Fire_Down_Distractor.gif"",""img/Fire_Down_Distractor.gif"",""img/Fire_Down_Distractor.gif"",""img/Fire_Down_Distractor.gif"",""img/Fire_Down_Distractor.gif"",""img/Fire_Down_Distractor.gif"",""img/Fire_Down_Distractor.gif""]","targetUp_distractorsDown"
"","","","","","html-keyboard-response","36","185536","0.0-14.0-0.0-0.11","5cea276085712e00190bcc66","6186fb1cc52d38b480598eb7","6187318d27d2358c282b4769","null","","null","","","","","fixation","","","",""
"","","","","","visual-search-circle","37","188379","0.0-14.0-0.0-1.11","5cea276085712e00190bcc66","6186fb1cc52d38b480598eb7","6187318d27d2358c282b4769","1835.2600000798702","","d","false","[[5,242],[103,526],[397,583],[594,357],[496,73],[202,16]]","false","6","","","img/Fire_Down_Target.gif","[""img/Fire_Up_Distractor.gif"",""img/Fire_Up_Distractor.gif"",""img/Fire_Up_Distractor.gif"",""img/Fire_Up_Distractor.gif"",""img/Fire_Up_Distractor.gif"",""img/Fire_Up_Distractor.gif"",""img/Fire_Up_Distractor.gif"",""img/Fire_Up_Distractor.gif"",""img/Fire_Up_Distractor.gif"",""img/Fire_Up_Distractor.gif"",""img/Fire_Up_Distractor.gif"",""img/Fire_Up_Distractor.gif""]","targetDown_distractorsUp"
"","","","","","html-keyboard-response","38","188382","0.0-14.0-0.0-0.12","5cea276085712e00190bcc66","6186fb1cc52d38b480598eb7","6187318d27d2358c282b4769","null","","null","","","","","fixation","","","",""
"","","","","","visual-search-circle","39","194876","0.0-14.0-0.0-1.12","5cea276085712e00190bcc66","6186fb1cc52d38b480598eb7","6187318d27d2358c282b4769","5488.274999894202","","s","true","[[63,115],[51,467],[382,588],[599,310],[402,18]]","false","5","","","img/Fire_Down_Target.gif","[""img/Fire_Up_Distractor.gif"",""img/Fire_Up_Distractor.gif"",""img/Fire_Up_Distractor.gif"",""img/Fire_Up_Distractor.gif"",""img/Fire_Up_Distractor.gif"",""img/Fire_Up_Distractor.gif"",""img/Fire_Up_Distractor.gif"",""img/Fire_Up_Distractor.gif"",""img/Fire_Up_Distractor.gif"",""img/Fire_Up_Distractor.gif"",""img/Fire_Up_Distractor.gif"",""img/Fire_Up_Distractor.gif""]","targetDown_distractorsUp"
"","","","","","html-keyboard-response","40","194880","0.0-14.0-0.0-0.13","5cea276085712e00190bcc66","6186fb1cc52d38b480598eb7","6187318d27d2358c282b4769","null","","null","","","","","fixation","","","",""
"","","","","","visual-search-circle","41","197609","0.0-14.0-0.0-1.13","5cea276085712e00190bcc66","6186fb1cc52d38b480598eb7","6187318d27d2358c282b4769","1722.8199997916818","","s","true","[[247,595],[529,492],[581,197],[352,4],[70,107],[18,402]]","false","6","","","img/Fire_Down_Target.gif","[""img/Fire_Up_Distractor.gif"",""img/Fire_Up_Distractor.gif"",""img/Fire_Up_Distractor.gif"",""img/Fire_Up_Distractor.gif"",""img/Fire_Up_Distractor.gif"",""img/Fire_Up_Distractor.gif"",""img/Fire_Up_Distractor.gif"",""img/Fire_Up_Distractor.gif"",""img/Fire_Up_Distractor.gif"",""img/Fire_Up_Distractor.gif"",""img/Fire_Up_Distractor.gif"",""img/Fire_Up_Distractor.gif""]","targetDown_distractorsUp"
"","","","","","html-keyboard-response","42","197612","0.0-14.0-0.0-0.14","5cea276085712e00190bcc66","6186fb1cc52d38b480598eb7","6187318d27d2358c282b4769","null","","null","","","","","fixation","","","",""
"","","","","","visual-search-circle","43","200518","0.0-14.0-0.0-1.14","5cea276085712e00190bcc66","6186fb1cc52d38b480598eb7","6187318d27d2358c282b4769","1899.1050000768155","","d","true","[[279,0],[30,168],[51,467],[320,599],[569,431],[548,132]]","true","6","","","img/Fire_Down_Target.gif","[""img/Fire_Up_Distractor.gif"",""img/Fire_Up_Distractor.gif"",""img/Fire_Up_Distractor.gif"",""img/Fire_Up_Distractor.gif"",""img/Fire_Up_Distractor.gif"",""img/Fire_Up_Distractor.gif"",""img/Fire_Up_Distractor.gif"",""img/Fire_Up_Distractor.gif"",""img/Fire_Up_Distractor.gif"",""img/Fire_Up_Distractor.gif"",""img/Fire_Up_Distractor.gif"",""img/Fire_Up_Distractor.gif""]","targetDown_distractorsUp"
"","","","","","html-keyboard-response","44","200520","0.0-14.0-0.0-0.15","5cea276085712e00190bcc66","6186fb1cc52d38b480598eb7","6187318d27d2358c282b4769","null","","null","","","","","fixation","","","",""
"","","","","","visual-search-circle","45","203701","0.0-14.0-0.0-1.15","5cea276085712e00190bcc66","6186fb1cc52d38b480598eb7","6187318d27d2358c282b4769","2172.9149997700006","","s","true","[[458,554],[599,289],[440,35],[141,45],[0,310],[159,564]]","false","6","","","img/Fire_Up_Target.gif","[""img/Fire_Down_Distractor.gif"",""img/Fire_Down_Distractor.gif"",""img/Fire_Down_Distractor.gif"",""img/Fire_Down_Distractor.gif"",""img/Fire_Down_Distractor.gif"",""img/Fire_Down_Distractor.gif"",""img/Fire_Down_Distractor.gif"",""img/Fire_Down_Distractor.gif"",""img/Fire_Down_Distractor.gif"",""img/Fire_Down_Distractor.gif"",""img/Fire_Down_Distractor.gif"",""img/Fire_Down_Distractor.gif""]","targetUp_distractorsDown"
"","","","","","html-keyboard-response","46","203703","0.0-14.0-0.0-0.16","5cea276085712e00190bcc66","6186fb1cc52d38b480598eb7","6187318d27d2358c282b4769","null","","null","","","","","fixation","","","",""
"","","","","","visual-search-circle","47","206351","0.0-14.0-0.0-1.16","5cea276085712e00190bcc66","6186fb1cc52d38b480598eb7","6187318d27d2358c282b4769","1641.9249998871237","","s","true","[[222,589],[512,512],[589,222],[377,10],[87,87],[10,377]]","false","6","","","img/Fire_Up_Target.gif","[""img/Fire_Down_Distractor.gif"",""img/Fire_Down_Distractor.gif"",""img/Fire_Down_Distractor.gif"",""img/Fire_Down_Distractor.gif"",""img/Fire_Down_Distractor.gif"",""img/Fire_Down_Distractor.gif"",""img/Fire_Down_Distractor.gif"",""img/Fire_Down_Distractor.gif"",""img/Fire_Down_Distractor.gif"",""img/Fire_Down_Distractor.gif"",""img/Fire_Down_Distractor.gif"",""img/Fire_Down_Distractor.gif""]","targetUp_distractorsDown"
"","","","","","html-keyboard-response","48","206353","0.0-14.0-0.0-0.17","5cea276085712e00190bcc66","6186fb1cc52d38b480598eb7","6187318d27d2358c282b4769","null","","null","","","","","fixation","","","",""
"","","","","","visual-search-circle","49","209438","0.0-14.0-0.0-1.17","5cea276085712e00190bcc66","6186fb1cc52d38b480598eb7","6187318d27d2358c282b4769","2078.2850000541657","","s","true","[[253,596],[596,346],[346,3],[3,253]]","false","4","","","img/Fire_Up_Target.gif","[""img/Fire_Down_Distractor.gif"",""img/Fire_Down_Distractor.gif"",""img/Fire_Down_Distractor.gif"",""img/Fire_Down_Distractor.gif"",""img/Fire_Down_Distractor.gif"",""img/Fire_Down_Distractor.gif"",""img/Fire_Down_Distractor.gif"",""img/Fire_Down_Distractor.gif"",""img/Fire_Down_Distractor.gif"",""img/Fire_Down_Distractor.gif"",""img/Fire_Down_Distractor.gif"",""img/Fire_Down_Distractor.gif""]","targetUp_distractorsDown"
"","","","","","html-keyboard-response","50","209444","0.0-14.0-0.0-0.18","5cea276085712e00190bcc66","6186fb1cc52d38b480598eb7","6187318d27d2358c282b4769","null","","null","","","","","fixation","","","",""
"","","","","","visual-search-circle","51","211627","0.0-14.0-0.0-1.18","5cea276085712e00190bcc66","6186fb1cc52d38b480598eb7","6187318d27d2358c282b4769","1179.2399999685585","","d","true","[[177,25],[25,422],[422,574],[574,177]]","true","4","","","img/Fire_Up_Target.gif","[""img/Fire_Down_Distractor.gif"",""img/Fire_Down_Distractor.gif"",""img/Fire_Down_Distractor.gif"",""img/Fire_Down_Distractor.gif"",""img/Fire_Down_Distractor.gif"",""img/Fire_Down_Distractor.gif"",""img/Fire_Down_Distractor.gif"",""img/Fire_Down_Distractor.gif"",""img/Fire_Down_Distractor.gif"",""img/Fire_Down_Distractor.gif"",""img/Fire_Down_Distractor.gif"",""img/Fire_Down_Distractor.gif""]","targetUp_distractorsDown"
"","","","","","html-keyboard-response","52","218251","0.0-14.0-0.0-0.19","5cea276085712e00190bcc66","6186fb1cc52d38b480598eb7","6187318d27d2358c282b4769","6623.309999937192","Wow! You've completed 20 out of 120 trials! </p> <p>  </p><p> Take a quick break, then press any key when you're ready to continue."," ","","","","","fixation","","","",""
"","","","","","visual-search-circle","53","221846","0.0-14.0-0.0-1.19","5cea276085712e00190bcc66","6186fb1cc52d38b480598eb7","6187318d27d2358c282b4769","2586.4450000226498","","s","true","[[107,70],[0,307],[118,539],[374,590],[573,423],[566,163],[359,5]]","false","7","","","img/Fire_Up_Target.gif","[""img/Fire_Down_Distractor.gif"",""img/Fire_Down_Distractor.gif"",""img/Fire_Down_Distractor.gif"",""img/Fire_Down_Distractor.gif"",""img/Fire_Down_Distractor.gif"",""img/Fire_Down_Distractor.gif"",""img/Fire_Down_Distractor.gif"",""img/Fire_Down_Distractor.gif"",""img/Fire_Down_Distractor.gif"",""img/Fire_Down_Distractor.gif"",""img/Fire_Down_Distractor.gif"",""img/Fire_Down_Distractor.gif""]","targetUp_distractorsDown"
"","","","","","html-keyboard-response","54","221848","0.0-14.0-0.0-0.20","5cea276085712e00190bcc66","6186fb1cc52d38b480598eb7","6187318d27d2358c282b4769","null","","null","","","","","fixation","","","",""
"","","","","","visual-search-circle","55","224066","0.0-14.0-0.0-1.20","5cea276085712e00190bcc66","6186fb1cc52d38b480598eb7","6187318d27d2358c282b4769","1210.0450000725687","","d","true","[[1,273],[127,545],[426,571],[598,326],[472,54],[173,28]]","true","6","","","img/Fire_Down_Target.gif","[""img/Fire_Up_Distractor.gif"",""img/Fire_Up_Distractor.gif"",""img/Fire_Up_Distractor.gif"",""img/Fire_Up_Distractor.gif"",""img/Fire_Up_Distractor.gif"",""img/Fire_Up_Distractor.gif"",""img/Fire_Up_Distractor.gif"",""img/Fire_Up_Distractor.gif"",""img/Fire_Up_Distractor.gif"",""img/Fire_Up_Distractor.gif"",""img/Fire_Up_Distractor.gif"",""img/Fire_Up_Distractor.gif""]","targetDown_distractorsUp"
"","","","","","html-keyboard-response","56","224068","0.0-14.0-0.0-0.21","5cea276085712e00190bcc66","6186fb1cc52d38b480598eb7","6187318d27d2358c282b4769","null","","null","","","","","fixation","","","",""
"","","","","","visual-search-circle","57","226768","0.0-14.0-0.0-1.21","5cea276085712e00190bcc66","6186fb1cc52d38b480598eb7","6187318d27d2358c282b4769","1694.039999973029","","s","true","[[217,11],[11,382],[382,588],[588,217]]","false","4","","","img/Fire_Down_Target.gif","[""img/Fire_Up_Distractor.gif"",""img/Fire_Up_Distractor.gif"",""img/Fire_Up_Distractor.gif"",""img/Fire_Up_Distractor.gif"",""img/Fire_Up_Distractor.gif"",""img/Fire_Up_Distractor.gif"",""img/Fire_Up_Distractor.gif"",""img/Fire_Up_Distractor.gif"",""img/Fire_Up_Distractor.gif"",""img/Fire_Up_Distractor.gif"",""img/Fire_Up_Distractor.gif"",""img/Fire_Up_Distractor.gif""]","targetDown_distractorsUp"
"","","","","","html-keyboard-response","58","226770","0.0-14.0-0.0-0.22","5cea276085712e00190bcc66","6186fb1cc52d38b480598eb7","6187318d27d2358c282b4769","null","","null","","","","","fixation","","","",""
"","","","","","visual-search-circle","59","229164","0.0-14.0-0.0-1.22","5cea276085712e00190bcc66","6186fb1cc52d38b480598eb7","6187318d27d2358c282b4769","1385.634999955073","","d","true","[[119,60],[0,291],[106,529],[358,594],[566,437],[573,177],[374,9]]","true","7","","","img/Fire_Up_Target.gif","[""img/Fire_Down_Distractor.gif"",""img/Fire_Down_Distractor.gif"",""img/Fire_Down_Distractor.gif"",""img/Fire_Down_Distractor.gif"",""img/Fire_Down_Distractor.gif"",""img/Fire_Down_Distractor.gif"",""img/Fire_Down_Distractor.gif"",""img/Fire_Down_Distractor.gif"",""img/Fire_Down_Distractor.gif"",""img/Fire_Down_Distractor.gif"",""img/Fire_Down_Distractor.gif"",""img/Fire_Down_Distractor.gif""]","targetUp_distractorsDown"
"","","","","","html-keyboard-response","60","229166","0.0-14.0-0.0-0.23","5cea276085712e00190bcc66","6186fb1cc52d38b480598eb7","6187318d27d2358c282b4769","null","","null","","","","","fixation","","","",""
"","","","","","visual-search-circle","61","232633","0.0-14.0-0.0-1.23","5cea276085712e00190bcc66","6186fb1cc52d38b480598eb7","6187318d27d2358c282b4769","2459.5500000286847","","d","true","[[0,289],[141,554],[440,564],[599,310],[458,45],[159,35]]","true","6","","","img/Fire_Down_Target.gif","[""img/Fire_Up_Distractor.gif"",""img/Fire_Up_Distractor.gif"",""img/Fire_Up_Distractor.gif"",""img/Fire_Up_Distractor.gif"",""img/Fire_Up_Distractor.gif"",""img/Fire_Up_Distractor.gif"",""img/Fire_Up_Distractor.gif"",""img/Fire_Up_Distractor.gif"",""img/Fire_Up_Distractor.gif"",""img/Fire_Up_Distractor.gif"",""img/Fire_Up_Distractor.gif"",""img/Fire_Up_Distractor.gif""]","targetDown_distractorsUp"
"","","","","","html-keyboard-response","62","232636","0.0-14.0-0.0-0.24","5cea276085712e00190bcc66","6186fb1cc52d38b480598eb7","6187318d27d2358c282b4769","null","","null","","","","","fixation","","","",""
"","","","","","visual-search-circle","63","235366","0.0-14.0-0.0-1.24","5cea276085712e00190bcc66","6186fb1cc52d38b480598eb7","6187318d27d2358c282b4769","1724.6850000228733","","s","true","[[417,576],[576,182],[182,23],[23,417]]","false","4","","","img/Fire_Up_Target.gif","[""img/Fire_Down_Distractor.gif"",""img/Fire_Down_Distractor.gif"",""img/Fire_Down_Distractor.gif"",""img/Fire_Down_Distractor.gif"",""img/Fire_Down_Distractor.gif"",""img/Fire_Down_Distractor.gif"",""img/Fire_Down_Distractor.gif"",""img/Fire_Down_Distractor.gif"",""img/Fire_Down_Distractor.gif"",""img/Fire_Down_Distractor.gif"",""img/Fire_Down_Distractor.gif"",""img/Fire_Down_Distractor.gif""]","targetUp_distractorsDown"
"","","","","","html-keyboard-response","64","235368","0.0-14.0-0.0-0.25","5cea276085712e00190bcc66","6186fb1cc52d38b480598eb7","6187318d27d2358c282b4769","null","","null","","","","","fixation","","","",""
"","","","","","visual-search-circle","65","237505","0.0-14.0-0.0-1.25","5cea276085712e00190bcc66","6186fb1cc52d38b480598eb7","6187318d27d2358c282b4769","1131.410000147298","","d","false","[[247,4],[2,258],[168,569],[515,508],[564,159]]","false","5","","","img/Fire_Up_Target.gif","[""img/Fire_Down_Distractor.gif"",""img/Fire_Down_Distractor.gif"",""img/Fire_Down_Distractor.gif"",""img/Fire_Down_Distractor.gif"",""img/Fire_Down_Distractor.gif"",""img/Fire_Down_Distractor.gif"",""img/Fire_Down_Distractor.gif"",""img/Fire_Down_Distractor.gif"",""img/Fire_Down_Distractor.gif"",""img/Fire_Down_Distractor.gif"",""img/Fire_Down_Distractor.gif"",""img/Fire_Down_Distractor.gif""]","targetUp_distractorsDown"
"","","","","","html-keyboard-response","66","237507","0.0-14.0-0.0-0.26","5cea276085712e00190bcc66","6186fb1cc52d38b480598eb7","6187318d27d2358c282b4769","null","","null","","","","","fixation","","","",""
"","","","","","visual-search-circle","67","239562","0.0-14.0-0.0-1.26","5cea276085712e00190bcc66","6186fb1cc52d38b480598eb7","6187318d27d2358c282b4769","1048.2499999925494","","d","true","[[28,173],[54,472],[326,598],[571,426],[545,127],[273,1]]","true","6","","","img/Fire_Up_Target.gif","[""img/Fire_Down_Distractor.gif"",""img/Fire_Down_Distractor.gif"",""img/Fire_Down_Distractor.gif"",""img/Fire_Down_Distractor.gif"",""img/Fire_Down_Distractor.gif"",""img/Fire_Down_Distractor.gif"",""img/Fire_Down_Distractor.gif"",""img/Fire_Down_Distractor.gif"",""img/Fire_Down_Distractor.gif"",""img/Fire_Down_Distractor.gif"",""img/Fire_Down_Distractor.gif"",""img/Fire_Down_Distractor.gif""]","targetUp_distractorsDown"
"","","","","","html-keyboard-response","68","239565","0.0-14.0-0.0-0.27","5cea276085712e00190bcc66","6186fb1cc52d38b480598eb7","6187318d27d2358c282b4769","null","","null","","","","","fixation","","","",""
"","","","","","visual-search-circle","69","242010","0.0-14.0-0.0-1.27","5cea276085712e00190bcc66","6186fb1cc52d38b480598eb7","6187318d27d2358c282b4769","1436.5650000981987","","d","true","[[4,352],[156,563],[416,576],[588,381],[543,124],[314,0],[75,101]]","true","7","","","img/Fire_Down_Target.gif","[""img/Fire_Up_Distractor.gif"",""img/Fire_Up_Distractor.gif"",""img/Fire_Up_Distractor.gif"",""img/Fire_Up_Distractor.gif"",""img/Fire_Up_Distractor.gif"",""img/Fire_Up_Distractor.gif"",""img/Fire_Up_Distractor.gif"",""img/Fire_Up_Distractor.gif"",""img/Fire_Up_Distractor.gif"",""img/Fire_Up_Distractor.gif"",""img/Fire_Up_Distractor.gif"",""img/Fire_Up_Distractor.gif""]","targetDown_distractorsUp"
"","","","","","html-keyboard-response","70","242012","0.0-14.0-0.0-0.28","5cea276085712e00190bcc66","6186fb1cc52d38b480598eb7","6187318d27d2358c282b4769","null","","null","","","","","fixation","","","",""
"","","","","","visual-search-circle","71","244048","0.0-14.0-0.0-1.28","5cea276085712e00190bcc66","6186fb1cc52d38b480598eb7","6187318d27d2358c282b4769","1027.8649998363107","","d","true","[[263,597],[510,514],[598,269],[462,47],[203,15],[17,198],[44,457]]","true","7","","","img/Fire_Down_Target.gif","[""img/Fire_Up_Distractor.gif"",""img/Fire_Up_Distractor.gif"",""img/Fire_Up_Distractor.gif"",""img/Fire_Up_Distractor.gif"",""img/Fire_Up_Distractor.gif"",""img/Fire_Up_Distractor.gif"",""img/Fire_Up_Distractor.gif"",""img/Fire_Up_Distractor.gif"",""img/Fire_Up_Distractor.gif"",""img/Fire_Up_Distractor.gif"",""img/Fire_Up_Distractor.gif"",""img/Fire_Up_Distractor.gif""]","targetDown_distractorsUp"
"","","","","","html-keyboard-response","72","244050","0.0-14.0-0.0-0.29","5cea276085712e00190bcc66","6186fb1cc52d38b480598eb7","6187318d27d2358c282b4769","null","","null","","","","","fixation","","","",""
"","","","","","visual-search-circle","73","246044","0.0-14.0-0.0-1.29","5cea276085712e00190bcc66","6186fb1cc52d38b480598eb7","6187318d27d2358c282b4769","985.964999999851","","d","true","[[352,4],[127,54],[4,247],[54,472],[247,595],[472,545],[595,352],[545,127]]","true","8","","","img/Fire_Down_Target.gif","[""img/Fire_Up_Distractor.gif"",""img/Fire_Up_Distractor.gif"",""img/Fire_Up_Distractor.gif"",""img/Fire_Up_Distractor.gif"",""img/Fire_Up_Distractor.gif"",""img/Fire_Up_Distractor.gif"",""img/Fire_Up_Distractor.gif"",""img/Fire_Up_Distractor.gif"",""img/Fire_Up_Distractor.gif"",""img/Fire_Up_Distractor.gif"",""img/Fire_Up_Distractor.gif"",""img/Fire_Up_Distractor.gif""]","targetDown_distractorsUp"
"","","","","","html-keyboard-response","74","246046","0.0-14.0-0.0-0.30","5cea276085712e00190bcc66","6186fb1cc52d38b480598eb7","6187318d27d2358c282b4769","null","","null","","","","","fixation","","","",""
"","","","","","visual-search-circle","75","248010","0.0-14.0-0.0-1.30","5cea276085712e00190bcc66","6186fb1cc52d38b480598eb7","6187318d27d2358c282b4769","954.0999999735504","","s","false","[[422,25],[77,99],[40,450],[362,593],[598,331]]","true","5","","","img/Fire_Up_Target.gif","[""img/Fire_Down_Distractor.gif"",""img/Fire_Down_Distractor.gif"",""img/Fire_Down_Distractor.gif"",""img/Fire_Down_Distractor.gif"",""img/Fire_Down_Distractor.gif"",""img/Fire_Down_Distractor.gif"",""img/Fire_Down_Distractor.gif"",""img/Fire_Down_Distractor.gif"",""img/Fire_Down_Distractor.gif"",""img/Fire_Down_Distractor.gif"",""img/Fire_Down_Distractor.gif"",""img/Fire_Down_Distractor.gif""]","targetUp_distractorsDown"
"","","","","","html-keyboard-response","76","248014","0.0-14.0-0.0-0.31","5cea276085712e00190bcc66","6186fb1cc52d38b480598eb7","6187318d27d2358c282b4769","null","","null","","","","","fixation","","","",""
"","","","","","visual-search-circle","77","250632","0.0-14.0-0.0-1.31","5cea276085712e00190bcc66","6186fb1cc52d38b480598eb7","6187318d27d2358c282b4769","1607.564999954775","","d","true","[[279,599],[548,467],[569,168],[320,0],[51,132],[30,431]]","true","6","","","img/Fire_Up_Target.gif","[""img/Fire_Down_Distractor.gif"",""img/Fire_Down_Distractor.gif"",""img/Fire_Down_Distractor.gif"",""img/Fire_Down_Distractor.gif"",""img/Fire_Down_Distractor.gif"",""img/Fire_Down_Distractor.gif"",""img/Fire_Down_Distractor.gif"",""img/Fire_Down_Distractor.gif"",""img/Fire_Down_Distractor.gif"",""img/Fire_Down_Distractor.gif"",""img/Fire_Down_Distractor.gif"",""img/Fire_Down_Distractor.gif""]","targetUp_distractorsDown"
"","","","","","html-keyboard-response","78","250634","0.0-14.0-0.0-0.32","5cea276085712e00190bcc66","6186fb1cc52d38b480598eb7","6187318d27d2358c282b4769","null","","null","","","","","fixation","","","",""
"","","","","","visual-search-circle","79","252562","0.0-14.0-0.0-1.32","5cea276085712e00190bcc66","6186fb1cc52d38b480598eb7","6187318d27d2358c282b4769","920.4500000923872","","d","true","[[222,10],[10,222],[87,512],[377,589],[589,377],[512,87]]","true","6","","","img/Fire_Down_Target.gif","[""img/Fire_Up_Distractor.gif"",""img/Fire_Up_Distractor.gif"",""img/Fire_Up_Distractor.gif"",""img/Fire_Up_Distractor.gif"",""img/Fire_Up_Distractor.gif"",""img/Fire_Up_Distractor.gif"",""img/Fire_Up_Distractor.gif"",""img/Fire_Up_Distractor.gif"",""img/Fire_Up_Distractor.gif"",""img/Fire_Up_Distractor.gif"",""img/Fire_Up_Distractor.gif"",""img/Fire_Up_Distractor.gif""]","targetDown_distractorsUp"
"","","","","","html-keyboard-response","80","252564","0.0-14.0-0.0-0.33","5cea276085712e00190bcc66","6186fb1cc52d38b480598eb7","6187318d27d2358c282b4769","null","","null","","","","","fixation","","","",""
"","","","","","visual-search-circle","81","254997","0.0-14.0-0.0-1.33","5cea276085712e00190bcc66","6186fb1cc52d38b480598eb7","6187318d27d2358c282b4769","1425.3000000026077","","s","true","[[273,1],[50,134],[14,391],[193,580],[453,557],[597,341],[517,93]]","false","7","","","img/Fire_Down_Target.gif","[""img/Fire_Up_Distractor.gif"",""img/Fire_Up_Distractor.gif"",""img/Fire_Up_Distractor.gif"",""img/Fire_Up_Distractor.gif"",""img/Fire_Up_Distractor.gif"",""img/Fire_Up_Distractor.gif"",""img/Fire_Up_Distractor.gif"",""img/Fire_Up_Distractor.gif"",""img/Fire_Up_Distractor.gif"",""img/Fire_Up_Distractor.gif"",""img/Fire_Up_Distractor.gif"",""img/Fire_Up_Distractor.gif""]","targetDown_distractorsUp"
"","","","","","html-keyboard-response","82","255000","0.0-14.0-0.0-0.34","5cea276085712e00190bcc66","6186fb1cc52d38b480598eb7","6187318d27d2358c282b4769","null","","null","","","","","fixation","","","",""
"","","","","","visual-search-circle","83","256914","0.0-14.0-0.0-1.34","5cea276085712e00190bcc66","6186fb1cc52d38b480598eb7","6187318d27d2358c282b4769","904.9549999181181","","d","true","[[48,136],[6,362],[136,551],[362,593],[551,463],[593,237],[463,48],[237,6]]","true","8","","","img/Fire_Down_Target.gif","[""img/Fire_Up_Distractor.gif"",""img/Fire_Up_Distractor.gif"",""img/Fire_Up_Distractor.gif"",""img/Fire_Up_Distractor.gif"",""img/Fire_Up_Distractor.gif"",""img/Fire_Up_Distractor.gif"",""img/Fire_Up_Distractor.gif"",""img/Fire_Up_Distractor.gif"",""img/Fire_Up_Distractor.gif"",""img/Fire_Up_Distractor.gif"",""img/Fire_Up_Distractor.gif"",""img/Fire_Up_Distractor.gif""]","targetDown_distractorsUp"
"","","","","","html-keyboard-response","84","256917","0.0-14.0-0.0-0.35","5cea276085712e00190bcc66","6186fb1cc52d38b480598eb7","6187318d27d2358c282b4769","null","","null","","","","","fixation","","","",""
"","","","","","visual-search-circle","85","259322","0.0-14.0-0.0-1.35","5cea276085712e00190bcc66","6186fb1cc52d38b480598eb7","6187318d27d2358c282b4769","1391.5249998681247","","d","true","[[454,42],[227,8],[42,145],[8,372],[145,557],[372,591],[557,454],[591,227]]","true","8","","","img/Fire_Up_Target.gif","[""img/Fire_Down_Distractor.gif"",""img/Fire_Down_Distractor.gif"",""img/Fire_Down_Distractor.gif"",""img/Fire_Down_Distractor.gif"",""img/Fire_Down_Distractor.gif"",""img/Fire_Down_Distractor.gif"",""img/Fire_Down_Distractor.gif"",""img/Fire_Down_Distractor.gif"",""img/Fire_Down_Distractor.gif"",""img/Fire_Down_Distractor.gif"",""img/Fire_Down_Distractor.gif"",""img/Fire_Down_Distractor.gif""]","targetUp_distractorsDown"
"","","","","","html-keyboard-response","86","259324","0.0-14.0-0.0-0.36","5cea276085712e00190bcc66","6186fb1cc52d38b480598eb7","6187318d27d2358c282b4769","null","","null","","","","","fixation","","","",""
"","","","","","visual-search-circle","87","262078","0.0-14.0-0.0-1.36","5cea276085712e00190bcc66","6186fb1cc52d38b480598eb7","6187318d27d2358c282b4769","1745.1299999374896","","d","true","[[591,227],[424,27],[164,32],[6,239],[69,491],[305,599],[538,482]]","true","7","","","img/Fire_Down_Target.gif","[""img/Fire_Up_Distractor.gif"",""img/Fire_Up_Distractor.gif"",""img/Fire_Up_Distractor.gif"",""img/Fire_Up_Distractor.gif"",""img/Fire_Up_Distractor.gif"",""img/Fire_Up_Distractor.gif"",""img/Fire_Up_Distractor.gif"",""img/Fire_Up_Distractor.gif"",""img/Fire_Up_Distractor.gif"",""img/Fire_Up_Distractor.gif"",""img/Fire_Up_Distractor.gif"",""img/Fire_Up_Distractor.gif""]","targetDown_distractorsUp"
"","","","","","html-keyboard-response","88","262081","0.0-14.0-0.0-0.37","5cea276085712e00190bcc66","6186fb1cc52d38b480598eb7","6187318d27d2358c282b4769","null","","null","","","","","fixation","","","",""
"","","","","","visual-search-circle","89","264353","0.0-14.0-0.0-1.37","5cea276085712e00190bcc66","6186fb1cc52d38b480598eb7","6187318d27d2358c282b4769","1264.424999943003","","d","true","[[545,472],[587,215],[413,22],[153,38],[3,251],[77,501],[318,599]]","true","7","","","img/Fire_Up_Target.gif","[""img/Fire_Down_Distractor.gif"",""img/Fire_Down_Distractor.gif"",""img/Fire_Down_Distractor.gif"",""img/Fire_Down_Distractor.gif"",""img/Fire_Down_Distractor.gif"",""img/Fire_Down_Distractor.gif"",""img/Fire_Down_Distractor.gif"",""img/Fire_Down_Distractor.gif"",""img/Fire_Down_Distractor.gif"",""img/Fire_Down_Distractor.gif"",""img/Fire_Down_Distractor.gif"",""img/Fire_Down_Distractor.gif""]","targetUp_distractorsDown"
"","","","","","html-keyboard-response","90","264355","0.0-14.0-0.0-0.38","5cea276085712e00190bcc66","6186fb1cc52d38b480598eb7","6187318d27d2358c282b4769","null","","null","","","","","fixation","","","",""
"","","","","","visual-search-circle","91","266633","0.0-14.0-0.0-1.38","5cea276085712e00190bcc66","6186fb1cc52d38b480598eb7","6187318d27d2358c282b4769","1272.9899999685585","","s","true","[[202,583],[583,397],[397,16],[16,202]]","false","4","","","img/Fire_Up_Target.gif","[""img/Fire_Down_Distractor.gif"",""img/Fire_Down_Distractor.gif"",""img/Fire_Down_Distractor.gif"",""img/Fire_Down_Distractor.gif"",""img/Fire_Down_Distractor.gif"",""img/Fire_Down_Distractor.gif"",""img/Fire_Down_Distractor.gif"",""img/Fire_Down_Distractor.gif"",""img/Fire_Down_Distractor.gif"",""img/Fire_Down_Distractor.gif"",""img/Fire_Down_Distractor.gif"",""img/Fire_Down_Distractor.gif""]","targetUp_distractorsDown"
"","","","","","html-keyboard-response","92","269394","0.0-14.0-0.0-0.39","5cea276085712e00190bcc66","6186fb1cc52d38b480598eb7","6187318d27d2358c282b4769","2759.800000116229","Wow! You've completed 40 out of 120 trials! </p> <p>  </p><p> Take a quick break, then press any key when you're ready to continue."," ","","","","","fixation","","","",""
"","","","","","visual-search-circle","93","272312","0.0-14.0-0.0-1.39","5cea276085712e00190bcc66","6186fb1cc52d38b480598eb7","6187318d27d2358c282b4769","1906.3399999868125","","s","true","[[515,91],[271,1],[48,135],[15,394],[195,581],[455,556],[597,338]]","false","7","","","img/Fire_Up_Target.gif","[""img/Fire_Down_Distractor.gif"",""img/Fire_Down_Distractor.gif"",""img/Fire_Down_Distractor.gif"",""img/Fire_Down_Distractor.gif"",""img/Fire_Down_Distractor.gif"",""img/Fire_Down_Distractor.gif"",""img/Fire_Down_Distractor.gif"",""img/Fire_Down_Distractor.gif"",""img/Fire_Down_Distractor.gif"",""img/Fire_Down_Distractor.gif"",""img/Fire_Down_Distractor.gif"",""img/Fire_Down_Distractor.gif""]","targetUp_distractorsDown"
"","","","","","html-keyboard-response","94","272314","0.0-14.0-0.0-0.40","5cea276085712e00190bcc66","6186fb1cc52d38b480598eb7","6187318d27d2358c282b4769","null","","null","","","","","fixation","","","",""
"","","","","","visual-search-circle","95","274513","0.0-14.0-0.0-1.40","5cea276085712e00190bcc66","6186fb1cc52d38b480598eb7","6187318d27d2358c282b4769","1191.615000134334","","d","true","[[504,519],[592,232],[387,13],[95,80],[7,367],[212,586]]","true","6","","","img/Fire_Down_Target.gif","[""img/Fire_Up_Distractor.gif"",""img/Fire_Up_Distractor.gif"",""img/Fire_Up_Distractor.gif"",""img/Fire_Up_Distractor.gif"",""img/Fire_Up_Distractor.gif"",""img/Fire_Up_Distractor.gif"",""img/Fire_Up_Distractor.gif"",""img/Fire_Up_Distractor.gif"",""img/Fire_Up_Distractor.gif"",""img/Fire_Up_Distractor.gif"",""img/Fire_Up_Distractor.gif"",""img/Fire_Up_Distractor.gif""]","targetDown_distractorsUp"
"","","","","","html-keyboard-response","96","274516","0.0-14.0-0.0-0.41","5cea276085712e00190bcc66","6186fb1cc52d38b480598eb7","6187318d27d2358c282b4769","null","","null","","","","","fixation","","","",""
"","","","","","visual-search-circle","97","276366","0.0-14.0-0.0-1.41","5cea276085712e00190bcc66","6186fb1cc52d38b480598eb7","6187318d27d2358c282b4769","844.5049999281764","","d","true","[[567,436],[551,136],[284,0],[32,163],[48,463],[315,599]]","true","6","","","img/Fire_Up_Target.gif","[""img/Fire_Down_Distractor.gif"",""img/Fire_Down_Distractor.gif"",""img/Fire_Down_Distractor.gif"",""img/Fire_Down_Distractor.gif"",""img/Fire_Down_Distractor.gif"",""img/Fire_Down_Distractor.gif"",""img/Fire_Down_Distractor.gif"",""img/Fire_Down_Distractor.gif"",""img/Fire_Down_Distractor.gif"",""img/Fire_Down_Distractor.gif"",""img/Fire_Down_Distractor.gif"",""img/Fire_Down_Distractor.gif""]","targetUp_distractorsDown"
"","","","","","html-keyboard-response","98","276369","0.0-14.0-0.0-0.42","5cea276085712e00190bcc66","6186fb1cc52d38b480598eb7","6187318d27d2358c282b4769","null","","null","","","","","fixation","","","",""
"","","","","","visual-search-circle","99","278440","0.0-14.0-0.0-1.42","5cea276085712e00190bcc66","6186fb1cc52d38b480598eb7","6187318d27d2358c282b4769","1058.5049998480827","","s","true","[[154,562],[382,588],[562,445],[588,217],[445,37],[217,11],[37,154],[11,382]]","false","8","","","img/Fire_Up_Target.gif","[""img/Fire_Down_Distractor.gif"",""img/Fire_Down_Distractor.gif"",""img/Fire_Down_Distractor.gif"",""img/Fire_Down_Distractor.gif"",""img/Fire_Down_Distractor.gif"",""img/Fire_Down_Distractor.gif"",""img/Fire_Down_Distractor.gif"",""img/Fire_Down_Distractor.gif"",""img/Fire_Down_Distractor.gif"",""img/Fire_Down_Distractor.gif"",""img/Fire_Down_Distractor.gif"",""img/Fire_Down_Distractor.gif""]","targetUp_distractorsDown"
"","","","","","html-keyboard-response","100","278442","0.0-14.0-0.0-0.43","5cea276085712e00190bcc66","6186fb1cc52d38b480598eb7","6187318d27d2358c282b4769","null","","null","","","","","fixation","","","",""
"","","","","","visual-search-circle","101","281264","0.0-14.0-0.0-1.43","5cea276085712e00190bcc66","6186fb1cc52d38b480598eb7","6187318d27d2358c282b4769","1814.0100000891834","","s","true","[[508,515],[591,227],[382,11],[91,84],[8,372],[217,588]]","false","6","","","img/Fire_Down_Target.gif","[""img/Fire_Up_Distractor.gif"",""img/Fire_Up_Distractor.gif"",""img/Fire_Up_Distractor.gif"",""img/Fire_Up_Distractor.gif"",""img/Fire_Up_Distractor.gif"",""img/Fire_Up_Distractor.gif"",""img/Fire_Up_Distractor.gif"",""img/Fire_Up_Distractor.gif"",""img/Fire_Up_Distractor.gif"",""img/Fire_Up_Distractor.gif"",""img/Fire_Up_Distractor.gif"",""img/Fire_Up_Distractor.gif""]","targetDown_distractorsUp"
"","","","","","html-keyboard-response","102","281266","0.0-14.0-0.0-0.44","5cea276085712e00190bcc66","6186fb1cc52d38b480598eb7","6187318d27d2358c282b4769","null","","null","","","","","fixation","","","",""
"","","","","","visual-search-circle","103","283279","0.0-14.0-0.0-1.44","5cea276085712e00190bcc66","6186fb1cc52d38b480598eb7","6187318d27d2358c282b4769","1007.4149998836219","","d","true","[[268,1],[1,331],[331,598],[598,268]]","true","4","","","img/Fire_Up_Target.gif","[""img/Fire_Down_Distractor.gif"",""img/Fire_Down_Distractor.gif"",""img/Fire_Down_Distractor.gif"",""img/Fire_Down_Distractor.gif"",""img/Fire_Down_Distractor.gif"",""img/Fire_Down_Distractor.gif"",""img/Fire_Down_Distractor.gif"",""img/Fire_Down_Distractor.gif"",""img/Fire_Down_Distractor.gif"",""img/Fire_Down_Distractor.gif"",""img/Fire_Down_Distractor.gif"",""img/Fire_Down_Distractor.gif""]","targetUp_distractorsDown"
"","","","","","html-keyboard-response","104","283282","0.0-14.0-0.0-0.45","5cea276085712e00190bcc66","6186fb1cc52d38b480598eb7","6187318d27d2358c282b4769","null","","null","","","","","fixation","","","",""
"","","","","","visual-search-circle","105","285782","0.0-14.0-0.0-1.45","5cea276085712e00190bcc66","6186fb1cc52d38b480598eb7","6187318d27d2358c282b4769","1494.484999915585","","s","true","[[372,8],[45,141],[70,492],[412,578],[599,279]]","false","5","","","img/Fire_Down_Target.gif","[""img/Fire_Up_Distractor.gif"",""img/Fire_Up_Distractor.gif"",""img/Fire_Up_Distractor.gif"",""img/Fire_Up_Distractor.gif"",""img/Fire_Up_Distractor.gif"",""img/Fire_Up_Distractor.gif"",""img/Fire_Up_Distractor.gif"",""img/Fire_Up_Distractor.gif"",""img/Fire_Up_Distractor.gif"",""img/Fire_Up_Distractor.gif"",""img/Fire_Up_Distractor.gif"",""img/Fire_Up_Distractor.gif""]","targetDown_distractorsUp"
"","","","","","html-keyboard-response","106","285784","0.0-14.0-0.0-0.46","5cea276085712e00190bcc66","6186fb1cc52d38b480598eb7","6187318d27d2358c282b4769","null","","null","","","","","fixation","","","",""
"","","","","","visual-search-circle","107","288284","0.0-14.0-0.0-1.46","5cea276085712e00190bcc66","6186fb1cc52d38b480598eb7","6187318d27d2358c282b4769","1493.0999998468906","","s","true","[[232,7],[1,273],[182,576],[526,496],[557,145]]","false","5","","","img/Fire_Down_Target.gif","[""img/Fire_Up_Distractor.gif"",""img/Fire_Up_Distractor.gif"",""img/Fire_Up_Distractor.gif"",""img/Fire_Up_Distractor.gif"",""img/Fire_Up_Distractor.gif"",""img/Fire_Up_Distractor.gif"",""img/Fire_Up_Distractor.gif"",""img/Fire_Up_Distractor.gif"",""img/Fire_Up_Distractor.gif"",""img/Fire_Up_Distractor.gif"",""img/Fire_Up_Distractor.gif"",""img/Fire_Up_Distractor.gif""]","targetDown_distractorsUp"
"","","","","","html-keyboard-response","108","288286","0.0-14.0-0.0-0.47","5cea276085712e00190bcc66","6186fb1cc52d38b480598eb7","6187318d27d2358c282b4769","null","","null","","","","","fixation","","","",""
"","","","","","visual-search-circle","109","290974","0.0-14.0-0.0-1.47","5cea276085712e00190bcc66","6186fb1cc52d38b480598eb7","6187318d27d2358c282b4769","1680.305000161752","","d","true","[[445,37],[145,42],[0,305],[154,562],[454,557],[599,294]]","true","6","","","img/Fire_Up_Target.gif","[""img/Fire_Down_Distractor.gif"",""img/Fire_Down_Distractor.gif"",""img/Fire_Down_Distractor.gif"",""img/Fire_Down_Distractor.gif"",""img/Fire_Down_Distractor.gif"",""img/Fire_Down_Distractor.gif"",""img/Fire_Down_Distractor.gif"",""img/Fire_Down_Distractor.gif"",""img/Fire_Down_Distractor.gif"",""img/Fire_Down_Distractor.gif"",""img/Fire_Down_Distractor.gif"",""img/Fire_Down_Distractor.gif""]","targetUp_distractorsDown"
"","","","","","html-keyboard-response","110","290980","0.0-14.0-0.0-0.48","5cea276085712e00190bcc66","6186fb1cc52d38b480598eb7","6187318d27d2358c282b4769","null","","null","","","","","fixation","","","",""
"","","","","","visual-search-circle","111","293649","0.0-14.0-0.0-1.48","5cea276085712e00190bcc66","6186fb1cc52d38b480598eb7","6187318d27d2358c282b4769","1664.094999898225","","d","true","[[599,289],[289,0],[0,310],[310,599]]","true","4","","","img/Fire_Down_Target.gif","[""img/Fire_Up_Distractor.gif"",""img/Fire_Up_Distractor.gif"",""img/Fire_Up_Distractor.gif"",""img/Fire_Up_Distractor.gif"",""img/Fire_Up_Distractor.gif"",""img/Fire_Up_Distractor.gif"",""img/Fire_Up_Distractor.gif"",""img/Fire_Up_Distractor.gif"",""img/Fire_Up_Distractor.gif"",""img/Fire_Up_Distractor.gif"",""img/Fire_Up_Distractor.gif"",""img/Fire_Up_Distractor.gif""]","targetDown_distractorsUp"
"","","","","","html-keyboard-response","112","293651","0.0-14.0-0.0-0.49","5cea276085712e00190bcc66","6186fb1cc52d38b480598eb7","6187318d27d2358c282b4769","null","","null","","","","","fixation","","","",""
"","","","","","visual-search-circle","113","295602","0.0-14.0-0.0-1.49","5cea276085712e00190bcc66","6186fb1cc52d38b480598eb7","6187318d27d2358c282b4769","943.5050000902265","","d","true","[[21,187],[107,529],[458,554],[591,227],[320,0]]","true","5","","","img/Fire_Down_Target.gif","[""img/Fire_Up_Distractor.gif"",""img/Fire_Up_Distractor.gif"",""img/Fire_Up_Distractor.gif"",""img/Fire_Up_Distractor.gif"",""img/Fire_Up_Distractor.gif"",""img/Fire_Up_Distractor.gif"",""img/Fire_Up_Distractor.gif"",""img/Fire_Up_Distractor.gif"",""img/Fire_Up_Distractor.gif"",""img/Fire_Up_Distractor.gif"",""img/Fire_Up_Distractor.gif"",""img/Fire_Up_Distractor.gif""]","targetDown_distractorsUp"
"","","","","","html-keyboard-response","114","295604","0.0-14.0-0.0-0.50","5cea276085712e00190bcc66","6186fb1cc52d38b480598eb7","6187318d27d2358c282b4769","null","","null","","","","","fixation","","","",""
"","","","","","visual-search-circle","115","297949","0.0-14.0-0.0-1.50","5cea276085712e00190bcc66","6186fb1cc52d38b480598eb7","6187318d27d2358c282b4769","1334.4900000374764","","d","true","[[4,352],[258,597],[569,431],[508,84],[159,35]]","true","5","","","img/Fire_Down_Target.gif","[""img/Fire_Up_Distractor.gif"",""img/Fire_Up_Distractor.gif"",""img/Fire_Up_Distractor.gif"",""img/Fire_Up_Distractor.gif"",""img/Fire_Up_Distractor.gif"",""img/Fire_Up_Distractor.gif"",""img/Fire_Up_Distractor.gif"",""img/Fire_Up_Distractor.gif"",""img/Fire_Up_Distractor.gif"",""img/Fire_Up_Distractor.gif"",""img/Fire_Up_Distractor.gif"",""img/Fire_Up_Distractor.gif""]","targetDown_distractorsUp"
"","","","","","html-keyboard-response","116","297951","0.0-14.0-0.0-0.51","5cea276085712e00190bcc66","6186fb1cc52d38b480598eb7","6187318d27d2358c282b4769","null","","null","","","","","fixation","","","",""
"","","","","","visual-search-circle","117","300549","0.0-14.0-0.0-1.51","5cea276085712e00190bcc66","6186fb1cc52d38b480598eb7","6187318d27d2358c282b4769","1591.105000115931","","s","true","[[367,7],[80,95],[13,387],[232,592],[519,504],[586,212]]","false","6","","","img/Fire_Up_Target.gif","[""img/Fire_Down_Distractor.gif"",""img/Fire_Down_Distractor.gif"",""img/Fire_Down_Distractor.gif"",""img/Fire_Down_Distractor.gif"",""img/Fire_Down_Distractor.gif"",""img/Fire_Down_Distractor.gif"",""img/Fire_Down_Distractor.gif"",""img/Fire_Down_Distractor.gif"",""img/Fire_Down_Distractor.gif"",""img/Fire_Down_Distractor.gif"",""img/Fire_Down_Distractor.gif"",""img/Fire_Down_Distractor.gif""]","targetUp_distractorsDown"
"","","","","","html-keyboard-response","118","300552","0.0-14.0-0.0-0.52","5cea276085712e00190bcc66","6186fb1cc52d38b480598eb7","6187318d27d2358c282b4769","null","","null","","","","","fixation","","","",""
"","","","","","visual-search-circle","119","302984","0.0-14.0-0.0-1.52","5cea276085712e00190bcc66","6186fb1cc52d38b480598eb7","6187318d27d2358c282b4769","1427.559999981895","","s","true","[[60,119],[54,472],[387,586],[599,305],[397,16]]","false","5","","","img/Fire_Up_Target.gif","[""img/Fire_Down_Distractor.gif"",""img/Fire_Down_Distractor.gif"",""img/Fire_Down_Distractor.gif"",""img/Fire_Down_Distractor.gif"",""img/Fire_Down_Distractor.gif"",""img/Fire_Down_Distractor.gif"",""img/Fire_Down_Distractor.gif"",""img/Fire_Down_Distractor.gif"",""img/Fire_Down_Distractor.gif"",""img/Fire_Down_Distractor.gif"",""img/Fire_Down_Distractor.gif"",""img/Fire_Down_Distractor.gif""]","targetUp_distractorsDown"
"","","","","","html-keyboard-response","120","302985","0.0-14.0-0.0-0.53","5cea276085712e00190bcc66","6186fb1cc52d38b480598eb7","6187318d27d2358c282b4769","null","","null","","","","","fixation","","","",""
"","","","","","visual-search-circle","121","306712","0.0-14.0-0.0-1.53","5cea276085712e00190bcc66","6186fb1cc52d38b480598eb7","6187318d27d2358c282b4769","2717.3549998551607","","s","true","[[3,253],[78,502],[320,599],[546,470],[587,213],[411,21],[151,39]]","false","7","","","img/Fire_Down_Target.gif","[""img/Fire_Up_Distractor.gif"",""img/Fire_Up_Distractor.gif"",""img/Fire_Up_Distractor.gif"",""img/Fire_Up_Distractor.gif"",""img/Fire_Up_Distractor.gif"",""img/Fire_Up_Distractor.gif"",""img/Fire_Up_Distractor.gif"",""img/Fire_Up_Distractor.gif"",""img/Fire_Up_Distractor.gif"",""img/Fire_Up_Distractor.gif"",""img/Fire_Up_Distractor.gif"",""img/Fire_Up_Distractor.gif""]","targetDown_distractorsUp"
"","","","","","html-keyboard-response","122","306714","0.0-14.0-0.0-0.54","5cea276085712e00190bcc66","6186fb1cc52d38b480598eb7","6187318d27d2358c282b4769","null","","null","","","","","fixation","","","",""
"","","","","","visual-search-circle","123","309495","0.0-14.0-0.0-1.54","5cea276085712e00190bcc66","6186fb1cc52d38b480598eb7","6187318d27d2358c282b4769","1774.2949998937547","","s","true","[[14,392],[299,600],[585,392],[476,57],[123,57]]","false","5","","","img/Fire_Down_Target.gif","[""img/Fire_Up_Distractor.gif"",""img/Fire_Up_Distractor.gif"",""img/Fire_Up_Distractor.gif"",""img/Fire_Up_Distractor.gif"",""img/Fire_Up_Distractor.gif"",""img/Fire_Up_Distractor.gif"",""img/Fire_Up_Distractor.gif"",""img/Fire_Up_Distractor.gif"",""img/Fire_Up_Distractor.gif"",""img/Fire_Up_Distractor.gif"",""img/Fire_Up_Distractor.gif"",""img/Fire_Up_Distractor.gif""]","targetDown_distractorsUp"
"","","","","","html-keyboard-response","124","309497","0.0-14.0-0.0-0.55","5cea276085712e00190bcc66","6186fb1cc52d38b480598eb7","6187318d27d2358c282b4769","null","","null","","","","","fixation","","","",""
"","","","","","visual-search-circle","125","311977","0.0-14.0-0.0-1.55","5cea276085712e00190bcc66","6186fb1cc52d38b480598eb7","6187318d27d2358c282b4769","1472.2649999894202","","d","true","[[268,598],[513,510],[597,264],[457,44],[198,17],[16,203],[47,461]]","true","7","","","img/Fire_Up_Target.gif","[""img/Fire_Down_Distractor.gif"",""img/Fire_Down_Distractor.gif"",""img/Fire_Down_Distractor.gif"",""img/Fire_Down_Distractor.gif"",""img/Fire_Down_Distractor.gif"",""img/Fire_Down_Distractor.gif"",""img/Fire_Down_Distractor.gif"",""img/Fire_Down_Distractor.gif"",""img/Fire_Down_Distractor.gif"",""img/Fire_Down_Distractor.gif"",""img/Fire_Down_Distractor.gif"",""img/Fire_Down_Distractor.gif""]","targetUp_distractorsDown"
"","","","","","html-keyboard-response","126","311979","0.0-14.0-0.0-0.56","5cea276085712e00190bcc66","6186fb1cc52d38b480598eb7","6187318d27d2358c282b4769","null","","null","","","","","fixation","","","",""
"","","","","","visual-search-circle","127","315119","0.0-14.0-0.0-1.56","5cea276085712e00190bcc66","6186fb1cc52d38b480598eb7","6187318d27d2358c282b4769","2130.210000090301","","s","false","[[484,63],[230,8],[28,172],[31,432],[236,593],[489,532],[599,297]]","true","7","","","img/Fire_Up_Target.gif","[""img/Fire_Down_Distractor.gif"",""img/Fire_Down_Distractor.gif"",""img/Fire_Down_Distractor.gif"",""img/Fire_Down_Distractor.gif"",""img/Fire_Down_Distractor.gif"",""img/Fire_Down_Distractor.gif"",""img/Fire_Down_Distractor.gif"",""img/Fire_Down_Distractor.gif"",""img/Fire_Down_Distractor.gif"",""img/Fire_Down_Distractor.gif"",""img/Fire_Down_Distractor.gif"",""img/Fire_Down_Distractor.gif""]","targetUp_distractorsDown"
"","","","","","html-keyboard-response","128","315121","0.0-14.0-0.0-0.57","5cea276085712e00190bcc66","6186fb1cc52d38b480598eb7","6187318d27d2358c282b4769","null","","null","","","","","fixation","","","",""
"","","","","","visual-search-circle","129","318349","0.0-14.0-0.0-1.57","5cea276085712e00190bcc66","6186fb1cc52d38b480598eb7","6187318d27d2358c282b4769","2222.719999961555","","s","false","[[30,431],[431,569],[569,168],[168,30]]","true","4","","","img/Fire_Down_Target.gif","[""img/Fire_Up_Distractor.gif"",""img/Fire_Up_Distractor.gif"",""img/Fire_Up_Distractor.gif"",""img/Fire_Up_Distractor.gif"",""img/Fire_Up_Distractor.gif"",""img/Fire_Up_Distractor.gif"",""img/Fire_Up_Distractor.gif"",""img/Fire_Up_Distractor.gif"",""img/Fire_Up_Distractor.gif"",""img/Fire_Up_Distractor.gif"",""img/Fire_Up_Distractor.gif"",""img/Fire_Up_Distractor.gif""]","targetDown_distractorsUp"
"","","","","","html-keyboard-response","130","318351","0.0-14.0-0.0-0.58","5cea276085712e00190bcc66","6186fb1cc52d38b480598eb7","6187318d27d2358c282b4769","null","","null","","","","","fixation","","","",""
"","","","","","visual-search-circle","131","323064","0.0-14.0-0.0-1.58","5cea276085712e00190bcc66","6186fb1cc52d38b480598eb7","6187318d27d2358c282b4769","3707.515000132844","","s","false","[[436,32],[136,48],[0,315],[163,567],[463,551],[599,284]]","true","6","","","img/Fire_Up_Target.gif","[""img/Fire_Down_Distractor.gif"",""img/Fire_Down_Distractor.gif"",""img/Fire_Down_Distractor.gif"",""img/Fire_Down_Distractor.gif"",""img/Fire_Down_Distractor.gif"",""img/Fire_Down_Distractor.gif"",""img/Fire_Down_Distractor.gif"",""img/Fire_Down_Distractor.gif"",""img/Fire_Down_Distractor.gif"",""img/Fire_Down_Distractor.gif"",""img/Fire_Down_Distractor.gif"",""img/Fire_Down_Distractor.gif""]","targetUp_distractorsDown"
"","","","","","html-keyboard-response","132","325544","0.0-14.0-0.0-0.59","5cea276085712e00190bcc66","6186fb1cc52d38b480598eb7","6187318d27d2358c282b4769","2478.669999865815","Wow! You've completed 60 out of 120 trials! </p> <p>  </p><p> Take a quick break, then press any key when you're ready to continue."," ","","","","","fixation","","","",""
"","","","","","visual-search-circle","133","328369","0.0-14.0-0.0-1.59","5cea276085712e00190bcc66","6186fb1cc52d38b480598eb7","6187318d27d2358c282b4769","1816.0449999850243","","s","true","[[40,450],[222,589],[450,559],[589,377],[559,150],[377,10],[150,40],[10,222]]","false","8","","","img/Fire_Up_Target.gif","[""img/Fire_Down_Distractor.gif"",""img/Fire_Down_Distractor.gif"",""img/Fire_Down_Distractor.gif"",""img/Fire_Down_Distractor.gif"",""img/Fire_Down_Distractor.gif"",""img/Fire_Down_Distractor.gif"",""img/Fire_Down_Distractor.gif"",""img/Fire_Down_Distractor.gif"",""img/Fire_Down_Distractor.gif"",""img/Fire_Down_Distractor.gif"",""img/Fire_Down_Distractor.gif"",""img/Fire_Down_Distractor.gif""]","targetUp_distractorsDown"
"","","","","","html-keyboard-response","134","328372","0.0-14.0-0.0-0.60","5cea276085712e00190bcc66","6186fb1cc52d38b480598eb7","6187318d27d2358c282b4769","null","","null","","","","","fixation","","","",""
"","","","","","visual-search-circle","135","334536","0.0-14.0-0.0-1.60","5cea276085712e00190bcc66","6186fb1cc52d38b480598eb7","6187318d27d2358c282b4769","5158.989999908954","","s","true","[[529,107],[107,70],[70,492],[492,529]]","false","4","","","img/Fire_Down_Target.gif","[""img/Fire_Up_Distractor.gif"",""img/Fire_Up_Distractor.gif"",""img/Fire_Up_Distractor.gif"",""img/Fire_Up_Distractor.gif"",""img/Fire_Up_Distractor.gif"",""img/Fire_Up_Distractor.gif"",""img/Fire_Up_Distractor.gif"",""img/Fire_Up_Distractor.gif"",""img/Fire_Up_Distractor.gif"",""img/Fire_Up_Distractor.gif"",""img/Fire_Up_Distractor.gif"",""img/Fire_Up_Distractor.gif""]","targetDown_distractorsUp"
"","","","","","html-keyboard-response","136","334538","0.0-14.0-0.0-0.61","5cea276085712e00190bcc66","6186fb1cc52d38b480598eb7","6187318d27d2358c282b4769","null","","null","","","","","fixation","","","",""
"","","","","","visual-search-circle","137","336946","0.0-14.0-0.0-1.61","5cea276085712e00190bcc66","6186fb1cc52d38b480598eb7","6187318d27d2358c282b4769","1401.0149999521673","","s","true","[[227,8],[0,279],[187,578],[529,492],[554,141]]","false","5","","","img/Fire_Up_Target.gif","[""img/Fire_Down_Distractor.gif"",""img/Fire_Down_Distractor.gif"",""img/Fire_Down_Distractor.gif"",""img/Fire_Down_Distractor.gif"",""img/Fire_Down_Distractor.gif"",""img/Fire_Down_Distractor.gif"",""img/Fire_Down_Distractor.gif"",""img/Fire_Down_Distractor.gif"",""img/Fire_Down_Distractor.gif"",""img/Fire_Down_Distractor.gif"",""img/Fire_Down_Distractor.gif"",""img/Fire_Down_Distractor.gif""]","targetUp_distractorsDown"
"","","","","","html-keyboard-response","138","336949","0.0-14.0-0.0-0.62","5cea276085712e00190bcc66","6186fb1cc52d38b480598eb7","6187318d27d2358c282b4769","null","","null","","","","","fixation","","","",""
"","","","","","visual-search-circle","139","339356","0.0-14.0-0.0-1.62","5cea276085712e00190bcc66","6186fb1cc52d38b480598eb7","6187318d27d2358c282b4769","1401.5550001058728","","s","true","[[599,289],[382,11],[51,132],[63,484],[402,581]]","false","5","","","img/Fire_Down_Target.gif","[""img/Fire_Up_Distractor.gif"",""img/Fire_Up_Distractor.gif"",""img/Fire_Up_Distractor.gif"",""img/Fire_Up_Distractor.gif"",""img/Fire_Up_Distractor.gif"",""img/Fire_Up_Distractor.gif"",""img/Fire_Up_Distractor.gif"",""img/Fire_Up_Distractor.gif"",""img/Fire_Up_Distractor.gif"",""img/Fire_Up_Distractor.gif"",""img/Fire_Up_Distractor.gif"",""img/Fire_Up_Distractor.gif""]","targetDown_distractorsUp"
"","","","","","html-keyboard-response","140","339358","0.0-14.0-0.0-0.63","5cea276085712e00190bcc66","6186fb1cc52d38b480598eb7","6187318d27d2358c282b4769","null","","null","","","","","fixation","","","",""
"","","","","","visual-search-circle","141","341245","0.0-14.0-0.0-1.63","5cea276085712e00190bcc66","6186fb1cc52d38b480598eb7","6187318d27d2358c282b4769","880.6849999818951","","d","true","[[177,574],[522,500],[559,150],[237,6],[1,268]]","true","5","","","img/Fire_Down_Target.gif","[""img/Fire_Up_Distractor.gif"",""img/Fire_Up_Distractor.gif"",""img/Fire_Up_Distractor.gif"",""img/Fire_Up_Distractor.gif"",""img/Fire_Up_Distractor.gif"",""img/Fire_Up_Distractor.gif"",""img/Fire_Up_Distractor.gif"",""img/Fire_Up_Distractor.gif"",""img/Fire_Up_Distractor.gif"",""img/Fire_Up_Distractor.gif"",""img/Fire_Up_Distractor.gif"",""img/Fire_Up_Distractor.gif""]","targetDown_distractorsUp"
"","","","","","html-keyboard-response","142","341247","0.0-14.0-0.0-0.64","5cea276085712e00190bcc66","6186fb1cc52d38b480598eb7","6187318d27d2358c282b4769","null","","null","","","","","fixation","","","",""
"","","","","","visual-search-circle","143","343465","0.0-14.0-0.0-1.64","5cea276085712e00190bcc66","6186fb1cc52d38b480598eb7","6187318d27d2358c282b4769","1204.8550001345575","","s","true","[[320,599],[526,496],[599,279],[496,73],[279,0],[73,103],[0,320],[103,526]]","false","8","","","img/Fire_Up_Target.gif","[""img/Fire_Down_Distractor.gif"",""img/Fire_Down_Distractor.gif"",""img/Fire_Down_Distractor.gif"",""img/Fire_Down_Distractor.gif"",""img/Fire_Down_Distractor.gif"",""img/Fire_Down_Distractor.gif"",""img/Fire_Down_Distractor.gif"",""img/Fire_Down_Distractor.gif"",""img/Fire_Down_Distractor.gif"",""img/Fire_Down_Distractor.gif"",""img/Fire_Down_Distractor.gif"",""img/Fire_Down_Distractor.gif""]","targetUp_distractorsDown"
"","","","","","html-keyboard-response","144","343467","0.0-14.0-0.0-0.65","5cea276085712e00190bcc66","6186fb1cc52d38b480598eb7","6187318d27d2358c282b4769","null","","null","","","","","fixation","","","",""
"","","","","","visual-search-circle","145","345850","0.0-14.0-0.0-1.65","5cea276085712e00190bcc66","6186fb1cc52d38b480598eb7","6187318d27d2358c282b4769","1372.664999915287","","d","true","[[585,207],[436,32],[207,14],[32,163],[14,392],[163,567],[392,585],[567,436]]","true","8","","","img/Fire_Up_Target.gif","[""img/Fire_Down_Distractor.gif"",""img/Fire_Down_Distractor.gif"",""img/Fire_Down_Distractor.gif"",""img/Fire_Down_Distractor.gif"",""img/Fire_Down_Distractor.gif"",""img/Fire_Down_Distractor.gif"",""img/Fire_Down_Distractor.gif"",""img/Fire_Down_Distractor.gif"",""img/Fire_Down_Distractor.gif"",""img/Fire_Down_Distractor.gif"",""img/Fire_Down_Distractor.gif"",""img/Fire_Down_Distractor.gif""]","targetUp_distractorsDown"
"","","","","","html-keyboard-response","146","345852","0.0-14.0-0.0-0.66","5cea276085712e00190bcc66","6186fb1cc52d38b480598eb7","6187318d27d2358c282b4769","null","","null","","","","","fixation","","","",""
"","","","","","visual-search-circle","147","348670","0.0-14.0-0.0-1.66","5cea276085712e00190bcc66","6186fb1cc52d38b480598eb7","6187318d27d2358c282b4769","1812.9850002005696","","d","true","[[367,592],[592,232],[232,7],[7,367]]","true","4","","","img/Fire_Down_Target.gif","[""img/Fire_Up_Distractor.gif"",""img/Fire_Up_Distractor.gif"",""img/Fire_Up_Distractor.gif"",""img/Fire_Up_Distractor.gif"",""img/Fire_Up_Distractor.gif"",""img/Fire_Up_Distractor.gif"",""img/Fire_Up_Distractor.gif"",""img/Fire_Up_Distractor.gif"",""img/Fire_Up_Distractor.gif"",""img/Fire_Up_Distractor.gif"",""img/Fire_Up_Distractor.gif"",""img/Fire_Up_Distractor.gif""]","targetDown_distractorsUp"
"","","","","","html-keyboard-response","148","348672","0.0-14.0-0.0-0.67","5cea276085712e00190bcc66","6186fb1cc52d38b480598eb7","6187318d27d2358c282b4769","null","","null","","","","","fixation","","","",""
"","","","","","visual-search-circle","149","350695","0.0-14.0-0.0-1.67","5cea276085712e00190bcc66","6186fb1cc52d38b480598eb7","6187318d27d2358c282b4769","1016.4449999574572","","d","true","[[352,595],[597,341],[431,30],[84,91],[35,440]]","true","5","","","img/Fire_Up_Target.gif","[""img/Fire_Down_Distractor.gif"",""img/Fire_Down_Distractor.gif"",""img/Fire_Down_Distractor.gif"",""img/Fire_Down_Distractor.gif"",""img/Fire_Down_Distractor.gif"",""img/Fire_Down_Distractor.gif"",""img/Fire_Down_Distractor.gif"",""img/Fire_Down_Distractor.gif"",""img/Fire_Down_Distractor.gif"",""img/Fire_Down_Distractor.gif"",""img/Fire_Down_Distractor.gif"",""img/Fire_Down_Distractor.gif""]","targetUp_distractorsDown"
"","","","","","html-keyboard-response","150","350698","0.0-14.0-0.0-0.68","5cea276085712e00190bcc66","6186fb1cc52d38b480598eb7","6187318d27d2358c282b4769","null","","null","","","","","fixation","","","",""
"","","","","","visual-search-circle","151","356921","0.0-14.0-0.0-1.68","5cea276085712e00190bcc66","6186fb1cc52d38b480598eb7","6187318d27d2358c282b4769","5216.809999896213","","d","true","[[585,392],[476,57],[123,57],[14,392],[299,600]]","true","5","","","img/Fire_Up_Target.gif","[""img/Fire_Down_Distractor.gif"",""img/Fire_Down_Distractor.gif"",""img/Fire_Down_Distractor.gif"",""img/Fire_Down_Distractor.gif"",""img/Fire_Down_Distractor.gif"",""img/Fire_Down_Distractor.gif"",""img/Fire_Down_Distractor.gif"",""img/Fire_Down_Distractor.gif"",""img/Fire_Down_Distractor.gif"",""img/Fire_Down_Distractor.gif"",""img/Fire_Down_Distractor.gif"",""img/Fire_Down_Distractor.gif""]","targetUp_distractorsDown"
"","","","","","html-keyboard-response","152","356923","0.0-14.0-0.0-0.69","5cea276085712e00190bcc66","6186fb1cc52d38b480598eb7","6187318d27d2358c282b4769","null","","null","","","","","fixation","","","",""
"","","","","","visual-search-circle","153","360048","0.0-14.0-0.0-1.69","5cea276085712e00190bcc66","6186fb1cc52d38b480598eb7","6187318d27d2358c282b4769","2115.0350000243634","","s","true","[[35,159],[13,387],[159,564],[387,586],[564,440],[586,212],[440,35],[212,13]]","false","8","","","img/Fire_Down_Target.gif","[""img/Fire_Up_Distractor.gif"",""img/Fire_Up_Distractor.gif"",""img/Fire_Up_Distractor.gif"",""img/Fire_Up_Distractor.gif"",""img/Fire_Up_Distractor.gif"",""img/Fire_Up_Distractor.gif"",""img/Fire_Up_Distractor.gif"",""img/Fire_Up_Distractor.gif"",""img/Fire_Up_Distractor.gif"",""img/Fire_Up_Distractor.gif"",""img/Fire_Up_Distractor.gif"",""img/Fire_Up_Distractor.gif""]","targetDown_distractorsUp"
"","","","","","html-keyboard-response","154","360050","0.0-14.0-0.0-0.70","5cea276085712e00190bcc66","6186fb1cc52d38b480598eb7","6187318d27d2358c282b4769","null","","null","","","","","fixation","","","",""
"","","","","","visual-search-circle","155","362562","0.0-14.0-0.0-1.70","5cea276085712e00190bcc66","6186fb1cc52d38b480598eb7","6187318d27d2358c282b4769","1502.9700000304729","","d","true","[[253,596],[502,521],[599,279],[470,53],[213,12],[21,188],[39,448]]","true","7","","","img/Fire_Up_Target.gif","[""img/Fire_Down_Distractor.gif"",""img/Fire_Down_Distractor.gif"",""img/Fire_Down_Distractor.gif"",""img/Fire_Down_Distractor.gif"",""img/Fire_Down_Distractor.gif"",""img/Fire_Down_Distractor.gif"",""img/Fire_Down_Distractor.gif"",""img/Fire_Down_Distractor.gif"",""img/Fire_Down_Distractor.gif"",""img/Fire_Down_Distractor.gif"",""img/Fire_Down_Distractor.gif"",""img/Fire_Down_Distractor.gif""]","targetUp_distractorsDown"
"","","","","","html-keyboard-response","156","362566","0.0-14.0-0.0-0.71","5cea276085712e00190bcc66","6186fb1cc52d38b480598eb7","6187318d27d2358c282b4769","null","","null","","","","","fixation","","","",""
"","","","","","visual-search-circle","157","365445","0.0-14.0-0.0-1.71","5cea276085712e00190bcc66","6186fb1cc52d38b480598eb7","6187318d27d2358c282b4769","1870.9950000047684","","s","true","[[422,25],[192,19],[25,177],[19,407],[177,574],[407,580],[574,422],[580,192]]","false","8","","","img/Fire_Up_Target.gif","[""img/Fire_Down_Distractor.gif"",""img/Fire_Down_Distractor.gif"",""img/Fire_Down_Distractor.gif"",""img/Fire_Down_Distractor.gif"",""img/Fire_Down_Distractor.gif"",""img/Fire_Down_Distractor.gif"",""img/Fire_Down_Distractor.gif"",""img/Fire_Down_Distractor.gif"",""img/Fire_Down_Distractor.gif"",""img/Fire_Down_Distractor.gif"",""img/Fire_Down_Distractor.gif"",""img/Fire_Down_Distractor.gif""]","targetUp_distractorsDown"
"","","","","","html-keyboard-response","158","365448","0.0-14.0-0.0-0.72","5cea276085712e00190bcc66","6186fb1cc52d38b480598eb7","6187318d27d2358c282b4769","null","","null","","","","","fixation","","","",""
"","","","","","visual-search-circle","159","368313","0.0-14.0-0.0-1.72","5cea276085712e00190bcc66","6186fb1cc52d38b480598eb7","6187318d27d2358c282b4769","1860.1800000760704","","s","true","[[402,18],[18,197],[197,581],[581,402]]","false","4","","","img/Fire_Down_Target.gif","[""img/Fire_Up_Distractor.gif"",""img/Fire_Up_Distractor.gif"",""img/Fire_Up_Distractor.gif"",""img/Fire_Up_Distractor.gif"",""img/Fire_Up_Distractor.gif"",""img/Fire_Up_Distractor.gif"",""img/Fire_Up_Distractor.gif"",""img/Fire_Up_Distractor.gif"",""img/Fire_Up_Distractor.gif"",""img/Fire_Up_Distractor.gif"",""img/Fire_Up_Distractor.gif"",""img/Fire_Up_Distractor.gif""]","targetDown_distractorsUp"
"","","","","","html-keyboard-response","160","368315","0.0-14.0-0.0-0.73","5cea276085712e00190bcc66","6186fb1cc52d38b480598eb7","6187318d27d2358c282b4769","null","","null","","","","","fixation","","","",""
"","","","","","visual-search-circle","161","370771","0.0-14.0-0.0-1.73","5cea276085712e00190bcc66","6186fb1cc52d38b480598eb7","6187318d27d2358c282b4769","1445.8650001324713","","s","true","[[14,207],[32,436],[207,585],[436,567],[585,392],[567,163],[392,14],[163,32]]","false","8","","","img/Fire_Down_Target.gif","[""img/Fire_Up_Distractor.gif"",""img/Fire_Up_Distractor.gif"",""img/Fire_Up_Distractor.gif"",""img/Fire_Up_Distractor.gif"",""img/Fire_Up_Distractor.gif"",""img/Fire_Up_Distractor.gif"",""img/Fire_Up_Distractor.gif"",""img/Fire_Up_Distractor.gif"",""img/Fire_Up_Distractor.gif"",""img/Fire_Up_Distractor.gif"",""img/Fire_Up_Distractor.gif"",""img/Fire_Up_Distractor.gif""]","targetDown_distractorsUp"
"","","","","","html-keyboard-response","162","370773","0.0-14.0-0.0-0.74","5cea276085712e00190bcc66","6186fb1cc52d38b480598eb7","6187318d27d2358c282b4769","null","","null","","","","","fixation","","","",""
"","","","","","visual-search-circle","163","372834","0.0-14.0-0.0-1.74","5cea276085712e00190bcc66","6186fb1cc52d38b480598eb7","6187318d27d2358c282b4769","1055.0599999260157","","s","true","[[284,0],[10,222],[136,551],[488,533],[580,192]]","false","5","","","img/Fire_Up_Target.gif","[""img/Fire_Down_Distractor.gif"",""img/Fire_Down_Distractor.gif"",""img/Fire_Down_Distractor.gif"",""img/Fire_Down_Distractor.gif"",""img/Fire_Down_Distractor.gif"",""img/Fire_Down_Distractor.gif"",""img/Fire_Down_Distractor.gif"",""img/Fire_Down_Distractor.gif"",""img/Fire_Down_Distractor.gif"",""img/Fire_Down_Distractor.gif"",""img/Fire_Down_Distractor.gif"",""img/Fire_Down_Distractor.gif""]","targetUp_distractorsDown"
"","","","","","html-keyboard-response","164","372836","0.0-14.0-0.0-0.75","5cea276085712e00190bcc66","6186fb1cc52d38b480598eb7","6187318d27d2358c282b4769","null","","null","","","","","fixation","","","",""
"","","","","","visual-search-circle","165","375505","0.0-14.0-0.0-1.75","5cea276085712e00190bcc66","6186fb1cc52d38b480598eb7","6187318d27d2358c282b4769","1661.450000014156","","s","true","[[463,551],[598,329],[508,84],[261,2],[43,144],[18,403],[205,584]]","false","7","","","img/Fire_Up_Target.gif","[""img/Fire_Down_Distractor.gif"",""img/Fire_Down_Distractor.gif"",""img/Fire_Down_Distractor.gif"",""img/Fire_Down_Distractor.gif"",""img/Fire_Down_Distractor.gif"",""img/Fire_Down_Distractor.gif"",""img/Fire_Down_Distractor.gif"",""img/Fire_Down_Distractor.gif"",""img/Fire_Down_Distractor.gif"",""img/Fire_Down_Distractor.gif"",""img/Fire_Down_Distractor.gif"",""img/Fire_Down_Distractor.gif""]","targetUp_distractorsDown"
"","","","","","html-keyboard-response","166","375507","0.0-14.0-0.0-0.76","5cea276085712e00190bcc66","6186fb1cc52d38b480598eb7","6187318d27d2358c282b4769","null","","null","","","","","fixation","","","",""
"","","","","","visual-search-circle","167","377629","0.0-14.0-0.0-1.76","5cea276085712e00190bcc66","6186fb1cc52d38b480598eb7","6187318d27d2358c282b4769","1114.6350000053644","","s","true","[[173,28],[1,273],[127,545],[426,571],[598,326],[472,54]]","false","6","","","img/Fire_Down_Target.gif","[""img/Fire_Up_Distractor.gif"",""img/Fire_Up_Distractor.gif"",""img/Fire_Up_Distractor.gif"",""img/Fire_Up_Distractor.gif"",""img/Fire_Up_Distractor.gif"",""img/Fire_Up_Distractor.gif"",""img/Fire_Up_Distractor.gif"",""img/Fire_Up_Distractor.gif"",""img/Fire_Up_Distractor.gif"",""img/Fire_Up_Distractor.gif"",""img/Fire_Up_Distractor.gif"",""img/Fire_Up_Distractor.gif""]","targetDown_distractorsUp"
"","","","","","html-keyboard-response","168","377633","0.0-14.0-0.0-0.77","5cea276085712e00190bcc66","6186fb1cc52d38b480598eb7","6187318d27d2358c282b4769","null","","null","","","","","fixation","","","",""
"","","","","","visual-search-circle","169","379775","0.0-14.0-0.0-1.77","5cea276085712e00190bcc66","6186fb1cc52d38b480598eb7","6187318d27d2358c282b4769","1136.5499999374151","","d","true","[[73,496],[417,576],[598,273],[367,7],[42,145]]","true","5","","","img/Fire_Down_Target.gif","[""img/Fire_Up_Distractor.gif"",""img/Fire_Up_Distractor.gif"",""img/Fire_Up_Distractor.gif"",""img/Fire_Up_Distractor.gif"",""img/Fire_Up_Distractor.gif"",""img/Fire_Up_Distractor.gif"",""img/Fire_Up_Distractor.gif"",""img/Fire_Up_Distractor.gif"",""img/Fire_Up_Distractor.gif"",""img/Fire_Up_Distractor.gif"",""img/Fire_Up_Distractor.gif"",""img/Fire_Up_Distractor.gif""]","targetDown_distractorsUp"
"","","","","","html-keyboard-response","170","379780","0.0-14.0-0.0-0.78","5cea276085712e00190bcc66","6186fb1cc52d38b480598eb7","6187318d27d2358c282b4769","null","","null","","","","","fixation","","","",""
"","","","","","visual-search-circle","171","381591","0.0-14.0-0.0-1.78","5cea276085712e00190bcc66","6186fb1cc52d38b480598eb7","6187318d27d2358c282b4769","804.3849999085069","","d","true","[[310,599],[588,382],[467,51],[115,63],[18,402]]","true","5","","","img/Fire_Down_Target.gif","[""img/Fire_Up_Distractor.gif"",""img/Fire_Up_Distractor.gif"",""img/Fire_Up_Distractor.gif"",""img/Fire_Up_Distractor.gif"",""img/Fire_Up_Distractor.gif"",""img/Fire_Up_Distractor.gif"",""img/Fire_Up_Distractor.gif"",""img/Fire_Up_Distractor.gif"",""img/Fire_Up_Distractor.gif"",""img/Fire_Up_Distractor.gif"",""img/Fire_Up_Distractor.gif"",""img/Fire_Up_Distractor.gif""]","targetDown_distractorsUp"
"","","","","","html-keyboard-response","172","383376","0.0-14.0-0.0-0.79","5cea276085712e00190bcc66","6186fb1cc52d38b480598eb7","6187318d27d2358c282b4769","1784.440000075847","Wow! You've completed 80 out of 120 trials! </p> <p>  </p><p> Take a quick break, then press any key when you're ready to continue."," ","","","","","fixation","","","",""
"","","","","","visual-search-circle","173","386832","0.0-14.0-0.0-1.79","5cea276085712e00190bcc66","6186fb1cc52d38b480598eb7","6187318d27d2358c282b4769","2442.945000017062","","d","true","[[60,480],[258,597],[480,539],[597,341],[539,119],[341,2],[119,60],[2,258]]","true","8","","","img/Fire_Up_Target.gif","[""img/Fire_Down_Distractor.gif"",""img/Fire_Down_Distractor.gif"",""img/Fire_Down_Distractor.gif"",""img/Fire_Down_Distractor.gif"",""img/Fire_Down_Distractor.gif"",""img/Fire_Down_Distractor.gif"",""img/Fire_Down_Distractor.gif"",""img/Fire_Down_Distractor.gif"",""img/Fire_Down_Distractor.gif"",""img/Fire_Down_Distractor.gif"",""img/Fire_Down_Distractor.gif"",""img/Fire_Down_Distractor.gif""]","targetUp_distractorsDown"
"","","","","","html-keyboard-response","174","386835","0.0-14.0-0.0-0.80","5cea276085712e00190bcc66","6186fb1cc52d38b480598eb7","6187318d27d2358c282b4769","null","","null","","","","","fixation","","","",""
"","","","","","visual-search-circle","175","389050","0.0-14.0-0.0-1.80","5cea276085712e00190bcc66","6186fb1cc52d38b480598eb7","6187318d27d2358c282b4769","1206.2750000040978","","s","true","[[426,571],[581,402],[571,173],[402,18],[173,28],[18,197],[28,426],[197,581]]","false","8","","","img/Fire_Down_Target.gif","[""img/Fire_Up_Distractor.gif"",""img/Fire_Up_Distractor.gif"",""img/Fire_Up_Distractor.gif"",""img/Fire_Up_Distractor.gif"",""img/Fire_Up_Distractor.gif"",""img/Fire_Up_Distractor.gif"",""img/Fire_Up_Distractor.gif"",""img/Fire_Up_Distractor.gif"",""img/Fire_Up_Distractor.gif"",""img/Fire_Up_Distractor.gif"",""img/Fire_Up_Distractor.gif"",""img/Fire_Up_Distractor.gif""]","targetDown_distractorsUp"
"","","","","","html-keyboard-response","176","389052","0.0-14.0-0.0-0.81","5cea276085712e00190bcc66","6186fb1cc52d38b480598eb7","6187318d27d2358c282b4769","null","","null","","","","","fixation","","","",""
"","","","","","visual-search-circle","177","391419","0.0-14.0-0.0-1.81","5cea276085712e00190bcc66","6186fb1cc52d38b480598eb7","6187318d27d2358c282b4769","1361.3100000657141","","d","true","[[581,197],[197,18],[18,402],[402,581]]","true","4","","","img/Fire_Down_Target.gif","[""img/Fire_Up_Distractor.gif"",""img/Fire_Up_Distractor.gif"",""img/Fire_Up_Distractor.gif"",""img/Fire_Up_Distractor.gif"",""img/Fire_Up_Distractor.gif"",""img/Fire_Up_Distractor.gif"",""img/Fire_Up_Distractor.gif"",""img/Fire_Up_Distractor.gif"",""img/Fire_Up_Distractor.gif"",""img/Fire_Up_Distractor.gif"",""img/Fire_Up_Distractor.gif"",""img/Fire_Up_Distractor.gif""]","targetDown_distractorsUp"
"","","","","","html-keyboard-response","178","391421","0.0-14.0-0.0-0.82","5cea276085712e00190bcc66","6186fb1cc52d38b480598eb7","6187318d27d2358c282b4769","null","","null","","","","","fixation","","","",""
"","","","","","visual-search-circle","179","393947","0.0-14.0-0.0-1.82","5cea276085712e00190bcc66","6186fb1cc52d38b480598eb7","6187318d27d2358c282b4769","1517.9350001271814","","s","true","[[593,237],[434,31],[173,27],[8,228],[62,483],[295,599],[531,490]]","false","7","","","img/Fire_Down_Target.gif","[""img/Fire_Up_Distractor.gif"",""img/Fire_Up_Distractor.gif"",""img/Fire_Up_Distractor.gif"",""img/Fire_Up_Distractor.gif"",""img/Fire_Up_Distractor.gif"",""img/Fire_Up_Distractor.gif"",""img/Fire_Up_Distractor.gif"",""img/Fire_Up_Distractor.gif"",""img/Fire_Up_Distractor.gif"",""img/Fire_Up_Distractor.gif"",""img/Fire_Up_Distractor.gif"",""img/Fire_Up_Distractor.gif""]","targetDown_distractorsUp"
"","","","","","html-keyboard-response","180","393951","0.0-14.0-0.0-0.83","5cea276085712e00190bcc66","6186fb1cc52d38b480598eb7","6187318d27d2358c282b4769","null","","null","","","","","fixation","","","",""
"","","","","","visual-search-circle","181","397188","0.0-14.0-0.0-1.83","5cea276085712e00190bcc66","6186fb1cc52d38b480598eb7","6187318d27d2358c282b4769","2230.2300001028925","","s","true","[[84,508],[328,598],[551,464],[584,205],[404,18],[144,43],[2,261]]","false","7","","","img/Fire_Down_Target.gif","[""img/Fire_Up_Distractor.gif"",""img/Fire_Up_Distractor.gif"",""img/Fire_Up_Distractor.gif"",""img/Fire_Up_Distractor.gif"",""img/Fire_Up_Distractor.gif"",""img/Fire_Up_Distractor.gif"",""img/Fire_Up_Distractor.gif"",""img/Fire_Up_Distractor.gif"",""img/Fire_Up_Distractor.gif"",""img/Fire_Up_Distractor.gif"",""img/Fire_Up_Distractor.gif"",""img/Fire_Up_Distractor.gif""]","targetDown_distractorsUp"
"","","","","","html-keyboard-response","182","397190","0.0-14.0-0.0-0.84","5cea276085712e00190bcc66","6186fb1cc52d38b480598eb7","6187318d27d2358c282b4769","null","","null","","","","","fixation","","","",""
"","","","","","visual-search-circle","183","399318","0.0-14.0-0.0-1.84","5cea276085712e00190bcc66","6186fb1cc52d38b480598eb7","6187318d27d2358c282b4769","1118.1400001514703","","d","true","[[567,436],[585,207],[436,32],[207,14],[32,163],[14,392],[163,567],[392,585]]","true","8","","","img/Fire_Down_Target.gif","[""img/Fire_Up_Distractor.gif"",""img/Fire_Up_Distractor.gif"",""img/Fire_Up_Distractor.gif"",""img/Fire_Up_Distractor.gif"",""img/Fire_Up_Distractor.gif"",""img/Fire_Up_Distractor.gif"",""img/Fire_Up_Distractor.gif"",""img/Fire_Up_Distractor.gif"",""img/Fire_Up_Distractor.gif"",""img/Fire_Up_Distractor.gif"",""img/Fire_Up_Distractor.gif"",""img/Fire_Up_Distractor.gif""]","targetDown_distractorsUp"
"","","","","","html-keyboard-response","184","399320","0.0-14.0-0.0-0.85","5cea276085712e00190bcc66","6186fb1cc52d38b480598eb7","6187318d27d2358c282b4769","null","","null","","","","","fixation","","","",""
"","","","","","visual-search-circle","185","401469","0.0-14.0-0.0-1.85","5cea276085712e00190bcc66","6186fb1cc52d38b480598eb7","6187318d27d2358c282b4769","1143.3650001417845","","s","true","[[3,346],[346,596],[596,253],[253,3]]","false","4","","","img/Fire_Up_Target.gif","[""img/Fire_Down_Distractor.gif"",""img/Fire_Down_Distractor.gif"",""img/Fire_Down_Distractor.gif"",""img/Fire_Down_Distractor.gif"",""img/Fire_Down_Distractor.gif"",""img/Fire_Down_Distractor.gif"",""img/Fire_Down_Distractor.gif"",""img/Fire_Down_Distractor.gif"",""img/Fire_Down_Distractor.gif"",""img/Fire_Down_Distractor.gif"",""img/Fire_Down_Distractor.gif"",""img/Fire_Down_Distractor.gif""]","targetUp_distractorsDown"
"","","","","","html-keyboard-response","186","401471","0.0-14.0-0.0-0.86","5cea276085712e00190bcc66","6186fb1cc52d38b480598eb7","6187318d27d2358c282b4769","null","","null","","","","","fixation","","","",""
"","","","","","visual-search-circle","187","403822","0.0-14.0-0.0-1.86","5cea276085712e00190bcc66","6186fb1cc52d38b480598eb7","6187318d27d2358c282b4769","1341.1000000778586","","s","true","[[284,599],[524,499],[595,248],[444,36],[184,23],[11,218],[55,474]]","false","7","","","img/Fire_Down_Target.gif","[""img/Fire_Up_Distractor.gif"",""img/Fire_Up_Distractor.gif"",""img/Fire_Up_Distractor.gif"",""img/Fire_Up_Distractor.gif"",""img/Fire_Up_Distractor.gif"",""img/Fire_Up_Distractor.gif"",""img/Fire_Up_Distractor.gif"",""img/Fire_Up_Distractor.gif"",""img/Fire_Up_Distractor.gif"",""img/Fire_Up_Distractor.gif"",""img/Fire_Up_Distractor.gif"",""img/Fire_Up_Distractor.gif""]","targetDown_distractorsUp"
"","","","","","html-keyboard-response","188","403824","0.0-14.0-0.0-0.87","5cea276085712e00190bcc66","6186fb1cc52d38b480598eb7","6187318d27d2358c282b4769","null","","null","","","","","fixation","","","",""
"","","","","","visual-search-circle","189","406371","0.0-14.0-0.0-1.87","5cea276085712e00190bcc66","6186fb1cc52d38b480598eb7","6187318d27d2358c282b4769","1542.630000039935","","s","true","[[136,551],[551,463],[463,48],[48,136]]","false","4","","","img/Fire_Down_Target.gif","[""img/Fire_Up_Distractor.gif"",""img/Fire_Up_Distractor.gif"",""img/Fire_Up_Distractor.gif"",""img/Fire_Up_Distractor.gif"",""img/Fire_Up_Distractor.gif"",""img/Fire_Up_Distractor.gif"",""img/Fire_Up_Distractor.gif"",""img/Fire_Up_Distractor.gif"",""img/Fire_Up_Distractor.gif"",""img/Fire_Up_Distractor.gif"",""img/Fire_Up_Distractor.gif"",""img/Fire_Up_Distractor.gif""]","targetDown_distractorsUp"
"","","","","","html-keyboard-response","190","406373","0.0-14.0-0.0-0.88","5cea276085712e00190bcc66","6186fb1cc52d38b480598eb7","6187318d27d2358c282b4769","null","","null","","","","","fixation","","","",""
"","","","","","visual-search-circle","191","409003","0.0-14.0-0.0-1.88","5cea276085712e00190bcc66","6186fb1cc52d38b480598eb7","6187318d27d2358c282b4769","1625.7650000043213","","d","true","[[154,37],[37,445],[445,562],[562,154]]","true","4","","","img/Fire_Down_Target.gif","[""img/Fire_Up_Distractor.gif"",""img/Fire_Up_Distractor.gif"",""img/Fire_Up_Distractor.gif"",""img/Fire_Up_Distractor.gif"",""img/Fire_Up_Distractor.gif"",""img/Fire_Up_Distractor.gif"",""img/Fire_Up_Distractor.gif"",""img/Fire_Up_Distractor.gif"",""img/Fire_Up_Distractor.gif"",""img/Fire_Up_Distractor.gif"",""img/Fire_Up_Distractor.gif"",""img/Fire_Up_Distractor.gif""]","targetDown_distractorsUp"
"","","","","","html-keyboard-response","192","409005","0.0-14.0-0.0-0.89","5cea276085712e00190bcc66","6186fb1cc52d38b480598eb7","6187318d27d2358c282b4769","null","","null","","","","","fixation","","","",""
"","","","","","visual-search-circle","193","411681","0.0-14.0-0.0-1.89","5cea276085712e00190bcc66","6186fb1cc52d38b480598eb7","6187318d27d2358c282b4769","1668.2399997953326","","s","false","[[367,592],[554,458],[592,232],[458,45],[232,7],[45,141],[7,367],[141,554]]","true","8","","","img/Fire_Up_Target.gif","[""img/Fire_Down_Distractor.gif"",""img/Fire_Down_Distractor.gif"",""img/Fire_Down_Distractor.gif"",""img/Fire_Down_Distractor.gif"",""img/Fire_Down_Distractor.gif"",""img/Fire_Down_Distractor.gif"",""img/Fire_Down_Distractor.gif"",""img/Fire_Down_Distractor.gif"",""img/Fire_Down_Distractor.gif"",""img/Fire_Down_Distractor.gif"",""img/Fire_Down_Distractor.gif"",""img/Fire_Down_Distractor.gif""]","targetUp_distractorsDown"
"","","","","","html-keyboard-response","194","411683","0.0-14.0-0.0-0.90","5cea276085712e00190bcc66","6186fb1cc52d38b480598eb7","6187318d27d2358c282b4769","null","","null","","","","","fixation","","","",""
"","","","","","visual-search-circle","195","413871","0.0-14.0-0.0-1.90","5cea276085712e00190bcc66","6186fb1cc52d38b480598eb7","6187318d27d2358c282b4769","1181.9949999917299","","s","true","[[467,548],[548,132],[132,51],[51,467]]","false","4","","","img/Fire_Up_Target.gif","[""img/Fire_Down_Distractor.gif"",""img/Fire_Down_Distractor.gif"",""img/Fire_Down_Distractor.gif"",""img/Fire_Down_Distractor.gif"",""img/Fire_Down_Distractor.gif"",""img/Fire_Down_Distractor.gif"",""img/Fire_Down_Distractor.gif"",""img/Fire_Down_Distractor.gif"",""img/Fire_Down_Distractor.gif"",""img/Fire_Down_Distractor.gif"",""img/Fire_Down_Distractor.gif"",""img/Fire_Down_Distractor.gif""]","targetUp_distractorsDown"
"","","","","","html-keyboard-response","196","413873","0.0-14.0-0.0-0.91","5cea276085712e00190bcc66","6186fb1cc52d38b480598eb7","6187318d27d2358c282b4769","null","","null","","","","","fixation","","","",""
"","","","","","visual-search-circle","197","416245","0.0-14.0-0.0-1.91","5cea276085712e00190bcc66","6186fb1cc52d38b480598eb7","6187318d27d2358c282b4769","1363.0350001621991","","d","true","[[237,593],[463,551],[593,362],[551,136],[362,6],[136,48],[6,237],[48,463]]","true","8","","","img/Fire_Down_Target.gif","[""img/Fire_Up_Distractor.gif"",""img/Fire_Up_Distractor.gif"",""img/Fire_Up_Distractor.gif"",""img/Fire_Up_Distractor.gif"",""img/Fire_Up_Distractor.gif"",""img/Fire_Up_Distractor.gif"",""img/Fire_Up_Distractor.gif"",""img/Fire_Up_Distractor.gif"",""img/Fire_Up_Distractor.gif"",""img/Fire_Up_Distractor.gif"",""img/Fire_Up_Distractor.gif"",""img/Fire_Up_Distractor.gif""]","targetDown_distractorsUp"
"","","","","","html-keyboard-response","198","416252","0.0-14.0-0.0-0.92","5cea276085712e00190bcc66","6186fb1cc52d38b480598eb7","6187318d27d2358c282b4769","null","","null","","","","","fixation","","","",""
"","","","","","visual-search-circle","199","418511","0.0-14.0-0.0-1.92","5cea276085712e00190bcc66","6186fb1cc52d38b480598eb7","6187318d27d2358c282b4769","1252.6450001168996","","d","true","[[77,500],[422,574],[598,268],[362,6],[40,150]]","true","5","","","img/Fire_Down_Target.gif","[""img/Fire_Up_Distractor.gif"",""img/Fire_Up_Distractor.gif"",""img/Fire_Up_Distractor.gif"",""img/Fire_Up_Distractor.gif"",""img/Fire_Up_Distractor.gif"",""img/Fire_Up_Distractor.gif"",""img/Fire_Up_Distractor.gif"",""img/Fire_Up_Distractor.gif"",""img/Fire_Up_Distractor.gif"",""img/Fire_Up_Distractor.gif"",""img/Fire_Up_Distractor.gif"",""img/Fire_Up_Distractor.gif""]","targetDown_distractorsUp"
"","","","","","html-keyboard-response","200","418517","0.0-14.0-0.0-0.93","5cea276085712e00190bcc66","6186fb1cc52d38b480598eb7","6187318d27d2358c282b4769","null","","null","","","","","fixation","","","",""
"","","","","","visual-search-circle","201","422422","0.0-14.0-0.0-1.93","5cea276085712e00190bcc66","6186fb1cc52d38b480598eb7","6187318d27d2358c282b4769","2896.4100000448525","","s","true","[[253,596],[476,542],[596,346],[542,123],[346,3],[123,57],[3,253],[57,476]]","false","8","","","img/Fire_Up_Target.gif","[""img/Fire_Down_Distractor.gif"",""img/Fire_Down_Distractor.gif"",""img/Fire_Down_Distractor.gif"",""img/Fire_Down_Distractor.gif"",""img/Fire_Down_Distractor.gif"",""img/Fire_Down_Distractor.gif"",""img/Fire_Down_Distractor.gif"",""img/Fire_Down_Distractor.gif"",""img/Fire_Down_Distractor.gif"",""img/Fire_Down_Distractor.gif"",""img/Fire_Down_Distractor.gif"",""img/Fire_Down_Distractor.gif""]","targetUp_distractorsDown"
"","","","","","html-keyboard-response","202","422424","0.0-14.0-0.0-0.94","5cea276085712e00190bcc66","6186fb1cc52d38b480598eb7","6187318d27d2358c282b4769","null","","null","","","","","fixation","","","",""
"","","","","","visual-search-circle","203","424605","0.0-14.0-0.0-1.94","5cea276085712e00190bcc66","6186fb1cc52d38b480598eb7","6187318d27d2358c282b4769","1173.3450000174344","","s","true","[[586,212],[410,21],[150,39],[3,254],[79,503],[321,599],[547,469]]","false","7","","","img/Fire_Up_Target.gif","[""img/Fire_Down_Distractor.gif"",""img/Fire_Down_Distractor.gif"",""img/Fire_Down_Distractor.gif"",""img/Fire_Down_Distractor.gif"",""img/Fire_Down_Distractor.gif"",""img/Fire_Down_Distractor.gif"",""img/Fire_Down_Distractor.gif"",""img/Fire_Down_Distractor.gif"",""img/Fire_Down_Distractor.gif"",""img/Fire_Down_Distractor.gif"",""img/Fire_Down_Distractor.gif"",""img/Fire_Down_Distractor.gif""]","targetUp_distractorsDown"
"","","","","","html-keyboard-response","204","424608","0.0-14.0-0.0-0.95","5cea276085712e00190bcc66","6186fb1cc52d38b480598eb7","6187318d27d2358c282b4769","null","","null","","","","","fixation","","","",""
"","","","","","visual-search-circle","205","426739","0.0-14.0-0.0-1.95","5cea276085712e00190bcc66","6186fb1cc52d38b480598eb7","6187318d27d2358c282b4769","1124.3600000161678","","s","true","[[382,11],[126,55],[0,283],[100,523],[350,595],[562,444],[577,184]]","false","7","","","img/Fire_Up_Target.gif","[""img/Fire_Down_Distractor.gif"",""img/Fire_Down_Distractor.gif"",""img/Fire_Down_Distractor.gif"",""img/Fire_Down_Distractor.gif"",""img/Fire_Down_Distractor.gif"",""img/Fire_Down_Distractor.gif"",""img/Fire_Down_Distractor.gif"",""img/Fire_Down_Distractor.gif"",""img/Fire_Down_Distractor.gif"",""img/Fire_Down_Distractor.gif"",""img/Fire_Down_Distractor.gif"",""img/Fire_Down_Distractor.gif""]","targetUp_distractorsDown"
"","","","","","html-keyboard-response","206","426741","0.0-14.0-0.0-0.96","5cea276085712e00190bcc66","6186fb1cc52d38b480598eb7","6187318d27d2358c282b4769","null","","null","","","","","fixation","","","",""
"","","","","","visual-search-circle","207","429677","0.0-14.0-0.0-1.96","5cea276085712e00190bcc66","6186fb1cc52d38b480598eb7","6187318d27d2358c282b4769","1929.1799999773502","","s","true","[[11,217],[132,548],[484,536],[581,197],[289,0]]","false","5","","","img/Fire_Up_Target.gif","[""img/Fire_Down_Distractor.gif"",""img/Fire_Down_Distractor.gif"",""img/Fire_Down_Distractor.gif"",""img/Fire_Down_Distractor.gif"",""img/Fire_Down_Distractor.gif"",""img/Fire_Down_Distractor.gif"",""img/Fire_Down_Distractor.gif"",""img/Fire_Down_Distractor.gif"",""img/Fire_Down_Distractor.gif"",""img/Fire_Down_Distractor.gif"",""img/Fire_Down_Distractor.gif"",""img/Fire_Down_Distractor.gif""]","targetUp_distractorsDown"
"","","","","","html-keyboard-response","208","429679","0.0-14.0-0.0-0.97","5cea276085712e00190bcc66","6186fb1cc52d38b480598eb7","6187318d27d2358c282b4769","null","","null","","","","","fixation","","","",""
"","","","","","visual-search-circle","209","432783","0.0-14.0-0.0-1.97","5cea276085712e00190bcc66","6186fb1cc52d38b480598eb7","6187318d27d2358c282b4769","2094.6700000204146","","s","true","[[467,548],[594,357],[548,132],[357,5],[132,51],[5,242],[51,467],[242,594]]","false","8","","","img/Fire_Down_Target.gif","[""img/Fire_Up_Distractor.gif"",""img/Fire_Up_Distractor.gif"",""img/Fire_Up_Distractor.gif"",""img/Fire_Up_Distractor.gif"",""img/Fire_Up_Distractor.gif"",""img/Fire_Up_Distractor.gif"",""img/Fire_Up_Distractor.gif"",""img/Fire_Up_Distractor.gif"",""img/Fire_Up_Distractor.gif"",""img/Fire_Up_Distractor.gif"",""img/Fire_Up_Distractor.gif"",""img/Fire_Up_Distractor.gif""]","targetDown_distractorsUp"
"","","","","","html-keyboard-response","210","432785","0.0-14.0-0.0-0.98","5cea276085712e00190bcc66","6186fb1cc52d38b480598eb7","6187318d27d2358c282b4769","null","","null","","","","","fixation","","","",""
"","","","","","visual-search-circle","211","434517","0.0-14.0-0.0-1.98","5cea276085712e00190bcc66","6186fb1cc52d38b480598eb7","6187318d27d2358c282b4769","726.6150000505149","","s","true","[[357,594],[565,438],[574,178],[376,9],[120,59],[0,290],[105,528]]","false","7","","","img/Fire_Down_Target.gif","[""img/Fire_Up_Distractor.gif"",""img/Fire_Up_Distractor.gif"",""img/Fire_Up_Distractor.gif"",""img/Fire_Up_Distractor.gif"",""img/Fire_Up_Distractor.gif"",""img/Fire_Up_Distractor.gif"",""img/Fire_Up_Distractor.gif"",""img/Fire_Up_Distractor.gif"",""img/Fire_Up_Distractor.gif"",""img/Fire_Up_Distractor.gif"",""img/Fire_Up_Distractor.gif"",""img/Fire_Up_Distractor.gif""]","targetDown_distractorsUp"
"","","","","","html-keyboard-response","212","436116","0.0-14.0-0.0-0.99","5cea276085712e00190bcc66","6186fb1cc52d38b480598eb7","6187318d27d2358c282b4769","1597.6100000552833","Wow! You've completed 100 out of 120 trials! </p> <p>  </p><p> Take a quick break, then press any key when you're ready to continue."," ","","","","","fixation","","","",""
"","","","","","visual-search-circle","213","438624","0.0-14.0-0.0-1.99","5cea276085712e00190bcc66","6186fb1cc52d38b480598eb7","6187318d27d2358c282b4769","1498.7749999854714","","s","true","[[576,417],[539,119],[263,2],[23,182],[60,480],[336,597]]","false","6","","","img/Fire_Down_Target.gif","[""img/Fire_Up_Distractor.gif"",""img/Fire_Up_Distractor.gif"",""img/Fire_Up_Distractor.gif"",""img/Fire_Up_Distractor.gif"",""img/Fire_Up_Distractor.gif"",""img/Fire_Up_Distractor.gif"",""img/Fire_Up_Distractor.gif"",""img/Fire_Up_Distractor.gif"",""img/Fire_Up_Distractor.gif"",""img/Fire_Up_Distractor.gif"",""img/Fire_Up_Distractor.gif"",""img/Fire_Up_Distractor.gif""]","targetDown_distractorsUp"
"","","","","","html-keyboard-response","214","438626","0.0-14.0-0.0-0.100","5cea276085712e00190bcc66","6186fb1cc52d38b480598eb7","6187318d27d2358c282b4769","null","","null","","","","","fixation","","","",""
"","","","","","visual-search-circle","215","440455","0.0-14.0-0.0-1.100","5cea276085712e00190bcc66","6186fb1cc52d38b480598eb7","6187318d27d2358c282b4769","821.8449999112636","","d","true","[[42,145],[73,496],[417,576],[598,273],[367,7]]","true","5","","","img/Fire_Up_Target.gif","[""img/Fire_Down_Distractor.gif"",""img/Fire_Down_Distractor.gif"",""img/Fire_Down_Distractor.gif"",""img/Fire_Down_Distractor.gif"",""img/Fire_Down_Distractor.gif"",""img/Fire_Down_Distractor.gif"",""img/Fire_Down_Distractor.gif"",""img/Fire_Down_Distractor.gif"",""img/Fire_Down_Distractor.gif"",""img/Fire_Down_Distractor.gif"",""img/Fire_Down_Distractor.gif"",""img/Fire_Down_Distractor.gif""]","targetUp_distractorsDown"
"","","","","","html-keyboard-response","216","440457","0.0-14.0-0.0-0.101","5cea276085712e00190bcc66","6186fb1cc52d38b480598eb7","6187318d27d2358c282b4769","null","","null","","","","","fixation","","","",""
"","","","","","visual-search-circle","217","442849","0.0-14.0-0.0-1.101","5cea276085712e00190bcc66","6186fb1cc52d38b480598eb7","6187318d27d2358c282b4769","1379.5149999205023","","s","true","[[4,247],[54,472],[247,595],[472,545],[595,352],[545,127],[352,4],[127,54]]","false","8","","","img/Fire_Up_Target.gif","[""img/Fire_Down_Distractor.gif"",""img/Fire_Down_Distractor.gif"",""img/Fire_Down_Distractor.gif"",""img/Fire_Down_Distractor.gif"",""img/Fire_Down_Distractor.gif"",""img/Fire_Down_Distractor.gif"",""img/Fire_Down_Distractor.gif"",""img/Fire_Down_Distractor.gif"",""img/Fire_Down_Distractor.gif"",""img/Fire_Down_Distractor.gif"",""img/Fire_Down_Distractor.gif"",""img/Fire_Down_Distractor.gif""]","targetUp_distractorsDown"
"","","","","","html-keyboard-response","218","442852","0.0-14.0-0.0-0.102","5cea276085712e00190bcc66","6186fb1cc52d38b480598eb7","6187318d27d2358c282b4769","null","","null","","","","","fixation","","","",""
"","","","","","visual-search-circle","219","445441","0.0-14.0-0.0-1.102","5cea276085712e00190bcc66","6186fb1cc52d38b480598eb7","6187318d27d2358c282b4769","1579.9949998036027","","s","true","[[422,25],[192,19],[25,177],[19,407],[177,574],[407,580],[574,422],[580,192]]","false","8","","","img/Fire_Down_Target.gif","[""img/Fire_Up_Distractor.gif"",""img/Fire_Up_Distractor.gif"",""img/Fire_Up_Distractor.gif"",""img/Fire_Up_Distractor.gif"",""img/Fire_Up_Distractor.gif"",""img/Fire_Up_Distractor.gif"",""img/Fire_Up_Distractor.gif"",""img/Fire_Up_Distractor.gif"",""img/Fire_Up_Distractor.gif"",""img/Fire_Up_Distractor.gif"",""img/Fire_Up_Distractor.gif"",""img/Fire_Up_Distractor.gif""]","targetDown_distractorsUp"
"","","","","","html-keyboard-response","220","445443","0.0-14.0-0.0-0.103","5cea276085712e00190bcc66","6186fb1cc52d38b480598eb7","6187318d27d2358c282b4769","null","","null","","","","","fixation","","","",""
