"success","timeout","failed_images","failed_audio","failed_video","trial_type","trial_index","time_elapsed","internal_node_id","subject_id","study_id","session_id","rt","stimulus","response","correct","locations","target_present","set_size","task","correct_response","target","foilCM","searchCondition"
"true","false","[]","[]","[]","preload","0","56254","0.0-0.0","5ec4392d840c723047239323","6186fb1cc52d38b480598eb7","618729149af03d5eca6e00fe","","","","","","","","","","","",""
"true","","","","","fullscreen","1","119568","0.0-1.0","5ec4392d840c723047239323","6186fb1cc52d38b480598eb7","618729149af03d5eca6e00fe","","","","","","","","","","","",""
"","","","","","html-keyboard-response","2","123257","0.0-2.0","5ec4392d840c723047239323","6186fb1cc52d38b480598eb7","618729149af03d5eca6e00fe","3689","What a beautiful Saturday to do some awesome science! </p> <p>  </p><p> </p>
    By completing this survey or questionnaire, you are consenting to be in this research study. </p>
    Your participation is voluntary and you can stop at any time.
    <p> [Press any key to continue.] </p>
    
    "," ","","","","","","","","",""
"","","","","","video-keyboard-response","3","140070","0.0-3.0","5ec4392d840c723047239323","6186fb1cc52d38b480598eb7","618729149af03d5eca6e00fe","16809.999999999985","[""video/TaskInstructions.mp4""]"," ","","","","","","","","",""
"","","","","","html-keyboard-response","4","141817","0.0-4.0","5ec4392d840c723047239323","6186fb1cc52d38b480598eb7","618729149af03d5eca6e00fe","1746","
    <p>First, we're going to do a few practice trials to make sure you understand the task. You will recieve feedback on each trial. </p>

    <p>[Press any key to begin the familiarization phase.]</p>
    "," ","","","","","","","","",""
"","","","","","visual-search-circle","5","145455","0.0-5.0-0.0","5ec4392d840c723047239323","6186fb1cc52d38b480598eb7","618729149af03d5eca6e00fe","2578","","s","false","[[6,237],[237,593],[593,362],[362,6]]","true","4","training","d","","",""
"","","","","","html-keyboard-response","6","148271","0.0-6.0","5ec4392d840c723047239323","6186fb1cc52d38b480598eb7","618729149af03d5eca6e00fe","2816"," <div style='float: center;'><img src='img/feedbackWrong.png'></img> </div> "," ","","","","","","","","",""
"","","","","","visual-search-circle","7","151924","0.0-7.0-0.0","5ec4392d840c723047239323","6186fb1cc52d38b480598eb7","618729149af03d5eca6e00fe","2648","","s","true","[[326,598],[598,273],[273,1],[1,326]]","false","4","training","s","","",""
"","","","","","html-keyboard-response","8","153309","0.0-8.0","5ec4392d840c723047239323","6186fb1cc52d38b480598eb7","618729149af03d5eca6e00fe","1385"," <div style='float: center; '><img src='img/feedbackRight.png'></img> </div> "," ","","","","","","","","",""
"","","","","","visual-search-circle","9","155269","0.0-9.0-0.0","5ec4392d840c723047239323","6186fb1cc52d38b480598eb7","618729149af03d5eca6e00fe","951","","d","false","[[80,504],[367,592],[586,387],[519,95],[232,7],[13,212]]","false","6","training","s","","",""
"","","","","","html-keyboard-response","10","156174","0.0-10.0","5ec4392d840c723047239323","6186fb1cc52d38b480598eb7","618729149af03d5eca6e00fe","904"," <div style='float: center;'><img src='img/feedbackWrong.png'></img> </div> "," ","","","","","","","","",""
"","","","","","visual-search-circle","11","158588","0.0-11.0-0.0","5ec4392d840c723047239323","6186fb1cc52d38b480598eb7","618729149af03d5eca6e00fe","1399","","d","true","[[70,492],[273,598],[492,529],[598,326],[529,107],[326,1],[107,70],[1,273]]","true","8","training","d","","",""
"","","","","","html-keyboard-response","12","159267","0.0-12.0","5ec4392d840c723047239323","6186fb1cc52d38b480598eb7","618729149af03d5eca6e00fe","678"," <div style='float: center; '><img src='img/feedbackRight.png'></img> </div> "," ","","","","","","","","",""
"","","","","","video-keyboard-response","13","160659","0.0-13.0","5ec4392d840c723047239323","6186fb1cc52d38b480598eb7","618729149af03d5eca6e00fe","1391","[""video/endTraining.mp4""]"," ","","","","","","","","",""
"","","","","","html-keyboard-response","14","160688","0.0-14.0-0.0-0.0","5ec4392d840c723047239323","6186fb1cc52d38b480598eb7","618729149af03d5eca6e00fe","null","","null","","","","","fixation","","","",""
"","","","","","visual-search-circle","15","163680","0.0-14.0-0.0-1.0","5ec4392d840c723047239323","6186fb1cc52d38b480598eb7","618729149af03d5eca6e00fe","1987","","s","false","[[585,392],[392,14],[14,207],[207,585]]","true","4","","","img/Fire_Down_Target.gif","[""img/Fire_Up_Distractor.gif"",""img/Fire_Up_Distractor.gif"",""img/Fire_Up_Distractor.gif"",""img/Fire_Up_Distractor.gif"",""img/Fire_Up_Distractor.gif"",""img/Fire_Up_Distractor.gif"",""img/Fire_Up_Distractor.gif"",""img/Fire_Up_Distractor.gif"",""img/Fire_Up_Distractor.gif"",""img/Fire_Up_Distractor.gif"",""img/Fire_Up_Distractor.gif"",""img/Fire_Up_Distractor.gif""]","targetDown_distractorsUp"
"","","","","","html-keyboard-response","16","163682","0.0-14.0-0.0-0.1","5ec4392d840c723047239323","6186fb1cc52d38b480598eb7","618729149af03d5eca6e00fe","null","","null","","","","","fixation","","","",""
"","","","","","visual-search-circle","17","165627","0.0-14.0-0.0-1.1","5ec4392d840c723047239323","6186fb1cc52d38b480598eb7","618729149af03d5eca6e00fe","936","","d","true","[[431,569],[592,365],[533,111],[298,0],[64,114],[7,368],[171,570]]","true","7","","","img/Fire_Down_Target.gif","[""img/Fire_Up_Distractor.gif"",""img/Fire_Up_Distractor.gif"",""img/Fire_Up_Distractor.gif"",""img/Fire_Up_Distractor.gif"",""img/Fire_Up_Distractor.gif"",""img/Fire_Up_Distractor.gif"",""img/Fire_Up_Distractor.gif"",""img/Fire_Up_Distractor.gif"",""img/Fire_Up_Distractor.gif"",""img/Fire_Up_Distractor.gif"",""img/Fire_Up_Distractor.gif"",""img/Fire_Up_Distractor.gif""]","targetDown_distractorsUp"
"","","","","","html-keyboard-response","18","165629","0.0-14.0-0.0-0.2","5ec4392d840c723047239323","6186fb1cc52d38b480598eb7","618729149af03d5eca6e00fe","null","","null","","","","","fixation","","","",""
"","","","","","visual-search-circle","19","167424","0.0-14.0-0.0-1.2","5ec4392d840c723047239323","6186fb1cc52d38b480598eb7","618729149af03d5eca6e00fe","781","","s","true","[[569,168],[397,16],[168,30],[16,202],[30,431],[202,583],[431,569],[583,397]]","false","8","","","img/Fire_Down_Target.gif","[""img/Fire_Up_Distractor.gif"",""img/Fire_Up_Distractor.gif"",""img/Fire_Up_Distractor.gif"",""img/Fire_Up_Distractor.gif"",""img/Fire_Up_Distractor.gif"",""img/Fire_Up_Distractor.gif"",""img/Fire_Up_Distractor.gif"",""img/Fire_Up_Distractor.gif"",""img/Fire_Up_Distractor.gif"",""img/Fire_Up_Distractor.gif"",""img/Fire_Up_Distractor.gif"",""img/Fire_Up_Distractor.gif""]","targetDown_distractorsUp"
"","","","","","html-keyboard-response","20","167426","0.0-14.0-0.0-0.3","5ec4392d840c723047239323","6186fb1cc52d38b480598eb7","618729149af03d5eca6e00fe","null","","null","","","","","fixation","","","",""
"","","","","","visual-search-circle","21","169448","0.0-14.0-0.0-1.3","5ec4392d840c723047239323","6186fb1cc52d38b480598eb7","618729149af03d5eca6e00fe","1014","","s","true","[[526,496],[557,145],[232,7],[1,273],[182,576]]","false","5","","","img/Fire_Up_Target.gif","[""img/Fire_Down_Distractor.gif"",""img/Fire_Down_Distractor.gif"",""img/Fire_Down_Distractor.gif"",""img/Fire_Down_Distractor.gif"",""img/Fire_Down_Distractor.gif"",""img/Fire_Down_Distractor.gif"",""img/Fire_Down_Distractor.gif"",""img/Fire_Down_Distractor.gif"",""img/Fire_Down_Distractor.gif"",""img/Fire_Down_Distractor.gif"",""img/Fire_Down_Distractor.gif"",""img/Fire_Down_Distractor.gif""]","targetUp_distractorsDown"
"","","","","","html-keyboard-response","22","169449","0.0-14.0-0.0-0.4","5ec4392d840c723047239323","6186fb1cc52d38b480598eb7","618729149af03d5eca6e00fe","null","","null","","","","","fixation","","","",""
"","","","","","visual-search-circle","23","172174","0.0-14.0-0.0-1.4","5ec4392d840c723047239323","6186fb1cc52d38b480598eb7","618729149af03d5eca6e00fe","1715","","d","true","[[336,2],[60,119],[23,417],[263,597],[539,480],[576,182]]","true","6","","","img/Fire_Down_Target.gif","[""img/Fire_Up_Distractor.gif"",""img/Fire_Up_Distractor.gif"",""img/Fire_Up_Distractor.gif"",""img/Fire_Up_Distractor.gif"",""img/Fire_Up_Distractor.gif"",""img/Fire_Up_Distractor.gif"",""img/Fire_Up_Distractor.gif"",""img/Fire_Up_Distractor.gif"",""img/Fire_Up_Distractor.gif"",""img/Fire_Up_Distractor.gif"",""img/Fire_Up_Distractor.gif"",""img/Fire_Up_Distractor.gif""]","targetDown_distractorsUp"
"","","","","","html-keyboard-response","24","172175","0.0-14.0-0.0-0.5","5ec4392d840c723047239323","6186fb1cc52d38b480598eb7","618729149af03d5eca6e00fe","null","","null","","","","","fixation","","","",""
"","","","","","visual-search-circle","25","176302","0.0-14.0-0.0-1.5","5ec4392d840c723047239323","6186fb1cc52d38b480598eb7","618729149af03d5eca6e00fe","3119.999999999971","","s","true","[[492,70],[70,107],[107,529],[529,492]]","false","4","","","img/Fire_Down_Target.gif","[""img/Fire_Up_Distractor.gif"",""img/Fire_Up_Distractor.gif"",""img/Fire_Up_Distractor.gif"",""img/Fire_Up_Distractor.gif"",""img/Fire_Up_Distractor.gif"",""img/Fire_Up_Distractor.gif"",""img/Fire_Up_Distractor.gif"",""img/Fire_Up_Distractor.gif"",""img/Fire_Up_Distractor.gif"",""img/Fire_Up_Distractor.gif"",""img/Fire_Up_Distractor.gif"",""img/Fire_Up_Distractor.gif""]","targetDown_distractorsUp"
"","","","","","html-keyboard-response","26","176305","0.0-14.0-0.0-0.6","5ec4392d840c723047239323","6186fb1cc52d38b480598eb7","618729149af03d5eca6e00fe","null","","null","","","","","fixation","","","",""
"","","","","","visual-search-circle","27","178309","0.0-14.0-0.0-1.6","5ec4392d840c723047239323","6186fb1cc52d38b480598eb7","618729149af03d5eca6e00fe","989","","d","false","[[132,548],[357,594],[548,467],[594,242],[467,51],[242,5],[51,132],[5,357]]","false","8","","","img/Fire_Up_Target.gif","[""img/Fire_Down_Distractor.gif"",""img/Fire_Down_Distractor.gif"",""img/Fire_Down_Distractor.gif"",""img/Fire_Down_Distractor.gif"",""img/Fire_Down_Distractor.gif"",""img/Fire_Down_Distractor.gif"",""img/Fire_Down_Distractor.gif"",""img/Fire_Down_Distractor.gif"",""img/Fire_Down_Distractor.gif"",""img/Fire_Down_Distractor.gif"",""img/Fire_Down_Distractor.gif"",""img/Fire_Down_Distractor.gif""]","targetUp_distractorsDown"
"","","","","","html-keyboard-response","28","178310","0.0-14.0-0.0-0.7","5ec4392d840c723047239323","6186fb1cc52d38b480598eb7","618729149af03d5eca6e00fe","null","","null","","","","","fixation","","","",""
"","","","","","visual-search-circle","29","182071","0.0-14.0-0.0-1.7","5ec4392d840c723047239323","6186fb1cc52d38b480598eb7","618729149af03d5eca6e00fe","2751","","s","false","[[95,519],[387,586],[592,367],[504,80],[212,13],[7,232]]","true","6","","","img/Fire_Up_Target.gif","[""img/Fire_Down_Distractor.gif"",""img/Fire_Down_Distractor.gif"",""img/Fire_Down_Distractor.gif"",""img/Fire_Down_Distractor.gif"",""img/Fire_Down_Distractor.gif"",""img/Fire_Down_Distractor.gif"",""img/Fire_Down_Distractor.gif"",""img/Fire_Down_Distractor.gif"",""img/Fire_Down_Distractor.gif"",""img/Fire_Down_Distractor.gif"",""img/Fire_Down_Distractor.gif"",""img/Fire_Down_Distractor.gif""]","targetUp_distractorsDown"
"","","","","","html-keyboard-response","30","182074","0.0-14.0-0.0-0.8","5ec4392d840c723047239323","6186fb1cc52d38b480598eb7","618729149af03d5eca6e00fe","null","","null","","","","","fixation","","","",""
"","","","","","visual-search-circle","31","185847","0.0-14.0-0.0-1.8","5ec4392d840c723047239323","6186fb1cc52d38b480598eb7","618729149af03d5eca6e00fe","2765","","s","true","[[2,341],[247,595],[564,440],[515,91],[168,30]]","false","5","","","img/Fire_Down_Target.gif","[""img/Fire_Up_Distractor.gif"",""img/Fire_Up_Distractor.gif"",""img/Fire_Up_Distractor.gif"",""img/Fire_Up_Distractor.gif"",""img/Fire_Up_Distractor.gif"",""img/Fire_Up_Distractor.gif"",""img/Fire_Up_Distractor.gif"",""img/Fire_Up_Distractor.gif"",""img/Fire_Up_Distractor.gif"",""img/Fire_Up_Distractor.gif"",""img/Fire_Up_Distractor.gif"",""img/Fire_Up_Distractor.gif""]","targetDown_distractorsUp"
"","","","","","html-keyboard-response","32","185849","0.0-14.0-0.0-0.9","5ec4392d840c723047239323","6186fb1cc52d38b480598eb7","618729149af03d5eca6e00fe","null","","null","","","","","fixation","","","",""
"","","","","","visual-search-circle","33","188709","0.0-14.0-0.0-1.9","5ec4392d840c723047239323","6186fb1cc52d38b480598eb7","618729149af03d5eca6e00fe","1845","","d","false","[[576,182],[412,21],[182,23],[21,187],[23,417],[187,578],[417,576],[578,412]]","false","8","","","img/Fire_Up_Target.gif","[""img/Fire_Down_Distractor.gif"",""img/Fire_Down_Distractor.gif"",""img/Fire_Down_Distractor.gif"",""img/Fire_Down_Distractor.gif"",""img/Fire_Down_Distractor.gif"",""img/Fire_Down_Distractor.gif"",""img/Fire_Down_Distractor.gif"",""img/Fire_Down_Distractor.gif"",""img/Fire_Down_Distractor.gif"",""img/Fire_Down_Distractor.gif"",""img/Fire_Down_Distractor.gif"",""img/Fire_Down_Distractor.gif""]","targetUp_distractorsDown"
"","","","","","html-keyboard-response","34","188710","0.0-14.0-0.0-0.10","5ec4392d840c723047239323","6186fb1cc52d38b480598eb7","618729149af03d5eca6e00fe","null","","null","","","","","fixation","","","",""
"","","","","","visual-search-circle","35","191789","0.0-14.0-0.0-1.10","5ec4392d840c723047239323","6186fb1cc52d38b480598eb7","618729149af03d5eca6e00fe","2069.000000000029","","d","true","[[515,508],[588,217],[372,8],[84,91],[11,382],[227,591]]","true","6","","","img/Fire_Down_Target.gif","[""img/Fire_Up_Distractor.gif"",""img/Fire_Up_Distractor.gif"",""img/Fire_Up_Distractor.gif"",""img/Fire_Up_Distractor.gif"",""img/Fire_Up_Distractor.gif"",""img/Fire_Up_Distractor.gif"",""img/Fire_Up_Distractor.gif"",""img/Fire_Up_Distractor.gif"",""img/Fire_Up_Distractor.gif"",""img/Fire_Up_Distractor.gif"",""img/Fire_Up_Distractor.gif"",""img/Fire_Up_Distractor.gif""]","targetDown_distractorsUp"
"","","","","","html-keyboard-response","36","191790","0.0-14.0-0.0-0.11","5ec4392d840c723047239323","6186fb1cc52d38b480598eb7","618729149af03d5eca6e00fe","null","","null","","","","","fixation","","","",""
"","","","","","visual-search-circle","37","194662","0.0-14.0-0.0-1.11","5ec4392d840c723047239323","6186fb1cc52d38b480598eb7","618729149af03d5eca6e00fe","1863","","s","false","[[382,11],[154,37],[11,217],[37,445],[217,588],[445,562],[588,382],[562,154]]","true","8","","","img/Fire_Up_Target.gif","[""img/Fire_Down_Distractor.gif"",""img/Fire_Down_Distractor.gif"",""img/Fire_Down_Distractor.gif"",""img/Fire_Down_Distractor.gif"",""img/Fire_Down_Distractor.gif"",""img/Fire_Down_Distractor.gif"",""img/Fire_Down_Distractor.gif"",""img/Fire_Down_Distractor.gif"",""img/Fire_Down_Distractor.gif"",""img/Fire_Down_Distractor.gif"",""img/Fire_Down_Distractor.gif"",""img/Fire_Down_Distractor.gif""]","targetUp_distractorsDown"
"","","","","","html-keyboard-response","38","194664","0.0-14.0-0.0-0.12","5ec4392d840c723047239323","6186fb1cc52d38b480598eb7","618729149af03d5eca6e00fe","null","","null","","","","","fixation","","","",""
"","","","","","visual-search-circle","39","198570","0.0-14.0-0.0-1.12","5ec4392d840c723047239323","6186fb1cc52d38b480598eb7","618729149af03d5eca6e00fe","2893.999999999971","","d","true","[[600,300],[487,65],[233,7],[29,169],[29,430],[233,592],[487,534]]","true","7","","","img/Fire_Down_Target.gif","[""img/Fire_Up_Distractor.gif"",""img/Fire_Up_Distractor.gif"",""img/Fire_Up_Distractor.gif"",""img/Fire_Up_Distractor.gif"",""img/Fire_Up_Distractor.gif"",""img/Fire_Up_Distractor.gif"",""img/Fire_Up_Distractor.gif"",""img/Fire_Up_Distractor.gif"",""img/Fire_Up_Distractor.gif"",""img/Fire_Up_Distractor.gif"",""img/Fire_Up_Distractor.gif"",""img/Fire_Up_Distractor.gif""]","targetDown_distractorsUp"
"","","","","","html-keyboard-response","40","198571","0.0-14.0-0.0-0.13","5ec4392d840c723047239323","6186fb1cc52d38b480598eb7","618729149af03d5eca6e00fe","null","","null","","","","","fixation","","","",""
"","","","","","visual-search-circle","41","201378","0.0-14.0-0.0-1.13","5ec4392d840c723047239323","6186fb1cc52d38b480598eb7","618729149af03d5eca6e00fe","1797.000000000029","","d","true","[[6,362],[207,585],[500,522],[593,237],[392,14],[99,77]]","true","6","","","img/Fire_Down_Target.gif","[""img/Fire_Up_Distractor.gif"",""img/Fire_Up_Distractor.gif"",""img/Fire_Up_Distractor.gif"",""img/Fire_Up_Distractor.gif"",""img/Fire_Up_Distractor.gif"",""img/Fire_Up_Distractor.gif"",""img/Fire_Up_Distractor.gif"",""img/Fire_Up_Distractor.gif"",""img/Fire_Up_Distractor.gif"",""img/Fire_Up_Distractor.gif"",""img/Fire_Up_Distractor.gif"",""img/Fire_Up_Distractor.gif""]","targetDown_distractorsUp"
"","","","","","html-keyboard-response","42","201380","0.0-14.0-0.0-0.14","5ec4392d840c723047239323","6186fb1cc52d38b480598eb7","618729149af03d5eca6e00fe","null","","null","","","","","fixation","","","",""
"","","","","","visual-search-circle","43","203851","0.0-14.0-0.0-1.14","5ec4392d840c723047239323","6186fb1cc52d38b480598eb7","618729149af03d5eca6e00fe","1458","","s","true","[[299,600],[534,487],[592,233],[430,29],[169,29],[7,233],[65,487]]","false","7","","","img/Fire_Up_Target.gif","[""img/Fire_Down_Distractor.gif"",""img/Fire_Down_Distractor.gif"",""img/Fire_Down_Distractor.gif"",""img/Fire_Down_Distractor.gif"",""img/Fire_Down_Distractor.gif"",""img/Fire_Down_Distractor.gif"",""img/Fire_Down_Distractor.gif"",""img/Fire_Down_Distractor.gif"",""img/Fire_Down_Distractor.gif"",""img/Fire_Down_Distractor.gif"",""img/Fire_Down_Distractor.gif"",""img/Fire_Down_Distractor.gif""]","targetUp_distractorsDown"
"","","","","","html-keyboard-response","44","203852","0.0-14.0-0.0-0.15","5ec4392d840c723047239323","6186fb1cc52d38b480598eb7","618729149af03d5eca6e00fe","null","","null","","","","","fixation","","","",""
"","","","","","visual-search-circle","45","207237","0.0-14.0-0.0-1.15","5ec4392d840c723047239323","6186fb1cc52d38b480598eb7","618729149af03d5eca6e00fe","2376.999999999971","","d","true","[[463,551],[589,222],[315,0],[19,192],[111,533]]","true","5","","","img/Fire_Down_Target.gif","[""img/Fire_Up_Distractor.gif"",""img/Fire_Up_Distractor.gif"",""img/Fire_Up_Distractor.gif"",""img/Fire_Up_Distractor.gif"",""img/Fire_Up_Distractor.gif"",""img/Fire_Up_Distractor.gif"",""img/Fire_Up_Distractor.gif"",""img/Fire_Up_Distractor.gif"",""img/Fire_Up_Distractor.gif"",""img/Fire_Up_Distractor.gif"",""img/Fire_Up_Distractor.gif"",""img/Fire_Up_Distractor.gif""]","targetDown_distractorsUp"
"","","","","","html-keyboard-response","46","207239","0.0-14.0-0.0-0.16","5ec4392d840c723047239323","6186fb1cc52d38b480598eb7","618729149af03d5eca6e00fe","null","","null","","","","","fixation","","","",""
"","","","","","visual-search-circle","47","214762","0.0-14.0-0.0-1.16","5ec4392d840c723047239323","6186fb1cc52d38b480598eb7","618729149af03d5eca6e00fe","6511","","s","false","[[450,40],[222,10],[40,150],[10,377],[149,559],[377,589],[559,450],[589,222]]","true","8","","","img/Fire_Up_Target.gif","[""img/Fire_Down_Distractor.gif"",""img/Fire_Down_Distractor.gif"",""img/Fire_Down_Distractor.gif"",""img/Fire_Down_Distractor.gif"",""img/Fire_Down_Distractor.gif"",""img/Fire_Down_Distractor.gif"",""img/Fire_Down_Distractor.gif"",""img/Fire_Down_Distractor.gif"",""img/Fire_Down_Distractor.gif"",""img/Fire_Down_Distractor.gif"",""img/Fire_Down_Distractor.gif"",""img/Fire_Down_Distractor.gif""]","targetUp_distractorsDown"
"","","","","","html-keyboard-response","48","214764","0.0-14.0-0.0-0.17","5ec4392d840c723047239323","6186fb1cc52d38b480598eb7","618729149af03d5eca6e00fe","null","","null","","","","","fixation","","","",""
"","","","","","visual-search-circle","49","218023","0.0-14.0-0.0-1.17","5ec4392d840c723047239323","6186fb1cc52d38b480598eb7","618729149af03d5eca6e00fe","2251","","s","true","[[597,258],[352,4],[35,159],[84,508],[431,569]]","false","5","","","img/Fire_Up_Target.gif","[""img/Fire_Down_Distractor.gif"",""img/Fire_Down_Distractor.gif"",""img/Fire_Down_Distractor.gif"",""img/Fire_Down_Distractor.gif"",""img/Fire_Down_Distractor.gif"",""img/Fire_Down_Distractor.gif"",""img/Fire_Down_Distractor.gif"",""img/Fire_Down_Distractor.gif"",""img/Fire_Down_Distractor.gif"",""img/Fire_Down_Distractor.gif"",""img/Fire_Down_Distractor.gif"",""img/Fire_Down_Distractor.gif""]","targetUp_distractorsDown"
"","","","","","html-keyboard-response","50","218025","0.0-14.0-0.0-0.18","5ec4392d840c723047239323","6186fb1cc52d38b480598eb7","618729149af03d5eca6e00fe","null","","null","","","","","fixation","","","",""
"","","","","","visual-search-circle","51","220346","0.0-14.0-0.0-1.18","5ec4392d840c723047239323","6186fb1cc52d38b480598eb7","618729149af03d5eca6e00fe","1315","","d","true","[[77,500],[422,574],[598,268],[362,6],[40,150]]","true","5","","","img/Fire_Up_Target.gif","[""img/Fire_Down_Distractor.gif"",""img/Fire_Down_Distractor.gif"",""img/Fire_Down_Distractor.gif"",""img/Fire_Down_Distractor.gif"",""img/Fire_Down_Distractor.gif"",""img/Fire_Down_Distractor.gif"",""img/Fire_Down_Distractor.gif"",""img/Fire_Down_Distractor.gif"",""img/Fire_Down_Distractor.gif"",""img/Fire_Down_Distractor.gif"",""img/Fire_Down_Distractor.gif"",""img/Fire_Down_Distractor.gif""]","targetUp_distractorsDown"
"","","","","","html-keyboard-response","52","225665","0.0-14.0-0.0-0.19","5ec4392d840c723047239323","6186fb1cc52d38b480598eb7","618729149af03d5eca6e00fe","5318","Wow! You've completed 20 out of 120 trials! </p> <p>  </p><p> Take a quick break, then press any key when you're ready to continue."," ","","","","","fixation","","","",""
"","","","","","visual-search-circle","53","228472","0.0-14.0-0.0-1.19","5ec4392d840c723047239323","6186fb1cc52d38b480598eb7","618729149af03d5eca6e00fe","1802","","d","true","[[273,598],[598,326],[326,1],[1,273]]","true","4","","","img/Fire_Up_Target.gif","[""img/Fire_Down_Distractor.gif"",""img/Fire_Down_Distractor.gif"",""img/Fire_Down_Distractor.gif"",""img/Fire_Down_Distractor.gif"",""img/Fire_Down_Distractor.gif"",""img/Fire_Down_Distractor.gif"",""img/Fire_Down_Distractor.gif"",""img/Fire_Down_Distractor.gif"",""img/Fire_Down_Distractor.gif"",""img/Fire_Down_Distractor.gif"",""img/Fire_Down_Distractor.gif"",""img/Fire_Down_Distractor.gif""]","targetUp_distractorsDown"
"","","","","","html-keyboard-response","54","228474","0.0-14.0-0.0-0.20","5ec4392d840c723047239323","6186fb1cc52d38b480598eb7","618729149af03d5eca6e00fe","null","","null","","","","","fixation","","","",""
"","","","","","visual-search-circle","55","230336","0.0-14.0-0.0-1.20","5ec4392d840c723047239323","6186fb1cc52d38b480598eb7","618729149af03d5eca6e00fe","852","","s","true","[[580,407],[533,111],[253,3],[19,192],[66,488],[346,596]]","false","6","","","img/Fire_Up_Target.gif","[""img/Fire_Down_Distractor.gif"",""img/Fire_Down_Distractor.gif"",""img/Fire_Down_Distractor.gif"",""img/Fire_Down_Distractor.gif"",""img/Fire_Down_Distractor.gif"",""img/Fire_Down_Distractor.gif"",""img/Fire_Down_Distractor.gif"",""img/Fire_Down_Distractor.gif"",""img/Fire_Down_Distractor.gif"",""img/Fire_Down_Distractor.gif"",""img/Fire_Down_Distractor.gif"",""img/Fire_Down_Distractor.gif""]","targetUp_distractorsDown"
"","","","","","html-keyboard-response","56","230337","0.0-14.0-0.0-0.21","5ec4392d840c723047239323","6186fb1cc52d38b480598eb7","618729149af03d5eca6e00fe","null","","null","","","","","fixation","","","",""
"","","","","","visual-search-circle","57","234232","0.0-14.0-0.0-1.21","5ec4392d840c723047239323","6186fb1cc52d38b480598eb7","618729149af03d5eca6e00fe","2885","","d","false","[[284,599],[551,463],[567,163],[315,0],[48,136],[32,436]]","false","6","","","img/Fire_Down_Target.gif","[""img/Fire_Up_Distractor.gif"",""img/Fire_Up_Distractor.gif"",""img/Fire_Up_Distractor.gif"",""img/Fire_Up_Distractor.gif"",""img/Fire_Up_Distractor.gif"",""img/Fire_Up_Distractor.gif"",""img/Fire_Up_Distractor.gif"",""img/Fire_Up_Distractor.gif"",""img/Fire_Up_Distractor.gif"",""img/Fire_Up_Distractor.gif"",""img/Fire_Up_Distractor.gif"",""img/Fire_Up_Distractor.gif""]","targetDown_distractorsUp"
"","","","","","html-keyboard-response","58","234233","0.0-14.0-0.0-0.22","5ec4392d840c723047239323","6186fb1cc52d38b480598eb7","618729149af03d5eca6e00fe","null","","null","","","","","fixation","","","",""
"","","","","","visual-search-circle","59","238067","0.0-14.0-0.0-1.22","5ec4392d840c723047239323","6186fb1cc52d38b480598eb7","618729149af03d5eca6e00fe","2824.999999999971","","d","false","[[154,37],[5,357],[263,597],[571,426],[504,80]]","false","5","","","img/Fire_Up_Target.gif","[""img/Fire_Down_Distractor.gif"",""img/Fire_Down_Distractor.gif"",""img/Fire_Down_Distractor.gif"",""img/Fire_Down_Distractor.gif"",""img/Fire_Down_Distractor.gif"",""img/Fire_Down_Distractor.gif"",""img/Fire_Down_Distractor.gif"",""img/Fire_Down_Distractor.gif"",""img/Fire_Down_Distractor.gif"",""img/Fire_Down_Distractor.gif"",""img/Fire_Down_Distractor.gif"",""img/Fire_Down_Distractor.gif""]","targetUp_distractorsDown"
"","","","","","html-keyboard-response","60","238068","0.0-14.0-0.0-0.23","5ec4392d840c723047239323","6186fb1cc52d38b480598eb7","618729149af03d5eca6e00fe","null","","null","","","","","fixation","","","",""
"","","","","","visual-search-circle","61","242889","0.0-14.0-0.0-1.23","5ec4392d840c723047239323","6186fb1cc52d38b480598eb7","618729149af03d5eca6e00fe","3814.999999999971","","s","false","[[599,310],[310,0],[0,289],[289,599]]","true","4","","","img/Fire_Down_Target.gif","[""img/Fire_Up_Distractor.gif"",""img/Fire_Up_Distractor.gif"",""img/Fire_Up_Distractor.gif"",""img/Fire_Up_Distractor.gif"",""img/Fire_Up_Distractor.gif"",""img/Fire_Up_Distractor.gif"",""img/Fire_Up_Distractor.gif"",""img/Fire_Up_Distractor.gif"",""img/Fire_Up_Distractor.gif"",""img/Fire_Up_Distractor.gif"",""img/Fire_Up_Distractor.gif"",""img/Fire_Up_Distractor.gif""]","targetDown_distractorsUp"
"","","","","","html-keyboard-response","62","242890","0.0-14.0-0.0-0.24","5ec4392d840c723047239323","6186fb1cc52d38b480598eb7","618729149af03d5eca6e00fe","null","","null","","","","","fixation","","","",""
"","","","","","visual-search-circle","63","247495","0.0-14.0-0.0-1.24","5ec4392d840c723047239323","6186fb1cc52d38b480598eb7","618729149af03d5eca6e00fe","3594","","s","true","[[539,480],[576,182],[336,2],[60,119],[23,417],[263,597]]","false","6","","","img/Fire_Up_Target.gif","[""img/Fire_Down_Distractor.gif"",""img/Fire_Down_Distractor.gif"",""img/Fire_Down_Distractor.gif"",""img/Fire_Down_Distractor.gif"",""img/Fire_Down_Distractor.gif"",""img/Fire_Down_Distractor.gif"",""img/Fire_Down_Distractor.gif"",""img/Fire_Down_Distractor.gif"",""img/Fire_Down_Distractor.gif"",""img/Fire_Down_Distractor.gif"",""img/Fire_Down_Distractor.gif"",""img/Fire_Down_Distractor.gif""]","targetUp_distractorsDown"
"","","","","","html-keyboard-response","64","247497","0.0-14.0-0.0-0.25","5ec4392d840c723047239323","6186fb1cc52d38b480598eb7","618729149af03d5eca6e00fe","null","","null","","","","","fixation","","","",""
"","","","","","visual-search-circle","65","251921","0.0-14.0-0.0-1.25","5ec4392d840c723047239323","6186fb1cc52d38b480598eb7","618729149af03d5eca6e00fe","3417","","d","false","[[1,268],[177,574],[522,500],[559,150],[237,6]]","false","5","","","img/Fire_Down_Target.gif","[""img/Fire_Up_Distractor.gif"",""img/Fire_Up_Distractor.gif"",""img/Fire_Up_Distractor.gif"",""img/Fire_Up_Distractor.gif"",""img/Fire_Up_Distractor.gif"",""img/Fire_Up_Distractor.gif"",""img/Fire_Up_Distractor.gif"",""img/Fire_Up_Distractor.gif"",""img/Fire_Up_Distractor.gif"",""img/Fire_Up_Distractor.gif"",""img/Fire_Up_Distractor.gif"",""img/Fire_Up_Distractor.gif""]","targetDown_distractorsUp"
"","","","","","html-keyboard-response","66","251925","0.0-14.0-0.0-0.26","5ec4392d840c723047239323","6186fb1cc52d38b480598eb7","618729149af03d5eca6e00fe","null","","null","","","","","fixation","","","",""
"","","","","","visual-search-circle","67","254632","0.0-14.0-0.0-1.26","5ec4392d840c723047239323","6186fb1cc52d38b480598eb7","618729149af03d5eca6e00fe","1700.9999999999418","","d","false","[[367,592],[592,232],[232,7],[7,367]]","false","4","","","img/Fire_Down_Target.gif","[""img/Fire_Up_Distractor.gif"",""img/Fire_Up_Distractor.gif"",""img/Fire_Up_Distractor.gif"",""img/Fire_Up_Distractor.gif"",""img/Fire_Up_Distractor.gif"",""img/Fire_Up_Distractor.gif"",""img/Fire_Up_Distractor.gif"",""img/Fire_Up_Distractor.gif"",""img/Fire_Up_Distractor.gif"",""img/Fire_Up_Distractor.gif"",""img/Fire_Up_Distractor.gif"",""img/Fire_Up_Distractor.gif""]","targetDown_distractorsUp"
"","","","","","html-keyboard-response","68","254633","0.0-14.0-0.0-0.27","5ec4392d840c723047239323","6186fb1cc52d38b480598eb7","618729149af03d5eca6e00fe","null","","null","","","","","fixation","","","",""
"","","","","","visual-search-circle","69","257455","0.0-14.0-0.0-1.27","5ec4392d840c723047239323","6186fb1cc52d38b480598eb7","618729149af03d5eca6e00fe","1813","","s","true","[[445,37],[145,42],[0,305],[154,562],[454,557],[599,294]]","false","6","","","img/Fire_Down_Target.gif","[""img/Fire_Up_Distractor.gif"",""img/Fire_Up_Distractor.gif"",""img/Fire_Up_Distractor.gif"",""img/Fire_Up_Distractor.gif"",""img/Fire_Up_Distractor.gif"",""img/Fire_Up_Distractor.gif"",""img/Fire_Up_Distractor.gif"",""img/Fire_Up_Distractor.gif"",""img/Fire_Up_Distractor.gif"",""img/Fire_Up_Distractor.gif"",""img/Fire_Up_Distractor.gif"",""img/Fire_Up_Distractor.gif""]","targetDown_distractorsUp"
"","","","","","html-keyboard-response","70","257457","0.0-14.0-0.0-0.28","5ec4392d840c723047239323","6186fb1cc52d38b480598eb7","618729149af03d5eca6e00fe","null","","null","","","","","fixation","","","",""
"","","","","","visual-search-circle","71","260021","0.0-14.0-0.0-1.28","5ec4392d840c723047239323","6186fb1cc52d38b480598eb7","618729149af03d5eca6e00fe","1558","","d","false","[[569,431],[431,30],[30,168],[168,569]]","false","4","","","img/Fire_Up_Target.gif","[""img/Fire_Down_Distractor.gif"",""img/Fire_Down_Distractor.gif"",""img/Fire_Down_Distractor.gif"",""img/Fire_Down_Distractor.gif"",""img/Fire_Down_Distractor.gif"",""img/Fire_Down_Distractor.gif"",""img/Fire_Down_Distractor.gif"",""img/Fire_Down_Distractor.gif"",""img/Fire_Down_Distractor.gif"",""img/Fire_Down_Distractor.gif"",""img/Fire_Down_Distractor.gif"",""img/Fire_Down_Distractor.gif""]","targetUp_distractorsDown"
"","","","","","html-keyboard-response","72","260026","0.0-14.0-0.0-0.29","5ec4392d840c723047239323","6186fb1cc52d38b480598eb7","618729149af03d5eca6e00fe","null","","null","","","","","fixation","","","",""
"","","","","","visual-search-circle","73","262573","0.0-14.0-0.0-1.29","5ec4392d840c723047239323","6186fb1cc52d38b480598eb7","618729149af03d5eca6e00fe","1535","","s","true","[[588,382],[544,126],[316,0],[76,100],[4,350],[155,562],[415,577]]","false","7","","","img/Fire_Down_Target.gif","[""img/Fire_Up_Distractor.gif"",""img/Fire_Up_Distractor.gif"",""img/Fire_Up_Distractor.gif"",""img/Fire_Up_Distractor.gif"",""img/Fire_Up_Distractor.gif"",""img/Fire_Up_Distractor.gif"",""img/Fire_Up_Distractor.gif"",""img/Fire_Up_Distractor.gif"",""img/Fire_Up_Distractor.gif"",""img/Fire_Up_Distractor.gif"",""img/Fire_Up_Distractor.gif"",""img/Fire_Up_Distractor.gif""]","targetDown_distractorsUp"
"","","","","","html-keyboard-response","74","262575","0.0-14.0-0.0-0.30","5ec4392d840c723047239323","6186fb1cc52d38b480598eb7","618729149af03d5eca6e00fe","null","","null","","","","","fixation","","","",""
"","","","","","visual-search-circle","75","264696","0.0-14.0-0.0-1.30","5ec4392d840c723047239323","6186fb1cc52d38b480598eb7","618729149af03d5eca6e00fe","1115","","d","false","[[202,583],[583,397],[397,16],[16,202]]","false","4","","","img/Fire_Up_Target.gif","[""img/Fire_Down_Distractor.gif"",""img/Fire_Down_Distractor.gif"",""img/Fire_Down_Distractor.gif"",""img/Fire_Down_Distractor.gif"",""img/Fire_Down_Distractor.gif"",""img/Fire_Down_Distractor.gif"",""img/Fire_Down_Distractor.gif"",""img/Fire_Down_Distractor.gif"",""img/Fire_Down_Distractor.gif"",""img/Fire_Down_Distractor.gif"",""img/Fire_Down_Distractor.gif"",""img/Fire_Down_Distractor.gif""]","targetUp_distractorsDown"
"","","","","","html-keyboard-response","76","264697","0.0-14.0-0.0-0.31","5ec4392d840c723047239323","6186fb1cc52d38b480598eb7","618729149af03d5eca6e00fe","null","","null","","","","","fixation","","","",""
"","","","","","visual-search-circle","77","267321","0.0-14.0-0.0-1.31","5ec4392d840c723047239323","6186fb1cc52d38b480598eb7","618729149af03d5eca6e00fe","1616","","d","true","[[4,247],[159,564],[508,515],[569,168],[258,2]]","true","5","","","img/Fire_Up_Target.gif","[""img/Fire_Down_Distractor.gif"",""img/Fire_Down_Distractor.gif"",""img/Fire_Down_Distractor.gif"",""img/Fire_Down_Distractor.gif"",""img/Fire_Down_Distractor.gif"",""img/Fire_Down_Distractor.gif"",""img/Fire_Down_Distractor.gif"",""img/Fire_Down_Distractor.gif"",""img/Fire_Down_Distractor.gif"",""img/Fire_Down_Distractor.gif"",""img/Fire_Down_Distractor.gif"",""img/Fire_Down_Distractor.gif""]","targetUp_distractorsDown"
"","","","","","html-keyboard-response","78","267322","0.0-14.0-0.0-0.32","5ec4392d840c723047239323","6186fb1cc52d38b480598eb7","618729149af03d5eca6e00fe","null","","null","","","","","fixation","","","",""
"","","","","","visual-search-circle","79","270335","0.0-14.0-0.0-1.32","5ec4392d840c723047239323","6186fb1cc52d38b480598eb7","618729149af03d5eca6e00fe","2005","","s","true","[[103,526],[526,496],[496,73],[73,103]]","false","4","","","img/Fire_Up_Target.gif","[""img/Fire_Down_Distractor.gif"",""img/Fire_Down_Distractor.gif"",""img/Fire_Down_Distractor.gif"",""img/Fire_Down_Distractor.gif"",""img/Fire_Down_Distractor.gif"",""img/Fire_Down_Distractor.gif"",""img/Fire_Down_Distractor.gif"",""img/Fire_Down_Distractor.gif"",""img/Fire_Down_Distractor.gif"",""img/Fire_Down_Distractor.gif"",""img/Fire_Down_Distractor.gif"",""img/Fire_Down_Distractor.gif""]","targetUp_distractorsDown"
"","","","","","html-keyboard-response","80","270336","0.0-14.0-0.0-0.33","5ec4392d840c723047239323","6186fb1cc52d38b480598eb7","618729149af03d5eca6e00fe","null","","null","","","","","fixation","","","",""
"","","","","","visual-search-circle","81","274970","0.0-14.0-0.0-1.33","5ec4392d840c723047239323","6186fb1cc52d38b480598eb7","618729149af03d5eca6e00fe","3628","","s","false","[[159,35],[35,440],[440,564],[564,159]]","true","4","","","img/Fire_Up_Target.gif","[""img/Fire_Down_Distractor.gif"",""img/Fire_Down_Distractor.gif"",""img/Fire_Down_Distractor.gif"",""img/Fire_Down_Distractor.gif"",""img/Fire_Down_Distractor.gif"",""img/Fire_Down_Distractor.gif"",""img/Fire_Down_Distractor.gif"",""img/Fire_Down_Distractor.gif"",""img/Fire_Down_Distractor.gif"",""img/Fire_Down_Distractor.gif"",""img/Fire_Down_Distractor.gif"",""img/Fire_Down_Distractor.gif""]","targetUp_distractorsDown"
"","","","","","html-keyboard-response","82","274972","0.0-14.0-0.0-0.34","5ec4392d840c723047239323","6186fb1cc52d38b480598eb7","618729149af03d5eca6e00fe","null","","null","","","","","fixation","","","",""
"","","","","","visual-search-circle","83","277262","0.0-14.0-0.0-1.34","5ec4392d840c723047239323","6186fb1cc52d38b480598eb7","618729149af03d5eca6e00fe","1284.0000000000582","","d","false","[[289,0],[0,310],[310,599],[599,289]]","false","4","","","img/Fire_Up_Target.gif","[""img/Fire_Down_Distractor.gif"",""img/Fire_Down_Distractor.gif"",""img/Fire_Down_Distractor.gif"",""img/Fire_Down_Distractor.gif"",""img/Fire_Down_Distractor.gif"",""img/Fire_Down_Distractor.gif"",""img/Fire_Down_Distractor.gif"",""img/Fire_Down_Distractor.gif"",""img/Fire_Down_Distractor.gif"",""img/Fire_Down_Distractor.gif"",""img/Fire_Down_Distractor.gif"",""img/Fire_Down_Distractor.gif""]","targetUp_distractorsDown"
"","","","","","html-keyboard-response","84","277263","0.0-14.0-0.0-0.35","5ec4392d840c723047239323","6186fb1cc52d38b480598eb7","618729149af03d5eca6e00fe","null","","null","","","","","fixation","","","",""
"","","","","","visual-search-circle","85","280266","0.0-14.0-0.0-1.35","5ec4392d840c723047239323","6186fb1cc52d38b480598eb7","618729149af03d5eca6e00fe","1992","","s","true","[[5,357],[161,565],[421,574],[590,376],[540,120],[309,0],[71,105]]","false","7","","","img/Fire_Up_Target.gif","[""img/Fire_Down_Distractor.gif"",""img/Fire_Down_Distractor.gif"",""img/Fire_Down_Distractor.gif"",""img/Fire_Down_Distractor.gif"",""img/Fire_Down_Distractor.gif"",""img/Fire_Down_Distractor.gif"",""img/Fire_Down_Distractor.gif"",""img/Fire_Down_Distractor.gif"",""img/Fire_Down_Distractor.gif"",""img/Fire_Down_Distractor.gif"",""img/Fire_Down_Distractor.gif"",""img/Fire_Down_Distractor.gif""]","targetUp_distractorsDown"
"","","","","","html-keyboard-response","86","280268","0.0-14.0-0.0-0.36","5ec4392d840c723047239323","6186fb1cc52d38b480598eb7","618729149af03d5eca6e00fe","null","","null","","","","","fixation","","","",""
"","","","","","visual-search-circle","87","283048","0.0-14.0-0.0-1.36","5ec4392d840c723047239323","6186fb1cc52d38b480598eb7","618729149af03d5eca6e00fe","1765","","s","true","[[571,426],[581,197],[426,28],[197,18],[28,173],[18,402],[173,571],[402,581]]","false","8","","","img/Fire_Down_Target.gif","[""img/Fire_Up_Distractor.gif"",""img/Fire_Up_Distractor.gif"",""img/Fire_Up_Distractor.gif"",""img/Fire_Up_Distractor.gif"",""img/Fire_Up_Distractor.gif"",""img/Fire_Up_Distractor.gif"",""img/Fire_Up_Distractor.gif"",""img/Fire_Up_Distractor.gif"",""img/Fire_Up_Distractor.gif"",""img/Fire_Up_Distractor.gif"",""img/Fire_Up_Distractor.gif"",""img/Fire_Up_Distractor.gif""]","targetDown_distractorsUp"
"","","","","","html-keyboard-response","88","283050","0.0-14.0-0.0-0.37","5ec4392d840c723047239323","6186fb1cc52d38b480598eb7","618729149af03d5eca6e00fe","null","","null","","","","","fixation","","","",""
"","","","","","visual-search-circle","89","285241","0.0-14.0-0.0-1.37","5ec4392d840c723047239323","6186fb1cc52d38b480598eb7","618729149af03d5eca6e00fe","1185","","s","true","[[529,107],[187,21],[0,320],[227,591],[554,458]]","false","5","","","img/Fire_Down_Target.gif","[""img/Fire_Up_Distractor.gif"",""img/Fire_Up_Distractor.gif"",""img/Fire_Up_Distractor.gif"",""img/Fire_Up_Distractor.gif"",""img/Fire_Up_Distractor.gif"",""img/Fire_Up_Distractor.gif"",""img/Fire_Up_Distractor.gif"",""img/Fire_Up_Distractor.gif"",""img/Fire_Up_Distractor.gif"",""img/Fire_Up_Distractor.gif"",""img/Fire_Up_Distractor.gif"",""img/Fire_Up_Distractor.gif""]","targetDown_distractorsUp"
"","","","","","html-keyboard-response","90","285243","0.0-14.0-0.0-0.38","5ec4392d840c723047239323","6186fb1cc52d38b480598eb7","618729149af03d5eca6e00fe","null","","null","","","","","fixation","","","",""
"","","","","","visual-search-circle","91","288601","0.0-14.0-0.0-1.38","5ec4392d840c723047239323","6186fb1cc52d38b480598eb7","618729149af03d5eca6e00fe","2349","","d","false","[[51,467],[320,599],[569,431],[548,132],[279,0],[30,168]]","false","6","","","img/Fire_Up_Target.gif","[""img/Fire_Down_Distractor.gif"",""img/Fire_Down_Distractor.gif"",""img/Fire_Down_Distractor.gif"",""img/Fire_Down_Distractor.gif"",""img/Fire_Down_Distractor.gif"",""img/Fire_Down_Distractor.gif"",""img/Fire_Down_Distractor.gif"",""img/Fire_Down_Distractor.gif"",""img/Fire_Down_Distractor.gif"",""img/Fire_Down_Distractor.gif"",""img/Fire_Down_Distractor.gif"",""img/Fire_Down_Distractor.gif""]","targetUp_distractorsDown"
"","","","","","html-keyboard-response","92","323129","0.0-14.0-0.0-0.39","5ec4392d840c723047239323","6186fb1cc52d38b480598eb7","618729149af03d5eca6e00fe","34528","Wow! You've completed 40 out of 120 trials! </p> <p>  </p><p> Take a quick break, then press any key when you're ready to continue."," ","","","","","fixation","","","",""
"","","","","","visual-search-circle","93","325998","0.0-14.0-0.0-1.39","5ec4392d840c723047239323","6186fb1cc52d38b480598eb7","618729149af03d5eca6e00fe","1860.9999999999418","","d","true","[[569,431],[508,84],[159,35],[4,352],[258,597]]","true","5","","","img/Fire_Down_Target.gif","[""img/Fire_Up_Distractor.gif"",""img/Fire_Up_Distractor.gif"",""img/Fire_Up_Distractor.gif"",""img/Fire_Up_Distractor.gif"",""img/Fire_Up_Distractor.gif"",""img/Fire_Up_Distractor.gif"",""img/Fire_Up_Distractor.gif"",""img/Fire_Up_Distractor.gif"",""img/Fire_Up_Distractor.gif"",""img/Fire_Up_Distractor.gif"",""img/Fire_Up_Distractor.gif"",""img/Fire_Up_Distractor.gif""]","targetDown_distractorsUp"
"","","","","","html-keyboard-response","94","325999","0.0-14.0-0.0-0.40","5ec4392d840c723047239323","6186fb1cc52d38b480598eb7","618729149af03d5eca6e00fe","null","","null","","","","","fixation","","","",""
"","","","","","visual-search-circle","95","329632","0.0-14.0-0.0-1.40","5ec4392d840c723047239323","6186fb1cc52d38b480598eb7","618729149af03d5eca6e00fe","2626","","s","false","[[492,70],[197,18],[4,247],[107,529],[402,581],[595,352]]","true","6","","","img/Fire_Up_Target.gif","[""img/Fire_Down_Distractor.gif"",""img/Fire_Down_Distractor.gif"",""img/Fire_Down_Distractor.gif"",""img/Fire_Down_Distractor.gif"",""img/Fire_Down_Distractor.gif"",""img/Fire_Down_Distractor.gif"",""img/Fire_Down_Distractor.gif"",""img/Fire_Down_Distractor.gif"",""img/Fire_Down_Distractor.gif"",""img/Fire_Down_Distractor.gif"",""img/Fire_Down_Distractor.gif"",""img/Fire_Down_Distractor.gif""]","targetUp_distractorsDown"
"","","","","","html-keyboard-response","96","329634","0.0-14.0-0.0-0.41","5ec4392d840c723047239323","6186fb1cc52d38b480598eb7","618729149af03d5eca6e00fe","null","","null","","","","","fixation","","","",""
"","","","","","visual-search-circle","97","331916","0.0-14.0-0.0-1.41","5ec4392d840c723047239323","6186fb1cc52d38b480598eb7","618729149af03d5eca6e00fe","1275","","s","true","[[87,512],[436,567],[596,253],[346,3],[32,163]]","false","5","","","img/Fire_Down_Target.gif","[""img/Fire_Up_Distractor.gif"",""img/Fire_Up_Distractor.gif"",""img/Fire_Up_Distractor.gif"",""img/Fire_Up_Distractor.gif"",""img/Fire_Up_Distractor.gif"",""img/Fire_Up_Distractor.gif"",""img/Fire_Up_Distractor.gif"",""img/Fire_Up_Distractor.gif"",""img/Fire_Up_Distractor.gif"",""img/Fire_Up_Distractor.gif"",""img/Fire_Up_Distractor.gif"",""img/Fire_Up_Distractor.gif""]","targetDown_distractorsUp"
"","","","","","html-keyboard-response","98","331918","0.0-14.0-0.0-0.42","5ec4392d840c723047239323","6186fb1cc52d38b480598eb7","618729149af03d5eca6e00fe","null","","null","","","","","fixation","","","",""
"","","","","","visual-search-circle","99","334641","0.0-14.0-0.0-1.42","5ec4392d840c723047239323","6186fb1cc52d38b480598eb7","618729149af03d5eca6e00fe","1718","","d","true","[[95,519],[519,504],[504,80],[80,95]]","true","4","","","img/Fire_Down_Target.gif","[""img/Fire_Up_Distractor.gif"",""img/Fire_Up_Distractor.gif"",""img/Fire_Up_Distractor.gif"",""img/Fire_Up_Distractor.gif"",""img/Fire_Up_Distractor.gif"",""img/Fire_Up_Distractor.gif"",""img/Fire_Up_Distractor.gif"",""img/Fire_Up_Distractor.gif"",""img/Fire_Up_Distractor.gif"",""img/Fire_Up_Distractor.gif"",""img/Fire_Up_Distractor.gif"",""img/Fire_Up_Distractor.gif""]","targetDown_distractorsUp"
"","","","","","html-keyboard-response","100","334642","0.0-14.0-0.0-0.43","5ec4392d840c723047239323","6186fb1cc52d38b480598eb7","618729149af03d5eca6e00fe","null","","null","","","","","fixation","","","",""
"","","","","","visual-search-circle","101","336819","0.0-14.0-0.0-1.43","5ec4392d840c723047239323","6186fb1cc52d38b480598eb7","618729149af03d5eca6e00fe","1162","","d","true","[[37,445],[217,588],[445,562],[588,382],[562,154],[382,11],[154,37],[11,217]]","true","8","","","img/Fire_Down_Target.gif","[""img/Fire_Up_Distractor.gif"",""img/Fire_Up_Distractor.gif"",""img/Fire_Up_Distractor.gif"",""img/Fire_Up_Distractor.gif"",""img/Fire_Up_Distractor.gif"",""img/Fire_Up_Distractor.gif"",""img/Fire_Up_Distractor.gif"",""img/Fire_Up_Distractor.gif"",""img/Fire_Up_Distractor.gif"",""img/Fire_Up_Distractor.gif"",""img/Fire_Up_Distractor.gif"",""img/Fire_Up_Distractor.gif""]","targetDown_distractorsUp"
"","","","","","html-keyboard-response","102","336820","0.0-14.0-0.0-0.44","5ec4392d840c723047239323","6186fb1cc52d38b480598eb7","618729149af03d5eca6e00fe","null","","null","","","","","fixation","","","",""
"","","","","","visual-search-circle","103","340658","0.0-14.0-0.0-1.44","5ec4392d840c723047239323","6186fb1cc52d38b480598eb7","618729149af03d5eca6e00fe","2824.999999999942","","d","true","[[1,273],[93,517],[341,597],[557,453],[580,193],[391,14],[134,50]]","true","7","","","img/Fire_Up_Target.gif","[""img/Fire_Down_Distractor.gif"",""img/Fire_Down_Distractor.gif"",""img/Fire_Down_Distractor.gif"",""img/Fire_Down_Distractor.gif"",""img/Fire_Down_Distractor.gif"",""img/Fire_Down_Distractor.gif"",""img/Fire_Down_Distractor.gif"",""img/Fire_Down_Distractor.gif"",""img/Fire_Down_Distractor.gif"",""img/Fire_Down_Distractor.gif"",""img/Fire_Down_Distractor.gif"",""img/Fire_Down_Distractor.gif""]","targetUp_distractorsDown"
"","","","","","html-keyboard-response","104","340659","0.0-14.0-0.0-0.45","5ec4392d840c723047239323","6186fb1cc52d38b480598eb7","618729149af03d5eca6e00fe","null","","null","","","","","fixation","","","",""
"","","","","","visual-search-circle","105","343254","0.0-14.0-0.0-1.45","5ec4392d840c723047239323","6186fb1cc52d38b480598eb7","618729149af03d5eca6e00fe","1584","","s","true","[[476,57],[220,10],[24,182],[35,442],[246,595],[497,525],[599,286]]","false","7","","","img/Fire_Up_Target.gif","[""img/Fire_Down_Distractor.gif"",""img/Fire_Down_Distractor.gif"",""img/Fire_Down_Distractor.gif"",""img/Fire_Down_Distractor.gif"",""img/Fire_Down_Distractor.gif"",""img/Fire_Down_Distractor.gif"",""img/Fire_Down_Distractor.gif"",""img/Fire_Down_Distractor.gif"",""img/Fire_Down_Distractor.gif"",""img/Fire_Down_Distractor.gif"",""img/Fire_Down_Distractor.gif"",""img/Fire_Down_Distractor.gif""]","targetUp_distractorsDown"
"","","","","","html-keyboard-response","106","343256","0.0-14.0-0.0-0.46","5ec4392d840c723047239323","6186fb1cc52d38b480598eb7","618729149af03d5eca6e00fe","null","","null","","","","","fixation","","","",""
"","","","","","visual-search-circle","107","346030","0.0-14.0-0.0-1.46","5ec4392d840c723047239323","6186fb1cc52d38b480598eb7","618729149af03d5eca6e00fe","1770","","d","true","[[436,32],[32,163],[163,567],[567,436]]","true","4","","","img/Fire_Up_Target.gif","[""img/Fire_Down_Distractor.gif"",""img/Fire_Down_Distractor.gif"",""img/Fire_Down_Distractor.gif"",""img/Fire_Down_Distractor.gif"",""img/Fire_Down_Distractor.gif"",""img/Fire_Down_Distractor.gif"",""img/Fire_Down_Distractor.gif"",""img/Fire_Down_Distractor.gif"",""img/Fire_Down_Distractor.gif"",""img/Fire_Down_Distractor.gif"",""img/Fire_Down_Distractor.gif"",""img/Fire_Down_Distractor.gif""]","targetUp_distractorsDown"
"","","","","","html-keyboard-response","108","346032","0.0-14.0-0.0-0.47","5ec4392d840c723047239323","6186fb1cc52d38b480598eb7","618729149af03d5eca6e00fe","null","","null","","","","","fixation","","","",""
"","","","","","visual-search-circle","109","349975","0.0-14.0-0.0-1.47","5ec4392d840c723047239323","6186fb1cc52d38b480598eb7","618729149af03d5eca6e00fe","2930.000000000058","","s","false","[[372,591],[557,454],[591,227],[454,42],[227,8],[42,145],[8,372],[145,557]]","true","8","","","img/Fire_Down_Target.gif","[""img/Fire_Up_Distractor.gif"",""img/Fire_Up_Distractor.gif"",""img/Fire_Up_Distractor.gif"",""img/Fire_Up_Distractor.gif"",""img/Fire_Up_Distractor.gif"",""img/Fire_Up_Distractor.gif"",""img/Fire_Up_Distractor.gif"",""img/Fire_Up_Distractor.gif"",""img/Fire_Up_Distractor.gif"",""img/Fire_Up_Distractor.gif"",""img/Fire_Up_Distractor.gif"",""img/Fire_Up_Distractor.gif""]","targetDown_distractorsUp"
"","","","","","html-keyboard-response","110","349977","0.0-14.0-0.0-0.48","5ec4392d840c723047239323","6186fb1cc52d38b480598eb7","618729149af03d5eca6e00fe","null","","null","","","","","fixation","","","",""
"","","","","","visual-search-circle","111","353912","0.0-14.0-0.0-1.48","5ec4392d840c723047239323","6186fb1cc52d38b480598eb7","618729149af03d5eca6e00fe","2926","","d","true","[[357,5],[73,103],[16,397],[242,594],[526,496],[583,202]]","true","6","","","img/Fire_Up_Target.gif","[""img/Fire_Down_Distractor.gif"",""img/Fire_Down_Distractor.gif"",""img/Fire_Down_Distractor.gif"",""img/Fire_Down_Distractor.gif"",""img/Fire_Down_Distractor.gif"",""img/Fire_Down_Distractor.gif"",""img/Fire_Down_Distractor.gif"",""img/Fire_Down_Distractor.gif"",""img/Fire_Down_Distractor.gif"",""img/Fire_Down_Distractor.gif"",""img/Fire_Down_Distractor.gif"",""img/Fire_Down_Distractor.gif""]","targetUp_distractorsDown"
"","","","","","html-keyboard-response","112","353914","0.0-14.0-0.0-0.49","5ec4392d840c723047239323","6186fb1cc52d38b480598eb7","618729149af03d5eca6e00fe","null","","null","","","","","fixation","","","",""
"","","","","","visual-search-circle","113","358591","0.0-14.0-0.0-1.49","5ec4392d840c723047239323","6186fb1cc52d38b480598eb7","618729149af03d5eca6e00fe","3669.999999999942","","s","false","[[35,440],[289,599],[554,458],[564,159],[310,0],[45,141]]","true","6","","","img/Fire_Up_Target.gif","[""img/Fire_Down_Distractor.gif"",""img/Fire_Down_Distractor.gif"",""img/Fire_Down_Distractor.gif"",""img/Fire_Down_Distractor.gif"",""img/Fire_Down_Distractor.gif"",""img/Fire_Down_Distractor.gif"",""img/Fire_Down_Distractor.gif"",""img/Fire_Down_Distractor.gif"",""img/Fire_Down_Distractor.gif"",""img/Fire_Down_Distractor.gif"",""img/Fire_Down_Distractor.gif"",""img/Fire_Down_Distractor.gif""]","targetUp_distractorsDown"
"","","","","","html-keyboard-response","114","358593","0.0-14.0-0.0-0.50","5ec4392d840c723047239323","6186fb1cc52d38b480598eb7","618729149af03d5eca6e00fe","null","","null","","","","","fixation","","","",""
"","","","","","visual-search-circle","115","362184","0.0-14.0-0.0-1.50","5ec4392d840c723047239323","6186fb1cc52d38b480598eb7","618729149af03d5eca6e00fe","2586.000000000058","","d","true","[[279,0],[0,320],[320,599],[599,279]]","true","4","","","img/Fire_Down_Target.gif","[""img/Fire_Up_Distractor.gif"",""img/Fire_Up_Distractor.gif"",""img/Fire_Up_Distractor.gif"",""img/Fire_Up_Distractor.gif"",""img/Fire_Up_Distractor.gif"",""img/Fire_Up_Distractor.gif"",""img/Fire_Up_Distractor.gif"",""img/Fire_Up_Distractor.gif"",""img/Fire_Up_Distractor.gif"",""img/Fire_Up_Distractor.gif"",""img/Fire_Up_Distractor.gif"",""img/Fire_Up_Distractor.gif""]","targetDown_distractorsUp"
"","","","","","html-keyboard-response","116","362185","0.0-14.0-0.0-0.51","5ec4392d840c723047239323","6186fb1cc52d38b480598eb7","618729149af03d5eca6e00fe","null","","null","","","","","fixation","","","",""
"","","","","","visual-search-circle","117","364978","0.0-14.0-0.0-1.51","5ec4392d840c723047239323","6186fb1cc52d38b480598eb7","618729149af03d5eca6e00fe","1776","","s","true","[[107,529],[326,598],[529,492],[598,273],[492,70],[273,1],[70,107],[1,326]]","false","8","","","img/Fire_Down_Target.gif","[""img/Fire_Up_Distractor.gif"",""img/Fire_Up_Distractor.gif"",""img/Fire_Up_Distractor.gif"",""img/Fire_Up_Distractor.gif"",""img/Fire_Up_Distractor.gif"",""img/Fire_Up_Distractor.gif"",""img/Fire_Up_Distractor.gif"",""img/Fire_Up_Distractor.gif"",""img/Fire_Up_Distractor.gif"",""img/Fire_Up_Distractor.gif"",""img/Fire_Up_Distractor.gif"",""img/Fire_Up_Distractor.gif""]","targetDown_distractorsUp"
"","","","","","html-keyboard-response","118","364979","0.0-14.0-0.0-0.52","5ec4392d840c723047239323","6186fb1cc52d38b480598eb7","618729149af03d5eca6e00fe","null","","null","","","","","fixation","","","",""
"","","","","","visual-search-circle","119","367920","0.0-14.0-0.0-1.52","5ec4392d840c723047239323","6186fb1cc52d38b480598eb7","618729149af03d5eca6e00fe","1928","","d","true","[[492,529],[598,326],[529,107],[326,1],[107,70],[1,273],[70,492],[273,598]]","true","8","","","img/Fire_Down_Target.gif","[""img/Fire_Up_Distractor.gif"",""img/Fire_Up_Distractor.gif"",""img/Fire_Up_Distractor.gif"",""img/Fire_Up_Distractor.gif"",""img/Fire_Up_Distractor.gif"",""img/Fire_Up_Distractor.gif"",""img/Fire_Up_Distractor.gif"",""img/Fire_Up_Distractor.gif"",""img/Fire_Up_Distractor.gif"",""img/Fire_Up_Distractor.gif"",""img/Fire_Up_Distractor.gif"",""img/Fire_Up_Distractor.gif""]","targetDown_distractorsUp"
"","","","","","html-keyboard-response","120","367922","0.0-14.0-0.0-0.53","5ec4392d840c723047239323","6186fb1cc52d38b480598eb7","618729149af03d5eca6e00fe","null","","null","","","","","fixation","","","",""
"","","","","","visual-search-circle","121","370824","0.0-14.0-0.0-1.53","5ec4392d840c723047239323","6186fb1cc52d38b480598eb7","618729149af03d5eca6e00fe","1890","","d","true","[[554,458],[582,200],[398,16],[139,46],[1,267],[88,512],[334,598]]","true","7","","","img/Fire_Down_Target.gif","[""img/Fire_Up_Distractor.gif"",""img/Fire_Up_Distractor.gif"",""img/Fire_Up_Distractor.gif"",""img/Fire_Up_Distractor.gif"",""img/Fire_Up_Distractor.gif"",""img/Fire_Up_Distractor.gif"",""img/Fire_Up_Distractor.gif"",""img/Fire_Up_Distractor.gif"",""img/Fire_Up_Distractor.gif"",""img/Fire_Up_Distractor.gif"",""img/Fire_Up_Distractor.gif"",""img/Fire_Up_Distractor.gif""]","targetDown_distractorsUp"
"","","","","","html-keyboard-response","122","370826","0.0-14.0-0.0-0.54","5ec4392d840c723047239323","6186fb1cc52d38b480598eb7","618729149af03d5eca6e00fe","null","","null","","","","","fixation","","","",""
"","","","","","visual-search-circle","123","372833","0.0-14.0-0.0-1.54","5ec4392d840c723047239323","6186fb1cc52d38b480598eb7","618729149af03d5eca6e00fe","994.0000000000582","","s","true","[[422,574],[590,375],[540,120],[308,0],[71,106],[5,357],[161,566]]","false","7","","","img/Fire_Down_Target.gif","[""img/Fire_Up_Distractor.gif"",""img/Fire_Up_Distractor.gif"",""img/Fire_Up_Distractor.gif"",""img/Fire_Up_Distractor.gif"",""img/Fire_Up_Distractor.gif"",""img/Fire_Up_Distractor.gif"",""img/Fire_Up_Distractor.gif"",""img/Fire_Up_Distractor.gif"",""img/Fire_Up_Distractor.gif"",""img/Fire_Up_Distractor.gif"",""img/Fire_Up_Distractor.gif"",""img/Fire_Up_Distractor.gif""]","targetDown_distractorsUp"
"","","","","","html-keyboard-response","124","372834","0.0-14.0-0.0-0.55","5ec4392d840c723047239323","6186fb1cc52d38b480598eb7","618729149af03d5eca6e00fe","null","","null","","","","","fixation","","","",""
"","","","","","visual-search-circle","125","375162","0.0-14.0-0.0-1.55","5ec4392d840c723047239323","6186fb1cc52d38b480598eb7","618729149af03d5eca6e00fe","1312.9999999999418","","s","true","[[247,4],[54,127],[4,352],[127,545],[352,595],[545,472],[595,247],[472,54]]","false","8","","","img/Fire_Down_Target.gif","[""img/Fire_Up_Distractor.gif"",""img/Fire_Up_Distractor.gif"",""img/Fire_Up_Distractor.gif"",""img/Fire_Up_Distractor.gif"",""img/Fire_Up_Distractor.gif"",""img/Fire_Up_Distractor.gif"",""img/Fire_Up_Distractor.gif"",""img/Fire_Up_Distractor.gif"",""img/Fire_Up_Distractor.gif"",""img/Fire_Up_Distractor.gif"",""img/Fire_Up_Distractor.gif"",""img/Fire_Up_Distractor.gif""]","targetDown_distractorsUp"
"","","","","","html-keyboard-response","126","375164","0.0-14.0-0.0-0.56","5ec4392d840c723047239323","6186fb1cc52d38b480598eb7","618729149af03d5eca6e00fe","null","","null","","","","","fixation","","","",""
"","","","","","visual-search-circle","127","380215","0.0-14.0-0.0-1.56","5ec4392d840c723047239323","6186fb1cc52d38b480598eb7","618729149af03d5eca6e00fe","4035","","s","true","[[522,500],[599,284],[500,77],[284,0],[77,99],[0,315],[99,522],[315,599]]","false","8","","","img/Fire_Up_Target.gif","[""img/Fire_Down_Distractor.gif"",""img/Fire_Down_Distractor.gif"",""img/Fire_Down_Distractor.gif"",""img/Fire_Down_Distractor.gif"",""img/Fire_Down_Distractor.gif"",""img/Fire_Down_Distractor.gif"",""img/Fire_Down_Distractor.gif"",""img/Fire_Down_Distractor.gif"",""img/Fire_Down_Distractor.gif"",""img/Fire_Down_Distractor.gif"",""img/Fire_Down_Distractor.gif"",""img/Fire_Down_Distractor.gif""]","targetUp_distractorsDown"
"","","","","","html-keyboard-response","128","380216","0.0-14.0-0.0-0.57","5ec4392d840c723047239323","6186fb1cc52d38b480598eb7","618729149af03d5eca6e00fe","null","","null","","","","","fixation","","","",""
"","","","","","visual-search-circle","129","385265","0.0-14.0-0.0-1.57","5ec4392d840c723047239323","6186fb1cc52d38b480598eb7","618729149af03d5eca6e00fe","4039","","s","true","[[202,16],[5,242],[103,526],[397,583],[594,357],[496,73]]","false","6","","","img/Fire_Down_Target.gif","[""img/Fire_Up_Distractor.gif"",""img/Fire_Up_Distractor.gif"",""img/Fire_Up_Distractor.gif"",""img/Fire_Up_Distractor.gif"",""img/Fire_Up_Distractor.gif"",""img/Fire_Up_Distractor.gif"",""img/Fire_Up_Distractor.gif"",""img/Fire_Up_Distractor.gif"",""img/Fire_Up_Distractor.gif"",""img/Fire_Up_Distractor.gif"",""img/Fire_Up_Distractor.gif"",""img/Fire_Up_Distractor.gif""]","targetDown_distractorsUp"
"","","","","","html-keyboard-response","130","385266","0.0-14.0-0.0-0.58","5ec4392d840c723047239323","6186fb1cc52d38b480598eb7","618729149af03d5eca6e00fe","null","","null","","","","","fixation","","","",""
"","","","","","visual-search-circle","131","389389","0.0-14.0-0.0-1.58","5ec4392d840c723047239323","6186fb1cc52d38b480598eb7","618729149af03d5eca6e00fe","3108","","s","true","[[192,19],[25,177],[19,407],[177,574],[407,580],[574,422],[580,192],[422,25]]","false","8","","","img/Fire_Up_Target.gif","[""img/Fire_Down_Distractor.gif"",""img/Fire_Down_Distractor.gif"",""img/Fire_Down_Distractor.gif"",""img/Fire_Down_Distractor.gif"",""img/Fire_Down_Distractor.gif"",""img/Fire_Down_Distractor.gif"",""img/Fire_Down_Distractor.gif"",""img/Fire_Down_Distractor.gif"",""img/Fire_Down_Distractor.gif"",""img/Fire_Down_Distractor.gif"",""img/Fire_Down_Distractor.gif"",""img/Fire_Down_Distractor.gif""]","targetUp_distractorsDown"
"","","","","","html-keyboard-response","132","391553","0.0-14.0-0.0-0.59","5ec4392d840c723047239323","6186fb1cc52d38b480598eb7","618729149af03d5eca6e00fe","2164","Wow! You've completed 60 out of 120 trials! </p> <p>  </p><p> Take a quick break, then press any key when you're ready to continue."," ","","","","","fixation","","","",""
"","","","","","visual-search-circle","133","394209","0.0-14.0-0.0-1.59","5ec4392d840c723047239323","6186fb1cc52d38b480598eb7","618729149af03d5eca6e00fe","1648","","d","false","[[377,10],[48,136],[66,488],[407,580],[599,284]]","false","5","","","img/Fire_Up_Target.gif","[""img/Fire_Down_Distractor.gif"",""img/Fire_Down_Distractor.gif"",""img/Fire_Down_Distractor.gif"",""img/Fire_Down_Distractor.gif"",""img/Fire_Down_Distractor.gif"",""img/Fire_Down_Distractor.gif"",""img/Fire_Down_Distractor.gif"",""img/Fire_Down_Distractor.gif"",""img/Fire_Down_Distractor.gif"",""img/Fire_Down_Distractor.gif"",""img/Fire_Down_Distractor.gif"",""img/Fire_Down_Distractor.gif""]","targetUp_distractorsDown"
"","","","","","html-keyboard-response","134","394211","0.0-14.0-0.0-0.60","5ec4392d840c723047239323","6186fb1cc52d38b480598eb7","618729149af03d5eca6e00fe","null","","null","","","","","fixation","","","",""
"","","","","","visual-search-circle","135","395887","0.0-14.0-0.0-1.60","5ec4392d840c723047239323","6186fb1cc52d38b480598eb7","618729149af03d5eca6e00fe","667","","d","false","[[571,173],[326,1],[54,127],[28,426],[273,598],[545,472]]","false","6","","","img/Fire_Up_Target.gif","[""img/Fire_Down_Distractor.gif"",""img/Fire_Down_Distractor.gif"",""img/Fire_Down_Distractor.gif"",""img/Fire_Down_Distractor.gif"",""img/Fire_Down_Distractor.gif"",""img/Fire_Down_Distractor.gif"",""img/Fire_Down_Distractor.gif"",""img/Fire_Down_Distractor.gif"",""img/Fire_Down_Distractor.gif"",""img/Fire_Down_Distractor.gif"",""img/Fire_Down_Distractor.gif"",""img/Fire_Down_Distractor.gif""]","targetUp_distractorsDown"
"","","","","","html-keyboard-response","136","395889","0.0-14.0-0.0-0.61","5ec4392d840c723047239323","6186fb1cc52d38b480598eb7","618729149af03d5eca6e00fe","null","","null","","","","","fixation","","","",""
"","","","","","visual-search-circle","137","400154","0.0-14.0-0.0-1.61","5ec4392d840c723047239323","6186fb1cc52d38b480598eb7","618729149af03d5eca6e00fe","3260","","d","true","[[40,450],[450,559],[559,150],[150,40]]","true","4","","","img/Fire_Down_Target.gif","[""img/Fire_Up_Distractor.gif"",""img/Fire_Up_Distractor.gif"",""img/Fire_Up_Distractor.gif"",""img/Fire_Up_Distractor.gif"",""img/Fire_Up_Distractor.gif"",""img/Fire_Up_Distractor.gif"",""img/Fire_Up_Distractor.gif"",""img/Fire_Up_Distractor.gif"",""img/Fire_Up_Distractor.gif"",""img/Fire_Up_Distractor.gif"",""img/Fire_Up_Distractor.gif"",""img/Fire_Up_Distractor.gif""]","targetDown_distractorsUp"
"","","","","","html-keyboard-response","138","400156","0.0-14.0-0.0-0.62","5ec4392d840c723047239323","6186fb1cc52d38b480598eb7","618729149af03d5eca6e00fe","null","","null","","","","","fixation","","","",""
"","","","","","visual-search-circle","139","404113","0.0-14.0-0.0-1.62","5ec4392d840c723047239323","6186fb1cc52d38b480598eb7","618729149af03d5eca6e00fe","2945","","d","true","[[574,422],[566,161],[357,5],[106,71],[0,308],[120,540],[375,590]]","true","7","","","img/Fire_Up_Target.gif","[""img/Fire_Down_Distractor.gif"",""img/Fire_Down_Distractor.gif"",""img/Fire_Down_Distractor.gif"",""img/Fire_Down_Distractor.gif"",""img/Fire_Down_Distractor.gif"",""img/Fire_Down_Distractor.gif"",""img/Fire_Down_Distractor.gif"",""img/Fire_Down_Distractor.gif"",""img/Fire_Down_Distractor.gif"",""img/Fire_Down_Distractor.gif"",""img/Fire_Down_Distractor.gif"",""img/Fire_Down_Distractor.gif""]","targetUp_distractorsDown"
"","","","","","html-keyboard-response","140","404115","0.0-14.0-0.0-0.63","5ec4392d840c723047239323","6186fb1cc52d38b480598eb7","618729149af03d5eca6e00fe","null","","null","","","","","fixation","","","",""
"","","","","","visual-search-circle","141","406041","0.0-14.0-0.0-1.63","5ec4392d840c723047239323","6186fb1cc52d38b480598eb7","618729149af03d5eca6e00fe","920","","s","true","[[519,504],[504,80],[80,95],[95,519]]","false","4","","","img/Fire_Up_Target.gif","[""img/Fire_Down_Distractor.gif"",""img/Fire_Down_Distractor.gif"",""img/Fire_Down_Distractor.gif"",""img/Fire_Down_Distractor.gif"",""img/Fire_Down_Distractor.gif"",""img/Fire_Down_Distractor.gif"",""img/Fire_Down_Distractor.gif"",""img/Fire_Down_Distractor.gif"",""img/Fire_Down_Distractor.gif"",""img/Fire_Down_Distractor.gif"",""img/Fire_Down_Distractor.gif"",""img/Fire_Down_Distractor.gif""]","targetUp_distractorsDown"
"","","","","","html-keyboard-response","142","406042","0.0-14.0-0.0-0.64","5ec4392d840c723047239323","6186fb1cc52d38b480598eb7","618729149af03d5eca6e00fe","null","","null","","","","","fixation","","","",""
"","","","","","visual-search-circle","143","411012","0.0-14.0-0.0-1.64","5ec4392d840c723047239323","6186fb1cc52d38b480598eb7","618729149af03d5eca6e00fe","3962","","s","false","[[387,586],[599,305],[397,16],[60,119],[54,472]]","true","5","","","img/Fire_Down_Target.gif","[""img/Fire_Up_Distractor.gif"",""img/Fire_Up_Distractor.gif"",""img/Fire_Up_Distractor.gif"",""img/Fire_Up_Distractor.gif"",""img/Fire_Up_Distractor.gif"",""img/Fire_Up_Distractor.gif"",""img/Fire_Up_Distractor.gif"",""img/Fire_Up_Distractor.gif"",""img/Fire_Up_Distractor.gif"",""img/Fire_Up_Distractor.gif"",""img/Fire_Up_Distractor.gif"",""img/Fire_Up_Distractor.gif""]","targetDown_distractorsUp"
"","","","","","html-keyboard-response","144","411013","0.0-14.0-0.0-0.65","5ec4392d840c723047239323","6186fb1cc52d38b480598eb7","618729149af03d5eca6e00fe","null","","null","","","","","fixation","","","",""
"","","","","","visual-search-circle","145","413015","0.0-14.0-0.0-1.65","5ec4392d840c723047239323","6186fb1cc52d38b480598eb7","618729149af03d5eca6e00fe","990","","s","true","[[1,268],[89,513],[335,597],[555,457],[582,198],[396,16],[138,47]]","false","7","","","img/Fire_Down_Target.gif","[""img/Fire_Up_Distractor.gif"",""img/Fire_Up_Distractor.gif"",""img/Fire_Up_Distractor.gif"",""img/Fire_Up_Distractor.gif"",""img/Fire_Up_Distractor.gif"",""img/Fire_Up_Distractor.gif"",""img/Fire_Up_Distractor.gif"",""img/Fire_Up_Distractor.gif"",""img/Fire_Up_Distractor.gif"",""img/Fire_Up_Distractor.gif"",""img/Fire_Up_Distractor.gif"",""img/Fire_Up_Distractor.gif""]","targetDown_distractorsUp"
"","","","","","html-keyboard-response","146","413016","0.0-14.0-0.0-0.66","5ec4392d840c723047239323","6186fb1cc52d38b480598eb7","618729149af03d5eca6e00fe","null","","null","","","","","fixation","","","",""
"","","","","","visual-search-circle","147","416359","0.0-14.0-0.0-1.66","5ec4392d840c723047239323","6186fb1cc52d38b480598eb7","618729149af03d5eca6e00fe","2330","","s","false","[[463,551],[598,329],[508,84],[261,2],[43,144],[18,403],[205,584]]","true","7","","","img/Fire_Up_Target.gif","[""img/Fire_Down_Distractor.gif"",""img/Fire_Down_Distractor.gif"",""img/Fire_Down_Distractor.gif"",""img/Fire_Down_Distractor.gif"",""img/Fire_Down_Distractor.gif"",""img/Fire_Down_Distractor.gif"",""img/Fire_Down_Distractor.gif"",""img/Fire_Down_Distractor.gif"",""img/Fire_Down_Distractor.gif"",""img/Fire_Down_Distractor.gif"",""img/Fire_Down_Distractor.gif"",""img/Fire_Down_Distractor.gif""]","targetUp_distractorsDown"
"","","","","","html-keyboard-response","148","416360","0.0-14.0-0.0-0.67","5ec4392d840c723047239323","6186fb1cc52d38b480598eb7","618729149af03d5eca6e00fe","null","","null","","","","","fixation","","","",""
"","","","","","visual-search-circle","149","420362","0.0-14.0-0.0-1.67","5ec4392d840c723047239323","6186fb1cc52d38b480598eb7","618729149af03d5eca6e00fe","2987","","s","false","[[551,136],[362,6],[136,48],[6,237],[48,463],[237,593],[463,551],[593,362]]","true","8","","","img/Fire_Up_Target.gif","[""img/Fire_Down_Distractor.gif"",""img/Fire_Down_Distractor.gif"",""img/Fire_Down_Distractor.gif"",""img/Fire_Down_Distractor.gif"",""img/Fire_Down_Distractor.gif"",""img/Fire_Down_Distractor.gif"",""img/Fire_Down_Distractor.gif"",""img/Fire_Down_Distractor.gif"",""img/Fire_Down_Distractor.gif"",""img/Fire_Down_Distractor.gif"",""img/Fire_Down_Distractor.gif"",""img/Fire_Down_Distractor.gif""]","targetUp_distractorsDown"
"","","","","","html-keyboard-response","150","420363","0.0-14.0-0.0-0.68","5ec4392d840c723047239323","6186fb1cc52d38b480598eb7","618729149af03d5eca6e00fe","null","","null","","","","","fixation","","","",""
"","","","","","visual-search-circle","151","426577","0.0-14.0-0.0-1.68","5ec4392d840c723047239323","6186fb1cc52d38b480598eb7","618729149af03d5eca6e00fe","5203","","s","true","[[598,268],[461,47],[203,16],[17,198],[44,457],[264,597],[510,513]]","false","7","","","img/Fire_Down_Target.gif","[""img/Fire_Up_Distractor.gif"",""img/Fire_Up_Distractor.gif"",""img/Fire_Up_Distractor.gif"",""img/Fire_Up_Distractor.gif"",""img/Fire_Up_Distractor.gif"",""img/Fire_Up_Distractor.gif"",""img/Fire_Up_Distractor.gif"",""img/Fire_Up_Distractor.gif"",""img/Fire_Up_Distractor.gif"",""img/Fire_Up_Distractor.gif"",""img/Fire_Up_Distractor.gif"",""img/Fire_Up_Distractor.gif""]","targetDown_distractorsUp"
"","","","","","html-keyboard-response","152","426578","0.0-14.0-0.0-0.69","5ec4392d840c723047239323","6186fb1cc52d38b480598eb7","618729149af03d5eca6e00fe","null","","null","","","","","fixation","","","",""
"","","","","","visual-search-circle","153","430383","0.0-14.0-0.0-1.69","5ec4392d840c723047239323","6186fb1cc52d38b480598eb7","618729149af03d5eca6e00fe","2790","","d","false","[[454,42],[227,8],[42,145],[8,372],[145,557],[372,591],[557,454],[591,227]]","false","8","","","img/Fire_Up_Target.gif","[""img/Fire_Down_Distractor.gif"",""img/Fire_Down_Distractor.gif"",""img/Fire_Down_Distractor.gif"",""img/Fire_Down_Distractor.gif"",""img/Fire_Down_Distractor.gif"",""img/Fire_Down_Distractor.gif"",""img/Fire_Down_Distractor.gif"",""img/Fire_Down_Distractor.gif"",""img/Fire_Down_Distractor.gif"",""img/Fire_Down_Distractor.gif"",""img/Fire_Down_Distractor.gif"",""img/Fire_Down_Distractor.gif""]","targetUp_distractorsDown"
"","","","","","html-keyboard-response","154","430385","0.0-14.0-0.0-0.70","5ec4392d840c723047239323","6186fb1cc52d38b480598eb7","618729149af03d5eca6e00fe","null","","null","","","","","fixation","","","",""
"","","","","","visual-search-circle","155","432782","0.0-14.0-0.0-1.70","5ec4392d840c723047239323","6186fb1cc52d38b480598eb7","618729149af03d5eca6e00fe","1384.9999999999418","","s","true","[[149,559],[409,579],[586,388],[547,131],[322,0],[80,95],[3,344]]","false","7","","","img/Fire_Down_Target.gif","[""img/Fire_Up_Distractor.gif"",""img/Fire_Up_Distractor.gif"",""img/Fire_Up_Distractor.gif"",""img/Fire_Up_Distractor.gif"",""img/Fire_Up_Distractor.gif"",""img/Fire_Up_Distractor.gif"",""img/Fire_Up_Distractor.gif"",""img/Fire_Up_Distractor.gif"",""img/Fire_Up_Distractor.gif"",""img/Fire_Up_Distractor.gif"",""img/Fire_Up_Distractor.gif"",""img/Fire_Up_Distractor.gif""]","targetDown_distractorsUp"
"","","","","","html-keyboard-response","156","432783","0.0-14.0-0.0-0.71","5ec4392d840c723047239323","6186fb1cc52d38b480598eb7","618729149af03d5eca6e00fe","null","","null","","","","","fixation","","","",""
"","","","","","visual-search-circle","157","436554","0.0-14.0-0.0-1.71","5ec4392d840c723047239323","6186fb1cc52d38b480598eb7","618729149af03d5eca6e00fe","2764","","d","true","[[519,504],[562,154],[242,5],[2,263],[173,571]]","true","5","","","img/Fire_Down_Target.gif","[""img/Fire_Up_Distractor.gif"",""img/Fire_Up_Distractor.gif"",""img/Fire_Up_Distractor.gif"",""img/Fire_Up_Distractor.gif"",""img/Fire_Up_Distractor.gif"",""img/Fire_Up_Distractor.gif"",""img/Fire_Up_Distractor.gif"",""img/Fire_Up_Distractor.gif"",""img/Fire_Up_Distractor.gif"",""img/Fire_Up_Distractor.gif"",""img/Fire_Up_Distractor.gif"",""img/Fire_Up_Distractor.gif""]","targetDown_distractorsUp"
"","","","","","html-keyboard-response","158","436556","0.0-14.0-0.0-0.72","5ec4392d840c723047239323","6186fb1cc52d38b480598eb7","618729149af03d5eca6e00fe","null","","null","","","","","fixation","","","",""
"","","","","","visual-search-circle","159","440691","0.0-14.0-0.0-1.72","5ec4392d840c723047239323","6186fb1cc52d38b480598eb7","618729149af03d5eca6e00fe","3122","","s","false","[[315,599],[544,474],[588,218],[415,23],[155,36],[4,248],[75,499]]","true","7","","","img/Fire_Down_Target.gif","[""img/Fire_Up_Distractor.gif"",""img/Fire_Up_Distractor.gif"",""img/Fire_Up_Distractor.gif"",""img/Fire_Up_Distractor.gif"",""img/Fire_Up_Distractor.gif"",""img/Fire_Up_Distractor.gif"",""img/Fire_Up_Distractor.gif"",""img/Fire_Up_Distractor.gif"",""img/Fire_Up_Distractor.gif"",""img/Fire_Up_Distractor.gif"",""img/Fire_Up_Distractor.gif"",""img/Fire_Up_Distractor.gif""]","targetDown_distractorsUp"
"","","","","","html-keyboard-response","160","440692","0.0-14.0-0.0-0.73","5ec4392d840c723047239323","6186fb1cc52d38b480598eb7","618729149af03d5eca6e00fe","null","","null","","","","","fixation","","","",""
"","","","","","visual-search-circle","161","442628","0.0-14.0-0.0-1.73","5ec4392d840c723047239323","6186fb1cc52d38b480598eb7","618729149af03d5eca6e00fe","920","","s","true","[[0,284],[77,500],[284,599],[500,522],[599,315],[522,99],[315,0],[99,77]]","false","8","","","img/Fire_Down_Target.gif","[""img/Fire_Up_Distractor.gif"",""img/Fire_Up_Distractor.gif"",""img/Fire_Up_Distractor.gif"",""img/Fire_Up_Distractor.gif"",""img/Fire_Up_Distractor.gif"",""img/Fire_Up_Distractor.gif"",""img/Fire_Up_Distractor.gif"",""img/Fire_Up_Distractor.gif"",""img/Fire_Up_Distractor.gif"",""img/Fire_Up_Distractor.gif"",""img/Fire_Up_Distractor.gif"",""img/Fire_Up_Distractor.gif""]","targetDown_distractorsUp"
"","","","","","html-keyboard-response","162","442629","0.0-14.0-0.0-0.74","5ec4392d840c723047239323","6186fb1cc52d38b480598eb7","618729149af03d5eca6e00fe","null","","null","","","","","fixation","","","",""
"","","","","","visual-search-circle","163","445098","0.0-14.0-0.0-1.74","5ec4392d840c723047239323","6186fb1cc52d38b480598eb7","618729149af03d5eca6e00fe","1454","","s","true","[[5,242],[51,467],[242,594],[467,548],[594,357],[548,132],[357,5],[132,51]]","false","8","","","img/Fire_Up_Target.gif","[""img/Fire_Down_Distractor.gif"",""img/Fire_Down_Distractor.gif"",""img/Fire_Down_Distractor.gif"",""img/Fire_Down_Distractor.gif"",""img/Fire_Down_Distractor.gif"",""img/Fire_Down_Distractor.gif"",""img/Fire_Down_Distractor.gif"",""img/Fire_Down_Distractor.gif"",""img/Fire_Down_Distractor.gif"",""img/Fire_Down_Distractor.gif"",""img/Fire_Down_Distractor.gif"",""img/Fire_Down_Distractor.gif""]","targetUp_distractorsDown"
"","","","","","html-keyboard-response","164","445099","0.0-14.0-0.0-0.75","5ec4392d840c723047239323","6186fb1cc52d38b480598eb7","618729149af03d5eca6e00fe","null","","null","","","","","fixation","","","",""
"","","","","","visual-search-circle","165","450019","0.0-14.0-0.0-1.75","5ec4392d840c723047239323","6186fb1cc52d38b480598eb7","618729149af03d5eca6e00fe","3906","","d","true","[[472,54],[247,4],[54,127],[4,352],[127,545],[352,595],[545,472],[595,247]]","true","8","","","img/Fire_Up_Target.gif","[""img/Fire_Down_Distractor.gif"",""img/Fire_Down_Distractor.gif"",""img/Fire_Down_Distractor.gif"",""img/Fire_Down_Distractor.gif"",""img/Fire_Down_Distractor.gif"",""img/Fire_Down_Distractor.gif"",""img/Fire_Down_Distractor.gif"",""img/Fire_Down_Distractor.gif"",""img/Fire_Down_Distractor.gif"",""img/Fire_Down_Distractor.gif"",""img/Fire_Down_Distractor.gif"",""img/Fire_Down_Distractor.gif""]","targetUp_distractorsDown"
"","","","","","html-keyboard-response","166","450020","0.0-14.0-0.0-0.76","5ec4392d840c723047239323","6186fb1cc52d38b480598eb7","618729149af03d5eca6e00fe","null","","null","","","","","fixation","","","",""
"","","","","","visual-search-circle","167","454640","0.0-14.0-0.0-1.76","5ec4392d840c723047239323","6186fb1cc52d38b480598eb7","618729149af03d5eca6e00fe","3608","","s","false","[[599,315],[522,99],[315,0],[99,77],[0,284],[77,500],[284,599],[500,522]]","true","8","","","img/Fire_Up_Target.gif","[""img/Fire_Down_Distractor.gif"",""img/Fire_Down_Distractor.gif"",""img/Fire_Down_Distractor.gif"",""img/Fire_Down_Distractor.gif"",""img/Fire_Down_Distractor.gif"",""img/Fire_Down_Distractor.gif"",""img/Fire_Down_Distractor.gif"",""img/Fire_Down_Distractor.gif"",""img/Fire_Down_Distractor.gif"",""img/Fire_Down_Distractor.gif"",""img/Fire_Down_Distractor.gif"",""img/Fire_Down_Distractor.gif""]","targetUp_distractorsDown"
"","","","","","html-keyboard-response","168","454642","0.0-14.0-0.0-0.77","5ec4392d840c723047239323","6186fb1cc52d38b480598eb7","618729149af03d5eca6e00fe","null","","null","","","","","fixation","","","",""
"","","","","","visual-search-circle","169","458220","0.0-14.0-0.0-1.77","5ec4392d840c723047239323","6186fb1cc52d38b480598eb7","618729149af03d5eca6e00fe","2567","","s","true","[[598,273],[426,28],[127,54],[1,326],[173,571],[472,545]]","false","6","","","img/Fire_Down_Target.gif","[""img/Fire_Up_Distractor.gif"",""img/Fire_Up_Distractor.gif"",""img/Fire_Up_Distractor.gif"",""img/Fire_Up_Distractor.gif"",""img/Fire_Up_Distractor.gif"",""img/Fire_Up_Distractor.gif"",""img/Fire_Up_Distractor.gif"",""img/Fire_Up_Distractor.gif"",""img/Fire_Up_Distractor.gif"",""img/Fire_Up_Distractor.gif"",""img/Fire_Up_Distractor.gif"",""img/Fire_Up_Distractor.gif""]","targetDown_distractorsUp"
"","","","","","html-keyboard-response","170","458221","0.0-14.0-0.0-0.78","5ec4392d840c723047239323","6186fb1cc52d38b480598eb7","618729149af03d5eca6e00fe","null","","null","","","","","fixation","","","",""
"","","","","","visual-search-circle","171","460614","0.0-14.0-0.0-1.78","5ec4392d840c723047239323","6186fb1cc52d38b480598eb7","618729149af03d5eca6e00fe","1377","","s","true","[[25,177],[19,407],[177,574],[407,580],[574,422],[580,192],[422,25],[192,19]]","false","8","","","img/Fire_Down_Target.gif","[""img/Fire_Up_Distractor.gif"",""img/Fire_Up_Distractor.gif"",""img/Fire_Up_Distractor.gif"",""img/Fire_Up_Distractor.gif"",""img/Fire_Up_Distractor.gif"",""img/Fire_Up_Distractor.gif"",""img/Fire_Up_Distractor.gif"",""img/Fire_Up_Distractor.gif"",""img/Fire_Up_Distractor.gif"",""img/Fire_Up_Distractor.gif"",""img/Fire_Up_Distractor.gif"",""img/Fire_Up_Distractor.gif""]","targetDown_distractorsUp"
"","","","","","html-keyboard-response","172","496856","0.0-14.0-0.0-0.79","5ec4392d840c723047239323","6186fb1cc52d38b480598eb7","618729149af03d5eca6e00fe","36242","Wow! You've completed 80 out of 120 trials! </p> <p>  </p><p> Take a quick break, then press any key when you're ready to continue."," ","","","","","fixation","","","",""
"","","","","","visual-search-circle","173","499296","0.0-14.0-0.0-1.79","5ec4392d840c723047239323","6186fb1cc52d38b480598eb7","618729149af03d5eca6e00fe","1432","","d","true","[[504,519],[571,173],[263,2],[5,242],[154,562]]","true","5","","","img/Fire_Down_Target.gif","[""img/Fire_Up_Distractor.gif"",""img/Fire_Up_Distractor.gif"",""img/Fire_Up_Distractor.gif"",""img/Fire_Up_Distractor.gif"",""img/Fire_Up_Distractor.gif"",""img/Fire_Up_Distractor.gif"",""img/Fire_Up_Distractor.gif"",""img/Fire_Up_Distractor.gif"",""img/Fire_Up_Distractor.gif"",""img/Fire_Up_Distractor.gif"",""img/Fire_Up_Distractor.gif"",""img/Fire_Up_Distractor.gif""]","targetDown_distractorsUp"
"","","","","","html-keyboard-response","174","499297","0.0-14.0-0.0-0.80","5ec4392d840c723047239323","6186fb1cc52d38b480598eb7","618729149af03d5eca6e00fe","null","","null","","","","","fixation","","","",""
"","","","","","visual-search-circle","175","501666","0.0-14.0-0.0-1.80","5ec4392d840c723047239323","6186fb1cc52d38b480598eb7","618729149af03d5eca6e00fe","1356.0000000000582","","d","false","[[588,217],[415,22],[155,37],[4,249],[76,499],[316,599],[544,473]]","false","7","","","img/Fire_Down_Target.gif","[""img/Fire_Up_Distractor.gif"",""img/Fire_Up_Distractor.gif"",""img/Fire_Up_Distractor.gif"",""img/Fire_Up_Distractor.gif"",""img/Fire_Up_Distractor.gif"",""img/Fire_Up_Distractor.gif"",""img/Fire_Up_Distractor.gif"",""img/Fire_Up_Distractor.gif"",""img/Fire_Up_Distractor.gif"",""img/Fire_Up_Distractor.gif"",""img/Fire_Up_Distractor.gif"",""img/Fire_Up_Distractor.gif""]","targetDown_distractorsUp"
"","","","","","html-keyboard-response","176","501668","0.0-14.0-0.0-0.81","5ec4392d840c723047239323","6186fb1cc52d38b480598eb7","618729149af03d5eca6e00fe","null","","null","","","","","fixation","","","",""
"","","","","","visual-search-circle","177","505065","0.0-14.0-0.0-1.81","5ec4392d840c723047239323","6186fb1cc52d38b480598eb7","618729149af03d5eca6e00fe","2391","","d","true","[[182,576],[526,496],[557,145],[232,7],[1,273]]","true","5","","","img/Fire_Up_Target.gif","[""img/Fire_Down_Distractor.gif"",""img/Fire_Down_Distractor.gif"",""img/Fire_Down_Distractor.gif"",""img/Fire_Down_Distractor.gif"",""img/Fire_Down_Distractor.gif"",""img/Fire_Down_Distractor.gif"",""img/Fire_Down_Distractor.gif"",""img/Fire_Down_Distractor.gif"",""img/Fire_Down_Distractor.gif"",""img/Fire_Down_Distractor.gif"",""img/Fire_Down_Distractor.gif"",""img/Fire_Down_Distractor.gif""]","targetUp_distractorsDown"
"","","","","","html-keyboard-response","178","505067","0.0-14.0-0.0-0.82","5ec4392d840c723047239323","6186fb1cc52d38b480598eb7","618729149af03d5eca6e00fe","null","","null","","","","","fixation","","","",""
"","","","","","visual-search-circle","179","508451","0.0-14.0-0.0-1.82","5ec4392d840c723047239323","6186fb1cc52d38b480598eb7","618729149af03d5eca6e00fe","2379","","s","false","[[588,217],[217,11],[11,382],[382,588]]","true","4","","","img/Fire_Up_Target.gif","[""img/Fire_Down_Distractor.gif"",""img/Fire_Down_Distractor.gif"",""img/Fire_Down_Distractor.gif"",""img/Fire_Down_Distractor.gif"",""img/Fire_Down_Distractor.gif"",""img/Fire_Down_Distractor.gif"",""img/Fire_Down_Distractor.gif"",""img/Fire_Down_Distractor.gif"",""img/Fire_Down_Distractor.gif"",""img/Fire_Down_Distractor.gif"",""img/Fire_Down_Distractor.gif"",""img/Fire_Down_Distractor.gif""]","targetUp_distractorsDown"
"","","","","","html-keyboard-response","180","508453","0.0-14.0-0.0-0.83","5ec4392d840c723047239323","6186fb1cc52d38b480598eb7","618729149af03d5eca6e00fe","null","","null","","","","","fixation","","","",""
"","","","","","visual-search-circle","181","510833","0.0-14.0-0.0-1.83","5ec4392d840c723047239323","6186fb1cc52d38b480598eb7","618729149af03d5eca6e00fe","1375","","s","true","[[326,598],[598,273],[273,1],[1,326]]","false","4","","","img/Fire_Up_Target.gif","[""img/Fire_Down_Distractor.gif"",""img/Fire_Down_Distractor.gif"",""img/Fire_Down_Distractor.gif"",""img/Fire_Down_Distractor.gif"",""img/Fire_Down_Distractor.gif"",""img/Fire_Down_Distractor.gif"",""img/Fire_Down_Distractor.gif"",""img/Fire_Down_Distractor.gif"",""img/Fire_Down_Distractor.gif"",""img/Fire_Down_Distractor.gif"",""img/Fire_Down_Distractor.gif"",""img/Fire_Down_Distractor.gif""]","targetUp_distractorsDown"
"","","","","","html-keyboard-response","182","510834","0.0-14.0-0.0-0.84","5ec4392d840c723047239323","6186fb1cc52d38b480598eb7","618729149af03d5eca6e00fe","null","","null","","","","","fixation","","","",""
"","","","","","visual-search-circle","183","514574","0.0-14.0-0.0-1.84","5ec4392d840c723047239323","6186fb1cc52d38b480598eb7","618729149af03d5eca6e00fe","2733","","d","true","[[289,599],[599,310],[310,0],[0,289]]","true","4","","","img/Fire_Up_Target.gif","[""img/Fire_Down_Distractor.gif"",""img/Fire_Down_Distractor.gif"",""img/Fire_Down_Distractor.gif"",""img/Fire_Down_Distractor.gif"",""img/Fire_Down_Distractor.gif"",""img/Fire_Down_Distractor.gif"",""img/Fire_Down_Distractor.gif"",""img/Fire_Down_Distractor.gif"",""img/Fire_Down_Distractor.gif"",""img/Fire_Down_Distractor.gif"",""img/Fire_Down_Distractor.gif"",""img/Fire_Down_Distractor.gif""]","targetUp_distractorsDown"
"","","","","","html-keyboard-response","184","514575","0.0-14.0-0.0-0.85","5ec4392d840c723047239323","6186fb1cc52d38b480598eb7","618729149af03d5eca6e00fe","null","","null","","","","","fixation","","","",""
"","","","","","visual-search-circle","185","517429","0.0-14.0-0.0-1.85","5ec4392d840c723047239323","6186fb1cc52d38b480598eb7","618729149af03d5eca6e00fe","1841","","s","false","[[392,14],[134,49],[1,273],[92,516],[340,597],[557,453],[580,194]]","true","7","","","img/Fire_Up_Target.gif","[""img/Fire_Down_Distractor.gif"",""img/Fire_Down_Distractor.gif"",""img/Fire_Down_Distractor.gif"",""img/Fire_Down_Distractor.gif"",""img/Fire_Down_Distractor.gif"",""img/Fire_Down_Distractor.gif"",""img/Fire_Down_Distractor.gif"",""img/Fire_Down_Distractor.gif"",""img/Fire_Down_Distractor.gif"",""img/Fire_Down_Distractor.gif"",""img/Fire_Down_Distractor.gif"",""img/Fire_Down_Distractor.gif""]","targetUp_distractorsDown"
"","","","","","html-keyboard-response","186","517430","0.0-14.0-0.0-0.86","5ec4392d840c723047239323","6186fb1cc52d38b480598eb7","618729149af03d5eca6e00fe","null","","null","","","","","fixation","","","",""
"","","","","","visual-search-circle","187","521670","0.0-14.0-0.0-1.86","5ec4392d840c723047239323","6186fb1cc52d38b480598eb7","618729149af03d5eca6e00fe","3233.999999999942","","s","true","[[336,597],[597,263],[263,2],[2,336]]","false","4","","","img/Fire_Down_Target.gif","[""img/Fire_Up_Distractor.gif"",""img/Fire_Up_Distractor.gif"",""img/Fire_Up_Distractor.gif"",""img/Fire_Up_Distractor.gif"",""img/Fire_Up_Distractor.gif"",""img/Fire_Up_Distractor.gif"",""img/Fire_Up_Distractor.gif"",""img/Fire_Up_Distractor.gif"",""img/Fire_Up_Distractor.gif"",""img/Fire_Up_Distractor.gif"",""img/Fire_Up_Distractor.gif"",""img/Fire_Up_Distractor.gif""]","targetDown_distractorsUp"
"","","","","","html-keyboard-response","188","521671","0.0-14.0-0.0-0.87","5ec4392d840c723047239323","6186fb1cc52d38b480598eb7","618729149af03d5eca6e00fe","null","","null","","","","","fixation","","","",""
"","","","","","visual-search-circle","189","525096","0.0-14.0-0.0-1.87","5ec4392d840c723047239323","6186fb1cc52d38b480598eb7","618729149af03d5eca6e00fe","2413","","d","true","[[95,80],[0,323],[131,548],[389,586],[579,408],[559,149],[343,3]]","true","7","","","img/Fire_Up_Target.gif","[""img/Fire_Down_Distractor.gif"",""img/Fire_Down_Distractor.gif"",""img/Fire_Down_Distractor.gif"",""img/Fire_Down_Distractor.gif"",""img/Fire_Down_Distractor.gif"",""img/Fire_Down_Distractor.gif"",""img/Fire_Down_Distractor.gif"",""img/Fire_Down_Distractor.gif"",""img/Fire_Down_Distractor.gif"",""img/Fire_Down_Distractor.gif"",""img/Fire_Down_Distractor.gif"",""img/Fire_Down_Distractor.gif""]","targetUp_distractorsDown"
"","","","","","html-keyboard-response","190","525097","0.0-14.0-0.0-0.88","5ec4392d840c723047239323","6186fb1cc52d38b480598eb7","618729149af03d5eca6e00fe","null","","null","","","","","fixation","","","",""
"","","","","","visual-search-circle","191","530544","0.0-14.0-0.0-1.88","5ec4392d840c723047239323","6186fb1cc52d38b480598eb7","618729149af03d5eca6e00fe","4436","","d","true","[[163,567],[424,573],[590,373],[538,118],[306,0],[69,107],[6,360]]","true","7","","","img/Fire_Up_Target.gif","[""img/Fire_Down_Distractor.gif"",""img/Fire_Down_Distractor.gif"",""img/Fire_Down_Distractor.gif"",""img/Fire_Down_Distractor.gif"",""img/Fire_Down_Distractor.gif"",""img/Fire_Down_Distractor.gif"",""img/Fire_Down_Distractor.gif"",""img/Fire_Down_Distractor.gif"",""img/Fire_Down_Distractor.gif"",""img/Fire_Down_Distractor.gif"",""img/Fire_Down_Distractor.gif"",""img/Fire_Down_Distractor.gif""]","targetUp_distractorsDown"
"","","","","","html-keyboard-response","192","530546","0.0-14.0-0.0-0.89","5ec4392d840c723047239323","6186fb1cc52d38b480598eb7","618729149af03d5eca6e00fe","null","","null","","","","","fixation","","","",""
"","","","","","visual-search-circle","193","533704","0.0-14.0-0.0-1.89","5ec4392d840c723047239323","6186fb1cc52d38b480598eb7","618729149af03d5eca6e00fe","2148","","d","true","[[392,585],[593,362],[500,77],[207,14],[6,237],[99,522]]","true","6","","","img/Fire_Down_Target.gif","[""img/Fire_Up_Distractor.gif"",""img/Fire_Up_Distractor.gif"",""img/Fire_Up_Distractor.gif"",""img/Fire_Up_Distractor.gif"",""img/Fire_Up_Distractor.gif"",""img/Fire_Up_Distractor.gif"",""img/Fire_Up_Distractor.gif"",""img/Fire_Up_Distractor.gif"",""img/Fire_Up_Distractor.gif"",""img/Fire_Up_Distractor.gif"",""img/Fire_Up_Distractor.gif"",""img/Fire_Up_Distractor.gif""]","targetDown_distractorsUp"
"","","","","","html-keyboard-response","194","533705","0.0-14.0-0.0-0.90","5ec4392d840c723047239323","6186fb1cc52d38b480598eb7","618729149af03d5eca6e00fe","null","","null","","","","","fixation","","","",""
"","","","","","visual-search-circle","195","535584","0.0-14.0-0.0-1.90","5ec4392d840c723047239323","6186fb1cc52d38b480598eb7","618729149af03d5eca6e00fe","871","","d","false","[[16,397],[397,583],[583,202],[202,16]]","false","4","","","img/Fire_Down_Target.gif","[""img/Fire_Up_Distractor.gif"",""img/Fire_Up_Distractor.gif"",""img/Fire_Up_Distractor.gif"",""img/Fire_Up_Distractor.gif"",""img/Fire_Up_Distractor.gif"",""img/Fire_Up_Distractor.gif"",""img/Fire_Up_Distractor.gif"",""img/Fire_Up_Distractor.gif"",""img/Fire_Up_Distractor.gif"",""img/Fire_Up_Distractor.gif"",""img/Fire_Up_Distractor.gif"",""img/Fire_Up_Distractor.gif""]","targetDown_distractorsUp"
"","","","","","html-keyboard-response","196","535585","0.0-14.0-0.0-0.91","5ec4392d840c723047239323","6186fb1cc52d38b480598eb7","618729149af03d5eca6e00fe","null","","null","","","","","fixation","","","",""
"","","","","","visual-search-circle","197","545646","0.0-14.0-0.0-1.91","5ec4392d840c723047239323","6186fb1cc52d38b480598eb7","618729149af03d5eca6e00fe","9053","","d","true","[[91,515],[440,564],[595,247],[341,2],[30,168]]","true","5","","","img/Fire_Up_Target.gif","[""img/Fire_Down_Distractor.gif"",""img/Fire_Down_Distractor.gif"",""img/Fire_Down_Distractor.gif"",""img/Fire_Down_Distractor.gif"",""img/Fire_Down_Distractor.gif"",""img/Fire_Down_Distractor.gif"",""img/Fire_Down_Distractor.gif"",""img/Fire_Down_Distractor.gif"",""img/Fire_Down_Distractor.gif"",""img/Fire_Down_Distractor.gif"",""img/Fire_Down_Distractor.gif"",""img/Fire_Down_Distractor.gif""]","targetUp_distractorsDown"
"","","","","","html-keyboard-response","198","545647","0.0-14.0-0.0-0.92","5ec4392d840c723047239323","6186fb1cc52d38b480598eb7","618729149af03d5eca6e00fe","null","","null","","","","","fixation","","","",""
"","","","","","visual-search-circle","199","547410","0.0-14.0-0.0-1.92","5ec4392d840c723047239323","6186fb1cc52d38b480598eb7","618729149af03d5eca6e00fe","754","","d","false","[[367,7],[80,95],[13,387],[232,592],[519,504],[586,212]]","false","6","","","img/Fire_Up_Target.gif","[""img/Fire_Down_Distractor.gif"",""img/Fire_Down_Distractor.gif"",""img/Fire_Down_Distractor.gif"",""img/Fire_Down_Distractor.gif"",""img/Fire_Down_Distractor.gif"",""img/Fire_Down_Distractor.gif"",""img/Fire_Down_Distractor.gif"",""img/Fire_Down_Distractor.gif"",""img/Fire_Down_Distractor.gif"",""img/Fire_Down_Distractor.gif"",""img/Fire_Down_Distractor.gif"",""img/Fire_Down_Distractor.gif""]","targetUp_distractorsDown"
"","","","","","html-keyboard-response","200","547412","0.0-14.0-0.0-0.93","5ec4392d840c723047239323","6186fb1cc52d38b480598eb7","618729149af03d5eca6e00fe","null","","null","","","","","fixation","","","",""
"","","","","","visual-search-circle","201","550680","0.0-14.0-0.0-1.93","5ec4392d840c723047239323","6186fb1cc52d38b480598eb7","618729149af03d5eca6e00fe","2257","","d","true","[[422,574],[590,375],[540,120],[308,0],[71,106],[5,357],[161,566]]","true","7","","","img/Fire_Down_Target.gif","[""img/Fire_Up_Distractor.gif"",""img/Fire_Up_Distractor.gif"",""img/Fire_Up_Distractor.gif"",""img/Fire_Up_Distractor.gif"",""img/Fire_Up_Distractor.gif"",""img/Fire_Up_Distractor.gif"",""img/Fire_Up_Distractor.gif"",""img/Fire_Up_Distractor.gif"",""img/Fire_Up_Distractor.gif"",""img/Fire_Up_Distractor.gif"",""img/Fire_Up_Distractor.gif"",""img/Fire_Up_Distractor.gif""]","targetDown_distractorsUp"
"","","","","","html-keyboard-response","202","550681","0.0-14.0-0.0-0.94","5ec4392d840c723047239323","6186fb1cc52d38b480598eb7","618729149af03d5eca6e00fe","null","","null","","","","","fixation","","","",""
"","","","","","visual-search-circle","203","554556","0.0-14.0-0.0-1.94","5ec4392d840c723047239323","6186fb1cc52d38b480598eb7","618729149af03d5eca6e00fe","2862","","s","false","[[145,42],[8,227],[42,454],[227,591],[454,557],[591,372],[557,145],[372,8]]","true","8","","","img/Fire_Up_Target.gif","[""img/Fire_Down_Distractor.gif"",""img/Fire_Down_Distractor.gif"",""img/Fire_Down_Distractor.gif"",""img/Fire_Down_Distractor.gif"",""img/Fire_Down_Distractor.gif"",""img/Fire_Down_Distractor.gif"",""img/Fire_Down_Distractor.gif"",""img/Fire_Down_Distractor.gif"",""img/Fire_Down_Distractor.gif"",""img/Fire_Down_Distractor.gif"",""img/Fire_Down_Distractor.gif"",""img/Fire_Down_Distractor.gif""]","targetUp_distractorsDown"
"","","","","","html-keyboard-response","204","554557","0.0-14.0-0.0-0.95","5ec4392d840c723047239323","6186fb1cc52d38b480598eb7","618729149af03d5eca6e00fe","null","","null","","","","","fixation","","","",""
"","","","","","visual-search-circle","205","558017","0.0-14.0-0.0-1.95","5ec4392d840c723047239323","6186fb1cc52d38b480598eb7","618729149af03d5eca6e00fe","2445","","d","true","[[284,0],[77,99],[0,315],[99,522],[315,599],[522,500],[599,284],[500,77]]","true","8","","","img/Fire_Down_Target.gif","[""img/Fire_Up_Distractor.gif"",""img/Fire_Up_Distractor.gif"",""img/Fire_Up_Distractor.gif"",""img/Fire_Up_Distractor.gif"",""img/Fire_Up_Distractor.gif"",""img/Fire_Up_Distractor.gif"",""img/Fire_Up_Distractor.gif"",""img/Fire_Up_Distractor.gif"",""img/Fire_Up_Distractor.gif"",""img/Fire_Up_Distractor.gif"",""img/Fire_Up_Distractor.gif"",""img/Fire_Up_Distractor.gif""]","targetDown_distractorsUp"
"","","","","","html-keyboard-response","206","558018","0.0-14.0-0.0-0.96","5ec4392d840c723047239323","6186fb1cc52d38b480598eb7","618729149af03d5eca6e00fe","null","","null","","","","","fixation","","","",""
"","","","","","visual-search-circle","207","562433","0.0-14.0-0.0-1.96","5ec4392d840c723047239323","6186fb1cc52d38b480598eb7","618729149af03d5eca6e00fe","3405","","s","true","[[512,87],[222,10],[10,222],[87,512],[377,589],[589,377]]","false","6","","","img/Fire_Up_Target.gif","[""img/Fire_Down_Distractor.gif"",""img/Fire_Down_Distractor.gif"",""img/Fire_Down_Distractor.gif"",""img/Fire_Down_Distractor.gif"",""img/Fire_Down_Distractor.gif"",""img/Fire_Down_Distractor.gif"",""img/Fire_Down_Distractor.gif"",""img/Fire_Down_Distractor.gif"",""img/Fire_Down_Distractor.gif"",""img/Fire_Down_Distractor.gif"",""img/Fire_Down_Distractor.gif"",""img/Fire_Down_Distractor.gif""]","targetUp_distractorsDown"
"","","","","","html-keyboard-response","208","562434","0.0-14.0-0.0-0.97","5ec4392d840c723047239323","6186fb1cc52d38b480598eb7","618729149af03d5eca6e00fe","null","","null","","","","","fixation","","","",""
"","","","","","visual-search-circle","209","566574","0.0-14.0-0.0-1.97","5ec4392d840c723047239323","6186fb1cc52d38b480598eb7","618729149af03d5eca6e00fe","3134.0000000001164","","s","true","[[594,242],[242,5],[5,357],[357,594]]","false","4","","","img/Fire_Down_Target.gif","[""img/Fire_Up_Distractor.gif"",""img/Fire_Up_Distractor.gif"",""img/Fire_Up_Distractor.gif"",""img/Fire_Up_Distractor.gif"",""img/Fire_Up_Distractor.gif"",""img/Fire_Up_Distractor.gif"",""img/Fire_Up_Distractor.gif"",""img/Fire_Up_Distractor.gif"",""img/Fire_Up_Distractor.gif"",""img/Fire_Up_Distractor.gif"",""img/Fire_Up_Distractor.gif"",""img/Fire_Up_Distractor.gif""]","targetDown_distractorsUp"
"","","","","","html-keyboard-response","210","566577","0.0-14.0-0.0-0.98","5ec4392d840c723047239323","6186fb1cc52d38b480598eb7","618729149af03d5eca6e00fe","null","","null","","","","","fixation","","","",""
"","","","","","visual-search-circle","211","569239","0.0-14.0-0.0-1.98","5ec4392d840c723047239323","6186fb1cc52d38b480598eb7","618729149af03d5eca6e00fe","1646","","s","false","[[331,1],[111,66],[1,268],[66,488],[268,598],[488,533],[598,331],[533,111]]","true","8","","","img/Fire_Down_Target.gif","[""img/Fire_Up_Distractor.gif"",""img/Fire_Up_Distractor.gif"",""img/Fire_Up_Distractor.gif"",""img/Fire_Up_Distractor.gif"",""img/Fire_Up_Distractor.gif"",""img/Fire_Up_Distractor.gif"",""img/Fire_Up_Distractor.gif"",""img/Fire_Up_Distractor.gif"",""img/Fire_Up_Distractor.gif"",""img/Fire_Up_Distractor.gif"",""img/Fire_Up_Distractor.gif"",""img/Fire_Up_Distractor.gif""]","targetDown_distractorsUp"
"","","","","","html-keyboard-response","212","570693","0.0-14.0-0.0-0.99","5ec4392d840c723047239323","6186fb1cc52d38b480598eb7","618729149af03d5eca6e00fe","1453","Wow! You've completed 100 out of 120 trials! </p> <p>  </p><p> Take a quick break, then press any key when you're ready to continue."," ","","","","","fixation","","","",""
"","","","","","visual-search-circle","213","573124","0.0-14.0-0.0-1.99","5ec4392d840c723047239323","6186fb1cc52d38b480598eb7","618729149af03d5eca6e00fe","1422","","d","true","[[57,476],[331,598],[574,422],[542,123],[268,1],[25,177]]","true","6","","","img/Fire_Down_Target.gif","[""img/Fire_Up_Distractor.gif"",""img/Fire_Up_Distractor.gif"",""img/Fire_Up_Distractor.gif"",""img/Fire_Up_Distractor.gif"",""img/Fire_Up_Distractor.gif"",""img/Fire_Up_Distractor.gif"",""img/Fire_Up_Distractor.gif"",""img/Fire_Up_Distractor.gif"",""img/Fire_Up_Distractor.gif"",""img/Fire_Up_Distractor.gif"",""img/Fire_Up_Distractor.gif"",""img/Fire_Up_Distractor.gif""]","targetDown_distractorsUp"
"","","","","","html-keyboard-response","214","573125","0.0-14.0-0.0-0.100","5ec4392d840c723047239323","6186fb1cc52d38b480598eb7","618729149af03d5eca6e00fe","null","","null","","","","","fixation","","","",""
"","","","","","visual-search-circle","215","577788","0.0-14.0-0.0-1.100","5ec4392d840c723047239323","6186fb1cc52d38b480598eb7","618729149af03d5eca6e00fe","3655","","s","false","[[467,548],[588,217],[310,0],[18,197],[115,536]]","true","5","","","img/Fire_Up_Target.gif","[""img/Fire_Down_Distractor.gif"",""img/Fire_Down_Distractor.gif"",""img/Fire_Down_Distractor.gif"",""img/Fire_Down_Distractor.gif"",""img/Fire_Down_Distractor.gif"",""img/Fire_Down_Distractor.gif"",""img/Fire_Down_Distractor.gif"",""img/Fire_Down_Distractor.gif"",""img/Fire_Down_Distractor.gif"",""img/Fire_Down_Distractor.gif"",""img/Fire_Down_Distractor.gif"",""img/Fire_Down_Distractor.gif""]","targetUp_distractorsDown"
"","","","","","html-keyboard-response","216","577790","0.0-14.0-0.0-0.101","5ec4392d840c723047239323","6186fb1cc52d38b480598eb7","618729149af03d5eca6e00fe","null","","null","","","","","fixation","","","",""
"","","","","","visual-search-circle","217","582017","0.0-14.0-0.0-1.101","5ec4392d840c723047239323","6186fb1cc52d38b480598eb7","618729149af03d5eca6e00fe","3219","","s","true","[[159,35],[0,289],[141,554],[440,564],[599,310],[458,45]]","false","6","","","img/Fire_Down_Target.gif","[""img/Fire_Up_Distractor.gif"",""img/Fire_Up_Distractor.gif"",""img/Fire_Up_Distractor.gif"",""img/Fire_Up_Distractor.gif"",""img/Fire_Up_Distractor.gif"",""img/Fire_Up_Distractor.gif"",""img/Fire_Up_Distractor.gif"",""img/Fire_Up_Distractor.gif"",""img/Fire_Up_Distractor.gif"",""img/Fire_Up_Distractor.gif"",""img/Fire_Up_Distractor.gif"",""img/Fire_Up_Distractor.gif""]","targetDown_distractorsUp"
"","","","","","html-keyboard-response","218","582019","0.0-14.0-0.0-0.102","5ec4392d840c723047239323","6186fb1cc52d38b480598eb7","618729149af03d5eca6e00fe","null","","null","","","","","fixation","","","",""
"","","","","","visual-search-circle","219","588672","0.0-14.0-0.0-1.102","5ec4392d840c723047239323","6186fb1cc52d38b480598eb7","618729149af03d5eca6e00fe","5645","","d","false","[[48,463],[377,589],[599,315],[407,19],[66,111]]","false","5","","","img/Fire_Up_Target.gif","[""img/Fire_Down_Distractor.gif"",""img/Fire_Down_Distractor.gif"",""img/Fire_Down_Distractor.gif"",""img/Fire_Down_Distractor.gif"",""img/Fire_Down_Distractor.gif"",""img/Fire_Down_Distractor.gif"",""img/Fire_Down_Distractor.gif"",""img/Fire_Down_Distractor.gif"",""img/Fire_Down_Distractor.gif"",""img/Fire_Down_Distractor.gif"",""img/Fire_Down_Distractor.gif"",""img/Fire_Down_Distractor.gif""]","targetUp_distractorsDown"
"","","","","","html-keyboard-response","220","588674","0.0-14.0-0.0-0.103","5ec4392d840c723047239323","6186fb1cc52d38b480598eb7","618729149af03d5eca6e00fe","null","","null","","","","","fixation","","","",""
"","","","","","visual-search-circle","221","591821","0.0-14.0-0.0-1.103","5ec4392d840c723047239323","6186fb1cc52d38b480598eb7","618729149af03d5eca6e00fe","2139","","d","false","[[596,253],[346,3],[32,163],[87,512],[436,567]]","false","5","","","img/Fire_Down_Target.gif","[""img/Fire_Up_Distractor.gif"",""img/Fire_Up_Distractor.gif"",""img/Fire_Up_Distractor.gif"",""img/Fire_Up_Distractor.gif"",""img/Fire_Up_Distractor.gif"",""img/Fire_Up_Distractor.gif"",""img/Fire_Up_Distractor.gif"",""img/Fire_Up_Distractor.gif"",""img/Fire_Up_Distractor.gif"",""img/Fire_Up_Distractor.gif"",""img/Fire_Up_Distractor.gif"",""img/Fire_Up_Distractor.gif""]","targetDown_distractorsUp"
"","","","","","html-keyboard-response","222","591822","0.0-14.0-0.0-0.104","5ec4392d840c723047239323","6186fb1cc52d38b480598eb7","618729149af03d5eca6e00fe","null","","null","","","","","fixation","","","",""
"","","","","","visual-search-circle","223","596202","0.0-14.0-0.0-1.104","5ec4392d840c723047239323","6186fb1cc52d38b480598eb7","618729149af03d5eca6e00fe","3369","","s","true","[[16,397],[199,582],[458,554],[597,335],[513,88],[267,1],[46,139]]","false","7","","","img/Fire_Up_Target.gif","[""img/Fire_Down_Distractor.gif"",""img/Fire_Down_Distractor.gif"",""img/Fire_Down_Distractor.gif"",""img/Fire_Down_Distractor.gif"",""img/Fire_Down_Distractor.gif"",""img/Fire_Down_Distractor.gif"",""img/Fire_Down_Distractor.gif"",""img/Fire_Down_Distractor.gif"",""img/Fire_Down_Distractor.gif"",""img/Fire_Down_Distractor.gif"",""img/Fire_Down_Distractor.gif"",""img/Fire_Down_Distractor.gif""]","targetUp_distractorsDown"
