"success","timeout","failed_images","failed_audio","failed_video","trial_type","trial_index","time_elapsed","internal_node_id","subject_id","study_id","session_id","rt","stimulus","response","correct","locations","target_present","set_size","task","correct_response","target","foilCM","searchCondition"
"true","false","[]","[]","[]","preload","0","5356","0.0-0.0","5ef831c97dcd65573bbb0649","6186fb1cc52d38b480598eb7","61872c636d259af4cb95a911","","","","","","","","","","","",""
"true","","","","","fullscreen","1","8090","0.0-1.0","5ef831c97dcd65573bbb0649","6186fb1cc52d38b480598eb7","61872c636d259af4cb95a911","","","","","","","","","","","",""
"","","","","","html-keyboard-response","2","12682","0.0-2.0","5ef831c97dcd65573bbb0649","6186fb1cc52d38b480598eb7","61872c636d259af4cb95a911","4590.299999952316","What a beautiful Saturday to do some awesome science! </p> <p>  </p><p> </p>
    By completing this survey or questionnaire, you are consenting to be in this research study. </p>
    Your participation is voluntary and you can stop at any time.
    <p> [Press any key to continue.] </p>
    
    "," ","","","","","","","","",""
"","","","","","video-keyboard-response","3","32322","0.0-3.0","5ef831c97dcd65573bbb0649","6186fb1cc52d38b480598eb7","61872c636d259af4cb95a911","19637.400000095367","[""video/TaskInstructions.mp4""]"," ","","","","","","","","",""
"","","","","","html-keyboard-response","4","34921","0.0-4.0","5ef831c97dcd65573bbb0649","6186fb1cc52d38b480598eb7","61872c636d259af4cb95a911","2598.2999999523163","
    <p>First, we're going to do a few practice trials to make sure you understand the task. You will recieve feedback on each trial. </p>

    <p>[Press any key to begin the familiarization phase.]</p>
    "," ","","","","","","","","",""
"","","","","","visual-search-circle","5","37858","0.0-5.0-0.0","5ef831c97dcd65573bbb0649","6186fb1cc52d38b480598eb7","61872c636d259af4cb95a911","1881.2000000476837","","d","true","[[1,268],[268,598],[598,331],[331,1]]","true","4","training","d","","",""
"","","","","","html-keyboard-response","6","40177","0.0-6.0","5ef831c97dcd65573bbb0649","6186fb1cc52d38b480598eb7","61872c636d259af4cb95a911","2317.7999999523163"," <div style='float: center; '><img src='img/feedbackRight.png'></img> </div> "," ","","","","","","","","",""
"","","","","","visual-search-circle","7","42105","0.0-7.0-0.0","5ef831c97dcd65573bbb0649","6186fb1cc52d38b480598eb7","61872c636d259af4cb95a911","923.7000000476837","","s","true","[[258,597],[597,341],[341,2],[2,258]]","false","4","training","s","","",""
"","","","","","html-keyboard-response","8","43297","0.0-8.0","5ef831c97dcd65573bbb0649","6186fb1cc52d38b480598eb7","61872c636d259af4cb95a911","1191"," <div style='float: center; '><img src='img/feedbackRight.png'></img> </div> "," ","","","","","","","","",""
"","","","","","visual-search-circle","9","46073","0.0-9.0-0.0","5ef831c97dcd65573bbb0649","6186fb1cc52d38b480598eb7","61872c636d259af4cb95a911","1772.5999999046326","","s","true","[[80,95],[13,387],[232,592],[519,504],[586,212],[367,7]]","false","6","training","s","","",""
"","","","","","html-keyboard-response","10","46985","0.0-10.0","5ef831c97dcd65573bbb0649","6186fb1cc52d38b480598eb7","61872c636d259af4cb95a911","911.5"," <div style='float: center; '><img src='img/feedbackRight.png'></img> </div> "," ","","","","","","","","",""
"","","","","","visual-search-circle","11","49185","0.0-11.0-0.0","5ef831c97dcd65573bbb0649","6186fb1cc52d38b480598eb7","61872c636d259af4cb95a911","1195","","d","true","[[533,111],[331,1],[111,66],[1,268],[66,488],[268,598],[488,533],[598,331]]","true","8","training","d","","",""
"","","","","","html-keyboard-response","12","50082","0.0-12.0","5ef831c97dcd65573bbb0649","6186fb1cc52d38b480598eb7","61872c636d259af4cb95a911","895.5"," <div style='float: center; '><img src='img/feedbackRight.png'></img> </div> "," ","","","","","","","","",""
"","","","","","video-keyboard-response","13","53089","0.0-13.0","5ef831c97dcd65573bbb0649","6186fb1cc52d38b480598eb7","61872c636d259af4cb95a911","3006.7000000476837","[""video/endTraining.mp4""]"," ","","","","","","","","",""
"","","","","","html-keyboard-response","14","53093","0.0-14.0-0.0-0.0","5ef831c97dcd65573bbb0649","6186fb1cc52d38b480598eb7","61872c636d259af4cb95a911","null","","null","","","","","fixation","","","",""
"","","","","","visual-search-circle","15","55153","0.0-14.0-0.0-1.0","5ef831c97dcd65573bbb0649","6186fb1cc52d38b480598eb7","61872c636d259af4cb95a911","1055.5","","d","true","[[533,488],[488,66],[66,111],[111,533]]","true","4","","","img/Fire_Down_Target.gif","[""img/Fire_Up_Distractor.gif"",""img/Fire_Up_Distractor.gif"",""img/Fire_Up_Distractor.gif"",""img/Fire_Up_Distractor.gif"",""img/Fire_Up_Distractor.gif"",""img/Fire_Up_Distractor.gif"",""img/Fire_Up_Distractor.gif"",""img/Fire_Up_Distractor.gif"",""img/Fire_Up_Distractor.gif"",""img/Fire_Up_Distractor.gif"",""img/Fire_Up_Distractor.gif"",""img/Fire_Up_Distractor.gif""]","targetDown_distractorsUp"
"","","","","","html-keyboard-response","16","55156","0.0-14.0-0.0-0.1","5ef831c97dcd65573bbb0649","6186fb1cc52d38b480598eb7","61872c636d259af4cb95a911","null","","null","","","","","fixation","","","",""
"","","","","","visual-search-circle","17","57305","0.0-14.0-0.0-1.1","5ef831c97dcd65573bbb0649","6186fb1cc52d38b480598eb7","61872c636d259af4cb95a911","1146.7999999523163","","s","true","[[387,586],[592,367],[504,80],[212,13],[7,232],[95,519]]","false","6","","","img/Fire_Down_Target.gif","[""img/Fire_Up_Distractor.gif"",""img/Fire_Up_Distractor.gif"",""img/Fire_Up_Distractor.gif"",""img/Fire_Up_Distractor.gif"",""img/Fire_Up_Distractor.gif"",""img/Fire_Up_Distractor.gif"",""img/Fire_Up_Distractor.gif"",""img/Fire_Up_Distractor.gif"",""img/Fire_Up_Distractor.gif"",""img/Fire_Up_Distractor.gif"",""img/Fire_Up_Distractor.gif"",""img/Fire_Up_Distractor.gif""]","targetDown_distractorsUp"
"","","","","","html-keyboard-response","18","57308","0.0-14.0-0.0-0.2","5ef831c97dcd65573bbb0649","6186fb1cc52d38b480598eb7","61872c636d259af4cb95a911","null","","null","","","","","fixation","","","",""
"","","","","","visual-search-circle","19","59529","0.0-14.0-0.0-1.2","5ef831c97dcd65573bbb0649","6186fb1cc52d38b480598eb7","61872c636d259af4cb95a911","1217.7999999523163","","s","true","[[402,18],[63,115],[51,467],[382,588],[599,310]]","false","5","","","img/Fire_Down_Target.gif","[""img/Fire_Up_Distractor.gif"",""img/Fire_Up_Distractor.gif"",""img/Fire_Up_Distractor.gif"",""img/Fire_Up_Distractor.gif"",""img/Fire_Up_Distractor.gif"",""img/Fire_Up_Distractor.gif"",""img/Fire_Up_Distractor.gif"",""img/Fire_Up_Distractor.gif"",""img/Fire_Up_Distractor.gif"",""img/Fire_Up_Distractor.gif"",""img/Fire_Up_Distractor.gif"",""img/Fire_Up_Distractor.gif""]","targetDown_distractorsUp"
"","","","","","html-keyboard-response","20","59531","0.0-14.0-0.0-0.3","5ef831c97dcd65573bbb0649","6186fb1cc52d38b480598eb7","61872c636d259af4cb95a911","null","","null","","","","","fixation","","","",""
"","","","","","visual-search-circle","21","61769","0.0-14.0-0.0-1.3","5ef831c97dcd65573bbb0649","6186fb1cc52d38b480598eb7","61872c636d259af4cb95a911","1234.5999999046326","","d","true","[[593,362],[362,6],[6,237],[237,593]]","true","4","","","img/Fire_Up_Target.gif","[""img/Fire_Down_Distractor.gif"",""img/Fire_Down_Distractor.gif"",""img/Fire_Down_Distractor.gif"",""img/Fire_Down_Distractor.gif"",""img/Fire_Down_Distractor.gif"",""img/Fire_Down_Distractor.gif"",""img/Fire_Down_Distractor.gif"",""img/Fire_Down_Distractor.gif"",""img/Fire_Down_Distractor.gif"",""img/Fire_Down_Distractor.gif"",""img/Fire_Down_Distractor.gif"",""img/Fire_Down_Distractor.gif""]","targetUp_distractorsDown"
"","","","","","html-keyboard-response","22","61779","0.0-14.0-0.0-0.4","5ef831c97dcd65573bbb0649","6186fb1cc52d38b480598eb7","61872c636d259af4cb95a911","null","","null","","","","","fixation","","","",""
"","","","","","visual-search-circle","23","64025","0.0-14.0-0.0-1.4","5ef831c97dcd65573bbb0649","6186fb1cc52d38b480598eb7","61872c636d259af4cb95a911","1243.3999998569489","","d","true","[[0,294],[294,599],[599,305],[305,0]]","true","4","","","img/Fire_Down_Target.gif","[""img/Fire_Up_Distractor.gif"",""img/Fire_Up_Distractor.gif"",""img/Fire_Up_Distractor.gif"",""img/Fire_Up_Distractor.gif"",""img/Fire_Up_Distractor.gif"",""img/Fire_Up_Distractor.gif"",""img/Fire_Up_Distractor.gif"",""img/Fire_Up_Distractor.gif"",""img/Fire_Up_Distractor.gif"",""img/Fire_Up_Distractor.gif"",""img/Fire_Up_Distractor.gif"",""img/Fire_Up_Distractor.gif""]","targetDown_distractorsUp"
"","","","","","html-keyboard-response","24","64028","0.0-14.0-0.0-0.5","5ef831c97dcd65573bbb0649","6186fb1cc52d38b480598eb7","61872c636d259af4cb95a911","null","","null","","","","","fixation","","","",""
"","","","","","visual-search-circle","25","66289","0.0-14.0-0.0-1.5","5ef831c97dcd65573bbb0649","6186fb1cc52d38b480598eb7","61872c636d259af4cb95a911","1257.6000001430511","","d","true","[[576,182],[182,23],[23,417],[417,576]]","true","4","","","img/Fire_Down_Target.gif","[""img/Fire_Up_Distractor.gif"",""img/Fire_Up_Distractor.gif"",""img/Fire_Up_Distractor.gif"",""img/Fire_Up_Distractor.gif"",""img/Fire_Up_Distractor.gif"",""img/Fire_Up_Distractor.gif"",""img/Fire_Up_Distractor.gif"",""img/Fire_Up_Distractor.gif"",""img/Fire_Up_Distractor.gif"",""img/Fire_Up_Distractor.gif"",""img/Fire_Up_Distractor.gif"",""img/Fire_Up_Distractor.gif""]","targetDown_distractorsUp"
"","","","","","html-keyboard-response","26","66292","0.0-14.0-0.0-0.6","5ef831c97dcd65573bbb0649","6186fb1cc52d38b480598eb7","61872c636d259af4cb95a911","null","","null","","","","","fixation","","","",""
"","","","","","visual-search-circle","27","68705","0.0-14.0-0.0-1.6","5ef831c97dcd65573bbb0649","6186fb1cc52d38b480598eb7","61872c636d259af4cb95a911","1410.4000000953674","","d","true","[[392,585],[600,300],[392,14],[57,123],[57,476]]","true","5","","","img/Fire_Down_Target.gif","[""img/Fire_Up_Distractor.gif"",""img/Fire_Up_Distractor.gif"",""img/Fire_Up_Distractor.gif"",""img/Fire_Up_Distractor.gif"",""img/Fire_Up_Distractor.gif"",""img/Fire_Up_Distractor.gif"",""img/Fire_Up_Distractor.gif"",""img/Fire_Up_Distractor.gif"",""img/Fire_Up_Distractor.gif"",""img/Fire_Up_Distractor.gif"",""img/Fire_Up_Distractor.gif"",""img/Fire_Up_Distractor.gif""]","targetDown_distractorsUp"
"","","","","","html-keyboard-response","28","68707","0.0-14.0-0.0-0.7","5ef831c97dcd65573bbb0649","6186fb1cc52d38b480598eb7","61872c636d259af4cb95a911","null","","null","","","","","fixation","","","",""
"","","","","","visual-search-circle","29","71002","0.0-14.0-0.0-1.7","5ef831c97dcd65573bbb0649","6186fb1cc52d38b480598eb7","61872c636d259af4cb95a911","1290","","d","true","[[177,574],[476,542],[598,268],[422,25],[123,57],[1,331]]","true","6","","","img/Fire_Down_Target.gif","[""img/Fire_Up_Distractor.gif"",""img/Fire_Up_Distractor.gif"",""img/Fire_Up_Distractor.gif"",""img/Fire_Up_Distractor.gif"",""img/Fire_Up_Distractor.gif"",""img/Fire_Up_Distractor.gif"",""img/Fire_Up_Distractor.gif"",""img/Fire_Up_Distractor.gif"",""img/Fire_Up_Distractor.gif"",""img/Fire_Up_Distractor.gif"",""img/Fire_Up_Distractor.gif"",""img/Fire_Up_Distractor.gif""]","targetDown_distractorsUp"
"","","","","","html-keyboard-response","30","71007","0.0-14.0-0.0-0.8","5ef831c97dcd65573bbb0649","6186fb1cc52d38b480598eb7","61872c636d259af4cb95a911","null","","null","","","","","fixation","","","",""
"","","","","","visual-search-circle","31","72985","0.0-14.0-0.0-1.8","5ef831c97dcd65573bbb0649","6186fb1cc52d38b480598eb7","61872c636d259af4cb95a911","972.4000000953674","","s","true","[[258,597],[480,539],[597,341],[539,119],[341,2],[119,60],[2,258],[60,480]]","false","8","","","img/Fire_Up_Target.gif","[""img/Fire_Down_Distractor.gif"",""img/Fire_Down_Distractor.gif"",""img/Fire_Down_Distractor.gif"",""img/Fire_Down_Distractor.gif"",""img/Fire_Down_Distractor.gif"",""img/Fire_Down_Distractor.gif"",""img/Fire_Down_Distractor.gif"",""img/Fire_Down_Distractor.gif"",""img/Fire_Down_Distractor.gif"",""img/Fire_Down_Distractor.gif"",""img/Fire_Down_Distractor.gif"",""img/Fire_Down_Distractor.gif""]","targetUp_distractorsDown"
"","","","","","html-keyboard-response","32","72988","0.0-14.0-0.0-0.9","5ef831c97dcd65573bbb0649","6186fb1cc52d38b480598eb7","61872c636d259af4cb95a911","null","","null","","","","","fixation","","","",""
"","","","","","visual-search-circle","33","74961","0.0-14.0-0.0-1.9","5ef831c97dcd65573bbb0649","6186fb1cc52d38b480598eb7","61872c636d259af4cb95a911","971.2999999523163","","s","true","[[177,25],[25,422],[422,574],[574,177]]","false","4","","","img/Fire_Up_Target.gif","[""img/Fire_Down_Distractor.gif"",""img/Fire_Down_Distractor.gif"",""img/Fire_Down_Distractor.gif"",""img/Fire_Down_Distractor.gif"",""img/Fire_Down_Distractor.gif"",""img/Fire_Down_Distractor.gif"",""img/Fire_Down_Distractor.gif"",""img/Fire_Down_Distractor.gif"",""img/Fire_Down_Distractor.gif"",""img/Fire_Down_Distractor.gif"",""img/Fire_Down_Distractor.gif"",""img/Fire_Down_Distractor.gif""]","targetUp_distractorsDown"
"","","","","","html-keyboard-response","34","74965","0.0-14.0-0.0-0.10","5ef831c97dcd65573bbb0649","6186fb1cc52d38b480598eb7","61872c636d259af4cb95a911","null","","null","","","","","fixation","","","",""
"","","","","","visual-search-circle","35","77730","0.0-14.0-0.0-1.10","5ef831c97dcd65573bbb0649","6186fb1cc52d38b480598eb7","61872c636d259af4cb95a911","1749.6000001430511","","s","true","[[300,0],[0,299],[299,600],[600,300]]","false","4","","","img/Fire_Up_Target.gif","[""img/Fire_Down_Distractor.gif"",""img/Fire_Down_Distractor.gif"",""img/Fire_Down_Distractor.gif"",""img/Fire_Down_Distractor.gif"",""img/Fire_Down_Distractor.gif"",""img/Fire_Down_Distractor.gif"",""img/Fire_Down_Distractor.gif"",""img/Fire_Down_Distractor.gif"",""img/Fire_Down_Distractor.gif"",""img/Fire_Down_Distractor.gif"",""img/Fire_Down_Distractor.gif"",""img/Fire_Down_Distractor.gif""]","targetUp_distractorsDown"
"","","","","","html-keyboard-response","36","77735","0.0-14.0-0.0-0.11","5ef831c97dcd65573bbb0649","6186fb1cc52d38b480598eb7","61872c636d259af4cb95a911","null","","null","","","","","fixation","","","",""
"","","","","","visual-search-circle","37","80137","0.0-14.0-0.0-1.11","5ef831c97dcd65573bbb0649","6186fb1cc52d38b480598eb7","61872c636d259af4cb95a911","1398.1000001430511","","s","true","[[574,422],[580,192],[422,25],[192,19],[25,177],[19,407],[177,574],[407,580]]","false","8","","","img/Fire_Down_Target.gif","[""img/Fire_Up_Distractor.gif"",""img/Fire_Up_Distractor.gif"",""img/Fire_Up_Distractor.gif"",""img/Fire_Up_Distractor.gif"",""img/Fire_Up_Distractor.gif"",""img/Fire_Up_Distractor.gif"",""img/Fire_Up_Distractor.gif"",""img/Fire_Up_Distractor.gif"",""img/Fire_Up_Distractor.gif"",""img/Fire_Up_Distractor.gif"",""img/Fire_Up_Distractor.gif"",""img/Fire_Up_Distractor.gif""]","targetDown_distractorsUp"
"","","","","","html-keyboard-response","38","80139","0.0-14.0-0.0-0.12","5ef831c97dcd65573bbb0649","6186fb1cc52d38b480598eb7","61872c636d259af4cb95a911","null","","null","","","","","fixation","","","",""
"","","","","","visual-search-circle","39","82769","0.0-14.0-0.0-1.12","5ef831c97dcd65573bbb0649","6186fb1cc52d38b480598eb7","61872c636d259af4cb95a911","1624.9000000953674","","d","true","[[519,504],[586,212],[367,7],[80,95],[13,387],[232,592]]","true","6","","","img/Fire_Up_Target.gif","[""img/Fire_Down_Distractor.gif"",""img/Fire_Down_Distractor.gif"",""img/Fire_Down_Distractor.gif"",""img/Fire_Down_Distractor.gif"",""img/Fire_Down_Distractor.gif"",""img/Fire_Down_Distractor.gif"",""img/Fire_Down_Distractor.gif"",""img/Fire_Down_Distractor.gif"",""img/Fire_Down_Distractor.gif"",""img/Fire_Down_Distractor.gif"",""img/Fire_Down_Distractor.gif"",""img/Fire_Down_Distractor.gif""]","targetUp_distractorsDown"
"","","","","","html-keyboard-response","40","82773","0.0-14.0-0.0-0.13","5ef831c97dcd65573bbb0649","6186fb1cc52d38b480598eb7","61872c636d259af4cb95a911","null","","null","","","","","fixation","","","",""
"","","","","","visual-search-circle","41","85689","0.0-14.0-0.0-1.13","5ef831c97dcd65573bbb0649","6186fb1cc52d38b480598eb7","61872c636d259af4cb95a911","1912.2999999523163","","d","true","[[533,488],[592,235],[432,30],[171,28],[8,231],[64,485],[297,599]]","true","7","","","img/Fire_Down_Target.gif","[""img/Fire_Up_Distractor.gif"",""img/Fire_Up_Distractor.gif"",""img/Fire_Up_Distractor.gif"",""img/Fire_Up_Distractor.gif"",""img/Fire_Up_Distractor.gif"",""img/Fire_Up_Distractor.gif"",""img/Fire_Up_Distractor.gif"",""img/Fire_Up_Distractor.gif"",""img/Fire_Up_Distractor.gif"",""img/Fire_Up_Distractor.gif"",""img/Fire_Up_Distractor.gif"",""img/Fire_Up_Distractor.gif""]","targetDown_distractorsUp"
"","","","","","html-keyboard-response","42","85692","0.0-14.0-0.0-0.14","5ef831c97dcd65573bbb0649","6186fb1cc52d38b480598eb7","61872c636d259af4cb95a911","null","","null","","","","","fixation","","","",""
"","","","","","visual-search-circle","43","88235","0.0-14.0-0.0-1.14","5ef831c97dcd65573bbb0649","6186fb1cc52d38b480598eb7","61872c636d259af4cb95a911","1537.9000000953674","","s","true","[[417,576],[597,336],[480,60],[182,23],[2,263],[119,539]]","false","6","","","img/Fire_Up_Target.gif","[""img/Fire_Down_Distractor.gif"",""img/Fire_Down_Distractor.gif"",""img/Fire_Down_Distractor.gif"",""img/Fire_Down_Distractor.gif"",""img/Fire_Down_Distractor.gif"",""img/Fire_Down_Distractor.gif"",""img/Fire_Down_Distractor.gif"",""img/Fire_Down_Distractor.gif"",""img/Fire_Down_Distractor.gif"",""img/Fire_Down_Distractor.gif"",""img/Fire_Down_Distractor.gif"",""img/Fire_Down_Distractor.gif""]","targetUp_distractorsDown"
"","","","","","html-keyboard-response","44","88236","0.0-14.0-0.0-0.15","5ef831c97dcd65573bbb0649","6186fb1cc52d38b480598eb7","61872c636d259af4cb95a911","null","","null","","","","","fixation","","","",""
"","","","","","visual-search-circle","45","90761","0.0-14.0-0.0-1.15","5ef831c97dcd65573bbb0649","6186fb1cc52d38b480598eb7","61872c636d259af4cb95a911","1520","","s","true","[[107,70],[1,273],[70,492],[273,598],[492,529],[598,326],[529,107],[326,1]]","false","8","","","img/Fire_Up_Target.gif","[""img/Fire_Down_Distractor.gif"",""img/Fire_Down_Distractor.gif"",""img/Fire_Down_Distractor.gif"",""img/Fire_Down_Distractor.gif"",""img/Fire_Down_Distractor.gif"",""img/Fire_Down_Distractor.gif"",""img/Fire_Down_Distractor.gif"",""img/Fire_Down_Distractor.gif"",""img/Fire_Down_Distractor.gif"",""img/Fire_Down_Distractor.gif"",""img/Fire_Down_Distractor.gif"",""img/Fire_Down_Distractor.gif""]","targetUp_distractorsDown"
"","","","","","html-keyboard-response","46","90763","0.0-14.0-0.0-0.16","5ef831c97dcd65573bbb0649","6186fb1cc52d38b480598eb7","61872c636d259af4cb95a911","null","","null","","","","","fixation","","","",""
"","","","","","visual-search-circle","47","93801","0.0-14.0-0.0-1.16","5ef831c97dcd65573bbb0649","6186fb1cc52d38b480598eb7","61872c636d259af4cb95a911","2034.7000000476837","","d","true","[[1,326],[326,598],[598,273],[273,1]]","true","4","","","img/Fire_Up_Target.gif","[""img/Fire_Down_Distractor.gif"",""img/Fire_Down_Distractor.gif"",""img/Fire_Down_Distractor.gif"",""img/Fire_Down_Distractor.gif"",""img/Fire_Down_Distractor.gif"",""img/Fire_Down_Distractor.gif"",""img/Fire_Down_Distractor.gif"",""img/Fire_Down_Distractor.gif"",""img/Fire_Down_Distractor.gif"",""img/Fire_Down_Distractor.gif"",""img/Fire_Down_Distractor.gif"",""img/Fire_Down_Distractor.gif""]","targetUp_distractorsDown"
"","","","","","html-keyboard-response","48","93803","0.0-14.0-0.0-0.17","5ef831c97dcd65573bbb0649","6186fb1cc52d38b480598eb7","61872c636d259af4cb95a911","null","","null","","","","","fixation","","","",""
"","","","","","visual-search-circle","49","96514","0.0-14.0-0.0-1.17","5ef831c97dcd65573bbb0649","6186fb1cc52d38b480598eb7","61872c636d259af4cb95a911","1707.3999998569489","","s","true","[[512,87],[163,32],[3,346],[253,596],[567,436]]","false","5","","","img/Fire_Up_Target.gif","[""img/Fire_Down_Distractor.gif"",""img/Fire_Down_Distractor.gif"",""img/Fire_Down_Distractor.gif"",""img/Fire_Down_Distractor.gif"",""img/Fire_Down_Distractor.gif"",""img/Fire_Down_Distractor.gif"",""img/Fire_Down_Distractor.gif"",""img/Fire_Down_Distractor.gif"",""img/Fire_Down_Distractor.gif"",""img/Fire_Down_Distractor.gif"",""img/Fire_Down_Distractor.gif"",""img/Fire_Down_Distractor.gif""]","targetUp_distractorsDown"
"","","","","","html-keyboard-response","50","96516","0.0-14.0-0.0-0.18","5ef831c97dcd65573bbb0649","6186fb1cc52d38b480598eb7","61872c636d259af4cb95a911","null","","null","","","","","fixation","","","",""
"","","","","","visual-search-circle","51","98977","0.0-14.0-0.0-1.18","5ef831c97dcd65573bbb0649","6186fb1cc52d38b480598eb7","61872c636d259af4cb95a911","1457.0999999046326","","s","true","[[484,536],[581,197],[289,0],[11,217],[132,548]]","false","5","","","img/Fire_Down_Target.gif","[""img/Fire_Up_Distractor.gif"",""img/Fire_Up_Distractor.gif"",""img/Fire_Up_Distractor.gif"",""img/Fire_Up_Distractor.gif"",""img/Fire_Up_Distractor.gif"",""img/Fire_Up_Distractor.gif"",""img/Fire_Up_Distractor.gif"",""img/Fire_Up_Distractor.gif"",""img/Fire_Up_Distractor.gif"",""img/Fire_Up_Distractor.gif"",""img/Fire_Up_Distractor.gif"",""img/Fire_Up_Distractor.gif""]","targetDown_distractorsUp"
"","","","","","html-keyboard-response","52","101369","0.0-14.0-0.0-0.19","5ef831c97dcd65573bbb0649","6186fb1cc52d38b480598eb7","61872c636d259af4cb95a911","2391.2999999523163","Wow! You've completed 20 out of 120 trials! </p> <p>  </p><p> Take a quick break, then press any key when you're ready to continue."," ","","","","","fixation","","","",""
"","","","","","visual-search-circle","53","104913","0.0-14.0-0.0-1.19","5ef831c97dcd65573bbb0649","6186fb1cc52d38b480598eb7","61872c636d259af4cb95a911","2537.2999999523163","","s","true","[[159,35],[0,289],[141,554],[440,564],[599,310],[458,45]]","false","6","","","img/Fire_Up_Target.gif","[""img/Fire_Down_Distractor.gif"",""img/Fire_Down_Distractor.gif"",""img/Fire_Down_Distractor.gif"",""img/Fire_Down_Distractor.gif"",""img/Fire_Down_Distractor.gif"",""img/Fire_Down_Distractor.gif"",""img/Fire_Down_Distractor.gif"",""img/Fire_Down_Distractor.gif"",""img/Fire_Down_Distractor.gif"",""img/Fire_Down_Distractor.gif"",""img/Fire_Down_Distractor.gif"",""img/Fire_Down_Distractor.gif""]","targetUp_distractorsDown"
"","","","","","html-keyboard-response","54","104915","0.0-14.0-0.0-0.20","5ef831c97dcd65573bbb0649","6186fb1cc52d38b480598eb7","61872c636d259af4cb95a911","null","","null","","","","","fixation","","","",""
"","","","","","visual-search-circle","55","107353","0.0-14.0-0.0-1.20","5ef831c97dcd65573bbb0649","6186fb1cc52d38b480598eb7","61872c636d259af4cb95a911","1431","","s","true","[[6,362],[207,585],[500,522],[593,237],[392,14],[99,77]]","false","6","","","img/Fire_Down_Target.gif","[""img/Fire_Up_Distractor.gif"",""img/Fire_Up_Distractor.gif"",""img/Fire_Up_Distractor.gif"",""img/Fire_Up_Distractor.gif"",""img/Fire_Up_Distractor.gif"",""img/Fire_Up_Distractor.gif"",""img/Fire_Up_Distractor.gif"",""img/Fire_Up_Distractor.gif"",""img/Fire_Up_Distractor.gif"",""img/Fire_Up_Distractor.gif"",""img/Fire_Up_Distractor.gif"",""img/Fire_Up_Distractor.gif""]","targetDown_distractorsUp"
"","","","","","html-keyboard-response","56","107355","0.0-14.0-0.0-0.21","5ef831c97dcd65573bbb0649","6186fb1cc52d38b480598eb7","61872c636d259af4cb95a911","null","","null","","","","","fixation","","","",""
"","","","","","visual-search-circle","57","109849","0.0-14.0-0.0-1.21","5ef831c97dcd65573bbb0649","6186fb1cc52d38b480598eb7","61872c636d259af4cb95a911","1488.1999998092651","","s","true","[[192,19],[25,177],[19,407],[177,574],[407,580],[574,422],[580,192],[422,25]]","false","8","","","img/Fire_Down_Target.gif","[""img/Fire_Up_Distractor.gif"",""img/Fire_Up_Distractor.gif"",""img/Fire_Up_Distractor.gif"",""img/Fire_Up_Distractor.gif"",""img/Fire_Up_Distractor.gif"",""img/Fire_Up_Distractor.gif"",""img/Fire_Up_Distractor.gif"",""img/Fire_Up_Distractor.gif"",""img/Fire_Up_Distractor.gif"",""img/Fire_Up_Distractor.gif"",""img/Fire_Up_Distractor.gif"",""img/Fire_Up_Distractor.gif""]","targetDown_distractorsUp"
"","","","","","html-keyboard-response","58","109854","0.0-14.0-0.0-0.22","5ef831c97dcd65573bbb0649","6186fb1cc52d38b480598eb7","61872c636d259af4cb95a911","null","","null","","","","","fixation","","","",""
"","","","","","visual-search-circle","59","112457","0.0-14.0-0.0-1.22","5ef831c97dcd65573bbb0649","6186fb1cc52d38b480598eb7","61872c636d259af4cb95a911","1600.0999999046326","","s","true","[[512,87],[222,10],[10,222],[87,512],[377,589],[589,377]]","false","6","","","img/Fire_Up_Target.gif","[""img/Fire_Down_Distractor.gif"",""img/Fire_Down_Distractor.gif"",""img/Fire_Down_Distractor.gif"",""img/Fire_Down_Distractor.gif"",""img/Fire_Down_Distractor.gif"",""img/Fire_Down_Distractor.gif"",""img/Fire_Down_Distractor.gif"",""img/Fire_Down_Distractor.gif"",""img/Fire_Down_Distractor.gif"",""img/Fire_Down_Distractor.gif"",""img/Fire_Down_Distractor.gif"",""img/Fire_Down_Distractor.gif""]","targetUp_distractorsDown"
"","","","","","html-keyboard-response","60","112460","0.0-14.0-0.0-0.23","5ef831c97dcd65573bbb0649","6186fb1cc52d38b480598eb7","61872c636d259af4cb95a911","null","","null","","","","","fixation","","","",""
"","","","","","visual-search-circle","61","114857","0.0-14.0-0.0-1.23","5ef831c97dcd65573bbb0649","6186fb1cc52d38b480598eb7","61872c636d259af4cb95a911","1394.2000000476837","","d","true","[[592,367],[454,42],[103,73],[23,417],[326,598]]","true","5","","","img/Fire_Up_Target.gif","[""img/Fire_Down_Distractor.gif"",""img/Fire_Down_Distractor.gif"",""img/Fire_Down_Distractor.gif"",""img/Fire_Down_Distractor.gif"",""img/Fire_Down_Distractor.gif"",""img/Fire_Down_Distractor.gif"",""img/Fire_Down_Distractor.gif"",""img/Fire_Down_Distractor.gif"",""img/Fire_Down_Distractor.gif"",""img/Fire_Down_Distractor.gif"",""img/Fire_Down_Distractor.gif"",""img/Fire_Down_Distractor.gif""]","targetUp_distractorsDown"
"","","","","","html-keyboard-response","62","114859","0.0-14.0-0.0-0.24","5ef831c97dcd65573bbb0649","6186fb1cc52d38b480598eb7","61872c636d259af4cb95a911","null","","null","","","","","fixation","","","",""
"","","","","","visual-search-circle","63","117177","0.0-14.0-0.0-1.24","5ef831c97dcd65573bbb0649","6186fb1cc52d38b480598eb7","61872c636d259af4cb95a911","1314.0999999046326","","d","true","[[150,40],[3,255],[80,504],[322,599],[547,468],[586,211],[409,20]]","true","7","","","img/Fire_Down_Target.gif","[""img/Fire_Up_Distractor.gif"",""img/Fire_Up_Distractor.gif"",""img/Fire_Up_Distractor.gif"",""img/Fire_Up_Distractor.gif"",""img/Fire_Up_Distractor.gif"",""img/Fire_Up_Distractor.gif"",""img/Fire_Up_Distractor.gif"",""img/Fire_Up_Distractor.gif"",""img/Fire_Up_Distractor.gif"",""img/Fire_Up_Distractor.gif"",""img/Fire_Up_Distractor.gif"",""img/Fire_Up_Distractor.gif""]","targetDown_distractorsUp"
"","","","","","html-keyboard-response","64","117179","0.0-14.0-0.0-0.25","5ef831c97dcd65573bbb0649","6186fb1cc52d38b480598eb7","61872c636d259af4cb95a911","null","","null","","","","","fixation","","","",""
"","","","","","visual-search-circle","65","119754","0.0-14.0-0.0-1.25","5ef831c97dcd65573bbb0649","6186fb1cc52d38b480598eb7","61872c636d259af4cb95a911","1570.2999999523163","","s","true","[[30,168],[91,515],[440,564],[595,247],[341,2]]","false","5","","","img/Fire_Up_Target.gif","[""img/Fire_Down_Distractor.gif"",""img/Fire_Down_Distractor.gif"",""img/Fire_Down_Distractor.gif"",""img/Fire_Down_Distractor.gif"",""img/Fire_Down_Distractor.gif"",""img/Fire_Down_Distractor.gif"",""img/Fire_Down_Distractor.gif"",""img/Fire_Down_Distractor.gif"",""img/Fire_Down_Distractor.gif"",""img/Fire_Down_Distractor.gif"",""img/Fire_Down_Distractor.gif"",""img/Fire_Down_Distractor.gif""]","targetUp_distractorsDown"
"","","","","","html-keyboard-response","66","119757","0.0-14.0-0.0-0.26","5ef831c97dcd65573bbb0649","6186fb1cc52d38b480598eb7","61872c636d259af4cb95a911","null","","null","","","","","fixation","","","",""
"","","","","","visual-search-circle","67","121570","0.0-14.0-0.0-1.26","5ef831c97dcd65573bbb0649","6186fb1cc52d38b480598eb7","61872c636d259af4cb95a911","807.9000000953674","","d","true","[[273,1],[7,232],[145,557],[496,526],[576,182]]","true","5","","","img/Fire_Up_Target.gif","[""img/Fire_Down_Distractor.gif"",""img/Fire_Down_Distractor.gif"",""img/Fire_Down_Distractor.gif"",""img/Fire_Down_Distractor.gif"",""img/Fire_Down_Distractor.gif"",""img/Fire_Down_Distractor.gif"",""img/Fire_Down_Distractor.gif"",""img/Fire_Down_Distractor.gif"",""img/Fire_Down_Distractor.gif"",""img/Fire_Down_Distractor.gif"",""img/Fire_Down_Distractor.gif"",""img/Fire_Down_Distractor.gif""]","targetUp_distractorsDown"
"","","","","","html-keyboard-response","68","121572","0.0-14.0-0.0-0.27","5ef831c97dcd65573bbb0649","6186fb1cc52d38b480598eb7","61872c636d259af4cb95a911","null","","null","","","","","fixation","","","",""
"","","","","","visual-search-circle","69","124186","0.0-14.0-0.0-1.27","5ef831c97dcd65573bbb0649","6186fb1cc52d38b480598eb7","61872c636d259af4cb95a911","1609.4000000953674","","d","true","[[40,150],[20,409],[211,586],[468,547],[599,322],[504,80],[255,3]]","true","7","","","img/Fire_Down_Target.gif","[""img/Fire_Up_Distractor.gif"",""img/Fire_Up_Distractor.gif"",""img/Fire_Up_Distractor.gif"",""img/Fire_Up_Distractor.gif"",""img/Fire_Up_Distractor.gif"",""img/Fire_Up_Distractor.gif"",""img/Fire_Up_Distractor.gif"",""img/Fire_Up_Distractor.gif"",""img/Fire_Up_Distractor.gif"",""img/Fire_Up_Distractor.gif"",""img/Fire_Up_Distractor.gif"",""img/Fire_Up_Distractor.gif""]","targetDown_distractorsUp"
"","","","","","html-keyboard-response","70","124191","0.0-14.0-0.0-0.28","5ef831c97dcd65573bbb0649","6186fb1cc52d38b480598eb7","61872c636d259af4cb95a911","null","","null","","","","","fixation","","","",""
"","","","","","visual-search-circle","71","127129","0.0-14.0-0.0-1.28","5ef831c97dcd65573bbb0649","6186fb1cc52d38b480598eb7","61872c636d259af4cb95a911","1935.2999999523163","","s","true","[[154,562],[504,519],[571,173],[263,2],[5,242]]","false","5","","","img/Fire_Down_Target.gif","[""img/Fire_Up_Distractor.gif"",""img/Fire_Up_Distractor.gif"",""img/Fire_Up_Distractor.gif"",""img/Fire_Up_Distractor.gif"",""img/Fire_Up_Distractor.gif"",""img/Fire_Up_Distractor.gif"",""img/Fire_Up_Distractor.gif"",""img/Fire_Up_Distractor.gif"",""img/Fire_Up_Distractor.gif"",""img/Fire_Up_Distractor.gif"",""img/Fire_Up_Distractor.gif"",""img/Fire_Up_Distractor.gif""]","targetDown_distractorsUp"
"","","","","","html-keyboard-response","72","127139","0.0-14.0-0.0-0.29","5ef831c97dcd65573bbb0649","6186fb1cc52d38b480598eb7","61872c636d259af4cb95a911","null","","null","","","","","fixation","","","",""
"","","","","","visual-search-circle","73","129113","0.0-14.0-0.0-1.29","5ef831c97dcd65573bbb0649","6186fb1cc52d38b480598eb7","61872c636d259af4cb95a911","968.5","","d","true","[[8,227],[42,454],[227,591],[454,557],[591,372],[557,145],[372,8],[145,42]]","true","8","","","img/Fire_Up_Target.gif","[""img/Fire_Down_Distractor.gif"",""img/Fire_Down_Distractor.gif"",""img/Fire_Down_Distractor.gif"",""img/Fire_Down_Distractor.gif"",""img/Fire_Down_Distractor.gif"",""img/Fire_Down_Distractor.gif"",""img/Fire_Down_Distractor.gif"",""img/Fire_Down_Distractor.gif"",""img/Fire_Down_Distractor.gif"",""img/Fire_Down_Distractor.gif"",""img/Fire_Down_Distractor.gif"",""img/Fire_Down_Distractor.gif""]","targetUp_distractorsDown"
"","","","","","html-keyboard-response","74","129116","0.0-14.0-0.0-0.30","5ef831c97dcd65573bbb0649","6186fb1cc52d38b480598eb7","61872c636d259af4cb95a911","null","","null","","","","","fixation","","","",""
"","","","","","visual-search-circle","75","131626","0.0-14.0-0.0-1.30","5ef831c97dcd65573bbb0649","6186fb1cc52d38b480598eb7","61872c636d259af4cb95a911","1505.7000000476837","","s","true","[[387,13],[54,127],[60,480],[397,583],[599,294]]","false","5","","","img/Fire_Down_Target.gif","[""img/Fire_Up_Distractor.gif"",""img/Fire_Up_Distractor.gif"",""img/Fire_Up_Distractor.gif"",""img/Fire_Up_Distractor.gif"",""img/Fire_Up_Distractor.gif"",""img/Fire_Up_Distractor.gif"",""img/Fire_Up_Distractor.gif"",""img/Fire_Up_Distractor.gif"",""img/Fire_Up_Distractor.gif"",""img/Fire_Up_Distractor.gif"",""img/Fire_Up_Distractor.gif"",""img/Fire_Up_Distractor.gif""]","targetDown_distractorsUp"
"","","","","","html-keyboard-response","76","131630","0.0-14.0-0.0-0.31","5ef831c97dcd65573bbb0649","6186fb1cc52d38b480598eb7","61872c636d259af4cb95a911","null","","null","","","","","fixation","","","",""
"","","","","","visual-search-circle","77","134657","0.0-14.0-0.0-1.31","5ef831c97dcd65573bbb0649","6186fb1cc52d38b480598eb7","61872c636d259af4cb95a911","2021.4000000953674","","d","true","[[352,4],[127,54],[4,247],[54,472],[247,595],[472,545],[595,352],[545,127]]","true","8","","","img/Fire_Up_Target.gif","[""img/Fire_Down_Distractor.gif"",""img/Fire_Down_Distractor.gif"",""img/Fire_Down_Distractor.gif"",""img/Fire_Down_Distractor.gif"",""img/Fire_Down_Distractor.gif"",""img/Fire_Down_Distractor.gif"",""img/Fire_Down_Distractor.gif"",""img/Fire_Down_Distractor.gif"",""img/Fire_Down_Distractor.gif"",""img/Fire_Down_Distractor.gif"",""img/Fire_Down_Distractor.gif"",""img/Fire_Down_Distractor.gif""]","targetUp_distractorsDown"
"","","","","","html-keyboard-response","78","134660","0.0-14.0-0.0-0.32","5ef831c97dcd65573bbb0649","6186fb1cc52d38b480598eb7","61872c636d259af4cb95a911","null","","null","","","","","fixation","","","",""
"","","","","","visual-search-circle","79","137362","0.0-14.0-0.0-1.32","5ef831c97dcd65573bbb0649","6186fb1cc52d38b480598eb7","61872c636d259af4cb95a911","1696.5999999046326","","d","true","[[0,294],[145,557],[445,562],[599,305],[454,42],[154,37]]","true","6","","","img/Fire_Up_Target.gif","[""img/Fire_Down_Distractor.gif"",""img/Fire_Down_Distractor.gif"",""img/Fire_Down_Distractor.gif"",""img/Fire_Down_Distractor.gif"",""img/Fire_Down_Distractor.gif"",""img/Fire_Down_Distractor.gif"",""img/Fire_Down_Distractor.gif"",""img/Fire_Down_Distractor.gif"",""img/Fire_Down_Distractor.gif"",""img/Fire_Down_Distractor.gif"",""img/Fire_Down_Distractor.gif"",""img/Fire_Down_Distractor.gif""]","targetUp_distractorsDown"
"","","","","","html-keyboard-response","80","137364","0.0-14.0-0.0-0.33","5ef831c97dcd65573bbb0649","6186fb1cc52d38b480598eb7","61872c636d259af4cb95a911","null","","null","","","","","fixation","","","",""
"","","","","","visual-search-circle","81","140082","0.0-14.0-0.0-1.33","5ef831c97dcd65573bbb0649","6186fb1cc52d38b480598eb7","61872c636d259af4cb95a911","1715","","s","true","[[284,0],[0,315],[315,599],[599,284]]","false","4","","","img/Fire_Up_Target.gif","[""img/Fire_Down_Distractor.gif"",""img/Fire_Down_Distractor.gif"",""img/Fire_Down_Distractor.gif"",""img/Fire_Down_Distractor.gif"",""img/Fire_Down_Distractor.gif"",""img/Fire_Down_Distractor.gif"",""img/Fire_Down_Distractor.gif"",""img/Fire_Down_Distractor.gif"",""img/Fire_Down_Distractor.gif"",""img/Fire_Down_Distractor.gif"",""img/Fire_Down_Distractor.gif"",""img/Fire_Down_Distractor.gif""]","targetUp_distractorsDown"
"","","","","","html-keyboard-response","82","140083","0.0-14.0-0.0-0.34","5ef831c97dcd65573bbb0649","6186fb1cc52d38b480598eb7","61872c636d259af4cb95a911","null","","null","","","","","fixation","","","",""
"","","","","","visual-search-circle","83","142570","0.0-14.0-0.0-1.34","5ef831c97dcd65573bbb0649","6186fb1cc52d38b480598eb7","61872c636d259af4cb95a911","1481.5","","s","true","[[11,382],[184,577],[444,562],[595,350],[523,100],[283,0],[55,126]]","false","7","","","img/Fire_Up_Target.gif","[""img/Fire_Down_Distractor.gif"",""img/Fire_Down_Distractor.gif"",""img/Fire_Down_Distractor.gif"",""img/Fire_Down_Distractor.gif"",""img/Fire_Down_Distractor.gif"",""img/Fire_Down_Distractor.gif"",""img/Fire_Down_Distractor.gif"",""img/Fire_Down_Distractor.gif"",""img/Fire_Down_Distractor.gif"",""img/Fire_Down_Distractor.gif"",""img/Fire_Down_Distractor.gif"",""img/Fire_Down_Distractor.gif""]","targetUp_distractorsDown"
"","","","","","html-keyboard-response","84","142572","0.0-14.0-0.0-0.35","5ef831c97dcd65573bbb0649","6186fb1cc52d38b480598eb7","61872c636d259af4cb95a911","null","","null","","","","","fixation","","","",""
"","","","","","visual-search-circle","85","145570","0.0-14.0-0.0-1.35","5ef831c97dcd65573bbb0649","6186fb1cc52d38b480598eb7","61872c636d259af4cb95a911","1993.7000000476837","","s","true","[[258,597],[597,341],[341,2],[2,258]]","false","4","","","img/Fire_Down_Target.gif","[""img/Fire_Up_Distractor.gif"",""img/Fire_Up_Distractor.gif"",""img/Fire_Up_Distractor.gif"",""img/Fire_Up_Distractor.gif"",""img/Fire_Up_Distractor.gif"",""img/Fire_Up_Distractor.gif"",""img/Fire_Up_Distractor.gif"",""img/Fire_Up_Distractor.gif"",""img/Fire_Up_Distractor.gif"",""img/Fire_Up_Distractor.gif"",""img/Fire_Up_Distractor.gif"",""img/Fire_Up_Distractor.gif""]","targetDown_distractorsUp"
"","","","","","html-keyboard-response","86","145572","0.0-14.0-0.0-0.36","5ef831c97dcd65573bbb0649","6186fb1cc52d38b480598eb7","61872c636d259af4cb95a911","null","","null","","","","","fixation","","","",""
"","","","","","visual-search-circle","87","147361","0.0-14.0-0.0-1.36","5ef831c97dcd65573bbb0649","6186fb1cc52d38b480598eb7","61872c636d259af4cb95a911","784.9000000953674","","d","true","[[593,237],[434,31],[173,27],[8,228],[62,483],[295,599],[531,490]]","true","7","","","img/Fire_Up_Target.gif","[""img/Fire_Down_Distractor.gif"",""img/Fire_Down_Distractor.gif"",""img/Fire_Down_Distractor.gif"",""img/Fire_Down_Distractor.gif"",""img/Fire_Down_Distractor.gif"",""img/Fire_Down_Distractor.gif"",""img/Fire_Down_Distractor.gif"",""img/Fire_Down_Distractor.gif"",""img/Fire_Down_Distractor.gif"",""img/Fire_Down_Distractor.gif"",""img/Fire_Down_Distractor.gif"",""img/Fire_Down_Distractor.gif""]","targetUp_distractorsDown"
"","","","","","html-keyboard-response","88","147367","0.0-14.0-0.0-0.37","5ef831c97dcd65573bbb0649","6186fb1cc52d38b480598eb7","61872c636d259af4cb95a911","null","","null","","","","","fixation","","","",""
"","","","","","visual-search-circle","89","150818","0.0-14.0-0.0-1.37","5ef831c97dcd65573bbb0649","6186fb1cc52d38b480598eb7","61872c636d259af4cb95a911","2447.9000000953674","","d","true","[[320,599],[599,279],[279,0],[0,320]]","true","4","","","img/Fire_Up_Target.gif","[""img/Fire_Down_Distractor.gif"",""img/Fire_Down_Distractor.gif"",""img/Fire_Down_Distractor.gif"",""img/Fire_Down_Distractor.gif"",""img/Fire_Down_Distractor.gif"",""img/Fire_Down_Distractor.gif"",""img/Fire_Down_Distractor.gif"",""img/Fire_Down_Distractor.gif"",""img/Fire_Down_Distractor.gif"",""img/Fire_Down_Distractor.gif"",""img/Fire_Down_Distractor.gif"",""img/Fire_Down_Distractor.gif""]","targetUp_distractorsDown"
"","","","","","html-keyboard-response","90","150822","0.0-14.0-0.0-0.38","5ef831c97dcd65573bbb0649","6186fb1cc52d38b480598eb7","61872c636d259af4cb95a911","null","","null","","","","","fixation","","","",""
"","","","","","visual-search-circle","91","152730","0.0-14.0-0.0-1.38","5ef831c97dcd65573bbb0649","6186fb1cc52d38b480598eb7","61872c636d259af4cb95a911","901.0999999046326","","d","true","[[480,60],[60,119],[119,539],[539,480]]","true","4","","","img/Fire_Up_Target.gif","[""img/Fire_Down_Distractor.gif"",""img/Fire_Down_Distractor.gif"",""img/Fire_Down_Distractor.gif"",""img/Fire_Down_Distractor.gif"",""img/Fire_Down_Distractor.gif"",""img/Fire_Down_Distractor.gif"",""img/Fire_Down_Distractor.gif"",""img/Fire_Down_Distractor.gif"",""img/Fire_Down_Distractor.gif"",""img/Fire_Down_Distractor.gif"",""img/Fire_Down_Distractor.gif"",""img/Fire_Down_Distractor.gif""]","targetUp_distractorsDown"
"","","","","","html-keyboard-response","92","154274","0.0-14.0-0.0-0.39","5ef831c97dcd65573bbb0649","6186fb1cc52d38b480598eb7","61872c636d259af4cb95a911","1542.8999998569489","Wow! You've completed 40 out of 120 trials! </p> <p>  </p><p> Take a quick break, then press any key when you're ready to continue."," ","","","","","fixation","","","",""
"","","","","","visual-search-circle","93","159273","0.0-14.0-0.0-1.39","5ef831c97dcd65573bbb0649","6186fb1cc52d38b480598eb7","61872c636d259af4cb95a911","3995.5","","d","false","[[445,562],[599,305],[454,42],[154,37],[0,294],[145,557]]","false","6","","","img/Fire_Down_Target.gif","[""img/Fire_Up_Distractor.gif"",""img/Fire_Up_Distractor.gif"",""img/Fire_Up_Distractor.gif"",""img/Fire_Up_Distractor.gif"",""img/Fire_Up_Distractor.gif"",""img/Fire_Up_Distractor.gif"",""img/Fire_Up_Distractor.gif"",""img/Fire_Up_Distractor.gif"",""img/Fire_Up_Distractor.gif"",""img/Fire_Up_Distractor.gif"",""img/Fire_Up_Distractor.gif"",""img/Fire_Up_Distractor.gif""]","targetDown_distractorsUp"
"","","","","","html-keyboard-response","94","159275","0.0-14.0-0.0-0.40","5ef831c97dcd65573bbb0649","6186fb1cc52d38b480598eb7","61872c636d259af4cb95a911","null","","null","","","","","fixation","","","",""
"","","","","","visual-search-circle","95","161281","0.0-14.0-0.0-1.40","5ef831c97dcd65573bbb0649","6186fb1cc52d38b480598eb7","61872c636d259af4cb95a911","1001.0999999046326","","d","true","[[99,77],[6,362],[207,585],[500,522],[593,237],[392,14]]","true","6","","","img/Fire_Up_Target.gif","[""img/Fire_Down_Distractor.gif"",""img/Fire_Down_Distractor.gif"",""img/Fire_Down_Distractor.gif"",""img/Fire_Down_Distractor.gif"",""img/Fire_Down_Distractor.gif"",""img/Fire_Down_Distractor.gif"",""img/Fire_Down_Distractor.gif"",""img/Fire_Down_Distractor.gif"",""img/Fire_Down_Distractor.gif"",""img/Fire_Down_Distractor.gif"",""img/Fire_Down_Distractor.gif"",""img/Fire_Down_Distractor.gif""]","targetUp_distractorsDown"
"","","","","","html-keyboard-response","96","161285","0.0-14.0-0.0-0.41","5ef831c97dcd65573bbb0649","6186fb1cc52d38b480598eb7","61872c636d259af4cb95a911","null","","null","","","","","fixation","","","",""
"","","","","","visual-search-circle","97","165505","0.0-14.0-0.0-1.41","5ef831c97dcd65573bbb0649","6186fb1cc52d38b480598eb7","61872c636d259af4cb95a911","3215","","s","true","[[107,529],[402,581],[595,352],[492,70],[197,18],[4,247]]","false","6","","","img/Fire_Down_Target.gif","[""img/Fire_Up_Distractor.gif"",""img/Fire_Up_Distractor.gif"",""img/Fire_Up_Distractor.gif"",""img/Fire_Up_Distractor.gif"",""img/Fire_Up_Distractor.gif"",""img/Fire_Up_Distractor.gif"",""img/Fire_Up_Distractor.gif"",""img/Fire_Up_Distractor.gif"",""img/Fire_Up_Distractor.gif"",""img/Fire_Up_Distractor.gif"",""img/Fire_Up_Distractor.gif"",""img/Fire_Up_Distractor.gif""]","targetDown_distractorsUp"
"","","","","","html-keyboard-response","98","165508","0.0-14.0-0.0-0.42","5ef831c97dcd65573bbb0649","6186fb1cc52d38b480598eb7","61872c636d259af4cb95a911","null","","null","","","","","fixation","","","",""
"","","","","","visual-search-circle","99","168218","0.0-14.0-0.0-1.42","5ef831c97dcd65573bbb0649","6186fb1cc52d38b480598eb7","61872c636d259af4cb95a911","1704.8999998569489","","d","true","[[177,25],[9,224],[59,479],[291,599],[528,493],[594,242],[438,33]]","true","7","","","img/Fire_Down_Target.gif","[""img/Fire_Up_Distractor.gif"",""img/Fire_Up_Distractor.gif"",""img/Fire_Up_Distractor.gif"",""img/Fire_Up_Distractor.gif"",""img/Fire_Up_Distractor.gif"",""img/Fire_Up_Distractor.gif"",""img/Fire_Up_Distractor.gif"",""img/Fire_Up_Distractor.gif"",""img/Fire_Up_Distractor.gif"",""img/Fire_Up_Distractor.gif"",""img/Fire_Up_Distractor.gif"",""img/Fire_Up_Distractor.gif""]","targetDown_distractorsUp"
"","","","","","html-keyboard-response","100","168221","0.0-14.0-0.0-0.43","5ef831c97dcd65573bbb0649","6186fb1cc52d38b480598eb7","61872c636d259af4cb95a911","null","","null","","","","","fixation","","","",""
"","","","","","visual-search-circle","101","170898","0.0-14.0-0.0-1.43","5ef831c97dcd65573bbb0649","6186fb1cc52d38b480598eb7","61872c636d259af4cb95a911","1673.2999999523163","","d","true","[[407,580],[599,284],[377,10],[48,136],[66,488]]","true","5","","","img/Fire_Up_Target.gif","[""img/Fire_Down_Distractor.gif"",""img/Fire_Down_Distractor.gif"",""img/Fire_Down_Distractor.gif"",""img/Fire_Down_Distractor.gif"",""img/Fire_Down_Distractor.gif"",""img/Fire_Down_Distractor.gif"",""img/Fire_Down_Distractor.gif"",""img/Fire_Down_Distractor.gif"",""img/Fire_Down_Distractor.gif"",""img/Fire_Down_Distractor.gif"",""img/Fire_Down_Distractor.gif"",""img/Fire_Down_Distractor.gif""]","targetUp_distractorsDown"
"","","","","","html-keyboard-response","102","170907","0.0-14.0-0.0-0.44","5ef831c97dcd65573bbb0649","6186fb1cc52d38b480598eb7","61872c636d259af4cb95a911","null","","null","","","","","fixation","","","",""
"","","","","","visual-search-circle","103","172954","0.0-14.0-0.0-1.44","5ef831c97dcd65573bbb0649","6186fb1cc52d38b480598eb7","61872c636d259af4cb95a911","1037.7000000476837","","d","true","[[263,2],[5,242],[154,562],[504,519],[571,173]]","true","5","","","img/Fire_Down_Target.gif","[""img/Fire_Up_Distractor.gif"",""img/Fire_Up_Distractor.gif"",""img/Fire_Up_Distractor.gif"",""img/Fire_Up_Distractor.gif"",""img/Fire_Up_Distractor.gif"",""img/Fire_Up_Distractor.gif"",""img/Fire_Up_Distractor.gif"",""img/Fire_Up_Distractor.gif"",""img/Fire_Up_Distractor.gif"",""img/Fire_Up_Distractor.gif"",""img/Fire_Up_Distractor.gif"",""img/Fire_Up_Distractor.gif""]","targetDown_distractorsUp"
"","","","","","html-keyboard-response","104","172956","0.0-14.0-0.0-0.45","5ef831c97dcd65573bbb0649","6186fb1cc52d38b480598eb7","61872c636d259af4cb95a911","null","","null","","","","","fixation","","","",""
"","","","","","visual-search-circle","105","175193","0.0-14.0-0.0-1.45","5ef831c97dcd65573bbb0649","6186fb1cc52d38b480598eb7","61872c636d259af4cb95a911","1232.3999998569489","","d","true","[[99,77],[25,422],[331,598],[593,362],[449,40]]","true","5","","","img/Fire_Down_Target.gif","[""img/Fire_Up_Distractor.gif"",""img/Fire_Up_Distractor.gif"",""img/Fire_Up_Distractor.gif"",""img/Fire_Up_Distractor.gif"",""img/Fire_Up_Distractor.gif"",""img/Fire_Up_Distractor.gif"",""img/Fire_Up_Distractor.gif"",""img/Fire_Up_Distractor.gif"",""img/Fire_Up_Distractor.gif"",""img/Fire_Up_Distractor.gif"",""img/Fire_Up_Distractor.gif"",""img/Fire_Up_Distractor.gif""]","targetDown_distractorsUp"
"","","","","","html-keyboard-response","106","175196","0.0-14.0-0.0-0.46","5ef831c97dcd65573bbb0649","6186fb1cc52d38b480598eb7","61872c636d259af4cb95a911","null","","null","","","","","fixation","","","",""
"","","","","","visual-search-circle","107","177394","0.0-14.0-0.0-1.46","5ef831c97dcd65573bbb0649","6186fb1cc52d38b480598eb7","61872c636d259af4cb95a911","1193.4000000953674","","s","true","[[28,173],[31,433],[236,593],[489,532],[599,296],[484,63],[229,8]]","false","7","","","img/Fire_Up_Target.gif","[""img/Fire_Down_Distractor.gif"",""img/Fire_Down_Distractor.gif"",""img/Fire_Down_Distractor.gif"",""img/Fire_Down_Distractor.gif"",""img/Fire_Down_Distractor.gif"",""img/Fire_Down_Distractor.gif"",""img/Fire_Down_Distractor.gif"",""img/Fire_Down_Distractor.gif"",""img/Fire_Down_Distractor.gif"",""img/Fire_Down_Distractor.gif"",""img/Fire_Down_Distractor.gif"",""img/Fire_Down_Distractor.gif""]","targetUp_distractorsDown"
"","","","","","html-keyboard-response","108","177397","0.0-14.0-0.0-0.47","5ef831c97dcd65573bbb0649","6186fb1cc52d38b480598eb7","61872c636d259af4cb95a911","null","","null","","","","","fixation","","","",""
"","","","","","visual-search-circle","109","179410","0.0-14.0-0.0-1.47","5ef831c97dcd65573bbb0649","6186fb1cc52d38b480598eb7","61872c636d259af4cb95a911","1009.2000000476837","","d","true","[[0,310],[217,588],[548,467],[536,115],[197,18]]","true","5","","","img/Fire_Up_Target.gif","[""img/Fire_Down_Distractor.gif"",""img/Fire_Down_Distractor.gif"",""img/Fire_Down_Distractor.gif"",""img/Fire_Down_Distractor.gif"",""img/Fire_Down_Distractor.gif"",""img/Fire_Down_Distractor.gif"",""img/Fire_Down_Distractor.gif"",""img/Fire_Down_Distractor.gif"",""img/Fire_Down_Distractor.gif"",""img/Fire_Down_Distractor.gif"",""img/Fire_Down_Distractor.gif"",""img/Fire_Down_Distractor.gif""]","targetUp_distractorsDown"
"","","","","","html-keyboard-response","110","179411","0.0-14.0-0.0-0.48","5ef831c97dcd65573bbb0649","6186fb1cc52d38b480598eb7","61872c636d259af4cb95a911","null","","null","","","","","fixation","","","",""
"","","","","","visual-search-circle","111","183834","0.0-14.0-0.0-1.48","5ef831c97dcd65573bbb0649","6186fb1cc52d38b480598eb7","61872c636d259af4cb95a911","3419.699999809265","","s","true","[[377,589],[589,222],[222,10],[10,377]]","false","4","","","img/Fire_Down_Target.gif","[""img/Fire_Up_Distractor.gif"",""img/Fire_Up_Distractor.gif"",""img/Fire_Up_Distractor.gif"",""img/Fire_Up_Distractor.gif"",""img/Fire_Up_Distractor.gif"",""img/Fire_Up_Distractor.gif"",""img/Fire_Up_Distractor.gif"",""img/Fire_Up_Distractor.gif"",""img/Fire_Up_Distractor.gif"",""img/Fire_Up_Distractor.gif"",""img/Fire_Up_Distractor.gif"",""img/Fire_Up_Distractor.gif""]","targetDown_distractorsUp"
"","","","","","html-keyboard-response","112","183836","0.0-14.0-0.0-0.49","5ef831c97dcd65573bbb0649","6186fb1cc52d38b480598eb7","61872c636d259af4cb95a911","null","","null","","","","","fixation","","","",""
"","","","","","visual-search-circle","113","186482","0.0-14.0-0.0-1.49","5ef831c97dcd65573bbb0649","6186fb1cc52d38b480598eb7","61872c636d259af4cb95a911","1640.4000000953674","","s","true","[[599,315],[463,48],[163,32],[0,284],[136,551],[436,567]]","false","6","","","img/Fire_Up_Target.gif","[""img/Fire_Down_Distractor.gif"",""img/Fire_Down_Distractor.gif"",""img/Fire_Down_Distractor.gif"",""img/Fire_Down_Distractor.gif"",""img/Fire_Down_Distractor.gif"",""img/Fire_Down_Distractor.gif"",""img/Fire_Down_Distractor.gif"",""img/Fire_Down_Distractor.gif"",""img/Fire_Down_Distractor.gif"",""img/Fire_Down_Distractor.gif"",""img/Fire_Down_Distractor.gif"",""img/Fire_Down_Distractor.gif""]","targetUp_distractorsDown"
"","","","","","html-keyboard-response","114","186485","0.0-14.0-0.0-0.50","5ef831c97dcd65573bbb0649","6186fb1cc52d38b480598eb7","61872c636d259af4cb95a911","null","","null","","","","","fixation","","","",""
"","","","","","visual-search-circle","115","188947","0.0-14.0-0.0-1.50","5ef831c97dcd65573bbb0649","6186fb1cc52d38b480598eb7","61872c636d259af4cb95a911","1457.7000000476837","","d","true","[[526,496],[583,202],[357,5],[73,103],[16,397],[242,594]]","true","6","","","img/Fire_Down_Target.gif","[""img/Fire_Up_Distractor.gif"",""img/Fire_Up_Distractor.gif"",""img/Fire_Up_Distractor.gif"",""img/Fire_Up_Distractor.gif"",""img/Fire_Up_Distractor.gif"",""img/Fire_Up_Distractor.gif"",""img/Fire_Up_Distractor.gif"",""img/Fire_Up_Distractor.gif"",""img/Fire_Up_Distractor.gif"",""img/Fire_Up_Distractor.gif"",""img/Fire_Up_Distractor.gif"",""img/Fire_Up_Distractor.gif""]","targetDown_distractorsUp"
"","","","","","html-keyboard-response","116","188948","0.0-14.0-0.0-0.51","5ef831c97dcd65573bbb0649","6186fb1cc52d38b480598eb7","61872c636d259af4cb95a911","null","","null","","","","","fixation","","","",""
"","","","","","visual-search-circle","117","191354","0.0-14.0-0.0-1.51","5ef831c97dcd65573bbb0649","6186fb1cc52d38b480598eb7","61872c636d259af4cb95a911","1398.7999999523163","","d","true","[[54,472],[281,599],[522,501],[596,251],[446,38],[186,22],[12,215]]","true","7","","","img/Fire_Up_Target.gif","[""img/Fire_Down_Distractor.gif"",""img/Fire_Down_Distractor.gif"",""img/Fire_Down_Distractor.gif"",""img/Fire_Down_Distractor.gif"",""img/Fire_Down_Distractor.gif"",""img/Fire_Down_Distractor.gif"",""img/Fire_Down_Distractor.gif"",""img/Fire_Down_Distractor.gif"",""img/Fire_Down_Distractor.gif"",""img/Fire_Down_Distractor.gif"",""img/Fire_Down_Distractor.gif"",""img/Fire_Down_Distractor.gif""]","targetUp_distractorsDown"
"","","","","","html-keyboard-response","118","191356","0.0-14.0-0.0-0.52","5ef831c97dcd65573bbb0649","6186fb1cc52d38b480598eb7","61872c636d259af4cb95a911","null","","null","","","","","fixation","","","",""
"","","","","","visual-search-circle","119","193570","0.0-14.0-0.0-1.52","5ef831c97dcd65573bbb0649","6186fb1cc52d38b480598eb7","61872c636d259af4cb95a911","1209.0999999046326","","s","true","[[237,6],[31,165],[27,426],[228,591],[483,537],[599,304],[490,68]]","false","7","","","img/Fire_Down_Target.gif","[""img/Fire_Up_Distractor.gif"",""img/Fire_Up_Distractor.gif"",""img/Fire_Up_Distractor.gif"",""img/Fire_Up_Distractor.gif"",""img/Fire_Up_Distractor.gif"",""img/Fire_Up_Distractor.gif"",""img/Fire_Up_Distractor.gif"",""img/Fire_Up_Distractor.gif"",""img/Fire_Up_Distractor.gif"",""img/Fire_Up_Distractor.gif"",""img/Fire_Up_Distractor.gif"",""img/Fire_Up_Distractor.gif""]","targetDown_distractorsUp"
"","","","","","html-keyboard-response","120","193572","0.0-14.0-0.0-0.53","5ef831c97dcd65573bbb0649","6186fb1cc52d38b480598eb7","61872c636d259af4cb95a911","null","","null","","","","","fixation","","","",""
"","","","","","visual-search-circle","121","196330","0.0-14.0-0.0-1.53","5ef831c97dcd65573bbb0649","6186fb1cc52d38b480598eb7","61872c636d259af4cb95a911","1754.1999998092651","","d","true","[[454,42],[154,37],[0,294],[145,557],[445,562],[599,305]]","true","6","","","img/Fire_Up_Target.gif","[""img/Fire_Down_Distractor.gif"",""img/Fire_Down_Distractor.gif"",""img/Fire_Down_Distractor.gif"",""img/Fire_Down_Distractor.gif"",""img/Fire_Down_Distractor.gif"",""img/Fire_Down_Distractor.gif"",""img/Fire_Down_Distractor.gif"",""img/Fire_Down_Distractor.gif"",""img/Fire_Down_Distractor.gif"",""img/Fire_Down_Distractor.gif"",""img/Fire_Down_Distractor.gif"",""img/Fire_Down_Distractor.gif""]","targetUp_distractorsDown"
"","","","","","html-keyboard-response","122","196334","0.0-14.0-0.0-0.54","5ef831c97dcd65573bbb0649","6186fb1cc52d38b480598eb7","61872c636d259af4cb95a911","null","","null","","","","","fixation","","","",""
"","","","","","visual-search-circle","123","198658","0.0-14.0-0.0-1.54","5ef831c97dcd65573bbb0649","6186fb1cc52d38b480598eb7","61872c636d259af4cb95a911","1317.3999998569489","","s","true","[[0,315],[99,522],[315,599],[522,500],[599,284],[500,77],[284,0],[77,99]]","false","8","","","img/Fire_Up_Target.gif","[""img/Fire_Down_Distractor.gif"",""img/Fire_Down_Distractor.gif"",""img/Fire_Down_Distractor.gif"",""img/Fire_Down_Distractor.gif"",""img/Fire_Down_Distractor.gif"",""img/Fire_Down_Distractor.gif"",""img/Fire_Down_Distractor.gif"",""img/Fire_Down_Distractor.gif"",""img/Fire_Down_Distractor.gif"",""img/Fire_Down_Distractor.gif"",""img/Fire_Down_Distractor.gif"",""img/Fire_Down_Distractor.gif""]","targetUp_distractorsDown"
"","","","","","html-keyboard-response","124","198660","0.0-14.0-0.0-0.55","5ef831c97dcd65573bbb0649","6186fb1cc52d38b480598eb7","61872c636d259af4cb95a911","null","","null","","","","","fixation","","","",""
"","","","","","visual-search-circle","125","200450","0.0-14.0-0.0-1.55","5ef831c97dcd65573bbb0649","6186fb1cc52d38b480598eb7","61872c636d259af4cb95a911","783.0999999046326","","d","true","[[592,367],[554,141],[367,7],[141,45],[7,232],[45,458],[232,592],[458,554]]","true","8","","","img/Fire_Up_Target.gif","[""img/Fire_Down_Distractor.gif"",""img/Fire_Down_Distractor.gif"",""img/Fire_Down_Distractor.gif"",""img/Fire_Down_Distractor.gif"",""img/Fire_Down_Distractor.gif"",""img/Fire_Down_Distractor.gif"",""img/Fire_Down_Distractor.gif"",""img/Fire_Down_Distractor.gif"",""img/Fire_Down_Distractor.gif"",""img/Fire_Down_Distractor.gif"",""img/Fire_Down_Distractor.gif"",""img/Fire_Down_Distractor.gif""]","targetUp_distractorsDown"
"","","","","","html-keyboard-response","126","200453","0.0-14.0-0.0-0.56","5ef831c97dcd65573bbb0649","6186fb1cc52d38b480598eb7","61872c636d259af4cb95a911","null","","null","","","","","fixation","","","",""
"","","","","","visual-search-circle","127","203570","0.0-14.0-0.0-1.56","5ef831c97dcd65573bbb0649","6186fb1cc52d38b480598eb7","61872c636d259af4cb95a911","2113.7000000476837","","d","true","[[66,488],[302,599],[535,485],[591,231],[428,28],[167,30],[7,235]]","true","7","","","img/Fire_Down_Target.gif","[""img/Fire_Up_Distractor.gif"",""img/Fire_Up_Distractor.gif"",""img/Fire_Up_Distractor.gif"",""img/Fire_Up_Distractor.gif"",""img/Fire_Up_Distractor.gif"",""img/Fire_Up_Distractor.gif"",""img/Fire_Up_Distractor.gif"",""img/Fire_Up_Distractor.gif"",""img/Fire_Up_Distractor.gif"",""img/Fire_Up_Distractor.gif"",""img/Fire_Up_Distractor.gif"",""img/Fire_Up_Distractor.gif""]","targetDown_distractorsUp"
"","","","","","html-keyboard-response","128","203573","0.0-14.0-0.0-0.57","5ef831c97dcd65573bbb0649","6186fb1cc52d38b480598eb7","61872c636d259af4cb95a911","null","","null","","","","","fixation","","","",""
"","","","","","visual-search-circle","129","205746","0.0-14.0-0.0-1.57","5ef831c97dcd65573bbb0649","6186fb1cc52d38b480598eb7","61872c636d259af4cb95a911","1167.9000000953674","","s","true","[[382,588],[577,415],[562,155],[350,4],[100,76],[0,316],[126,544]]","false","7","","","img/Fire_Up_Target.gif","[""img/Fire_Down_Distractor.gif"",""img/Fire_Down_Distractor.gif"",""img/Fire_Down_Distractor.gif"",""img/Fire_Down_Distractor.gif"",""img/Fire_Down_Distractor.gif"",""img/Fire_Down_Distractor.gif"",""img/Fire_Down_Distractor.gif"",""img/Fire_Down_Distractor.gif"",""img/Fire_Down_Distractor.gif"",""img/Fire_Down_Distractor.gif"",""img/Fire_Down_Distractor.gif"",""img/Fire_Down_Distractor.gif""]","targetUp_distractorsDown"
"","","","","","html-keyboard-response","130","205749","0.0-14.0-0.0-0.58","5ef831c97dcd65573bbb0649","6186fb1cc52d38b480598eb7","61872c636d259af4cb95a911","null","","null","","","","","fixation","","","",""
"","","","","","visual-search-circle","131","207689","0.0-14.0-0.0-1.58","5ef831c97dcd65573bbb0649","6186fb1cc52d38b480598eb7","61872c636d259af4cb95a911","937.0999999046326","","d","true","[[150,40],[40,450],[450,559],[559,150]]","true","4","","","img/Fire_Up_Target.gif","[""img/Fire_Down_Distractor.gif"",""img/Fire_Down_Distractor.gif"",""img/Fire_Down_Distractor.gif"",""img/Fire_Down_Distractor.gif"",""img/Fire_Down_Distractor.gif"",""img/Fire_Down_Distractor.gif"",""img/Fire_Down_Distractor.gif"",""img/Fire_Down_Distractor.gif"",""img/Fire_Down_Distractor.gif"",""img/Fire_Down_Distractor.gif"",""img/Fire_Down_Distractor.gif"",""img/Fire_Down_Distractor.gif""]","targetUp_distractorsDown"
"","","","","","html-keyboard-response","132","209218","0.0-14.0-0.0-0.59","5ef831c97dcd65573bbb0649","6186fb1cc52d38b480598eb7","61872c636d259af4cb95a911","1528.3000001907349","Wow! You've completed 60 out of 120 trials! </p> <p>  </p><p> Take a quick break, then press any key when you're ready to continue."," ","","","","","fixation","","","",""
"","","","","","visual-search-circle","133","211810","0.0-14.0-0.0-1.59","5ef831c97dcd65573bbb0649","6186fb1cc52d38b480598eb7","61872c636d259af4cb95a911","1586.2999999523163","","d","true","[[54,127],[4,352],[127,545],[352,595],[545,472],[595,247],[472,54],[247,4]]","true","8","","","img/Fire_Down_Target.gif","[""img/Fire_Up_Distractor.gif"",""img/Fire_Up_Distractor.gif"",""img/Fire_Up_Distractor.gif"",""img/Fire_Up_Distractor.gif"",""img/Fire_Up_Distractor.gif"",""img/Fire_Up_Distractor.gif"",""img/Fire_Up_Distractor.gif"",""img/Fire_Up_Distractor.gif"",""img/Fire_Up_Distractor.gif"",""img/Fire_Up_Distractor.gif"",""img/Fire_Up_Distractor.gif"",""img/Fire_Up_Distractor.gif""]","targetDown_distractorsUp"
"","","","","","html-keyboard-response","134","211813","0.0-14.0-0.0-0.60","5ef831c97dcd65573bbb0649","6186fb1cc52d38b480598eb7","61872c636d259af4cb95a911","null","","null","","","","","fixation","","","",""
"","","","","","visual-search-circle","135","213666","0.0-14.0-0.0-1.60","5ef831c97dcd65573bbb0649","6186fb1cc52d38b480598eb7","61872c636d259af4cb95a911","850.5999999046326","","d","true","[[28,173],[173,571],[571,426],[426,28]]","true","4","","","img/Fire_Down_Target.gif","[""img/Fire_Up_Distractor.gif"",""img/Fire_Up_Distractor.gif"",""img/Fire_Up_Distractor.gif"",""img/Fire_Up_Distractor.gif"",""img/Fire_Up_Distractor.gif"",""img/Fire_Up_Distractor.gif"",""img/Fire_Up_Distractor.gif"",""img/Fire_Up_Distractor.gif"",""img/Fire_Up_Distractor.gif"",""img/Fire_Up_Distractor.gif"",""img/Fire_Up_Distractor.gif"",""img/Fire_Up_Distractor.gif""]","targetDown_distractorsUp"
"","","","","","html-keyboard-response","136","213678","0.0-14.0-0.0-0.61","5ef831c97dcd65573bbb0649","6186fb1cc52d38b480598eb7","61872c636d259af4cb95a911","null","","null","","","","","fixation","","","",""
"","","","","","visual-search-circle","137","216362","0.0-14.0-0.0-1.61","5ef831c97dcd65573bbb0649","6186fb1cc52d38b480598eb7","61872c636d259af4cb95a911","1672.8999998569489","","d","true","[[37,154],[11,382],[154,562],[382,588],[562,445],[588,217],[445,37],[217,11]]","true","8","","","img/Fire_Down_Target.gif","[""img/Fire_Up_Distractor.gif"",""img/Fire_Up_Distractor.gif"",""img/Fire_Up_Distractor.gif"",""img/Fire_Up_Distractor.gif"",""img/Fire_Up_Distractor.gif"",""img/Fire_Up_Distractor.gif"",""img/Fire_Up_Distractor.gif"",""img/Fire_Up_Distractor.gif"",""img/Fire_Up_Distractor.gif"",""img/Fire_Up_Distractor.gif"",""img/Fire_Up_Distractor.gif"",""img/Fire_Up_Distractor.gif""]","targetDown_distractorsUp"
"","","","","","html-keyboard-response","138","216365","0.0-14.0-0.0-0.62","5ef831c97dcd65573bbb0649","6186fb1cc52d38b480598eb7","61872c636d259af4cb95a911","null","","null","","","","","fixation","","","",""
"","","","","","visual-search-circle","139","218666","0.0-14.0-0.0-1.62","5ef831c97dcd65573bbb0649","6186fb1cc52d38b480598eb7","61872c636d259af4cb95a911","1298.0999999046326","","s","true","[[21,412],[320,599],[591,372],[458,45],[107,70]]","false","5","","","img/Fire_Down_Target.gif","[""img/Fire_Up_Distractor.gif"",""img/Fire_Up_Distractor.gif"",""img/Fire_Up_Distractor.gif"",""img/Fire_Up_Distractor.gif"",""img/Fire_Up_Distractor.gif"",""img/Fire_Up_Distractor.gif"",""img/Fire_Up_Distractor.gif"",""img/Fire_Up_Distractor.gif"",""img/Fire_Up_Distractor.gif"",""img/Fire_Up_Distractor.gif"",""img/Fire_Up_Distractor.gif"",""img/Fire_Up_Distractor.gif""]","targetDown_distractorsUp"
"","","","","","html-keyboard-response","140","218669","0.0-14.0-0.0-0.63","5ef831c97dcd65573bbb0649","6186fb1cc52d38b480598eb7","61872c636d259af4cb95a911","null","","null","","","","","fixation","","","",""
"","","","","","visual-search-circle","141","220922","0.0-14.0-0.0-1.63","5ef831c97dcd65573bbb0649","6186fb1cc52d38b480598eb7","61872c636d259af4cb95a911","1248","","s","true","[[450,559],[600,300],[449,40],[150,40],[0,299],[150,559]]","false","6","","","img/Fire_Up_Target.gif","[""img/Fire_Down_Distractor.gif"",""img/Fire_Down_Distractor.gif"",""img/Fire_Down_Distractor.gif"",""img/Fire_Down_Distractor.gif"",""img/Fire_Down_Distractor.gif"",""img/Fire_Down_Distractor.gif"",""img/Fire_Down_Distractor.gif"",""img/Fire_Down_Distractor.gif"",""img/Fire_Down_Distractor.gif"",""img/Fire_Down_Distractor.gif"",""img/Fire_Down_Distractor.gif"",""img/Fire_Down_Distractor.gif""]","targetUp_distractorsDown"
"","","","","","html-keyboard-response","142","220924","0.0-14.0-0.0-0.64","5ef831c97dcd65573bbb0649","6186fb1cc52d38b480598eb7","61872c636d259af4cb95a911","null","","null","","","","","fixation","","","",""
"","","","","","visual-search-circle","143","223074","0.0-14.0-0.0-1.64","5ef831c97dcd65573bbb0649","6186fb1cc52d38b480598eb7","61872c636d259af4cb95a911","1147.5","","d","true","[[581,402],[529,107],[247,4],[18,197],[70,492],[352,595]]","true","6","","","img/Fire_Down_Target.gif","[""img/Fire_Up_Distractor.gif"",""img/Fire_Up_Distractor.gif"",""img/Fire_Up_Distractor.gif"",""img/Fire_Up_Distractor.gif"",""img/Fire_Up_Distractor.gif"",""img/Fire_Up_Distractor.gif"",""img/Fire_Up_Distractor.gif"",""img/Fire_Up_Distractor.gif"",""img/Fire_Up_Distractor.gif"",""img/Fire_Up_Distractor.gif"",""img/Fire_Up_Distractor.gif"",""img/Fire_Up_Distractor.gif""]","targetDown_distractorsUp"
"","","","","","html-keyboard-response","144","223076","0.0-14.0-0.0-0.65","5ef831c97dcd65573bbb0649","6186fb1cc52d38b480598eb7","61872c636d259af4cb95a911","null","","null","","","","","fixation","","","",""
"","","","","","visual-search-circle","145","227882","0.0-14.0-0.0-1.65","5ef831c97dcd65573bbb0649","6186fb1cc52d38b480598eb7","61872c636d259af4cb95a911","3802.7999999523163","","s","true","[[472,545],[545,127],[127,54],[54,472]]","false","4","","","img/Fire_Down_Target.gif","[""img/Fire_Up_Distractor.gif"",""img/Fire_Up_Distractor.gif"",""img/Fire_Up_Distractor.gif"",""img/Fire_Up_Distractor.gif"",""img/Fire_Up_Distractor.gif"",""img/Fire_Up_Distractor.gif"",""img/Fire_Up_Distractor.gif"",""img/Fire_Up_Distractor.gif"",""img/Fire_Up_Distractor.gif"",""img/Fire_Up_Distractor.gif"",""img/Fire_Up_Distractor.gif"",""img/Fire_Up_Distractor.gif""]","targetDown_distractorsUp"
"","","","","","html-keyboard-response","146","227885","0.0-14.0-0.0-0.66","5ef831c97dcd65573bbb0649","6186fb1cc52d38b480598eb7","61872c636d259af4cb95a911","null","","null","","","","","fixation","","","",""
"","","","","","visual-search-circle","147","230154","0.0-14.0-0.0-1.66","5ef831c97dcd65573bbb0649","6186fb1cc52d38b480598eb7","61872c636d259af4cb95a911","1262.5","","d","true","[[37,154],[11,382],[154,562],[382,588],[562,445],[588,217],[445,37],[217,11]]","true","8","","","img/Fire_Down_Target.gif","[""img/Fire_Up_Distractor.gif"",""img/Fire_Up_Distractor.gif"",""img/Fire_Up_Distractor.gif"",""img/Fire_Up_Distractor.gif"",""img/Fire_Up_Distractor.gif"",""img/Fire_Up_Distractor.gif"",""img/Fire_Up_Distractor.gif"",""img/Fire_Up_Distractor.gif"",""img/Fire_Up_Distractor.gif"",""img/Fire_Up_Distractor.gif"",""img/Fire_Up_Distractor.gif"",""img/Fire_Up_Distractor.gif""]","targetDown_distractorsUp"
"","","","","","html-keyboard-response","148","230158","0.0-14.0-0.0-0.67","5ef831c97dcd65573bbb0649","6186fb1cc52d38b480598eb7","61872c636d259af4cb95a911","null","","null","","","","","fixation","","","",""
"","","","","","visual-search-circle","149","232266","0.0-14.0-0.0-1.67","5ef831c97dcd65573bbb0649","6186fb1cc52d38b480598eb7","61872c636d259af4cb95a911","1104.5999999046326","","d","true","[[578,187],[385,12],[128,53],[0,280],[98,521],[347,596],[561,447]]","true","7","","","img/Fire_Up_Target.gif","[""img/Fire_Down_Distractor.gif"",""img/Fire_Down_Distractor.gif"",""img/Fire_Down_Distractor.gif"",""img/Fire_Down_Distractor.gif"",""img/Fire_Down_Distractor.gif"",""img/Fire_Down_Distractor.gif"",""img/Fire_Down_Distractor.gif"",""img/Fire_Down_Distractor.gif"",""img/Fire_Down_Distractor.gif"",""img/Fire_Down_Distractor.gif"",""img/Fire_Down_Distractor.gif"",""img/Fire_Down_Distractor.gif""]","targetUp_distractorsDown"
"","","","","","html-keyboard-response","150","232637","0.0-14.0-0.0-0.68","5ef831c97dcd65573bbb0649","6186fb1cc52d38b480598eb7","61872c636d259af4cb95a911","null","","null","","","","","fixation","","","",""
"","","","","","visual-search-circle","151","234970","0.0-14.0-0.0-1.68","5ef831c97dcd65573bbb0649","6186fb1cc52d38b480598eb7","61872c636d259af4cb95a911","1329.6000001430511","","s","true","[[467,51],[210,13],[20,191],[40,451],[256,596],[505,518],[599,276]]","false","7","","","img/Fire_Down_Target.gif","[""img/Fire_Up_Distractor.gif"",""img/Fire_Up_Distractor.gif"",""img/Fire_Up_Distractor.gif"",""img/Fire_Up_Distractor.gif"",""img/Fire_Up_Distractor.gif"",""img/Fire_Up_Distractor.gif"",""img/Fire_Up_Distractor.gif"",""img/Fire_Up_Distractor.gif"",""img/Fire_Up_Distractor.gif"",""img/Fire_Up_Distractor.gif"",""img/Fire_Up_Distractor.gif"",""img/Fire_Up_Distractor.gif""]","targetDown_distractorsUp"
"","","","","","html-keyboard-response","152","234973","0.0-14.0-0.0-0.69","5ef831c97dcd65573bbb0649","6186fb1cc52d38b480598eb7","61872c636d259af4cb95a911","null","","null","","","","","fixation","","","",""
"","","","","","visual-search-circle","153","238730","0.0-14.0-0.0-1.69","5ef831c97dcd65573bbb0649","6186fb1cc52d38b480598eb7","61872c636d259af4cb95a911","2753.7999999523163","","s","true","[[458,45],[107,70],[21,412],[320,599],[591,372]]","false","5","","","img/Fire_Up_Target.gif","[""img/Fire_Down_Distractor.gif"",""img/Fire_Down_Distractor.gif"",""img/Fire_Down_Distractor.gif"",""img/Fire_Down_Distractor.gif"",""img/Fire_Down_Distractor.gif"",""img/Fire_Down_Distractor.gif"",""img/Fire_Down_Distractor.gif"",""img/Fire_Down_Distractor.gif"",""img/Fire_Down_Distractor.gif"",""img/Fire_Down_Distractor.gif"",""img/Fire_Down_Distractor.gif"",""img/Fire_Down_Distractor.gif""]","targetUp_distractorsDown"
"","","","","","html-keyboard-response","154","238733","0.0-14.0-0.0-0.70","5ef831c97dcd65573bbb0649","6186fb1cc52d38b480598eb7","61872c636d259af4cb95a911","null","","null","","","","","fixation","","","",""
"","","","","","visual-search-circle","155","240746","0.0-14.0-0.0-1.70","5ef831c97dcd65573bbb0649","6186fb1cc52d38b480598eb7","61872c636d259af4cb95a911","1000.2999999523163","","d","true","[[450,559],[593,237],[331,1],[25,177],[99,522]]","true","5","","","img/Fire_Down_Target.gif","[""img/Fire_Up_Distractor.gif"",""img/Fire_Up_Distractor.gif"",""img/Fire_Up_Distractor.gif"",""img/Fire_Up_Distractor.gif"",""img/Fire_Up_Distractor.gif"",""img/Fire_Up_Distractor.gif"",""img/Fire_Up_Distractor.gif"",""img/Fire_Up_Distractor.gif"",""img/Fire_Up_Distractor.gif"",""img/Fire_Up_Distractor.gif"",""img/Fire_Up_Distractor.gif"",""img/Fire_Up_Distractor.gif""]","targetDown_distractorsUp"
"","","","","","html-keyboard-response","156","240748","0.0-14.0-0.0-0.71","5ef831c97dcd65573bbb0649","6186fb1cc52d38b480598eb7","61872c636d259af4cb95a911","null","","null","","","","","fixation","","","",""
"","","","","","visual-search-circle","157","242977","0.0-14.0-0.0-1.71","5ef831c97dcd65573bbb0649","6186fb1cc52d38b480598eb7","61872c636d259af4cb95a911","1225","","d","true","[[63,115],[51,467],[382,588],[599,310],[402,18]]","true","5","","","img/Fire_Up_Target.gif","[""img/Fire_Down_Distractor.gif"",""img/Fire_Down_Distractor.gif"",""img/Fire_Down_Distractor.gif"",""img/Fire_Down_Distractor.gif"",""img/Fire_Down_Distractor.gif"",""img/Fire_Down_Distractor.gif"",""img/Fire_Down_Distractor.gif"",""img/Fire_Down_Distractor.gif"",""img/Fire_Down_Distractor.gif"",""img/Fire_Down_Distractor.gif"",""img/Fire_Down_Distractor.gif"",""img/Fire_Down_Distractor.gif""]","targetUp_distractorsDown"
"","","","","","html-keyboard-response","158","242983","0.0-14.0-0.0-0.72","5ef831c97dcd65573bbb0649","6186fb1cc52d38b480598eb7","61872c636d259af4cb95a911","null","","null","","","","","fixation","","","",""
"","","","","","visual-search-circle","159","245386","0.0-14.0-0.0-1.72","5ef831c97dcd65573bbb0649","6186fb1cc52d38b480598eb7","61872c636d259af4cb95a911","1399.1999998092651","","d","true","[[168,569],[428,570],[592,368],[535,114],[301,0],[66,111],[7,365]]","true","7","","","img/Fire_Up_Target.gif","[""img/Fire_Down_Distractor.gif"",""img/Fire_Down_Distractor.gif"",""img/Fire_Down_Distractor.gif"",""img/Fire_Down_Distractor.gif"",""img/Fire_Down_Distractor.gif"",""img/Fire_Down_Distractor.gif"",""img/Fire_Down_Distractor.gif"",""img/Fire_Down_Distractor.gif"",""img/Fire_Down_Distractor.gif"",""img/Fire_Down_Distractor.gif"",""img/Fire_Down_Distractor.gif"",""img/Fire_Down_Distractor.gif""]","targetUp_distractorsDown"
"","","","","","html-keyboard-response","160","245388","0.0-14.0-0.0-0.73","5ef831c97dcd65573bbb0649","6186fb1cc52d38b480598eb7","61872c636d259af4cb95a911","null","","null","","","","","fixation","","","",""
"","","","","","visual-search-circle","161","249945","0.0-14.0-0.0-1.73","5ef831c97dcd65573bbb0649","6186fb1cc52d38b480598eb7","61872c636d259af4cb95a911","3554","","d","true","[[346,3],[97,78],[0,320],[129,546],[386,587],[578,411],[560,151]]","true","7","","","img/Fire_Down_Target.gif","[""img/Fire_Up_Distractor.gif"",""img/Fire_Up_Distractor.gif"",""img/Fire_Up_Distractor.gif"",""img/Fire_Up_Distractor.gif"",""img/Fire_Up_Distractor.gif"",""img/Fire_Up_Distractor.gif"",""img/Fire_Up_Distractor.gif"",""img/Fire_Up_Distractor.gif"",""img/Fire_Up_Distractor.gif"",""img/Fire_Up_Distractor.gif"",""img/Fire_Up_Distractor.gif"",""img/Fire_Up_Distractor.gif""]","targetDown_distractorsUp"
"","","","","","html-keyboard-response","162","249949","0.0-14.0-0.0-0.74","5ef831c97dcd65573bbb0649","6186fb1cc52d38b480598eb7","61872c636d259af4cb95a911","null","","null","","","","","fixation","","","",""
"","","","","","visual-search-circle","163","252737","0.0-14.0-0.0-1.74","5ef831c97dcd65573bbb0649","6186fb1cc52d38b480598eb7","61872c636d259af4cb95a911","1782.2999999523163","","s","true","[[407,19],[111,66],[3,346],[192,580],[488,533],[596,253]]","false","6","","","img/Fire_Down_Target.gif","[""img/Fire_Up_Distractor.gif"",""img/Fire_Up_Distractor.gif"",""img/Fire_Up_Distractor.gif"",""img/Fire_Up_Distractor.gif"",""img/Fire_Up_Distractor.gif"",""img/Fire_Up_Distractor.gif"",""img/Fire_Up_Distractor.gif"",""img/Fire_Up_Distractor.gif"",""img/Fire_Up_Distractor.gif"",""img/Fire_Up_Distractor.gif"",""img/Fire_Up_Distractor.gif"",""img/Fire_Up_Distractor.gif""]","targetDown_distractorsUp"
"","","","","","html-keyboard-response","164","252740","0.0-14.0-0.0-0.75","5ef831c97dcd65573bbb0649","6186fb1cc52d38b480598eb7","61872c636d259af4cb95a911","null","","null","","","","","fixation","","","",""
"","","","","","visual-search-circle","165","255257","0.0-14.0-0.0-1.75","5ef831c97dcd65573bbb0649","6186fb1cc52d38b480598eb7","61872c636d259af4cb95a911","1513","","s","true","[[77,99],[4,349],[153,562],[413,577],[587,384],[545,127],[317,0]]","false","7","","","img/Fire_Up_Target.gif","[""img/Fire_Down_Distractor.gif"",""img/Fire_Down_Distractor.gif"",""img/Fire_Down_Distractor.gif"",""img/Fire_Down_Distractor.gif"",""img/Fire_Down_Distractor.gif"",""img/Fire_Down_Distractor.gif"",""img/Fire_Down_Distractor.gif"",""img/Fire_Down_Distractor.gif"",""img/Fire_Down_Distractor.gif"",""img/Fire_Down_Distractor.gif"",""img/Fire_Down_Distractor.gif"",""img/Fire_Down_Distractor.gif""]","targetUp_distractorsDown"
"","","","","","html-keyboard-response","166","255262","0.0-14.0-0.0-0.76","5ef831c97dcd65573bbb0649","6186fb1cc52d38b480598eb7","61872c636d259af4cb95a911","null","","null","","","","","fixation","","","",""
"","","","","","visual-search-circle","167","257394","0.0-14.0-0.0-1.76","5ef831c97dcd65573bbb0649","6186fb1cc52d38b480598eb7","61872c636d259af4cb95a911","1125.7999999523163","","d","true","[[586,387],[564,159],[387,13],[159,35],[13,212],[35,440],[212,586],[440,564]]","true","8","","","img/Fire_Down_Target.gif","[""img/Fire_Up_Distractor.gif"",""img/Fire_Up_Distractor.gif"",""img/Fire_Up_Distractor.gif"",""img/Fire_Up_Distractor.gif"",""img/Fire_Up_Distractor.gif"",""img/Fire_Up_Distractor.gif"",""img/Fire_Up_Distractor.gif"",""img/Fire_Up_Distractor.gif"",""img/Fire_Up_Distractor.gif"",""img/Fire_Up_Distractor.gif"",""img/Fire_Up_Distractor.gif"",""img/Fire_Up_Distractor.gif""]","targetDown_distractorsUp"
"","","","","","html-keyboard-response","168","257397","0.0-14.0-0.0-0.77","5ef831c97dcd65573bbb0649","6186fb1cc52d38b480598eb7","61872c636d259af4cb95a911","null","","null","","","","","fixation","","","",""
"","","","","","visual-search-circle","169","259778","0.0-14.0-0.0-1.77","5ef831c97dcd65573bbb0649","6186fb1cc52d38b480598eb7","61872c636d259af4cb95a911","1376.7000000476837","","s","true","[[80,95],[3,343],[149,559],[408,579],[586,389],[548,131],[323,0]]","false","7","","","img/Fire_Down_Target.gif","[""img/Fire_Up_Distractor.gif"",""img/Fire_Up_Distractor.gif"",""img/Fire_Up_Distractor.gif"",""img/Fire_Up_Distractor.gif"",""img/Fire_Up_Distractor.gif"",""img/Fire_Up_Distractor.gif"",""img/Fire_Up_Distractor.gif"",""img/Fire_Up_Distractor.gif"",""img/Fire_Up_Distractor.gif"",""img/Fire_Up_Distractor.gif"",""img/Fire_Up_Distractor.gif"",""img/Fire_Up_Distractor.gif""]","targetDown_distractorsUp"
"","","","","","html-keyboard-response","170","259780","0.0-14.0-0.0-0.78","5ef831c97dcd65573bbb0649","6186fb1cc52d38b480598eb7","61872c636d259af4cb95a911","null","","null","","","","","fixation","","","",""
"","","","","","visual-search-circle","171","262410","0.0-14.0-0.0-1.78","5ef831c97dcd65573bbb0649","6186fb1cc52d38b480598eb7","61872c636d259af4cb95a911","1624.5","","s","true","[[522,99],[282,0],[54,127],[12,384],[186,577],[446,562],[595,349]]","false","7","","","img/Fire_Down_Target.gif","[""img/Fire_Up_Distractor.gif"",""img/Fire_Up_Distractor.gif"",""img/Fire_Up_Distractor.gif"",""img/Fire_Up_Distractor.gif"",""img/Fire_Up_Distractor.gif"",""img/Fire_Up_Distractor.gif"",""img/Fire_Up_Distractor.gif"",""img/Fire_Up_Distractor.gif"",""img/Fire_Up_Distractor.gif"",""img/Fire_Up_Distractor.gif"",""img/Fire_Up_Distractor.gif"",""img/Fire_Up_Distractor.gif""]","targetDown_distractorsUp"
"","","","","","html-keyboard-response","172","263553","0.0-14.0-0.0-0.79","5ef831c97dcd65573bbb0649","6186fb1cc52d38b480598eb7","61872c636d259af4cb95a911","1142.7999999523163","Wow! You've completed 80 out of 120 trials! </p> <p>  </p><p> Take a quick break, then press any key when you're ready to continue."," ","","","","","fixation","","","",""
"","","","","","visual-search-circle","173","266114","0.0-14.0-0.0-1.79","5ef831c97dcd65573bbb0649","6186fb1cc52d38b480598eb7","61872c636d259af4cb95a911","1556.5999999046326","","s","true","[[222,589],[589,377],[377,10],[10,222]]","false","4","","","img/Fire_Down_Target.gif","[""img/Fire_Up_Distractor.gif"",""img/Fire_Up_Distractor.gif"",""img/Fire_Up_Distractor.gif"",""img/Fire_Up_Distractor.gif"",""img/Fire_Up_Distractor.gif"",""img/Fire_Up_Distractor.gif"",""img/Fire_Up_Distractor.gif"",""img/Fire_Up_Distractor.gif"",""img/Fire_Up_Distractor.gif"",""img/Fire_Up_Distractor.gif"",""img/Fire_Up_Distractor.gif"",""img/Fire_Up_Distractor.gif""]","targetDown_distractorsUp"
"","","","","","html-keyboard-response","174","266118","0.0-14.0-0.0-0.80","5ef831c97dcd65573bbb0649","6186fb1cc52d38b480598eb7","61872c636d259af4cb95a911","null","","null","","","","","fixation","","","",""
"","","","","","visual-search-circle","175","268441","0.0-14.0-0.0-1.80","5ef831c97dcd65573bbb0649","6186fb1cc52d38b480598eb7","61872c636d259af4cb95a911","1317.4000000953674","","d","true","[[431,569],[583,397],[569,168],[397,16],[168,30],[16,202],[30,431],[202,583]]","true","8","","","img/Fire_Up_Target.gif","[""img/Fire_Down_Distractor.gif"",""img/Fire_Down_Distractor.gif"",""img/Fire_Down_Distractor.gif"",""img/Fire_Down_Distractor.gif"",""img/Fire_Down_Distractor.gif"",""img/Fire_Down_Distractor.gif"",""img/Fire_Down_Distractor.gif"",""img/Fire_Down_Distractor.gif"",""img/Fire_Down_Distractor.gif"",""img/Fire_Down_Distractor.gif"",""img/Fire_Down_Distractor.gif"",""img/Fire_Down_Distractor.gif""]","targetUp_distractorsDown"
"","","","","","html-keyboard-response","176","268443","0.0-14.0-0.0-0.81","5ef831c97dcd65573bbb0649","6186fb1cc52d38b480598eb7","61872c636d259af4cb95a911","null","","null","","","","","fixation","","","",""
"","","","","","visual-search-circle","177","270765","0.0-14.0-0.0-1.81","5ef831c97dcd65573bbb0649","6186fb1cc52d38b480598eb7","61872c636d259af4cb95a911","1316.7999999523163","","d","true","[[320,599],[569,431],[548,132],[279,0],[30,168],[51,467]]","true","6","","","img/Fire_Up_Target.gif","[""img/Fire_Down_Distractor.gif"",""img/Fire_Down_Distractor.gif"",""img/Fire_Down_Distractor.gif"",""img/Fire_Down_Distractor.gif"",""img/Fire_Down_Distractor.gif"",""img/Fire_Down_Distractor.gif"",""img/Fire_Down_Distractor.gif"",""img/Fire_Down_Distractor.gif"",""img/Fire_Down_Distractor.gif"",""img/Fire_Down_Distractor.gif"",""img/Fire_Down_Distractor.gif"",""img/Fire_Down_Distractor.gif""]","targetUp_distractorsDown"
"","","","","","html-keyboard-response","178","270768","0.0-14.0-0.0-0.82","5ef831c97dcd65573bbb0649","6186fb1cc52d38b480598eb7","61872c636d259af4cb95a911","null","","null","","","","","fixation","","","",""
"","","","","","visual-search-circle","179","273274","0.0-14.0-0.0-1.82","5ef831c97dcd65573bbb0649","6186fb1cc52d38b480598eb7","61872c636d259af4cb95a911","1500.0999999046326","","s","true","[[149,559],[409,579],[586,388],[547,131],[322,0],[80,95],[3,344]]","false","7","","","img/Fire_Up_Target.gif","[""img/Fire_Down_Distractor.gif"",""img/Fire_Down_Distractor.gif"",""img/Fire_Down_Distractor.gif"",""img/Fire_Down_Distractor.gif"",""img/Fire_Down_Distractor.gif"",""img/Fire_Down_Distractor.gif"",""img/Fire_Down_Distractor.gif"",""img/Fire_Down_Distractor.gif"",""img/Fire_Down_Distractor.gif"",""img/Fire_Down_Distractor.gif"",""img/Fire_Down_Distractor.gif"",""img/Fire_Down_Distractor.gif""]","targetUp_distractorsDown"
"","","","","","html-keyboard-response","180","273277","0.0-14.0-0.0-0.83","5ef831c97dcd65573bbb0649","6186fb1cc52d38b480598eb7","61872c636d259af4cb95a911","null","","null","","","","","fixation","","","",""
"","","","","","visual-search-circle","181","276361","0.0-14.0-0.0-1.83","5ef831c97dcd65573bbb0649","6186fb1cc52d38b480598eb7","61872c636d259af4cb95a911","2081.199999809265","","s","true","[[580,192],[422,25],[192,19],[25,177],[19,407],[177,574],[407,580],[574,422]]","false","8","","","img/Fire_Down_Target.gif","[""img/Fire_Up_Distractor.gif"",""img/Fire_Up_Distractor.gif"",""img/Fire_Up_Distractor.gif"",""img/Fire_Up_Distractor.gif"",""img/Fire_Up_Distractor.gif"",""img/Fire_Up_Distractor.gif"",""img/Fire_Up_Distractor.gif"",""img/Fire_Up_Distractor.gif"",""img/Fire_Up_Distractor.gif"",""img/Fire_Up_Distractor.gif"",""img/Fire_Up_Distractor.gif"",""img/Fire_Up_Distractor.gif""]","targetDown_distractorsUp"
"","","","","","html-keyboard-response","182","276365","0.0-14.0-0.0-0.84","5ef831c97dcd65573bbb0649","6186fb1cc52d38b480598eb7","61872c636d259af4cb95a911","null","","null","","","","","fixation","","","",""
"","","","","","visual-search-circle","183","279018","0.0-14.0-0.0-1.84","5ef831c97dcd65573bbb0649","6186fb1cc52d38b480598eb7","61872c636d259af4cb95a911","1648","","s","true","[[45,141],[35,440],[289,599],[554,458],[564,159],[310,0]]","false","6","","","img/Fire_Up_Target.gif","[""img/Fire_Down_Distractor.gif"",""img/Fire_Down_Distractor.gif"",""img/Fire_Down_Distractor.gif"",""img/Fire_Down_Distractor.gif"",""img/Fire_Down_Distractor.gif"",""img/Fire_Down_Distractor.gif"",""img/Fire_Down_Distractor.gif"",""img/Fire_Down_Distractor.gif"",""img/Fire_Down_Distractor.gif"",""img/Fire_Down_Distractor.gif"",""img/Fire_Down_Distractor.gif"",""img/Fire_Down_Distractor.gif""]","targetUp_distractorsDown"
"","","","","","html-keyboard-response","184","279019","0.0-14.0-0.0-0.85","5ef831c97dcd65573bbb0649","6186fb1cc52d38b480598eb7","61872c636d259af4cb95a911","null","","null","","","","","fixation","","","",""
"","","","","","visual-search-circle","185","281881","0.0-14.0-0.0-1.85","5ef831c97dcd65573bbb0649","6186fb1cc52d38b480598eb7","61872c636d259af4cb95a911","1855.7999999523163","","s","true","[[407,580],[574,422],[580,192],[422,25],[192,19],[25,177],[19,407],[177,574]]","false","8","","","img/Fire_Up_Target.gif","[""img/Fire_Down_Distractor.gif"",""img/Fire_Down_Distractor.gif"",""img/Fire_Down_Distractor.gif"",""img/Fire_Down_Distractor.gif"",""img/Fire_Down_Distractor.gif"",""img/Fire_Down_Distractor.gif"",""img/Fire_Down_Distractor.gif"",""img/Fire_Down_Distractor.gif"",""img/Fire_Down_Distractor.gif"",""img/Fire_Down_Distractor.gif"",""img/Fire_Down_Distractor.gif"",""img/Fire_Down_Distractor.gif""]","targetUp_distractorsDown"
"","","","","","html-keyboard-response","186","281884","0.0-14.0-0.0-0.86","5ef831c97dcd65573bbb0649","6186fb1cc52d38b480598eb7","61872c636d259af4cb95a911","null","","null","","","","","fixation","","","",""
"","","","","","visual-search-circle","187","283641","0.0-14.0-0.0-1.86","5ef831c97dcd65573bbb0649","6186fb1cc52d38b480598eb7","61872c636d259af4cb95a911","751","","d","true","[[222,589],[450,559],[589,377],[559,150],[377,10],[150,40],[10,222],[40,449]]","true","8","","","img/Fire_Down_Target.gif","[""img/Fire_Up_Distractor.gif"",""img/Fire_Up_Distractor.gif"",""img/Fire_Up_Distractor.gif"",""img/Fire_Up_Distractor.gif"",""img/Fire_Up_Distractor.gif"",""img/Fire_Up_Distractor.gif"",""img/Fire_Up_Distractor.gif"",""img/Fire_Up_Distractor.gif"",""img/Fire_Up_Distractor.gif"",""img/Fire_Up_Distractor.gif"",""img/Fire_Up_Distractor.gif"",""img/Fire_Up_Distractor.gif""]","targetDown_distractorsUp"
"","","","","","html-keyboard-response","188","283643","0.0-14.0-0.0-0.87","5ef831c97dcd65573bbb0649","6186fb1cc52d38b480598eb7","61872c636d259af4cb95a911","null","","null","","","","","fixation","","","",""
"","","","","","visual-search-circle","189","286633","0.0-14.0-0.0-1.87","5ef831c97dcd65573bbb0649","6186fb1cc52d38b480598eb7","61872c636d259af4cb95a911","1986.1999998092651","","s","true","[[412,21],[152,38],[3,252],[78,501],[319,599],[546,471],[587,214]]","false","7","","","img/Fire_Down_Target.gif","[""img/Fire_Up_Distractor.gif"",""img/Fire_Up_Distractor.gif"",""img/Fire_Up_Distractor.gif"",""img/Fire_Up_Distractor.gif"",""img/Fire_Up_Distractor.gif"",""img/Fire_Up_Distractor.gif"",""img/Fire_Up_Distractor.gif"",""img/Fire_Up_Distractor.gif"",""img/Fire_Up_Distractor.gif"",""img/Fire_Up_Distractor.gif"",""img/Fire_Up_Distractor.gif"",""img/Fire_Up_Distractor.gif""]","targetDown_distractorsUp"
"","","","","","html-keyboard-response","190","286635","0.0-14.0-0.0-0.88","5ef831c97dcd65573bbb0649","6186fb1cc52d38b480598eb7","61872c636d259af4cb95a911","null","","null","","","","","fixation","","","",""
"","","","","","visual-search-circle","191","288714","0.0-14.0-0.0-1.88","5ef831c97dcd65573bbb0649","6186fb1cc52d38b480598eb7","61872c636d259af4cb95a911","1074.0999999046326","","d","true","[[145,42],[8,227],[42,454],[227,591],[454,557],[591,372],[557,145],[372,8]]","true","8","","","img/Fire_Up_Target.gif","[""img/Fire_Down_Distractor.gif"",""img/Fire_Down_Distractor.gif"",""img/Fire_Down_Distractor.gif"",""img/Fire_Down_Distractor.gif"",""img/Fire_Down_Distractor.gif"",""img/Fire_Down_Distractor.gif"",""img/Fire_Down_Distractor.gif"",""img/Fire_Down_Distractor.gif"",""img/Fire_Down_Distractor.gif"",""img/Fire_Down_Distractor.gif"",""img/Fire_Down_Distractor.gif"",""img/Fire_Down_Distractor.gif""]","targetUp_distractorsDown"
"","","","","","html-keyboard-response","192","288720","0.0-14.0-0.0-0.89","5ef831c97dcd65573bbb0649","6186fb1cc52d38b480598eb7","61872c636d259af4cb95a911","null","","null","","","","","fixation","","","",""
"","","","","","visual-search-circle","193","291018","0.0-14.0-0.0-1.89","5ef831c97dcd65573bbb0649","6186fb1cc52d38b480598eb7","61872c636d259af4cb95a911","1293","","d","true","[[580,192],[192,19],[19,407],[407,580]]","true","4","","","img/Fire_Down_Target.gif","[""img/Fire_Up_Distractor.gif"",""img/Fire_Up_Distractor.gif"",""img/Fire_Up_Distractor.gif"",""img/Fire_Up_Distractor.gif"",""img/Fire_Up_Distractor.gif"",""img/Fire_Up_Distractor.gif"",""img/Fire_Up_Distractor.gif"",""img/Fire_Up_Distractor.gif"",""img/Fire_Up_Distractor.gif"",""img/Fire_Up_Distractor.gif"",""img/Fire_Up_Distractor.gif"",""img/Fire_Up_Distractor.gif""]","targetDown_distractorsUp"
"","","","","","html-keyboard-response","194","291020","0.0-14.0-0.0-0.90","5ef831c97dcd65573bbb0649","6186fb1cc52d38b480598eb7","61872c636d259af4cb95a911","null","","null","","","","","fixation","","","",""
"","","","","","visual-search-circle","195","293881","0.0-14.0-0.0-1.90","5ef831c97dcd65573bbb0649","6186fb1cc52d38b480598eb7","61872c636d259af4cb95a911","1858","","d","true","[[197,581],[536,484],[548,132],[217,11],[0,289]]","true","5","","","img/Fire_Up_Target.gif","[""img/Fire_Down_Distractor.gif"",""img/Fire_Down_Distractor.gif"",""img/Fire_Down_Distractor.gif"",""img/Fire_Down_Distractor.gif"",""img/Fire_Down_Distractor.gif"",""img/Fire_Down_Distractor.gif"",""img/Fire_Down_Distractor.gif"",""img/Fire_Down_Distractor.gif"",""img/Fire_Down_Distractor.gif"",""img/Fire_Down_Distractor.gif"",""img/Fire_Down_Distractor.gif"",""img/Fire_Down_Distractor.gif""]","targetUp_distractorsDown"
"","","","","","html-keyboard-response","196","293884","0.0-14.0-0.0-0.91","5ef831c97dcd65573bbb0649","6186fb1cc52d38b480598eb7","61872c636d259af4cb95a911","null","","null","","","","","fixation","","","",""
"","","","","","visual-search-circle","197","295721","0.0-14.0-0.0-1.91","5ef831c97dcd65573bbb0649","6186fb1cc52d38b480598eb7","61872c636d259af4cb95a911","834.5999999046326","","d","true","[[63,115],[115,536],[536,484],[484,63]]","true","4","","","img/Fire_Down_Target.gif","[""img/Fire_Up_Distractor.gif"",""img/Fire_Up_Distractor.gif"",""img/Fire_Up_Distractor.gif"",""img/Fire_Up_Distractor.gif"",""img/Fire_Up_Distractor.gif"",""img/Fire_Up_Distractor.gif"",""img/Fire_Up_Distractor.gif"",""img/Fire_Up_Distractor.gif"",""img/Fire_Up_Distractor.gif"",""img/Fire_Up_Distractor.gif"",""img/Fire_Up_Distractor.gif"",""img/Fire_Up_Distractor.gif""]","targetDown_distractorsUp"
"","","","","","html-keyboard-response","198","295724","0.0-14.0-0.0-0.92","5ef831c97dcd65573bbb0649","6186fb1cc52d38b480598eb7","61872c636d259af4cb95a911","null","","null","","","","","fixation","","","",""
"","","","","","visual-search-circle","199","298017","0.0-14.0-0.0-1.92","5ef831c97dcd65573bbb0649","6186fb1cc52d38b480598eb7","61872c636d259af4cb95a911","1291","","s","true","[[581,402],[402,18],[18,197],[197,581]]","false","4","","","img/Fire_Up_Target.gif","[""img/Fire_Down_Distractor.gif"",""img/Fire_Down_Distractor.gif"",""img/Fire_Down_Distractor.gif"",""img/Fire_Down_Distractor.gif"",""img/Fire_Down_Distractor.gif"",""img/Fire_Down_Distractor.gif"",""img/Fire_Down_Distractor.gif"",""img/Fire_Down_Distractor.gif"",""img/Fire_Down_Distractor.gif"",""img/Fire_Down_Distractor.gif"",""img/Fire_Down_Distractor.gif"",""img/Fire_Down_Distractor.gif""]","targetUp_distractorsDown"
"","","","","","html-keyboard-response","200","298020","0.0-14.0-0.0-0.93","5ef831c97dcd65573bbb0649","6186fb1cc52d38b480598eb7","61872c636d259af4cb95a911","null","","null","","","","","fixation","","","",""
"","","","","","visual-search-circle","201","300138","0.0-14.0-0.0-1.93","5ef831c97dcd65573bbb0649","6186fb1cc52d38b480598eb7","61872c636d259af4cb95a911","1112.8999998569489","","s","true","[[37,154],[80,504],[426,571],[597,263],[357,5]]","false","5","","","img/Fire_Up_Target.gif","[""img/Fire_Down_Distractor.gif"",""img/Fire_Down_Distractor.gif"",""img/Fire_Down_Distractor.gif"",""img/Fire_Down_Distractor.gif"",""img/Fire_Down_Distractor.gif"",""img/Fire_Down_Distractor.gif"",""img/Fire_Down_Distractor.gif"",""img/Fire_Down_Distractor.gif"",""img/Fire_Down_Distractor.gif"",""img/Fire_Down_Distractor.gif"",""img/Fire_Down_Distractor.gif"",""img/Fire_Down_Distractor.gif""]","targetUp_distractorsDown"
"","","","","","html-keyboard-response","202","300140","0.0-14.0-0.0-0.94","5ef831c97dcd65573bbb0649","6186fb1cc52d38b480598eb7","61872c636d259af4cb95a911","null","","null","","","","","fixation","","","",""
"","","","","","visual-search-circle","203","301978","0.0-14.0-0.0-1.94","5ef831c97dcd65573bbb0649","6186fb1cc52d38b480598eb7","61872c636d259af4cb95a911","832.4000000953674","","d","true","[[154,37],[4,250],[76,500],[317,599],[544,473],[588,216],[414,22]]","true","7","","","img/Fire_Up_Target.gif","[""img/Fire_Down_Distractor.gif"",""img/Fire_Down_Distractor.gif"",""img/Fire_Down_Distractor.gif"",""img/Fire_Down_Distractor.gif"",""img/Fire_Down_Distractor.gif"",""img/Fire_Down_Distractor.gif"",""img/Fire_Down_Distractor.gif"",""img/Fire_Down_Distractor.gif"",""img/Fire_Down_Distractor.gif"",""img/Fire_Down_Distractor.gif"",""img/Fire_Down_Distractor.gif"",""img/Fire_Down_Distractor.gif""]","targetUp_distractorsDown"
"","","","","","html-keyboard-response","204","301980","0.0-14.0-0.0-0.95","5ef831c97dcd65573bbb0649","6186fb1cc52d38b480598eb7","61872c636d259af4cb95a911","null","","null","","","","","fixation","","","",""
"","","","","","visual-search-circle","205","304370","0.0-14.0-0.0-1.95","5ef831c97dcd65573bbb0649","6186fb1cc52d38b480598eb7","61872c636d259af4cb95a911","1387.0999999046326","","s","true","[[539,480],[590,225],[422,26],[162,33],[5,241],[70,493],[308,599]]","false","7","","","img/Fire_Up_Target.gif","[""img/Fire_Down_Distractor.gif"",""img/Fire_Down_Distractor.gif"",""img/Fire_Down_Distractor.gif"",""img/Fire_Down_Distractor.gif"",""img/Fire_Down_Distractor.gif"",""img/Fire_Down_Distractor.gif"",""img/Fire_Down_Distractor.gif"",""img/Fire_Down_Distractor.gif"",""img/Fire_Down_Distractor.gif"",""img/Fire_Down_Distractor.gif"",""img/Fire_Down_Distractor.gif"",""img/Fire_Down_Distractor.gif""]","targetUp_distractorsDown"
"","","","","","html-keyboard-response","206","304376","0.0-14.0-0.0-0.96","5ef831c97dcd65573bbb0649","6186fb1cc52d38b480598eb7","61872c636d259af4cb95a911","null","","null","","","","","fixation","","","",""
"","","","","","visual-search-circle","207","306170","0.0-14.0-0.0-1.96","5ef831c97dcd65573bbb0649","6186fb1cc52d38b480598eb7","61872c636d259af4cb95a911","790.0999999046326","","d","true","[[222,10],[10,222],[87,512],[377,589],[589,377],[512,87]]","true","6","","","img/Fire_Up_Target.gif","[""img/Fire_Down_Distractor.gif"",""img/Fire_Down_Distractor.gif"",""img/Fire_Down_Distractor.gif"",""img/Fire_Down_Distractor.gif"",""img/Fire_Down_Distractor.gif"",""img/Fire_Down_Distractor.gif"",""img/Fire_Down_Distractor.gif"",""img/Fire_Down_Distractor.gif"",""img/Fire_Down_Distractor.gif"",""img/Fire_Down_Distractor.gif"",""img/Fire_Down_Distractor.gif"",""img/Fire_Down_Distractor.gif""]","targetUp_distractorsDown"
"","","","","","html-keyboard-response","208","306174","0.0-14.0-0.0-0.97","5ef831c97dcd65573bbb0649","6186fb1cc52d38b480598eb7","61872c636d259af4cb95a911","null","","null","","","","","fixation","","","",""
"","","","","","visual-search-circle","209","308994","0.0-14.0-0.0-1.97","5ef831c97dcd65573bbb0649","6186fb1cc52d38b480598eb7","61872c636d259af4cb95a911","1814.7999999523163","","s","true","[[247,595],[472,545],[595,352],[545,127],[352,4],[127,54],[4,247],[54,472]]","false","8","","","img/Fire_Down_Target.gif","[""img/Fire_Up_Distractor.gif"",""img/Fire_Up_Distractor.gif"",""img/Fire_Up_Distractor.gif"",""img/Fire_Up_Distractor.gif"",""img/Fire_Up_Distractor.gif"",""img/Fire_Up_Distractor.gif"",""img/Fire_Up_Distractor.gif"",""img/Fire_Up_Distractor.gif"",""img/Fire_Up_Distractor.gif"",""img/Fire_Up_Distractor.gif"",""img/Fire_Up_Distractor.gif"",""img/Fire_Up_Distractor.gif""]","targetDown_distractorsUp"
"","","","","","html-keyboard-response","210","308996","0.0-14.0-0.0-0.98","5ef831c97dcd65573bbb0649","6186fb1cc52d38b480598eb7","61872c636d259af4cb95a911","null","","null","","","","","fixation","","","",""
"","","","","","visual-search-circle","211","310882","0.0-14.0-0.0-1.98","5ef831c97dcd65573bbb0649","6186fb1cc52d38b480598eb7","61872c636d259af4cb95a911","879.6000001430511","","d","true","[[596,346],[542,123],[346,3],[123,57],[3,253],[57,476],[253,596],[476,542]]","true","8","","","img/Fire_Up_Target.gif","[""img/Fire_Down_Distractor.gif"",""img/Fire_Down_Distractor.gif"",""img/Fire_Down_Distractor.gif"",""img/Fire_Down_Distractor.gif"",""img/Fire_Down_Distractor.gif"",""img/Fire_Down_Distractor.gif"",""img/Fire_Down_Distractor.gif"",""img/Fire_Down_Distractor.gif"",""img/Fire_Down_Distractor.gif"",""img/Fire_Down_Distractor.gif"",""img/Fire_Down_Distractor.gif"",""img/Fire_Down_Distractor.gif""]","targetUp_distractorsDown"
"","","","","","html-keyboard-response","212","312170","0.0-14.0-0.0-0.99","5ef831c97dcd65573bbb0649","6186fb1cc52d38b480598eb7","61872c636d259af4cb95a911","1287.5999999046326","Wow! You've completed 100 out of 120 trials! </p> <p>  </p><p> Take a quick break, then press any key when you're ready to continue."," ","","","","","fixation","","","",""
"","","","","","visual-search-circle","213","314770","0.0-14.0-0.0-1.99","5ef831c97dcd65573bbb0649","6186fb1cc52d38b480598eb7","61872c636d259af4cb95a911","1593.8999998569489","","s","true","[[40,150],[10,377],[149,559],[377,589],[559,450],[589,222],[449,40],[222,10]]","false","8","","","img/Fire_Down_Target.gif","[""img/Fire_Up_Distractor.gif"",""img/Fire_Up_Distractor.gif"",""img/Fire_Up_Distractor.gif"",""img/Fire_Up_Distractor.gif"",""img/Fire_Up_Distractor.gif"",""img/Fire_Up_Distractor.gif"",""img/Fire_Up_Distractor.gif"",""img/Fire_Up_Distractor.gif"",""img/Fire_Up_Distractor.gif"",""img/Fire_Up_Distractor.gif"",""img/Fire_Up_Distractor.gif"",""img/Fire_Up_Distractor.gif""]","targetDown_distractorsUp"
"","","","","","html-keyboard-response","214","314773","0.0-14.0-0.0-0.100","5ef831c97dcd65573bbb0649","6186fb1cc52d38b480598eb7","61872c636d259af4cb95a911","null","","null","","","","","fixation","","","",""
"","","","","","visual-search-circle","215","317714","0.0-14.0-0.0-1.100","5ef831c97dcd65573bbb0649","6186fb1cc52d38b480598eb7","61872c636d259af4cb95a911","1936.3999998569489","","s","true","[[412,578],[578,187],[187,21],[21,412]]","false","4","","","img/Fire_Up_Target.gif","[""img/Fire_Down_Distractor.gif"",""img/Fire_Down_Distractor.gif"",""img/Fire_Down_Distractor.gif"",""img/Fire_Down_Distractor.gif"",""img/Fire_Down_Distractor.gif"",""img/Fire_Down_Distractor.gif"",""img/Fire_Down_Distractor.gif"",""img/Fire_Down_Distractor.gif"",""img/Fire_Down_Distractor.gif"",""img/Fire_Down_Distractor.gif"",""img/Fire_Down_Distractor.gif"",""img/Fire_Down_Distractor.gif""]","targetUp_distractorsDown"
"","","","","","html-keyboard-response","216","317715","0.0-14.0-0.0-0.101","5ef831c97dcd65573bbb0649","6186fb1cc52d38b480598eb7","61872c636d259af4cb95a911","null","","null","","","","","fixation","","","",""
"","","","","","visual-search-circle","217","320354","0.0-14.0-0.0-1.101","5ef831c97dcd65573bbb0649","6186fb1cc52d38b480598eb7","61872c636d259af4cb95a911","1635.6999998092651","","s","true","[[182,23],[23,417],[417,576],[576,182]]","false","4","","","img/Fire_Down_Target.gif","[""img/Fire_Up_Distractor.gif"",""img/Fire_Up_Distractor.gif"",""img/Fire_Up_Distractor.gif"",""img/Fire_Up_Distractor.gif"",""img/Fire_Up_Distractor.gif"",""img/Fire_Up_Distractor.gif"",""img/Fire_Up_Distractor.gif"",""img/Fire_Up_Distractor.gif"",""img/Fire_Up_Distractor.gif"",""img/Fire_Up_Distractor.gif"",""img/Fire_Up_Distractor.gif"",""img/Fire_Up_Distractor.gif""]","targetDown_distractorsUp"
"","","","","","html-keyboard-response","218","320356","0.0-14.0-0.0-0.102","5ef831c97dcd65573bbb0649","6186fb1cc52d38b480598eb7","61872c636d259af4cb95a911","null","","null","","","","","fixation","","","",""
"","","","","","visual-search-circle","219","322986","0.0-14.0-0.0-1.102","5ef831c97dcd65573bbb0649","6186fb1cc52d38b480598eb7","61872c636d259af4cb95a911","1625.9000000953674","","s","true","[[315,599],[544,474],[588,218],[415,23],[155,36],[4,248],[75,499]]","false","7","","","img/Fire_Down_Target.gif","[""img/Fire_Up_Distractor.gif"",""img/Fire_Up_Distractor.gif"",""img/Fire_Up_Distractor.gif"",""img/Fire_Up_Distractor.gif"",""img/Fire_Up_Distractor.gif"",""img/Fire_Up_Distractor.gif"",""img/Fire_Up_Distractor.gif"",""img/Fire_Up_Distractor.gif"",""img/Fire_Up_Distractor.gif"",""img/Fire_Up_Distractor.gif"",""img/Fire_Up_Distractor.gif"",""img/Fire_Up_Distractor.gif""]","targetDown_distractorsUp"
"","","","","","html-keyboard-response","220","322989","0.0-14.0-0.0-0.103","5ef831c97dcd65573bbb0649","6186fb1cc52d38b480598eb7","61872c636d259af4cb95a911","null","","null","","","","","fixation","","","",""
"","","","","","visual-search-circle","221","324762","0.0-14.0-0.0-1.103","5ef831c97dcd65573bbb0649","6186fb1cc52d38b480598eb7","61872c636d259af4cb95a911","767.6000001430511","","d","true","[[207,585],[500,522],[593,237],[392,14],[99,77],[6,362]]","true","6","","","img/Fire_Down_Target.gif","[""img/Fire_Up_Distractor.gif"",""img/Fire_Up_Distractor.gif"",""img/Fire_Up_Distractor.gif"",""img/Fire_Up_Distractor.gif"",""img/Fire_Up_Distractor.gif"",""img/Fire_Up_Distractor.gif"",""img/Fire_Up_Distractor.gif"",""img/Fire_Up_Distractor.gif"",""img/Fire_Up_Distractor.gif"",""img/Fire_Up_Distractor.gif"",""img/Fire_Up_Distractor.gif"",""img/Fire_Up_Distractor.gif""]","targetDown_distractorsUp"
