"success","timeout","failed_images","failed_audio","failed_video","trial_type","trial_index","time_elapsed","internal_node_id","subject_id","study_id","session_id","rt","stimulus","response","correct","locations","target_present","set_size","task","correct_response","target","foilCM","searchCondition"
"true","false","[]","[]","[]","preload","0","56630","0.0-0.0","5f2dc0823d736d0f81069b93","6186fb1cc52d38b480598eb7","618733d24be33ca9d6e738d2","","","","","","","","","","","",""
"true","","","","","fullscreen","1","213352","0.0-1.0","5f2dc0823d736d0f81069b93","6186fb1cc52d38b480598eb7","618733d24be33ca9d6e738d2","","","","","","","","","","","",""
"","","","","","html-keyboard-response","2","217833","0.0-2.0","5f2dc0823d736d0f81069b93","6186fb1cc52d38b480598eb7","618733d24be33ca9d6e738d2","4479","What a beautiful Saturday to do some awesome science! </p> <p>  </p><p> </p>
    By completing this survey or questionnaire, you are consenting to be in this research study. </p>
    Your participation is voluntary and you can stop at any time.
    <p> [Press any key to continue.] </p>
    
    "," ","","","","","","","","",""
"","","","","","video-keyboard-response","3","255058","0.0-3.0","5f2dc0823d736d0f81069b93","6186fb1cc52d38b480598eb7","618733d24be33ca9d6e738d2","37214","[""video/TaskInstructions.mp4""]","d","","","","","","","","",""
"","","","","","html-keyboard-response","4","258195","0.0-4.0","5f2dc0823d736d0f81069b93","6186fb1cc52d38b480598eb7","618733d24be33ca9d6e738d2","3136","
    <p>First, we're going to do a few practice trials to make sure you understand the task. You will recieve feedback on each trial. </p>

    <p>[Press any key to begin the familiarization phase.]</p>
    ","d","","","","","","","","",""
"","","","","","visual-search-circle","5","263874","0.0-5.0-0.0","5f2dc0823d736d0f81069b93","6186fb1cc52d38b480598eb7","618733d24be33ca9d6e738d2","4606","","d","true","[[0,315],[315,599],[599,284],[284,0]]","true","4","training","d","","",""
"","","","","","html-keyboard-response","6","265621","0.0-6.0","5f2dc0823d736d0f81069b93","6186fb1cc52d38b480598eb7","618733d24be33ca9d6e738d2","1742"," <div style='float: center; '><img src='img/feedbackRight.png'></img> </div> ","d","","","","","","","","",""
"","","","","","visual-search-circle","7","268350","0.0-7.0-0.0","5f2dc0823d736d0f81069b93","6186fb1cc52d38b480598eb7","618733d24be33ca9d6e738d2","1709","","s","true","[[77,500],[500,522],[522,99],[99,77]]","false","4","training","s","","",""
"","","","","","html-keyboard-response","8","269519","0.0-8.0","5f2dc0823d736d0f81069b93","6186fb1cc52d38b480598eb7","618733d24be33ca9d6e738d2","1166"," <div style='float: center; '><img src='img/feedbackRight.png'></img> </div> ","s","","","","","","","","",""
"","","","","","visual-search-circle","9","274666","0.0-9.0-0.0","5f2dc0823d736d0f81069b93","6186fb1cc52d38b480598eb7","618733d24be33ca9d6e738d2","4129","","s","true","[[80,504],[367,592],[586,387],[519,95],[232,7],[13,212]]","false","6","training","s","","",""
"","","","","","html-keyboard-response","10","275649","0.0-10.0","5f2dc0823d736d0f81069b93","6186fb1cc52d38b480598eb7","618733d24be33ca9d6e738d2","980"," <div style='float: center; '><img src='img/feedbackRight.png'></img> </div> ","s","","","","","","","","",""
"","","","","","visual-search-circle","11","278738","0.0-11.0-0.0","5f2dc0823d736d0f81069b93","6186fb1cc52d38b480598eb7","618733d24be33ca9d6e738d2","2070","","d","true","[[571,173],[402,18],[173,28],[18,197],[28,426],[197,581],[426,571],[581,402]]","true","8","training","d","","",""
"","","","","","html-keyboard-response","12","279683","0.0-12.0","5f2dc0823d736d0f81069b93","6186fb1cc52d38b480598eb7","618733d24be33ca9d6e738d2","943"," <div style='float: center; '><img src='img/feedbackRight.png'></img> </div> ","d","","","","","","","","",""
"","","","","","video-keyboard-response","13","283264","0.0-13.0","5f2dc0823d736d0f81069b93","6186fb1cc52d38b480598eb7","618733d24be33ca9d6e738d2","3578","[""video/endTraining.mp4""]","d","","","","","","","","",""
"","","","","","html-keyboard-response","14","283265","0.0-14.0-0.0-0.0","5f2dc0823d736d0f81069b93","6186fb1cc52d38b480598eb7","618733d24be33ca9d6e738d2","null","","null","","","","","fixation","","","",""
"","","","","","visual-search-circle","15","286897","0.0-14.0-0.0-1.0","5f2dc0823d736d0f81069b93","6186fb1cc52d38b480598eb7","618733d24be33ca9d6e738d2","2614","","s","true","[[2,341],[119,539],[341,597],[539,480],[597,258],[480,60],[258,2],[60,119]]","false","8","","","img/Fire_Down_Target.gif","[""img/Fire_Up_Distractor.gif"",""img/Fire_Up_Distractor.gif"",""img/Fire_Up_Distractor.gif"",""img/Fire_Up_Distractor.gif"",""img/Fire_Up_Distractor.gif"",""img/Fire_Up_Distractor.gif"",""img/Fire_Up_Distractor.gif"",""img/Fire_Up_Distractor.gif"",""img/Fire_Up_Distractor.gif"",""img/Fire_Up_Distractor.gif"",""img/Fire_Up_Distractor.gif"",""img/Fire_Up_Distractor.gif""]","targetDown_distractorsUp"
"","","","","","html-keyboard-response","16","286899","0.0-14.0-0.0-0.1","5f2dc0823d736d0f81069b93","6186fb1cc52d38b480598eb7","618733d24be33ca9d6e738d2","null","","null","","","","","fixation","","","",""
"","","","","","visual-search-circle","17","292965","0.0-14.0-0.0-1.1","5f2dc0823d736d0f81069b93","6186fb1cc52d38b480598eb7","618733d24be33ca9d6e738d2","5047","","s","true","[[217,11],[37,154],[11,382],[154,562],[382,588],[562,445],[588,217],[445,37]]","false","8","","","img/Fire_Up_Target.gif","[""img/Fire_Down_Distractor.gif"",""img/Fire_Down_Distractor.gif"",""img/Fire_Down_Distractor.gif"",""img/Fire_Down_Distractor.gif"",""img/Fire_Down_Distractor.gif"",""img/Fire_Down_Distractor.gif"",""img/Fire_Down_Distractor.gif"",""img/Fire_Down_Distractor.gif"",""img/Fire_Down_Distractor.gif"",""img/Fire_Down_Distractor.gif"",""img/Fire_Down_Distractor.gif"",""img/Fire_Down_Distractor.gif""]","targetUp_distractorsDown"
"","","","","","html-keyboard-response","18","292968","0.0-14.0-0.0-0.2","5f2dc0823d736d0f81069b93","6186fb1cc52d38b480598eb7","618733d24be33ca9d6e738d2","null","","null","","","","","fixation","","","",""
"","","","","","visual-search-circle","19","299252","0.0-14.0-0.0-1.2","5f2dc0823d736d0f81069b93","6186fb1cc52d38b480598eb7","618733d24be33ca9d6e738d2","5262","","s","true","[[599,310],[495,72],[243,5],[34,160],[25,420],[223,589],[478,540]]","false","7","","","img/Fire_Down_Target.gif","[""img/Fire_Up_Distractor.gif"",""img/Fire_Up_Distractor.gif"",""img/Fire_Up_Distractor.gif"",""img/Fire_Up_Distractor.gif"",""img/Fire_Up_Distractor.gif"",""img/Fire_Up_Distractor.gif"",""img/Fire_Up_Distractor.gif"",""img/Fire_Up_Distractor.gif"",""img/Fire_Up_Distractor.gif"",""img/Fire_Up_Distractor.gif"",""img/Fire_Up_Distractor.gif"",""img/Fire_Up_Distractor.gif""]","targetDown_distractorsUp"
"","","","","","html-keyboard-response","20","299253","0.0-14.0-0.0-0.3","5f2dc0823d736d0f81069b93","6186fb1cc52d38b480598eb7","618733d24be33ca9d6e738d2","null","","null","","","","","fixation","","","",""
"","","","","","visual-search-circle","21","301365","0.0-14.0-0.0-1.3","5f2dc0823d736d0f81069b93","6186fb1cc52d38b480598eb7","618733d24be33ca9d6e738d2","1093","","d","true","[[66,488],[346,596],[580,407],[533,111],[253,3],[19,192]]","true","6","","","img/Fire_Up_Target.gif","[""img/Fire_Down_Distractor.gif"",""img/Fire_Down_Distractor.gif"",""img/Fire_Down_Distractor.gif"",""img/Fire_Down_Distractor.gif"",""img/Fire_Down_Distractor.gif"",""img/Fire_Down_Distractor.gif"",""img/Fire_Down_Distractor.gif"",""img/Fire_Down_Distractor.gif"",""img/Fire_Down_Distractor.gif"",""img/Fire_Down_Distractor.gif"",""img/Fire_Down_Distractor.gif"",""img/Fire_Down_Distractor.gif""]","targetUp_distractorsDown"
"","","","","","html-keyboard-response","22","301367","0.0-14.0-0.0-0.4","5f2dc0823d736d0f81069b93","6186fb1cc52d38b480598eb7","618733d24be33ca9d6e738d2","null","","null","","","","","fixation","","","",""
"","","","","","visual-search-circle","23","303762","0.0-14.0-0.0-1.4","5f2dc0823d736d0f81069b93","6186fb1cc52d38b480598eb7","618733d24be33ca9d6e738d2","1381","","d","true","[[60,119],[23,417],[263,597],[539,480],[576,182],[336,2]]","true","6","","","img/Fire_Down_Target.gif","[""img/Fire_Up_Distractor.gif"",""img/Fire_Up_Distractor.gif"",""img/Fire_Up_Distractor.gif"",""img/Fire_Up_Distractor.gif"",""img/Fire_Up_Distractor.gif"",""img/Fire_Up_Distractor.gif"",""img/Fire_Up_Distractor.gif"",""img/Fire_Up_Distractor.gif"",""img/Fire_Up_Distractor.gif"",""img/Fire_Up_Distractor.gif"",""img/Fire_Up_Distractor.gif"",""img/Fire_Up_Distractor.gif""]","targetDown_distractorsUp"
"","","","","","html-keyboard-response","24","303765","0.0-14.0-0.0-0.5","5f2dc0823d736d0f81069b93","6186fb1cc52d38b480598eb7","618733d24be33ca9d6e738d2","null","","null","","","","","fixation","","","",""
"","","","","","visual-search-circle","25","306567","0.0-14.0-0.0-1.5","5f2dc0823d736d0f81069b93","6186fb1cc52d38b480598eb7","618733d24be33ca9d6e738d2","1795","","s","true","[[594,242],[397,16],[103,73],[5,357],[202,583],[496,526]]","false","6","","","img/Fire_Up_Target.gif","[""img/Fire_Down_Distractor.gif"",""img/Fire_Down_Distractor.gif"",""img/Fire_Down_Distractor.gif"",""img/Fire_Down_Distractor.gif"",""img/Fire_Down_Distractor.gif"",""img/Fire_Down_Distractor.gif"",""img/Fire_Down_Distractor.gif"",""img/Fire_Down_Distractor.gif"",""img/Fire_Down_Distractor.gif"",""img/Fire_Down_Distractor.gif"",""img/Fire_Down_Distractor.gif"",""img/Fire_Down_Distractor.gif""]","targetUp_distractorsDown"
"","","","","","html-keyboard-response","26","306569","0.0-14.0-0.0-0.6","5f2dc0823d736d0f81069b93","6186fb1cc52d38b480598eb7","618733d24be33ca9d6e738d2","null","","null","","","","","fixation","","","",""
"","","","","","visual-search-circle","27","308902","0.0-14.0-0.0-1.6","5f2dc0823d736d0f81069b93","6186fb1cc52d38b480598eb7","618733d24be33ca9d6e738d2","1323","","s","true","[[367,592],[586,387],[519,95],[232,7],[13,212],[80,504]]","false","6","","","img/Fire_Down_Target.gif","[""img/Fire_Up_Distractor.gif"",""img/Fire_Up_Distractor.gif"",""img/Fire_Up_Distractor.gif"",""img/Fire_Up_Distractor.gif"",""img/Fire_Up_Distractor.gif"",""img/Fire_Up_Distractor.gif"",""img/Fire_Up_Distractor.gif"",""img/Fire_Up_Distractor.gif"",""img/Fire_Up_Distractor.gif"",""img/Fire_Up_Distractor.gif"",""img/Fire_Up_Distractor.gif"",""img/Fire_Up_Distractor.gif""]","targetDown_distractorsUp"
"","","","","","html-keyboard-response","28","308902","0.0-14.0-0.0-0.7","5f2dc0823d736d0f81069b93","6186fb1cc52d38b480598eb7","618733d24be33ca9d6e738d2","null","","null","","","","","fixation","","","",""
"","","","","","visual-search-circle","29","311811","0.0-14.0-0.0-1.7","5f2dc0823d736d0f81069b93","6186fb1cc52d38b480598eb7","618733d24be33ca9d6e738d2","1897","","s","true","[[103,526],[454,557],[592,232],[326,1],[23,182]]","false","5","","","img/Fire_Up_Target.gif","[""img/Fire_Down_Distractor.gif"",""img/Fire_Down_Distractor.gif"",""img/Fire_Down_Distractor.gif"",""img/Fire_Down_Distractor.gif"",""img/Fire_Down_Distractor.gif"",""img/Fire_Down_Distractor.gif"",""img/Fire_Down_Distractor.gif"",""img/Fire_Down_Distractor.gif"",""img/Fire_Down_Distractor.gif"",""img/Fire_Down_Distractor.gif"",""img/Fire_Down_Distractor.gif"",""img/Fire_Down_Distractor.gif""]","targetUp_distractorsDown"
"","","","","","html-keyboard-response","30","311812","0.0-14.0-0.0-0.8","5f2dc0823d736d0f81069b93","6186fb1cc52d38b480598eb7","618733d24be33ca9d6e738d2","null","","null","","","","","fixation","","","",""
"","","","","","visual-search-circle","31","313649","0.0-14.0-0.0-1.8","5f2dc0823d736d0f81069b93","6186fb1cc52d38b480598eb7","618733d24be33ca9d6e738d2","829","","d","true","[[182,576],[480,539],[597,263],[417,23],[119,60],[2,336]]","true","6","","","img/Fire_Down_Target.gif","[""img/Fire_Up_Distractor.gif"",""img/Fire_Up_Distractor.gif"",""img/Fire_Up_Distractor.gif"",""img/Fire_Up_Distractor.gif"",""img/Fire_Up_Distractor.gif"",""img/Fire_Up_Distractor.gif"",""img/Fire_Up_Distractor.gif"",""img/Fire_Up_Distractor.gif"",""img/Fire_Up_Distractor.gif"",""img/Fire_Up_Distractor.gif"",""img/Fire_Up_Distractor.gif"",""img/Fire_Up_Distractor.gif""]","targetDown_distractorsUp"
"","","","","","html-keyboard-response","32","313649","0.0-14.0-0.0-0.9","5f2dc0823d736d0f81069b93","6186fb1cc52d38b480598eb7","618733d24be33ca9d6e738d2","null","","null","","","","","fixation","","","",""
"","","","","","visual-search-circle","33","315517","0.0-14.0-0.0-1.9","5f2dc0823d736d0f81069b93","6186fb1cc52d38b480598eb7","618733d24be33ca9d6e738d2","860","","d","true","[[279,0],[0,320],[320,599],[599,279]]","true","4","","","img/Fire_Down_Target.gif","[""img/Fire_Up_Distractor.gif"",""img/Fire_Up_Distractor.gif"",""img/Fire_Up_Distractor.gif"",""img/Fire_Up_Distractor.gif"",""img/Fire_Up_Distractor.gif"",""img/Fire_Up_Distractor.gif"",""img/Fire_Up_Distractor.gif"",""img/Fire_Up_Distractor.gif"",""img/Fire_Up_Distractor.gif"",""img/Fire_Up_Distractor.gif"",""img/Fire_Up_Distractor.gif"",""img/Fire_Up_Distractor.gif""]","targetDown_distractorsUp"
"","","","","","html-keyboard-response","34","315517","0.0-14.0-0.0-0.10","5f2dc0823d736d0f81069b93","6186fb1cc52d38b480598eb7","618733d24be33ca9d6e738d2","null","","null","","","","","fixation","","","",""
"","","","","","visual-search-circle","35","317778","0.0-14.0-0.0-1.10","5f2dc0823d736d0f81069b93","6186fb1cc52d38b480598eb7","618733d24be33ca9d6e738d2","1239","","s","true","[[569,431],[570,171],[368,7],[114,64],[0,298],[111,533],[365,592]]","false","7","","","img/Fire_Down_Target.gif","[""img/Fire_Up_Distractor.gif"",""img/Fire_Up_Distractor.gif"",""img/Fire_Up_Distractor.gif"",""img/Fire_Up_Distractor.gif"",""img/Fire_Up_Distractor.gif"",""img/Fire_Up_Distractor.gif"",""img/Fire_Up_Distractor.gif"",""img/Fire_Up_Distractor.gif"",""img/Fire_Up_Distractor.gif"",""img/Fire_Up_Distractor.gif"",""img/Fire_Up_Distractor.gif"",""img/Fire_Up_Distractor.gif""]","targetDown_distractorsUp"
"","","","","","html-keyboard-response","36","317779","0.0-14.0-0.0-0.11","5f2dc0823d736d0f81069b93","6186fb1cc52d38b480598eb7","618733d24be33ca9d6e738d2","null","","null","","","","","fixation","","","",""
"","","","","","visual-search-circle","37","319716","0.0-14.0-0.0-1.11","5f2dc0823d736d0f81069b93","6186fb1cc52d38b480598eb7","618733d24be33ca9d6e738d2","920","","s","true","[[594,357],[445,37],[95,80],[28,426],[336,597]]","false","5","","","img/Fire_Up_Target.gif","[""img/Fire_Down_Distractor.gif"",""img/Fire_Down_Distractor.gif"",""img/Fire_Down_Distractor.gif"",""img/Fire_Down_Distractor.gif"",""img/Fire_Down_Distractor.gif"",""img/Fire_Down_Distractor.gif"",""img/Fire_Down_Distractor.gif"",""img/Fire_Down_Distractor.gif"",""img/Fire_Down_Distractor.gif"",""img/Fire_Down_Distractor.gif"",""img/Fire_Down_Distractor.gif"",""img/Fire_Down_Distractor.gif""]","targetUp_distractorsDown"
"","","","","","html-keyboard-response","38","319718","0.0-14.0-0.0-0.12","5f2dc0823d736d0f81069b93","6186fb1cc52d38b480598eb7","618733d24be33ca9d6e738d2","null","","null","","","","","fixation","","","",""
"","","","","","visual-search-circle","39","322936","0.0-14.0-0.0-1.12","5f2dc0823d736d0f81069b93","6186fb1cc52d38b480598eb7","618733d24be33ca9d6e738d2","2206","","d","true","[[1,268],[89,513],[335,597],[555,457],[582,198],[396,16],[138,47]]","true","7","","","img/Fire_Down_Target.gif","[""img/Fire_Up_Distractor.gif"",""img/Fire_Up_Distractor.gif"",""img/Fire_Up_Distractor.gif"",""img/Fire_Up_Distractor.gif"",""img/Fire_Up_Distractor.gif"",""img/Fire_Up_Distractor.gif"",""img/Fire_Up_Distractor.gif"",""img/Fire_Up_Distractor.gif"",""img/Fire_Up_Distractor.gif"",""img/Fire_Up_Distractor.gif"",""img/Fire_Up_Distractor.gif"",""img/Fire_Up_Distractor.gif""]","targetDown_distractorsUp"
"","","","","","html-keyboard-response","40","322936","0.0-14.0-0.0-0.13","5f2dc0823d736d0f81069b93","6186fb1cc52d38b480598eb7","618733d24be33ca9d6e738d2","null","","null","","","","","fixation","","","",""
"","","","","","visual-search-circle","41","325215","0.0-14.0-0.0-1.13","5f2dc0823d736d0f81069b93","6186fb1cc52d38b480598eb7","618733d24be33ca9d6e738d2","1267","","s","true","[[585,207],[436,32],[207,14],[32,163],[14,392],[163,567],[392,585],[567,436]]","false","8","","","img/Fire_Up_Target.gif","[""img/Fire_Down_Distractor.gif"",""img/Fire_Down_Distractor.gif"",""img/Fire_Down_Distractor.gif"",""img/Fire_Down_Distractor.gif"",""img/Fire_Down_Distractor.gif"",""img/Fire_Down_Distractor.gif"",""img/Fire_Down_Distractor.gif"",""img/Fire_Down_Distractor.gif"",""img/Fire_Down_Distractor.gif"",""img/Fire_Down_Distractor.gif"",""img/Fire_Down_Distractor.gif"",""img/Fire_Down_Distractor.gif""]","targetUp_distractorsDown"
"","","","","","html-keyboard-response","42","325216","0.0-14.0-0.0-0.14","5f2dc0823d736d0f81069b93","6186fb1cc52d38b480598eb7","618733d24be33ca9d6e738d2","null","","null","","","","","fixation","","","",""
"","","","","","visual-search-circle","43","327075","0.0-14.0-0.0-1.14","5f2dc0823d736d0f81069b93","6186fb1cc52d38b480598eb7","618733d24be33ca9d6e738d2","843","","d","true","[[580,407],[407,19],[19,192],[192,580]]","true","4","","","img/Fire_Up_Target.gif","[""img/Fire_Down_Distractor.gif"",""img/Fire_Down_Distractor.gif"",""img/Fire_Down_Distractor.gif"",""img/Fire_Down_Distractor.gif"",""img/Fire_Down_Distractor.gif"",""img/Fire_Down_Distractor.gif"",""img/Fire_Down_Distractor.gif"",""img/Fire_Down_Distractor.gif"",""img/Fire_Down_Distractor.gif"",""img/Fire_Down_Distractor.gif"",""img/Fire_Down_Distractor.gif"",""img/Fire_Down_Distractor.gif""]","targetUp_distractorsDown"
"","","","","","html-keyboard-response","44","327078","0.0-14.0-0.0-0.15","5f2dc0823d736d0f81069b93","6186fb1cc52d38b480598eb7","618733d24be33ca9d6e738d2","null","","null","","","","","fixation","","","",""
"","","","","","visual-search-circle","45","329243","0.0-14.0-0.0-1.15","5f2dc0823d736d0f81069b93","6186fb1cc52d38b480598eb7","618733d24be33ca9d6e738d2","1147","","d","true","[[177,25],[1,268],[123,542],[422,574],[598,331],[476,57]]","true","6","","","img/Fire_Up_Target.gif","[""img/Fire_Down_Distractor.gif"",""img/Fire_Down_Distractor.gif"",""img/Fire_Down_Distractor.gif"",""img/Fire_Down_Distractor.gif"",""img/Fire_Down_Distractor.gif"",""img/Fire_Down_Distractor.gif"",""img/Fire_Down_Distractor.gif"",""img/Fire_Down_Distractor.gif"",""img/Fire_Down_Distractor.gif"",""img/Fire_Down_Distractor.gif"",""img/Fire_Down_Distractor.gif"",""img/Fire_Down_Distractor.gif""]","targetUp_distractorsDown"
"","","","","","html-keyboard-response","46","329244","0.0-14.0-0.0-0.16","5f2dc0823d736d0f81069b93","6186fb1cc52d38b480598eb7","618733d24be33ca9d6e738d2","null","","null","","","","","fixation","","","",""
"","","","","","visual-search-circle","47","331314","0.0-14.0-0.0-1.16","5f2dc0823d736d0f81069b93","6186fb1cc52d38b480598eb7","618733d24be33ca9d6e738d2","1055","","s","true","[[599,294],[294,0],[0,305],[305,599]]","false","4","","","img/Fire_Up_Target.gif","[""img/Fire_Down_Distractor.gif"",""img/Fire_Down_Distractor.gif"",""img/Fire_Down_Distractor.gif"",""img/Fire_Down_Distractor.gif"",""img/Fire_Down_Distractor.gif"",""img/Fire_Down_Distractor.gif"",""img/Fire_Down_Distractor.gif"",""img/Fire_Down_Distractor.gif"",""img/Fire_Down_Distractor.gif"",""img/Fire_Down_Distractor.gif"",""img/Fire_Down_Distractor.gif"",""img/Fire_Down_Distractor.gif""]","targetUp_distractorsDown"
"","","","","","html-keyboard-response","48","331315","0.0-14.0-0.0-0.17","5f2dc0823d736d0f81069b93","6186fb1cc52d38b480598eb7","618733d24be33ca9d6e738d2","null","","null","","","","","fixation","","","",""
"","","","","","visual-search-circle","49","333233","0.0-14.0-0.0-1.17","5f2dc0823d736d0f81069b93","6186fb1cc52d38b480598eb7","618733d24be33ca9d6e738d2","910","","s","true","[[0,310],[217,588],[548,467],[536,115],[197,18]]","false","5","","","img/Fire_Down_Target.gif","[""img/Fire_Up_Distractor.gif"",""img/Fire_Up_Distractor.gif"",""img/Fire_Up_Distractor.gif"",""img/Fire_Up_Distractor.gif"",""img/Fire_Up_Distractor.gif"",""img/Fire_Up_Distractor.gif"",""img/Fire_Up_Distractor.gif"",""img/Fire_Up_Distractor.gif"",""img/Fire_Up_Distractor.gif"",""img/Fire_Up_Distractor.gif"",""img/Fire_Up_Distractor.gif"",""img/Fire_Up_Distractor.gif""]","targetDown_distractorsUp"
"","","","","","html-keyboard-response","50","333234","0.0-14.0-0.0-0.18","5f2dc0823d736d0f81069b93","6186fb1cc52d38b480598eb7","618733d24be33ca9d6e738d2","null","","null","","","","","fixation","","","",""
"","","","","","visual-search-circle","51","334975","0.0-14.0-0.0-1.18","5f2dc0823d736d0f81069b93","6186fb1cc52d38b480598eb7","618733d24be33ca9d6e738d2","735","","s","true","[[25,177],[177,574],[574,422],[422,25]]","false","4","","","img/Fire_Down_Target.gif","[""img/Fire_Up_Distractor.gif"",""img/Fire_Up_Distractor.gif"",""img/Fire_Up_Distractor.gif"",""img/Fire_Up_Distractor.gif"",""img/Fire_Up_Distractor.gif"",""img/Fire_Up_Distractor.gif"",""img/Fire_Up_Distractor.gif"",""img/Fire_Up_Distractor.gif"",""img/Fire_Up_Distractor.gif"",""img/Fire_Up_Distractor.gif"",""img/Fire_Up_Distractor.gif"",""img/Fire_Up_Distractor.gif""]","targetDown_distractorsUp"
"","","","","","html-keyboard-response","52","336649","0.0-14.0-0.0-0.19","5f2dc0823d736d0f81069b93","6186fb1cc52d38b480598eb7","618733d24be33ca9d6e738d2","1674","Wow! You've completed 20 out of 120 trials! </p> <p>  </p><p> Take a quick break, then press any key when you're ready to continue."," ","","","","","fixation","","","",""
"","","","","","visual-search-circle","53","339157","0.0-14.0-0.0-1.19","5f2dc0823d736d0f81069b93","6186fb1cc52d38b480598eb7","618733d24be33ca9d6e738d2","1490","","d","true","[[458,45],[159,35],[0,289],[141,554],[440,564],[599,310]]","true","6","","","img/Fire_Up_Target.gif","[""img/Fire_Down_Distractor.gif"",""img/Fire_Down_Distractor.gif"",""img/Fire_Down_Distractor.gif"",""img/Fire_Down_Distractor.gif"",""img/Fire_Down_Distractor.gif"",""img/Fire_Down_Distractor.gif"",""img/Fire_Down_Distractor.gif"",""img/Fire_Down_Distractor.gif"",""img/Fire_Down_Distractor.gif"",""img/Fire_Down_Distractor.gif"",""img/Fire_Down_Distractor.gif"",""img/Fire_Down_Distractor.gif""]","targetUp_distractorsDown"
"","","","","","html-keyboard-response","54","339158","0.0-14.0-0.0-0.20","5f2dc0823d736d0f81069b93","6186fb1cc52d38b480598eb7","618733d24be33ca9d6e738d2","null","","null","","","","","fixation","","","",""
"","","","","","visual-search-circle","55","340881","0.0-14.0-0.0-1.20","5f2dc0823d736d0f81069b93","6186fb1cc52d38b480598eb7","618733d24be33ca9d6e738d2","704","","s","true","[[289,0],[59,121],[10,376],[179,574],[439,565],[594,356],[527,104]]","false","7","","","img/Fire_Down_Target.gif","[""img/Fire_Up_Distractor.gif"",""img/Fire_Up_Distractor.gif"",""img/Fire_Up_Distractor.gif"",""img/Fire_Up_Distractor.gif"",""img/Fire_Up_Distractor.gif"",""img/Fire_Up_Distractor.gif"",""img/Fire_Up_Distractor.gif"",""img/Fire_Up_Distractor.gif"",""img/Fire_Up_Distractor.gif"",""img/Fire_Up_Distractor.gif"",""img/Fire_Up_Distractor.gif"",""img/Fire_Up_Distractor.gif""]","targetDown_distractorsUp"
"","","","","","html-keyboard-response","56","340881","0.0-14.0-0.0-0.21","5f2dc0823d736d0f81069b93","6186fb1cc52d38b480598eb7","618733d24be33ca9d6e738d2","null","","null","","","","","fixation","","","",""
"","","","","","visual-search-circle","57","343452","0.0-14.0-0.0-1.21","5f2dc0823d736d0f81069b93","6186fb1cc52d38b480598eb7","618733d24be33ca9d6e738d2","1558","","s","true","[[589,222],[419,25],[159,34],[5,244],[72,495],[311,599],[541,478]]","false","7","","","img/Fire_Up_Target.gif","[""img/Fire_Down_Distractor.gif"",""img/Fire_Down_Distractor.gif"",""img/Fire_Down_Distractor.gif"",""img/Fire_Down_Distractor.gif"",""img/Fire_Down_Distractor.gif"",""img/Fire_Down_Distractor.gif"",""img/Fire_Down_Distractor.gif"",""img/Fire_Down_Distractor.gif"",""img/Fire_Down_Distractor.gif"",""img/Fire_Down_Distractor.gif"",""img/Fire_Down_Distractor.gif"",""img/Fire_Down_Distractor.gif""]","targetUp_distractorsDown"
"","","","","","html-keyboard-response","58","343452","0.0-14.0-0.0-0.22","5f2dc0823d736d0f81069b93","6186fb1cc52d38b480598eb7","618733d24be33ca9d6e738d2","null","","null","","","","","fixation","","","",""
"","","","","","visual-search-circle","59","345344","0.0-14.0-0.0-1.22","5f2dc0823d736d0f81069b93","6186fb1cc52d38b480598eb7","618733d24be33ca9d6e738d2","858","","s","true","[[484,63],[263,2],[63,115],[2,336],[115,536],[336,597],[536,484],[597,263]]","false","8","","","img/Fire_Up_Target.gif","[""img/Fire_Down_Distractor.gif"",""img/Fire_Down_Distractor.gif"",""img/Fire_Down_Distractor.gif"",""img/Fire_Down_Distractor.gif"",""img/Fire_Down_Distractor.gif"",""img/Fire_Down_Distractor.gif"",""img/Fire_Down_Distractor.gif"",""img/Fire_Down_Distractor.gif"",""img/Fire_Down_Distractor.gif"",""img/Fire_Down_Distractor.gif"",""img/Fire_Down_Distractor.gif"",""img/Fire_Down_Distractor.gif""]","targetUp_distractorsDown"
"","","","","","html-keyboard-response","60","345344","0.0-14.0-0.0-0.23","5f2dc0823d736d0f81069b93","6186fb1cc52d38b480598eb7","618733d24be33ca9d6e738d2","null","","null","","","","","fixation","","","",""
"","","","","","visual-search-circle","61","347203","0.0-14.0-0.0-1.23","5f2dc0823d736d0f81069b93","6186fb1cc52d38b480598eb7","618733d24be33ca9d6e738d2","848","","s","true","[[397,16],[16,202],[202,583],[583,397]]","false","4","","","img/Fire_Down_Target.gif","[""img/Fire_Up_Distractor.gif"",""img/Fire_Up_Distractor.gif"",""img/Fire_Up_Distractor.gif"",""img/Fire_Up_Distractor.gif"",""img/Fire_Up_Distractor.gif"",""img/Fire_Up_Distractor.gif"",""img/Fire_Up_Distractor.gif"",""img/Fire_Up_Distractor.gif"",""img/Fire_Up_Distractor.gif"",""img/Fire_Up_Distractor.gif"",""img/Fire_Up_Distractor.gif"",""img/Fire_Up_Distractor.gif""]","targetDown_distractorsUp"
"","","","","","html-keyboard-response","62","347203","0.0-14.0-0.0-0.24","5f2dc0823d736d0f81069b93","6186fb1cc52d38b480598eb7","618733d24be33ca9d6e738d2","null","","null","","","","","fixation","","","",""
"","","","","","visual-search-circle","63","348982","0.0-14.0-0.0-1.24","5f2dc0823d736d0f81069b93","6186fb1cc52d38b480598eb7","618733d24be33ca9d6e738d2","762","","s","true","[[273,1],[1,326],[326,598],[598,273]]","false","4","","","img/Fire_Down_Target.gif","[""img/Fire_Up_Distractor.gif"",""img/Fire_Up_Distractor.gif"",""img/Fire_Up_Distractor.gif"",""img/Fire_Up_Distractor.gif"",""img/Fire_Up_Distractor.gif"",""img/Fire_Up_Distractor.gif"",""img/Fire_Up_Distractor.gif"",""img/Fire_Up_Distractor.gif"",""img/Fire_Up_Distractor.gif"",""img/Fire_Up_Distractor.gif"",""img/Fire_Up_Distractor.gif"",""img/Fire_Up_Distractor.gif""]","targetDown_distractorsUp"
"","","","","","html-keyboard-response","64","348983","0.0-14.0-0.0-0.25","5f2dc0823d736d0f81069b93","6186fb1cc52d38b480598eb7","618733d24be33ca9d6e738d2","null","","null","","","","","fixation","","","",""
"","","","","","visual-search-circle","65","350651","0.0-14.0-0.0-1.25","5f2dc0823d736d0f81069b93","6186fb1cc52d38b480598eb7","618733d24be33ca9d6e738d2","661","","d","true","[[557,454],[526,103],[182,23],[1,326],[232,592]]","true","5","","","img/Fire_Down_Target.gif","[""img/Fire_Up_Distractor.gif"",""img/Fire_Up_Distractor.gif"",""img/Fire_Up_Distractor.gif"",""img/Fire_Up_Distractor.gif"",""img/Fire_Up_Distractor.gif"",""img/Fire_Up_Distractor.gif"",""img/Fire_Up_Distractor.gif"",""img/Fire_Up_Distractor.gif"",""img/Fire_Up_Distractor.gif"",""img/Fire_Up_Distractor.gif"",""img/Fire_Up_Distractor.gif"",""img/Fire_Up_Distractor.gif""]","targetDown_distractorsUp"
"","","","","","html-keyboard-response","66","350651","0.0-14.0-0.0-0.26","5f2dc0823d736d0f81069b93","6186fb1cc52d38b480598eb7","618733d24be33ca9d6e738d2","null","","null","","","","","fixation","","","",""
"","","","","","visual-search-circle","67","352388","0.0-14.0-0.0-1.26","5f2dc0823d736d0f81069b93","6186fb1cc52d38b480598eb7","618733d24be33ca9d6e738d2","720","","d","true","[[247,4],[54,127],[4,352],[127,545],[352,595],[545,472],[595,247],[472,54]]","true","8","","","img/Fire_Down_Target.gif","[""img/Fire_Up_Distractor.gif"",""img/Fire_Up_Distractor.gif"",""img/Fire_Up_Distractor.gif"",""img/Fire_Up_Distractor.gif"",""img/Fire_Up_Distractor.gif"",""img/Fire_Up_Distractor.gif"",""img/Fire_Up_Distractor.gif"",""img/Fire_Up_Distractor.gif"",""img/Fire_Up_Distractor.gif"",""img/Fire_Up_Distractor.gif"",""img/Fire_Up_Distractor.gif"",""img/Fire_Up_Distractor.gif""]","targetDown_distractorsUp"
"","","","","","html-keyboard-response","68","352390","0.0-14.0-0.0-0.27","5f2dc0823d736d0f81069b93","6186fb1cc52d38b480598eb7","618733d24be33ca9d6e738d2","null","","null","","","","","fixation","","","",""
"","","","","","visual-search-circle","69","354623","0.0-14.0-0.0-1.27","5f2dc0823d736d0f81069b93","6186fb1cc52d38b480598eb7","618733d24be33ca9d6e738d2","1224","","s","true","[[488,533],[533,111],[111,66],[66,488]]","false","4","","","img/Fire_Down_Target.gif","[""img/Fire_Up_Distractor.gif"",""img/Fire_Up_Distractor.gif"",""img/Fire_Up_Distractor.gif"",""img/Fire_Up_Distractor.gif"",""img/Fire_Up_Distractor.gif"",""img/Fire_Up_Distractor.gif"",""img/Fire_Up_Distractor.gif"",""img/Fire_Up_Distractor.gif"",""img/Fire_Up_Distractor.gif"",""img/Fire_Up_Distractor.gif"",""img/Fire_Up_Distractor.gif"",""img/Fire_Up_Distractor.gif""]","targetDown_distractorsUp"
"","","","","","html-keyboard-response","70","354624","0.0-14.0-0.0-0.28","5f2dc0823d736d0f81069b93","6186fb1cc52d38b480598eb7","618733d24be33ca9d6e738d2","null","","null","","","","","fixation","","","",""
"","","","","","visual-search-circle","71","356274","0.0-14.0-0.0-1.28","5f2dc0823d736d0f81069b93","6186fb1cc52d38b480598eb7","618733d24be33ca9d6e738d2","641","","s","true","[[63,115],[115,536],[536,484],[484,63]]","false","4","","","img/Fire_Down_Target.gif","[""img/Fire_Up_Distractor.gif"",""img/Fire_Up_Distractor.gif"",""img/Fire_Up_Distractor.gif"",""img/Fire_Up_Distractor.gif"",""img/Fire_Up_Distractor.gif"",""img/Fire_Up_Distractor.gif"",""img/Fire_Up_Distractor.gif"",""img/Fire_Up_Distractor.gif"",""img/Fire_Up_Distractor.gif"",""img/Fire_Up_Distractor.gif"",""img/Fire_Up_Distractor.gif"",""img/Fire_Up_Distractor.gif""]","targetDown_distractorsUp"
"","","","","","html-keyboard-response","72","356274","0.0-14.0-0.0-0.29","5f2dc0823d736d0f81069b93","6186fb1cc52d38b480598eb7","618733d24be33ca9d6e738d2","null","","null","","","","","fixation","","","",""
"","","","","","visual-search-circle","73","357951","0.0-14.0-0.0-1.29","5f2dc0823d736d0f81069b93","6186fb1cc52d38b480598eb7","618733d24be33ca9d6e738d2","657","","s","true","[[458,45],[232,7],[45,141],[7,367],[141,554],[367,592],[554,458],[592,232]]","false","8","","","img/Fire_Down_Target.gif","[""img/Fire_Up_Distractor.gif"",""img/Fire_Up_Distractor.gif"",""img/Fire_Up_Distractor.gif"",""img/Fire_Up_Distractor.gif"",""img/Fire_Up_Distractor.gif"",""img/Fire_Up_Distractor.gif"",""img/Fire_Up_Distractor.gif"",""img/Fire_Up_Distractor.gif"",""img/Fire_Up_Distractor.gif"",""img/Fire_Up_Distractor.gif"",""img/Fire_Up_Distractor.gif"",""img/Fire_Up_Distractor.gif""]","targetDown_distractorsUp"
"","","","","","html-keyboard-response","74","357952","0.0-14.0-0.0-0.30","5f2dc0823d736d0f81069b93","6186fb1cc52d38b480598eb7","618733d24be33ca9d6e738d2","null","","null","","","","","fixation","","","",""
"","","","","","visual-search-circle","75","359541","0.0-14.0-0.0-1.30","5f2dc0823d736d0f81069b93","6186fb1cc52d38b480598eb7","618733d24be33ca9d6e738d2","576","","d","true","[[496,73],[279,0],[73,103],[0,320],[103,526],[320,599],[526,496],[599,279]]","true","8","","","img/Fire_Down_Target.gif","[""img/Fire_Up_Distractor.gif"",""img/Fire_Up_Distractor.gif"",""img/Fire_Up_Distractor.gif"",""img/Fire_Up_Distractor.gif"",""img/Fire_Up_Distractor.gif"",""img/Fire_Up_Distractor.gif"",""img/Fire_Up_Distractor.gif"",""img/Fire_Up_Distractor.gif"",""img/Fire_Up_Distractor.gif"",""img/Fire_Up_Distractor.gif"",""img/Fire_Up_Distractor.gif"",""img/Fire_Up_Distractor.gif""]","targetDown_distractorsUp"
"","","","","","html-keyboard-response","76","359541","0.0-14.0-0.0-0.31","5f2dc0823d736d0f81069b93","6186fb1cc52d38b480598eb7","618733d24be33ca9d6e738d2","null","","null","","","","","fixation","","","",""
"","","","","","visual-search-circle","77","361720","0.0-14.0-0.0-1.31","5f2dc0823d736d0f81069b93","6186fb1cc52d38b480598eb7","618733d24be33ca9d6e738d2","1168","","d","true","[[202,16],[17,199],[45,458],[264,597],[511,513],[598,267],[460,46]]","true","7","","","img/Fire_Down_Target.gif","[""img/Fire_Up_Distractor.gif"",""img/Fire_Up_Distractor.gif"",""img/Fire_Up_Distractor.gif"",""img/Fire_Up_Distractor.gif"",""img/Fire_Up_Distractor.gif"",""img/Fire_Up_Distractor.gif"",""img/Fire_Up_Distractor.gif"",""img/Fire_Up_Distractor.gif"",""img/Fire_Up_Distractor.gif"",""img/Fire_Up_Distractor.gif"",""img/Fire_Up_Distractor.gif"",""img/Fire_Up_Distractor.gif""]","targetDown_distractorsUp"
"","","","","","html-keyboard-response","78","361722","0.0-14.0-0.0-0.32","5f2dc0823d736d0f81069b93","6186fb1cc52d38b480598eb7","618733d24be33ca9d6e738d2","null","","null","","","","","fixation","","","",""
"","","","","","visual-search-circle","79","364562","0.0-14.0-0.0-1.32","5f2dc0823d736d0f81069b93","6186fb1cc52d38b480598eb7","618733d24be33ca9d6e738d2","1826","","d","true","[[28,426],[197,581],[426,571],[581,402],[571,173],[402,18],[173,28],[18,197]]","true","8","","","img/Fire_Down_Target.gif","[""img/Fire_Up_Distractor.gif"",""img/Fire_Up_Distractor.gif"",""img/Fire_Up_Distractor.gif"",""img/Fire_Up_Distractor.gif"",""img/Fire_Up_Distractor.gif"",""img/Fire_Up_Distractor.gif"",""img/Fire_Up_Distractor.gif"",""img/Fire_Up_Distractor.gif"",""img/Fire_Up_Distractor.gif"",""img/Fire_Up_Distractor.gif"",""img/Fire_Up_Distractor.gif"",""img/Fire_Up_Distractor.gif""]","targetDown_distractorsUp"
"","","","","","html-keyboard-response","80","364563","0.0-14.0-0.0-0.33","5f2dc0823d736d0f81069b93","6186fb1cc52d38b480598eb7","618733d24be33ca9d6e738d2","null","","null","","","","","fixation","","","",""
"","","","","","visual-search-circle","81","369077","0.0-14.0-0.0-1.33","5f2dc0823d736d0f81069b93","6186fb1cc52d38b480598eb7","618733d24be33ca9d6e738d2","3499","","s","false","[[377,589],[589,222],[222,10],[10,377]]","true","4","","","img/Fire_Up_Target.gif","[""img/Fire_Down_Distractor.gif"",""img/Fire_Down_Distractor.gif"",""img/Fire_Down_Distractor.gif"",""img/Fire_Down_Distractor.gif"",""img/Fire_Down_Distractor.gif"",""img/Fire_Down_Distractor.gif"",""img/Fire_Down_Distractor.gif"",""img/Fire_Down_Distractor.gif"",""img/Fire_Down_Distractor.gif"",""img/Fire_Down_Distractor.gif"",""img/Fire_Down_Distractor.gif"",""img/Fire_Down_Distractor.gif""]","targetUp_distractorsDown"
"","","","","","html-keyboard-response","82","369078","0.0-14.0-0.0-0.34","5f2dc0823d736d0f81069b93","6186fb1cc52d38b480598eb7","618733d24be33ca9d6e738d2","null","","null","","","","","fixation","","","",""
"","","","","","visual-search-circle","83","371864","0.0-14.0-0.0-1.34","5f2dc0823d736d0f81069b93","6186fb1cc52d38b480598eb7","618733d24be33ca9d6e738d2","1780","","d","true","[[578,187],[187,21],[21,412],[412,578]]","true","4","","","img/Fire_Up_Target.gif","[""img/Fire_Down_Distractor.gif"",""img/Fire_Down_Distractor.gif"",""img/Fire_Down_Distractor.gif"",""img/Fire_Down_Distractor.gif"",""img/Fire_Down_Distractor.gif"",""img/Fire_Down_Distractor.gif"",""img/Fire_Down_Distractor.gif"",""img/Fire_Down_Distractor.gif"",""img/Fire_Down_Distractor.gif"",""img/Fire_Down_Distractor.gif"",""img/Fire_Down_Distractor.gif"",""img/Fire_Down_Distractor.gif""]","targetUp_distractorsDown"
"","","","","","html-keyboard-response","84","371865","0.0-14.0-0.0-0.35","5f2dc0823d736d0f81069b93","6186fb1cc52d38b480598eb7","618733d24be33ca9d6e738d2","null","","null","","","","","fixation","","","",""
"","","","","","visual-search-circle","85","373572","0.0-14.0-0.0-1.35","5f2dc0823d736d0f81069b93","6186fb1cc52d38b480598eb7","618733d24be33ca9d6e738d2","694","","d","true","[[488,66],[268,1],[66,111],[1,331],[111,533],[331,598],[533,488],[598,268]]","true","8","","","img/Fire_Down_Target.gif","[""img/Fire_Up_Distractor.gif"",""img/Fire_Up_Distractor.gif"",""img/Fire_Up_Distractor.gif"",""img/Fire_Up_Distractor.gif"",""img/Fire_Up_Distractor.gif"",""img/Fire_Up_Distractor.gif"",""img/Fire_Up_Distractor.gif"",""img/Fire_Up_Distractor.gif"",""img/Fire_Up_Distractor.gif"",""img/Fire_Up_Distractor.gif"",""img/Fire_Up_Distractor.gif"",""img/Fire_Up_Distractor.gif""]","targetDown_distractorsUp"
"","","","","","html-keyboard-response","86","373573","0.0-14.0-0.0-0.36","5f2dc0823d736d0f81069b93","6186fb1cc52d38b480598eb7","618733d24be33ca9d6e738d2","null","","null","","","","","fixation","","","",""
"","","","","","visual-search-circle","87","375997","0.0-14.0-0.0-1.36","5f2dc0823d736d0f81069b93","6186fb1cc52d38b480598eb7","618733d24be33ca9d6e738d2","1409","","s","true","[[315,599],[544,474],[588,218],[415,23],[155,36],[4,248],[75,499]]","false","7","","","img/Fire_Down_Target.gif","[""img/Fire_Up_Distractor.gif"",""img/Fire_Up_Distractor.gif"",""img/Fire_Up_Distractor.gif"",""img/Fire_Up_Distractor.gif"",""img/Fire_Up_Distractor.gif"",""img/Fire_Up_Distractor.gif"",""img/Fire_Up_Distractor.gif"",""img/Fire_Up_Distractor.gif"",""img/Fire_Up_Distractor.gif"",""img/Fire_Up_Distractor.gif"",""img/Fire_Up_Distractor.gif"",""img/Fire_Up_Distractor.gif""]","targetDown_distractorsUp"
"","","","","","html-keyboard-response","88","375998","0.0-14.0-0.0-0.37","5f2dc0823d736d0f81069b93","6186fb1cc52d38b480598eb7","618733d24be33ca9d6e738d2","null","","null","","","","","fixation","","","",""
"","","","","","visual-search-circle","89","377953","0.0-14.0-0.0-1.37","5f2dc0823d736d0f81069b93","6186fb1cc52d38b480598eb7","618733d24be33ca9d6e738d2","943","","d","true","[[3,253],[163,567],[512,512],[567,163],[253,3]]","true","5","","","img/Fire_Up_Target.gif","[""img/Fire_Down_Distractor.gif"",""img/Fire_Down_Distractor.gif"",""img/Fire_Down_Distractor.gif"",""img/Fire_Down_Distractor.gif"",""img/Fire_Down_Distractor.gif"",""img/Fire_Down_Distractor.gif"",""img/Fire_Down_Distractor.gif"",""img/Fire_Down_Distractor.gif"",""img/Fire_Down_Distractor.gif"",""img/Fire_Down_Distractor.gif"",""img/Fire_Down_Distractor.gif"",""img/Fire_Down_Distractor.gif""]","targetUp_distractorsDown"
"","","","","","html-keyboard-response","90","377953","0.0-14.0-0.0-0.38","5f2dc0823d736d0f81069b93","6186fb1cc52d38b480598eb7","618733d24be33ca9d6e738d2","null","","null","","","","","fixation","","","",""
"","","","","","visual-search-circle","91","379586","0.0-14.0-0.0-1.38","5f2dc0823d736d0f81069b93","6186fb1cc52d38b480598eb7","618733d24be33ca9d6e738d2","615","","d","true","[[284,0],[55,125],[11,381],[184,576],[444,563],[595,351],[524,100]]","true","7","","","img/Fire_Down_Target.gif","[""img/Fire_Up_Distractor.gif"",""img/Fire_Up_Distractor.gif"",""img/Fire_Up_Distractor.gif"",""img/Fire_Up_Distractor.gif"",""img/Fire_Up_Distractor.gif"",""img/Fire_Up_Distractor.gif"",""img/Fire_Up_Distractor.gif"",""img/Fire_Up_Distractor.gif"",""img/Fire_Up_Distractor.gif"",""img/Fire_Up_Distractor.gif"",""img/Fire_Up_Distractor.gif"",""img/Fire_Up_Distractor.gif""]","targetDown_distractorsUp"
"","","","","","html-keyboard-response","92","380484","0.0-14.0-0.0-0.39","5f2dc0823d736d0f81069b93","6186fb1cc52d38b480598eb7","618733d24be33ca9d6e738d2","897","Wow! You've completed 40 out of 120 trials! </p> <p>  </p><p> Take a quick break, then press any key when you're ready to continue.","d","","","","","fixation","","","",""
"","","","","","visual-search-circle","93","382179","0.0-14.0-0.0-1.39","5f2dc0823d736d0f81069b93","6186fb1cc52d38b480598eb7","618733d24be33ca9d6e738d2","683","","d","true","[[232,7],[29,170],[30,430],[233,592],[487,534],[599,299],[486,64]]","true","7","","","img/Fire_Down_Target.gif","[""img/Fire_Up_Distractor.gif"",""img/Fire_Up_Distractor.gif"",""img/Fire_Up_Distractor.gif"",""img/Fire_Up_Distractor.gif"",""img/Fire_Up_Distractor.gif"",""img/Fire_Up_Distractor.gif"",""img/Fire_Up_Distractor.gif"",""img/Fire_Up_Distractor.gif"",""img/Fire_Up_Distractor.gif"",""img/Fire_Up_Distractor.gif"",""img/Fire_Up_Distractor.gif"",""img/Fire_Up_Distractor.gif""]","targetDown_distractorsUp"
"","","","","","html-keyboard-response","94","382180","0.0-14.0-0.0-0.40","5f2dc0823d736d0f81069b93","6186fb1cc52d38b480598eb7","618733d24be33ca9d6e738d2","null","","null","","","","","fixation","","","",""
"","","","","","visual-search-circle","95","384303","0.0-14.0-0.0-1.40","5f2dc0823d736d0f81069b93","6186fb1cc52d38b480598eb7","618733d24be33ca9d6e738d2","1107","","d","true","[[173,571],[402,581],[571,426],[581,197],[426,28],[197,18],[28,173],[18,402]]","true","8","","","img/Fire_Up_Target.gif","[""img/Fire_Down_Distractor.gif"",""img/Fire_Down_Distractor.gif"",""img/Fire_Down_Distractor.gif"",""img/Fire_Down_Distractor.gif"",""img/Fire_Down_Distractor.gif"",""img/Fire_Down_Distractor.gif"",""img/Fire_Down_Distractor.gif"",""img/Fire_Down_Distractor.gif"",""img/Fire_Down_Distractor.gif"",""img/Fire_Down_Distractor.gif"",""img/Fire_Down_Distractor.gif"",""img/Fire_Down_Distractor.gif""]","targetUp_distractorsDown"
"","","","","","html-keyboard-response","96","384304","0.0-14.0-0.0-0.41","5f2dc0823d736d0f81069b93","6186fb1cc52d38b480598eb7","618733d24be33ca9d6e738d2","null","","null","","","","","fixation","","","",""
"","","","","","visual-search-circle","97","386634","0.0-14.0-0.0-1.41","5f2dc0823d736d0f81069b93","6186fb1cc52d38b480598eb7","618733d24be33ca9d6e738d2","1316","","s","true","[[567,436],[585,207],[436,32],[207,14],[32,163],[14,392],[163,567],[392,585]]","false","8","","","img/Fire_Down_Target.gif","[""img/Fire_Up_Distractor.gif"",""img/Fire_Up_Distractor.gif"",""img/Fire_Up_Distractor.gif"",""img/Fire_Up_Distractor.gif"",""img/Fire_Up_Distractor.gif"",""img/Fire_Up_Distractor.gif"",""img/Fire_Up_Distractor.gif"",""img/Fire_Up_Distractor.gif"",""img/Fire_Up_Distractor.gif"",""img/Fire_Up_Distractor.gif"",""img/Fire_Up_Distractor.gif"",""img/Fire_Up_Distractor.gif""]","targetDown_distractorsUp"
"","","","","","html-keyboard-response","98","386635","0.0-14.0-0.0-0.42","5f2dc0823d736d0f81069b93","6186fb1cc52d38b480598eb7","618733d24be33ca9d6e738d2","null","","null","","","","","fixation","","","",""
"","","","","","visual-search-circle","99","388478","0.0-14.0-0.0-1.42","5f2dc0823d736d0f81069b93","6186fb1cc52d38b480598eb7","618733d24be33ca9d6e738d2","824","","d","true","[[119,539],[341,597],[539,480],[597,258],[480,60],[258,2],[60,119],[2,341]]","true","8","","","img/Fire_Down_Target.gif","[""img/Fire_Up_Distractor.gif"",""img/Fire_Up_Distractor.gif"",""img/Fire_Up_Distractor.gif"",""img/Fire_Up_Distractor.gif"",""img/Fire_Up_Distractor.gif"",""img/Fire_Up_Distractor.gif"",""img/Fire_Up_Distractor.gif"",""img/Fire_Up_Distractor.gif"",""img/Fire_Up_Distractor.gif"",""img/Fire_Up_Distractor.gif"",""img/Fire_Up_Distractor.gif"",""img/Fire_Up_Distractor.gif""]","targetDown_distractorsUp"
"","","","","","html-keyboard-response","100","388478","0.0-14.0-0.0-0.43","5f2dc0823d736d0f81069b93","6186fb1cc52d38b480598eb7","618733d24be33ca9d6e738d2","null","","null","","","","","fixation","","","",""
"","","","","","visual-search-circle","101","392446","0.0-14.0-0.0-1.43","5f2dc0823d736d0f81069b93","6186fb1cc52d38b480598eb7","618733d24be33ca9d6e738d2","2959","","d","true","[[472,545],[545,127],[127,54],[54,472]]","true","4","","","img/Fire_Up_Target.gif","[""img/Fire_Down_Distractor.gif"",""img/Fire_Down_Distractor.gif"",""img/Fire_Down_Distractor.gif"",""img/Fire_Down_Distractor.gif"",""img/Fire_Down_Distractor.gif"",""img/Fire_Down_Distractor.gif"",""img/Fire_Down_Distractor.gif"",""img/Fire_Down_Distractor.gif"",""img/Fire_Down_Distractor.gif"",""img/Fire_Down_Distractor.gif"",""img/Fire_Down_Distractor.gif"",""img/Fire_Down_Distractor.gif""]","targetUp_distractorsDown"
"","","","","","html-keyboard-response","102","392447","0.0-14.0-0.0-0.44","5f2dc0823d736d0f81069b93","6186fb1cc52d38b480598eb7","618733d24be33ca9d6e738d2","null","","null","","","","","fixation","","","",""
"","","","","","visual-search-circle","103","396352","0.0-14.0-0.0-1.44","5f2dc0823d736d0f81069b93","6186fb1cc52d38b480598eb7","618733d24be33ca9d6e738d2","2889","","s","false","[[13,212],[212,586],[586,387],[387,13]]","true","4","","","img/Fire_Down_Target.gif","[""img/Fire_Up_Distractor.gif"",""img/Fire_Up_Distractor.gif"",""img/Fire_Up_Distractor.gif"",""img/Fire_Up_Distractor.gif"",""img/Fire_Up_Distractor.gif"",""img/Fire_Up_Distractor.gif"",""img/Fire_Up_Distractor.gif"",""img/Fire_Up_Distractor.gif"",""img/Fire_Up_Distractor.gif"",""img/Fire_Up_Distractor.gif"",""img/Fire_Up_Distractor.gif"",""img/Fire_Up_Distractor.gif""]","targetDown_distractorsUp"
"","","","","","html-keyboard-response","104","396353","0.0-14.0-0.0-0.45","5f2dc0823d736d0f81069b93","6186fb1cc52d38b480598eb7","618733d24be33ca9d6e738d2","null","","null","","","","","fixation","","","",""
"","","","","","visual-search-circle","105","398550","0.0-14.0-0.0-1.45","5f2dc0823d736d0f81069b93","6186fb1cc52d38b480598eb7","618733d24be33ca9d6e738d2","1182","","d","true","[[569,431],[508,84],[159,35],[4,352],[258,597]]","true","5","","","img/Fire_Down_Target.gif","[""img/Fire_Up_Distractor.gif"",""img/Fire_Up_Distractor.gif"",""img/Fire_Up_Distractor.gif"",""img/Fire_Up_Distractor.gif"",""img/Fire_Up_Distractor.gif"",""img/Fire_Up_Distractor.gif"",""img/Fire_Up_Distractor.gif"",""img/Fire_Up_Distractor.gif"",""img/Fire_Up_Distractor.gif"",""img/Fire_Up_Distractor.gif"",""img/Fire_Up_Distractor.gif"",""img/Fire_Up_Distractor.gif""]","targetDown_distractorsUp"
"","","","","","html-keyboard-response","106","398552","0.0-14.0-0.0-0.46","5f2dc0823d736d0f81069b93","6186fb1cc52d38b480598eb7","618733d24be33ca9d6e738d2","null","","null","","","","","fixation","","","",""
"","","","","","visual-search-circle","107","400549","0.0-14.0-0.0-1.46","5f2dc0823d736d0f81069b93","6186fb1cc52d38b480598eb7","618733d24be33ca9d6e738d2","974","","s","true","[[529,492],[554,141],[227,8],[0,279],[187,578]]","false","5","","","img/Fire_Down_Target.gif","[""img/Fire_Up_Distractor.gif"",""img/Fire_Up_Distractor.gif"",""img/Fire_Up_Distractor.gif"",""img/Fire_Up_Distractor.gif"",""img/Fire_Up_Distractor.gif"",""img/Fire_Up_Distractor.gif"",""img/Fire_Up_Distractor.gif"",""img/Fire_Up_Distractor.gif"",""img/Fire_Up_Distractor.gif"",""img/Fire_Up_Distractor.gif"",""img/Fire_Up_Distractor.gif"",""img/Fire_Up_Distractor.gif""]","targetDown_distractorsUp"
"","","","","","html-keyboard-response","108","400551","0.0-14.0-0.0-0.47","5f2dc0823d736d0f81069b93","6186fb1cc52d38b480598eb7","618733d24be33ca9d6e738d2","null","","null","","","","","fixation","","","",""
"","","","","","visual-search-circle","109","403283","0.0-14.0-0.0-1.47","5f2dc0823d736d0f81069b93","6186fb1cc52d38b480598eb7","618733d24be33ca9d6e738d2","1714","","d","true","[[115,63],[18,402],[310,599],[588,382],[467,51]]","true","5","","","img/Fire_Up_Target.gif","[""img/Fire_Down_Distractor.gif"",""img/Fire_Down_Distractor.gif"",""img/Fire_Down_Distractor.gif"",""img/Fire_Down_Distractor.gif"",""img/Fire_Down_Distractor.gif"",""img/Fire_Down_Distractor.gif"",""img/Fire_Down_Distractor.gif"",""img/Fire_Down_Distractor.gif"",""img/Fire_Down_Distractor.gif"",""img/Fire_Down_Distractor.gif"",""img/Fire_Down_Distractor.gif"",""img/Fire_Down_Distractor.gif""]","targetUp_distractorsDown"
"","","","","","html-keyboard-response","110","403285","0.0-14.0-0.0-0.48","5f2dc0823d736d0f81069b93","6186fb1cc52d38b480598eb7","618733d24be33ca9d6e738d2","null","","null","","","","","fixation","","","",""
"","","","","","visual-search-circle","111","405277","0.0-14.0-0.0-1.48","5f2dc0823d736d0f81069b93","6186fb1cc52d38b480598eb7","618733d24be33ca9d6e738d2","980","","s","false","[[212,586],[469,547],[599,321],[503,79],[254,3],[39,150],[21,410]]","true","7","","","img/Fire_Up_Target.gif","[""img/Fire_Down_Distractor.gif"",""img/Fire_Down_Distractor.gif"",""img/Fire_Down_Distractor.gif"",""img/Fire_Down_Distractor.gif"",""img/Fire_Down_Distractor.gif"",""img/Fire_Down_Distractor.gif"",""img/Fire_Down_Distractor.gif"",""img/Fire_Down_Distractor.gif"",""img/Fire_Down_Distractor.gif"",""img/Fire_Down_Distractor.gif"",""img/Fire_Down_Distractor.gif"",""img/Fire_Down_Distractor.gif""]","targetUp_distractorsDown"
"","","","","","html-keyboard-response","112","405279","0.0-14.0-0.0-0.49","5f2dc0823d736d0f81069b93","6186fb1cc52d38b480598eb7","618733d24be33ca9d6e738d2","null","","null","","","","","fixation","","","",""
"","","","","","visual-search-circle","113","407230","0.0-14.0-0.0-1.49","5f2dc0823d736d0f81069b93","6186fb1cc52d38b480598eb7","618733d24be33ca9d6e738d2","929","","s","true","[[14,392],[237,593],[522,500],[585,207],[362,6],[77,99]]","false","6","","","img/Fire_Down_Target.gif","[""img/Fire_Up_Distractor.gif"",""img/Fire_Up_Distractor.gif"",""img/Fire_Up_Distractor.gif"",""img/Fire_Up_Distractor.gif"",""img/Fire_Up_Distractor.gif"",""img/Fire_Up_Distractor.gif"",""img/Fire_Up_Distractor.gif"",""img/Fire_Up_Distractor.gif"",""img/Fire_Up_Distractor.gif"",""img/Fire_Up_Distractor.gif"",""img/Fire_Up_Distractor.gif"",""img/Fire_Up_Distractor.gif""]","targetDown_distractorsUp"
"","","","","","html-keyboard-response","114","407232","0.0-14.0-0.0-0.50","5f2dc0823d736d0f81069b93","6186fb1cc52d38b480598eb7","618733d24be33ca9d6e738d2","null","","null","","","","","fixation","","","",""
"","","","","","visual-search-circle","115","409499","0.0-14.0-0.0-1.50","5f2dc0823d736d0f81069b93","6186fb1cc52d38b480598eb7","618733d24be33ca9d6e738d2","1255","","d","true","[[32,163],[163,567],[567,436],[436,32]]","true","4","","","img/Fire_Down_Target.gif","[""img/Fire_Up_Distractor.gif"",""img/Fire_Up_Distractor.gif"",""img/Fire_Up_Distractor.gif"",""img/Fire_Up_Distractor.gif"",""img/Fire_Up_Distractor.gif"",""img/Fire_Up_Distractor.gif"",""img/Fire_Up_Distractor.gif"",""img/Fire_Up_Distractor.gif"",""img/Fire_Up_Distractor.gif"",""img/Fire_Up_Distractor.gif"",""img/Fire_Up_Distractor.gif"",""img/Fire_Up_Distractor.gif""]","targetDown_distractorsUp"
"","","","","","html-keyboard-response","116","409500","0.0-14.0-0.0-0.51","5f2dc0823d736d0f81069b93","6186fb1cc52d38b480598eb7","618733d24be33ca9d6e738d2","null","","null","","","","","fixation","","","",""
"","","","","","visual-search-circle","117","411666","0.0-14.0-0.0-1.51","5f2dc0823d736d0f81069b93","6186fb1cc52d38b480598eb7","618733d24be33ca9d6e738d2","1152","","s","true","[[173,28],[8,229],[63,484],[296,599],[532,489],[593,236],[433,31]]","false","7","","","img/Fire_Down_Target.gif","[""img/Fire_Up_Distractor.gif"",""img/Fire_Up_Distractor.gif"",""img/Fire_Up_Distractor.gif"",""img/Fire_Up_Distractor.gif"",""img/Fire_Up_Distractor.gif"",""img/Fire_Up_Distractor.gif"",""img/Fire_Up_Distractor.gif"",""img/Fire_Up_Distractor.gif"",""img/Fire_Up_Distractor.gif"",""img/Fire_Up_Distractor.gif"",""img/Fire_Up_Distractor.gif"",""img/Fire_Up_Distractor.gif""]","targetDown_distractorsUp"
"","","","","","html-keyboard-response","118","411667","0.0-14.0-0.0-0.52","5f2dc0823d736d0f81069b93","6186fb1cc52d38b480598eb7","618733d24be33ca9d6e738d2","null","","null","","","","","fixation","","","",""
"","","","","","visual-search-circle","119","413654","0.0-14.0-0.0-1.52","5f2dc0823d736d0f81069b93","6186fb1cc52d38b480598eb7","618733d24be33ca9d6e738d2","977","","s","true","[[522,500],[585,207],[362,6],[77,99],[14,392],[237,593]]","false","6","","","img/Fire_Up_Target.gif","[""img/Fire_Down_Distractor.gif"",""img/Fire_Down_Distractor.gif"",""img/Fire_Down_Distractor.gif"",""img/Fire_Down_Distractor.gif"",""img/Fire_Down_Distractor.gif"",""img/Fire_Down_Distractor.gif"",""img/Fire_Down_Distractor.gif"",""img/Fire_Down_Distractor.gif"",""img/Fire_Down_Distractor.gif"",""img/Fire_Down_Distractor.gif"",""img/Fire_Down_Distractor.gif"",""img/Fire_Down_Distractor.gif""]","targetUp_distractorsDown"
"","","","","","html-keyboard-response","120","413658","0.0-14.0-0.0-0.53","5f2dc0823d736d0f81069b93","6186fb1cc52d38b480598eb7","618733d24be33ca9d6e738d2","null","","null","","","","","fixation","","","",""
"","","","","","visual-search-circle","121","416429","0.0-14.0-0.0-1.53","5f2dc0823d736d0f81069b93","6186fb1cc52d38b480598eb7","618733d24be33ca9d6e738d2","1753","","s","false","[[588,217],[310,0],[18,197],[115,536],[467,548]]","true","5","","","img/Fire_Up_Target.gif","[""img/Fire_Down_Distractor.gif"",""img/Fire_Down_Distractor.gif"",""img/Fire_Down_Distractor.gif"",""img/Fire_Down_Distractor.gif"",""img/Fire_Down_Distractor.gif"",""img/Fire_Down_Distractor.gif"",""img/Fire_Down_Distractor.gif"",""img/Fire_Down_Distractor.gif"",""img/Fire_Down_Distractor.gif"",""img/Fire_Down_Distractor.gif"",""img/Fire_Down_Distractor.gif"",""img/Fire_Down_Distractor.gif""]","targetUp_distractorsDown"
"","","","","","html-keyboard-response","122","416430","0.0-14.0-0.0-0.54","5f2dc0823d736d0f81069b93","6186fb1cc52d38b480598eb7","618733d24be33ca9d6e738d2","null","","null","","","","","fixation","","","",""
"","","","","","visual-search-circle","123","418688","0.0-14.0-0.0-1.54","5f2dc0823d736d0f81069b93","6186fb1cc52d38b480598eb7","618733d24be33ca9d6e738d2","1243","","s","true","[[0,305],[305,599],[599,294],[294,0]]","false","4","","","img/Fire_Up_Target.gif","[""img/Fire_Down_Distractor.gif"",""img/Fire_Down_Distractor.gif"",""img/Fire_Down_Distractor.gif"",""img/Fire_Down_Distractor.gif"",""img/Fire_Down_Distractor.gif"",""img/Fire_Down_Distractor.gif"",""img/Fire_Down_Distractor.gif"",""img/Fire_Down_Distractor.gif"",""img/Fire_Down_Distractor.gif"",""img/Fire_Down_Distractor.gif"",""img/Fire_Down_Distractor.gif"",""img/Fire_Down_Distractor.gif""]","targetUp_distractorsDown"
"","","","","","html-keyboard-response","124","418689","0.0-14.0-0.0-0.55","5f2dc0823d736d0f81069b93","6186fb1cc52d38b480598eb7","618733d24be33ca9d6e738d2","null","","null","","","","","fixation","","","",""
"","","","","","visual-search-circle","125","420541","0.0-14.0-0.0-1.55","5f2dc0823d736d0f81069b93","6186fb1cc52d38b480598eb7","618733d24be33ca9d6e738d2","839","","s","true","[[299,600],[559,450],[559,150],[300,0],[40,150],[40,449]]","false","6","","","img/Fire_Down_Target.gif","[""img/Fire_Up_Distractor.gif"",""img/Fire_Up_Distractor.gif"",""img/Fire_Up_Distractor.gif"",""img/Fire_Up_Distractor.gif"",""img/Fire_Up_Distractor.gif"",""img/Fire_Up_Distractor.gif"",""img/Fire_Up_Distractor.gif"",""img/Fire_Up_Distractor.gif"",""img/Fire_Up_Distractor.gif"",""img/Fire_Up_Distractor.gif"",""img/Fire_Up_Distractor.gif"",""img/Fire_Up_Distractor.gif""]","targetDown_distractorsUp"
"","","","","","html-keyboard-response","126","420542","0.0-14.0-0.0-0.56","5f2dc0823d736d0f81069b93","6186fb1cc52d38b480598eb7","618733d24be33ca9d6e738d2","null","","null","","","","","fixation","","","",""
"","","","","","visual-search-circle","127","422689","0.0-14.0-0.0-1.56","5f2dc0823d736d0f81069b93","6186fb1cc52d38b480598eb7","618733d24be33ca9d6e738d2","1139","","s","true","[[187,578],[484,536],[597,258],[412,21],[115,63],[2,341]]","false","6","","","img/Fire_Up_Target.gif","[""img/Fire_Down_Distractor.gif"",""img/Fire_Down_Distractor.gif"",""img/Fire_Down_Distractor.gif"",""img/Fire_Down_Distractor.gif"",""img/Fire_Down_Distractor.gif"",""img/Fire_Down_Distractor.gif"",""img/Fire_Down_Distractor.gif"",""img/Fire_Down_Distractor.gif"",""img/Fire_Down_Distractor.gif"",""img/Fire_Down_Distractor.gif"",""img/Fire_Down_Distractor.gif"",""img/Fire_Down_Distractor.gif""]","targetUp_distractorsDown"
"","","","","","html-keyboard-response","128","422689","0.0-14.0-0.0-0.57","5f2dc0823d736d0f81069b93","6186fb1cc52d38b480598eb7","618733d24be33ca9d6e738d2","null","","null","","","","","fixation","","","",""
"","","","","","visual-search-circle","129","424583","0.0-14.0-0.0-1.57","5f2dc0823d736d0f81069b93","6186fb1cc52d38b480598eb7","618733d24be33ca9d6e738d2","878","","s","true","[[242,594],[526,496],[583,202],[357,5],[73,103],[16,397]]","false","6","","","img/Fire_Down_Target.gif","[""img/Fire_Up_Distractor.gif"",""img/Fire_Up_Distractor.gif"",""img/Fire_Up_Distractor.gif"",""img/Fire_Up_Distractor.gif"",""img/Fire_Up_Distractor.gif"",""img/Fire_Up_Distractor.gif"",""img/Fire_Up_Distractor.gif"",""img/Fire_Up_Distractor.gif"",""img/Fire_Up_Distractor.gif"",""img/Fire_Up_Distractor.gif"",""img/Fire_Up_Distractor.gif"",""img/Fire_Up_Distractor.gif""]","targetDown_distractorsUp"
"","","","","","html-keyboard-response","130","424584","0.0-14.0-0.0-0.58","5f2dc0823d736d0f81069b93","6186fb1cc52d38b480598eb7","618733d24be33ca9d6e738d2","null","","null","","","","","fixation","","","",""
"","","","","","visual-search-circle","131","426426","0.0-14.0-0.0-1.58","5f2dc0823d736d0f81069b93","6186fb1cc52d38b480598eb7","618733d24be33ca9d6e738d2","832","","s","true","[[70,492],[307,599],[539,481],[590,225],[423,26],[163,33],[5,240]]","false","7","","","img/Fire_Up_Target.gif","[""img/Fire_Down_Distractor.gif"",""img/Fire_Down_Distractor.gif"",""img/Fire_Down_Distractor.gif"",""img/Fire_Down_Distractor.gif"",""img/Fire_Down_Distractor.gif"",""img/Fire_Down_Distractor.gif"",""img/Fire_Down_Distractor.gif"",""img/Fire_Down_Distractor.gif"",""img/Fire_Down_Distractor.gif"",""img/Fire_Down_Distractor.gif"",""img/Fire_Down_Distractor.gif"",""img/Fire_Down_Distractor.gif""]","targetUp_distractorsDown"
"","","","","","html-keyboard-response","132","427185","0.0-14.0-0.0-0.59","5f2dc0823d736d0f81069b93","6186fb1cc52d38b480598eb7","618733d24be33ca9d6e738d2","757","Wow! You've completed 60 out of 120 trials! </p> <p>  </p><p> Take a quick break, then press any key when you're ready to continue.","s","","","","","fixation","","","",""
"","","","","","visual-search-circle","133","431060","0.0-14.0-0.0-1.59","5f2dc0823d736d0f81069b93","6186fb1cc52d38b480598eb7","618733d24be33ca9d6e738d2","2866","","d","true","[[60,119],[54,472],[387,586],[599,305],[397,16]]","true","5","","","img/Fire_Down_Target.gif","[""img/Fire_Up_Distractor.gif"",""img/Fire_Up_Distractor.gif"",""img/Fire_Up_Distractor.gif"",""img/Fire_Up_Distractor.gif"",""img/Fire_Up_Distractor.gif"",""img/Fire_Up_Distractor.gif"",""img/Fire_Up_Distractor.gif"",""img/Fire_Up_Distractor.gif"",""img/Fire_Up_Distractor.gif"",""img/Fire_Up_Distractor.gif"",""img/Fire_Up_Distractor.gif"",""img/Fire_Up_Distractor.gif""]","targetDown_distractorsUp"
"","","","","","html-keyboard-response","134","431061","0.0-14.0-0.0-0.60","5f2dc0823d736d0f81069b93","6186fb1cc52d38b480598eb7","618733d24be33ca9d6e738d2","null","","null","","","","","fixation","","","",""
"","","","","","visual-search-circle","135","433420","0.0-14.0-0.0-1.60","5f2dc0823d736d0f81069b93","6186fb1cc52d38b480598eb7","618733d24be33ca9d6e738d2","1318","","s","true","[[42,145],[18,404],[206,585],[464,550],[598,327],[507,83],[260,2]]","false","7","","","img/Fire_Up_Target.gif","[""img/Fire_Down_Distractor.gif"",""img/Fire_Down_Distractor.gif"",""img/Fire_Down_Distractor.gif"",""img/Fire_Down_Distractor.gif"",""img/Fire_Down_Distractor.gif"",""img/Fire_Down_Distractor.gif"",""img/Fire_Down_Distractor.gif"",""img/Fire_Down_Distractor.gif"",""img/Fire_Down_Distractor.gif"",""img/Fire_Down_Distractor.gif"",""img/Fire_Down_Distractor.gif"",""img/Fire_Down_Distractor.gif""]","targetUp_distractorsDown"
"","","","","","html-keyboard-response","136","433421","0.0-14.0-0.0-0.61","5f2dc0823d736d0f81069b93","6186fb1cc52d38b480598eb7","618733d24be33ca9d6e738d2","null","","null","","","","","fixation","","","",""
"","","","","","visual-search-circle","137","435465","0.0-14.0-0.0-1.61","5f2dc0823d736d0f81069b93","6186fb1cc52d38b480598eb7","618733d24be33ca9d6e738d2","1033","","d","true","[[289,599],[581,402],[484,63],[132,51],[11,382]]","true","5","","","img/Fire_Up_Target.gif","[""img/Fire_Down_Distractor.gif"",""img/Fire_Down_Distractor.gif"",""img/Fire_Down_Distractor.gif"",""img/Fire_Down_Distractor.gif"",""img/Fire_Down_Distractor.gif"",""img/Fire_Down_Distractor.gif"",""img/Fire_Down_Distractor.gif"",""img/Fire_Down_Distractor.gif"",""img/Fire_Down_Distractor.gif"",""img/Fire_Down_Distractor.gif"",""img/Fire_Down_Distractor.gif"",""img/Fire_Down_Distractor.gif""]","targetUp_distractorsDown"
"","","","","","html-keyboard-response","138","435466","0.0-14.0-0.0-0.62","5f2dc0823d736d0f81069b93","6186fb1cc52d38b480598eb7","618733d24be33ca9d6e738d2","null","","null","","","","","fixation","","","",""
"","","","","","visual-search-circle","139","437848","0.0-14.0-0.0-1.62","5f2dc0823d736d0f81069b93","6186fb1cc52d38b480598eb7","618733d24be33ca9d6e738d2","1376","","d","false","[[119,60],[60,480],[480,539],[539,119]]","false","4","","","img/Fire_Down_Target.gif","[""img/Fire_Up_Distractor.gif"",""img/Fire_Up_Distractor.gif"",""img/Fire_Up_Distractor.gif"",""img/Fire_Up_Distractor.gif"",""img/Fire_Up_Distractor.gif"",""img/Fire_Up_Distractor.gif"",""img/Fire_Up_Distractor.gif"",""img/Fire_Up_Distractor.gif"",""img/Fire_Up_Distractor.gif"",""img/Fire_Up_Distractor.gif"",""img/Fire_Up_Distractor.gif"",""img/Fire_Up_Distractor.gif""]","targetDown_distractorsUp"
"","","","","","html-keyboard-response","140","437849","0.0-14.0-0.0-0.63","5f2dc0823d736d0f81069b93","6186fb1cc52d38b480598eb7","618733d24be33ca9d6e738d2","null","","null","","","","","fixation","","","",""
"","","","","","visual-search-circle","141","440240","0.0-14.0-0.0-1.63","5f2dc0823d736d0f81069b93","6186fb1cc52d38b480598eb7","618733d24be33ca9d6e738d2","1372","","s","true","[[77,500],[362,593],[585,392],[522,99],[237,6],[14,207]]","false","6","","","img/Fire_Down_Target.gif","[""img/Fire_Up_Distractor.gif"",""img/Fire_Up_Distractor.gif"",""img/Fire_Up_Distractor.gif"",""img/Fire_Up_Distractor.gif"",""img/Fire_Up_Distractor.gif"",""img/Fire_Up_Distractor.gif"",""img/Fire_Up_Distractor.gif"",""img/Fire_Up_Distractor.gif"",""img/Fire_Up_Distractor.gif"",""img/Fire_Up_Distractor.gif"",""img/Fire_Up_Distractor.gif"",""img/Fire_Up_Distractor.gif""]","targetDown_distractorsUp"
"","","","","","html-keyboard-response","142","440240","0.0-14.0-0.0-0.64","5f2dc0823d736d0f81069b93","6186fb1cc52d38b480598eb7","618733d24be33ca9d6e738d2","null","","null","","","","","fixation","","","",""
"","","","","","visual-search-circle","143","442011","0.0-14.0-0.0-1.64","5f2dc0823d736d0f81069b93","6186fb1cc52d38b480598eb7","618733d24be33ca9d6e738d2","754","","s","true","[[263,597],[510,514],[598,269],[462,47],[203,15],[17,198],[44,457]]","false","7","","","img/Fire_Up_Target.gif","[""img/Fire_Down_Distractor.gif"",""img/Fire_Down_Distractor.gif"",""img/Fire_Down_Distractor.gif"",""img/Fire_Down_Distractor.gif"",""img/Fire_Down_Distractor.gif"",""img/Fire_Down_Distractor.gif"",""img/Fire_Down_Distractor.gif"",""img/Fire_Down_Distractor.gif"",""img/Fire_Down_Distractor.gif"",""img/Fire_Down_Distractor.gif"",""img/Fire_Down_Distractor.gif"",""img/Fire_Down_Distractor.gif""]","targetUp_distractorsDown"
"","","","","","html-keyboard-response","144","442012","0.0-14.0-0.0-0.65","5f2dc0823d736d0f81069b93","6186fb1cc52d38b480598eb7","618733d24be33ca9d6e738d2","null","","null","","","","","fixation","","","",""
"","","","","","visual-search-circle","145","443704","0.0-14.0-0.0-1.65","5f2dc0823d736d0f81069b93","6186fb1cc52d38b480598eb7","618733d24be33ca9d6e738d2","680","","d","true","[[585,207],[300,0],[14,207],[123,542],[476,542]]","true","5","","","img/Fire_Down_Target.gif","[""img/Fire_Up_Distractor.gif"",""img/Fire_Up_Distractor.gif"",""img/Fire_Up_Distractor.gif"",""img/Fire_Up_Distractor.gif"",""img/Fire_Up_Distractor.gif"",""img/Fire_Up_Distractor.gif"",""img/Fire_Up_Distractor.gif"",""img/Fire_Up_Distractor.gif"",""img/Fire_Up_Distractor.gif"",""img/Fire_Up_Distractor.gif"",""img/Fire_Up_Distractor.gif"",""img/Fire_Up_Distractor.gif""]","targetDown_distractorsUp"
"","","","","","html-keyboard-response","146","443706","0.0-14.0-0.0-0.66","5f2dc0823d736d0f81069b93","6186fb1cc52d38b480598eb7","618733d24be33ca9d6e738d2","null","","null","","","","","fixation","","","",""
"","","","","","visual-search-circle","147","445423","0.0-14.0-0.0-1.66","5f2dc0823d736d0f81069b93","6186fb1cc52d38b480598eb7","618733d24be33ca9d6e738d2","700","","s","true","[[554,458],[529,107],[187,21],[0,320],[227,591]]","false","5","","","img/Fire_Down_Target.gif","[""img/Fire_Up_Distractor.gif"",""img/Fire_Up_Distractor.gif"",""img/Fire_Up_Distractor.gif"",""img/Fire_Up_Distractor.gif"",""img/Fire_Up_Distractor.gif"",""img/Fire_Up_Distractor.gif"",""img/Fire_Up_Distractor.gif"",""img/Fire_Up_Distractor.gif"",""img/Fire_Up_Distractor.gif"",""img/Fire_Up_Distractor.gif"",""img/Fire_Up_Distractor.gif"",""img/Fire_Up_Distractor.gif""]","targetDown_distractorsUp"
"","","","","","html-keyboard-response","148","445424","0.0-14.0-0.0-0.67","5f2dc0823d736d0f81069b93","6186fb1cc52d38b480598eb7","618733d24be33ca9d6e738d2","null","","null","","","","","fixation","","","",""
"","","","","","visual-search-circle","149","447052","0.0-14.0-0.0-1.67","5f2dc0823d736d0f81069b93","6186fb1cc52d38b480598eb7","618733d24be33ca9d6e738d2","621","","d","true","[[598,268],[422,25],[123,57],[1,331],[177,574],[476,542]]","true","6","","","img/Fire_Down_Target.gif","[""img/Fire_Up_Distractor.gif"",""img/Fire_Up_Distractor.gif"",""img/Fire_Up_Distractor.gif"",""img/Fire_Up_Distractor.gif"",""img/Fire_Up_Distractor.gif"",""img/Fire_Up_Distractor.gif"",""img/Fire_Up_Distractor.gif"",""img/Fire_Up_Distractor.gif"",""img/Fire_Up_Distractor.gif"",""img/Fire_Up_Distractor.gif"",""img/Fire_Up_Distractor.gif"",""img/Fire_Up_Distractor.gif""]","targetDown_distractorsUp"
"","","","","","html-keyboard-response","150","447053","0.0-14.0-0.0-0.68","5f2dc0823d736d0f81069b93","6186fb1cc52d38b480598eb7","618733d24be33ca9d6e738d2","null","","null","","","","","fixation","","","",""
"","","","","","visual-search-circle","151","448829","0.0-14.0-0.0-1.68","5f2dc0823d736d0f81069b93","6186fb1cc52d38b480598eb7","618733d24be33ca9d6e738d2","765","","s","true","[[595,352],[545,127],[352,4],[127,54],[4,247],[54,472],[247,595],[472,545]]","false","8","","","img/Fire_Down_Target.gif","[""img/Fire_Up_Distractor.gif"",""img/Fire_Up_Distractor.gif"",""img/Fire_Up_Distractor.gif"",""img/Fire_Up_Distractor.gif"",""img/Fire_Up_Distractor.gif"",""img/Fire_Up_Distractor.gif"",""img/Fire_Up_Distractor.gif"",""img/Fire_Up_Distractor.gif"",""img/Fire_Up_Distractor.gif"",""img/Fire_Up_Distractor.gif"",""img/Fire_Up_Distractor.gif"",""img/Fire_Up_Distractor.gif""]","targetDown_distractorsUp"
"","","","","","html-keyboard-response","152","448830","0.0-14.0-0.0-0.69","5f2dc0823d736d0f81069b93","6186fb1cc52d38b480598eb7","618733d24be33ca9d6e738d2","null","","null","","","","","fixation","","","",""
"","","","","","visual-search-circle","153","450691","0.0-14.0-0.0-1.69","5f2dc0823d736d0f81069b93","6186fb1cc52d38b480598eb7","618733d24be33ca9d6e738d2","842","","d","true","[[28,426],[273,598],[545,472],[571,173],[326,1],[54,127]]","true","6","","","img/Fire_Down_Target.gif","[""img/Fire_Up_Distractor.gif"",""img/Fire_Up_Distractor.gif"",""img/Fire_Up_Distractor.gif"",""img/Fire_Up_Distractor.gif"",""img/Fire_Up_Distractor.gif"",""img/Fire_Up_Distractor.gif"",""img/Fire_Up_Distractor.gif"",""img/Fire_Up_Distractor.gif"",""img/Fire_Up_Distractor.gif"",""img/Fire_Up_Distractor.gif"",""img/Fire_Up_Distractor.gif"",""img/Fire_Up_Distractor.gif""]","targetDown_distractorsUp"
"","","","","","html-keyboard-response","154","450691","0.0-14.0-0.0-0.70","5f2dc0823d736d0f81069b93","6186fb1cc52d38b480598eb7","618733d24be33ca9d6e738d2","null","","null","","","","","fixation","","","",""
"","","","","","visual-search-circle","155","453339","0.0-14.0-0.0-1.70","5f2dc0823d736d0f81069b93","6186fb1cc52d38b480598eb7","618733d24be33ca9d6e738d2","1629","","d","true","[[237,6],[48,136],[6,362],[136,551],[362,593],[551,463],[593,237],[463,48]]","true","8","","","img/Fire_Up_Target.gif","[""img/Fire_Down_Distractor.gif"",""img/Fire_Down_Distractor.gif"",""img/Fire_Down_Distractor.gif"",""img/Fire_Down_Distractor.gif"",""img/Fire_Down_Distractor.gif"",""img/Fire_Down_Distractor.gif"",""img/Fire_Down_Distractor.gif"",""img/Fire_Down_Distractor.gif"",""img/Fire_Down_Distractor.gif"",""img/Fire_Down_Distractor.gif"",""img/Fire_Down_Distractor.gif"",""img/Fire_Down_Distractor.gif""]","targetUp_distractorsDown"
"","","","","","html-keyboard-response","156","453340","0.0-14.0-0.0-0.71","5f2dc0823d736d0f81069b93","6186fb1cc52d38b480598eb7","618733d24be33ca9d6e738d2","null","","null","","","","","fixation","","","",""
"","","","","","visual-search-circle","157","455640","0.0-14.0-0.0-1.71","5f2dc0823d736d0f81069b93","6186fb1cc52d38b480598eb7","618733d24be33ca9d6e738d2","1280","","s","false","[[247,595],[472,545],[595,352],[545,127],[352,4],[127,54],[4,247],[54,472]]","true","8","","","img/Fire_Up_Target.gif","[""img/Fire_Down_Distractor.gif"",""img/Fire_Down_Distractor.gif"",""img/Fire_Down_Distractor.gif"",""img/Fire_Down_Distractor.gif"",""img/Fire_Down_Distractor.gif"",""img/Fire_Down_Distractor.gif"",""img/Fire_Down_Distractor.gif"",""img/Fire_Down_Distractor.gif"",""img/Fire_Down_Distractor.gif"",""img/Fire_Down_Distractor.gif"",""img/Fire_Down_Distractor.gif"",""img/Fire_Down_Distractor.gif""]","targetUp_distractorsDown"
"","","","","","html-keyboard-response","158","455644","0.0-14.0-0.0-0.72","5f2dc0823d736d0f81069b93","6186fb1cc52d38b480598eb7","618733d24be33ca9d6e738d2","null","","null","","","","","fixation","","","",""
"","","","","","visual-search-circle","159","458233","0.0-14.0-0.0-1.72","5f2dc0823d736d0f81069b93","6186fb1cc52d38b480598eb7","618733d24be33ca9d6e738d2","1572","","d","true","[[37,445],[294,599],[557,454],[562,154],[305,0],[42,145]]","true","6","","","img/Fire_Down_Target.gif","[""img/Fire_Up_Distractor.gif"",""img/Fire_Up_Distractor.gif"",""img/Fire_Up_Distractor.gif"",""img/Fire_Up_Distractor.gif"",""img/Fire_Up_Distractor.gif"",""img/Fire_Up_Distractor.gif"",""img/Fire_Up_Distractor.gif"",""img/Fire_Up_Distractor.gif"",""img/Fire_Up_Distractor.gif"",""img/Fire_Up_Distractor.gif"",""img/Fire_Up_Distractor.gif"",""img/Fire_Up_Distractor.gif""]","targetDown_distractorsUp"
"","","","","","html-keyboard-response","160","458235","0.0-14.0-0.0-0.73","5f2dc0823d736d0f81069b93","6186fb1cc52d38b480598eb7","618733d24be33ca9d6e738d2","null","","null","","","","","fixation","","","",""
"","","","","","visual-search-circle","161","460794","0.0-14.0-0.0-1.73","5f2dc0823d736d0f81069b93","6186fb1cc52d38b480598eb7","618733d24be33ca9d6e738d2","1546","","d","true","[[542,476],[574,177],[331,1],[57,123],[25,422],[268,598]]","true","6","","","img/Fire_Up_Target.gif","[""img/Fire_Down_Distractor.gif"",""img/Fire_Down_Distractor.gif"",""img/Fire_Down_Distractor.gif"",""img/Fire_Down_Distractor.gif"",""img/Fire_Down_Distractor.gif"",""img/Fire_Down_Distractor.gif"",""img/Fire_Down_Distractor.gif"",""img/Fire_Down_Distractor.gif"",""img/Fire_Down_Distractor.gif"",""img/Fire_Down_Distractor.gif"",""img/Fire_Down_Distractor.gif"",""img/Fire_Down_Distractor.gif""]","targetUp_distractorsDown"
"","","","","","html-keyboard-response","162","460797","0.0-14.0-0.0-0.74","5f2dc0823d736d0f81069b93","6186fb1cc52d38b480598eb7","618733d24be33ca9d6e738d2","null","","null","","","","","fixation","","","",""
"","","","","","visual-search-circle","163","462646","0.0-14.0-0.0-1.74","5f2dc0823d736d0f81069b93","6186fb1cc52d38b480598eb7","618733d24be33ca9d6e738d2","824","","d","true","[[19,407],[407,580],[580,192],[192,19]]","true","4","","","img/Fire_Up_Target.gif","[""img/Fire_Down_Distractor.gif"",""img/Fire_Down_Distractor.gif"",""img/Fire_Down_Distractor.gif"",""img/Fire_Down_Distractor.gif"",""img/Fire_Down_Distractor.gif"",""img/Fire_Down_Distractor.gif"",""img/Fire_Down_Distractor.gif"",""img/Fire_Down_Distractor.gif"",""img/Fire_Down_Distractor.gif"",""img/Fire_Down_Distractor.gif"",""img/Fire_Down_Distractor.gif"",""img/Fire_Down_Distractor.gif""]","targetUp_distractorsDown"
"","","","","","html-keyboard-response","164","462646","0.0-14.0-0.0-0.75","5f2dc0823d736d0f81069b93","6186fb1cc52d38b480598eb7","618733d24be33ca9d6e738d2","null","","null","","","","","fixation","","","",""
"","","","","","visual-search-circle","165","464467","0.0-14.0-0.0-1.75","5f2dc0823d736d0f81069b93","6186fb1cc52d38b480598eb7","618733d24be33ca9d6e738d2","809","","s","true","[[336,597],[597,263],[263,2],[2,336]]","false","4","","","img/Fire_Up_Target.gif","[""img/Fire_Down_Distractor.gif"",""img/Fire_Down_Distractor.gif"",""img/Fire_Down_Distractor.gif"",""img/Fire_Down_Distractor.gif"",""img/Fire_Down_Distractor.gif"",""img/Fire_Down_Distractor.gif"",""img/Fire_Down_Distractor.gif"",""img/Fire_Down_Distractor.gif"",""img/Fire_Down_Distractor.gif"",""img/Fire_Down_Distractor.gif"",""img/Fire_Down_Distractor.gif"",""img/Fire_Down_Distractor.gif""]","targetUp_distractorsDown"
"","","","","","html-keyboard-response","166","464469","0.0-14.0-0.0-0.76","5f2dc0823d736d0f81069b93","6186fb1cc52d38b480598eb7","618733d24be33ca9d6e738d2","null","","null","","","","","fixation","","","",""
"","","","","","visual-search-circle","167","466135","0.0-14.0-0.0-1.76","5f2dc0823d736d0f81069b93","6186fb1cc52d38b480598eb7","618733d24be33ca9d6e738d2","651","","d","true","[[42,454],[260,597],[507,516],[598,272],[464,49],[206,14],[18,195]]","true","7","","","img/Fire_Down_Target.gif","[""img/Fire_Up_Distractor.gif"",""img/Fire_Up_Distractor.gif"",""img/Fire_Up_Distractor.gif"",""img/Fire_Up_Distractor.gif"",""img/Fire_Up_Distractor.gif"",""img/Fire_Up_Distractor.gif"",""img/Fire_Up_Distractor.gif"",""img/Fire_Up_Distractor.gif"",""img/Fire_Up_Distractor.gif"",""img/Fire_Up_Distractor.gif"",""img/Fire_Up_Distractor.gif"",""img/Fire_Up_Distractor.gif""]","targetDown_distractorsUp"
"","","","","","html-keyboard-response","168","466137","0.0-14.0-0.0-0.77","5f2dc0823d736d0f81069b93","6186fb1cc52d38b480598eb7","618733d24be33ca9d6e738d2","null","","null","","","","","fixation","","","",""
"","","","","","visual-search-circle","169","468588","0.0-14.0-0.0-1.77","5f2dc0823d736d0f81069b93","6186fb1cc52d38b480598eb7","618733d24be33ca9d6e738d2","1444","","s","false","[[197,581],[536,484],[548,132],[217,11],[0,289]]","true","5","","","img/Fire_Up_Target.gif","[""img/Fire_Down_Distractor.gif"",""img/Fire_Down_Distractor.gif"",""img/Fire_Down_Distractor.gif"",""img/Fire_Down_Distractor.gif"",""img/Fire_Down_Distractor.gif"",""img/Fire_Down_Distractor.gif"",""img/Fire_Down_Distractor.gif"",""img/Fire_Down_Distractor.gif"",""img/Fire_Down_Distractor.gif"",""img/Fire_Down_Distractor.gif"",""img/Fire_Down_Distractor.gif"",""img/Fire_Down_Distractor.gif""]","targetUp_distractorsDown"
"","","","","","html-keyboard-response","170","468589","0.0-14.0-0.0-0.78","5f2dc0823d736d0f81069b93","6186fb1cc52d38b480598eb7","618733d24be33ca9d6e738d2","null","","null","","","","","fixation","","","",""
"","","","","","visual-search-circle","171","470598","0.0-14.0-0.0-1.78","5f2dc0823d736d0f81069b93","6186fb1cc52d38b480598eb7","618733d24be33ca9d6e738d2","999","","d","true","[[73,103],[4,354],[158,564],[418,575],[589,379],[542,123],[312,0]]","true","7","","","img/Fire_Up_Target.gif","[""img/Fire_Down_Distractor.gif"",""img/Fire_Down_Distractor.gif"",""img/Fire_Down_Distractor.gif"",""img/Fire_Down_Distractor.gif"",""img/Fire_Down_Distractor.gif"",""img/Fire_Down_Distractor.gif"",""img/Fire_Down_Distractor.gif"",""img/Fire_Down_Distractor.gif"",""img/Fire_Down_Distractor.gif"",""img/Fire_Down_Distractor.gif"",""img/Fire_Down_Distractor.gif"",""img/Fire_Down_Distractor.gif""]","targetUp_distractorsDown"
"","","","","","html-keyboard-response","172","471373","0.0-14.0-0.0-0.79","5f2dc0823d736d0f81069b93","6186fb1cc52d38b480598eb7","618733d24be33ca9d6e738d2","774","Wow! You've completed 80 out of 120 trials! </p> <p>  </p><p> Take a quick break, then press any key when you're ready to continue.","d","","","","","fixation","","","",""
"","","","","","visual-search-circle","173","473871","0.0-14.0-0.0-1.79","5f2dc0823d736d0f81069b93","6186fb1cc52d38b480598eb7","618733d24be33ca9d6e738d2","1481","","d","true","[[91,515],[305,599],[515,508],[599,294],[508,84],[294,0],[84,91],[0,305]]","true","8","","","img/Fire_Up_Target.gif","[""img/Fire_Down_Distractor.gif"",""img/Fire_Down_Distractor.gif"",""img/Fire_Down_Distractor.gif"",""img/Fire_Down_Distractor.gif"",""img/Fire_Down_Distractor.gif"",""img/Fire_Down_Distractor.gif"",""img/Fire_Down_Distractor.gif"",""img/Fire_Down_Distractor.gif"",""img/Fire_Down_Distractor.gif"",""img/Fire_Down_Distractor.gif"",""img/Fire_Down_Distractor.gif"",""img/Fire_Down_Distractor.gif""]","targetUp_distractorsDown"
"","","","","","html-keyboard-response","174","473872","0.0-14.0-0.0-0.80","5f2dc0823d736d0f81069b93","6186fb1cc52d38b480598eb7","618733d24be33ca9d6e738d2","null","","null","","","","","fixation","","","",""
"","","","","","visual-search-circle","175","475636","0.0-14.0-0.0-1.80","5f2dc0823d736d0f81069b93","6186fb1cc52d38b480598eb7","618733d24be33ca9d6e738d2","755","","d","true","[[472,54],[173,28],[1,273],[127,545],[426,571],[598,326]]","true","6","","","img/Fire_Down_Target.gif","[""img/Fire_Up_Distractor.gif"",""img/Fire_Up_Distractor.gif"",""img/Fire_Up_Distractor.gif"",""img/Fire_Up_Distractor.gif"",""img/Fire_Up_Distractor.gif"",""img/Fire_Up_Distractor.gif"",""img/Fire_Up_Distractor.gif"",""img/Fire_Up_Distractor.gif"",""img/Fire_Up_Distractor.gif"",""img/Fire_Up_Distractor.gif"",""img/Fire_Up_Distractor.gif"",""img/Fire_Up_Distractor.gif""]","targetDown_distractorsUp"
"","","","","","html-keyboard-response","176","475638","0.0-14.0-0.0-0.81","5f2dc0823d736d0f81069b93","6186fb1cc52d38b480598eb7","618733d24be33ca9d6e738d2","null","","null","","","","","fixation","","","",""
"","","","","","visual-search-circle","177","477407","0.0-14.0-0.0-1.81","5f2dc0823d736d0f81069b93","6186fb1cc52d38b480598eb7","618733d24be33ca9d6e738d2","754","","s","false","[[7,367],[367,592],[592,232],[232,7]]","true","4","","","img/Fire_Down_Target.gif","[""img/Fire_Up_Distractor.gif"",""img/Fire_Up_Distractor.gif"",""img/Fire_Up_Distractor.gif"",""img/Fire_Up_Distractor.gif"",""img/Fire_Up_Distractor.gif"",""img/Fire_Up_Distractor.gif"",""img/Fire_Up_Distractor.gif"",""img/Fire_Up_Distractor.gif"",""img/Fire_Up_Distractor.gif"",""img/Fire_Up_Distractor.gif"",""img/Fire_Up_Distractor.gif"",""img/Fire_Up_Distractor.gif""]","targetDown_distractorsUp"
"","","","","","html-keyboard-response","178","477408","0.0-14.0-0.0-0.82","5f2dc0823d736d0f81069b93","6186fb1cc52d38b480598eb7","618733d24be33ca9d6e738d2","null","","null","","","","","fixation","","","",""
"","","","","","visual-search-circle","179","479181","0.0-14.0-0.0-1.82","5f2dc0823d736d0f81069b93","6186fb1cc52d38b480598eb7","618733d24be33ca9d6e738d2","762","","s","true","[[294,599],[583,397],[480,60],[127,54],[13,387]]","false","5","","","img/Fire_Up_Target.gif","[""img/Fire_Down_Distractor.gif"",""img/Fire_Down_Distractor.gif"",""img/Fire_Down_Distractor.gif"",""img/Fire_Down_Distractor.gif"",""img/Fire_Down_Distractor.gif"",""img/Fire_Down_Distractor.gif"",""img/Fire_Down_Distractor.gif"",""img/Fire_Down_Distractor.gif"",""img/Fire_Down_Distractor.gif"",""img/Fire_Down_Distractor.gif"",""img/Fire_Down_Distractor.gif"",""img/Fire_Down_Distractor.gif""]","targetUp_distractorsDown"
"","","","","","html-keyboard-response","180","479182","0.0-14.0-0.0-0.83","5f2dc0823d736d0f81069b93","6186fb1cc52d38b480598eb7","618733d24be33ca9d6e738d2","null","","null","","","","","fixation","","","",""
"","","","","","visual-search-circle","181","480918","0.0-14.0-0.0-1.83","5f2dc0823d736d0f81069b93","6186fb1cc52d38b480598eb7","618733d24be33ca9d6e738d2","722","","s","true","[[32,163],[87,512],[436,567],[596,253],[346,3]]","false","5","","","img/Fire_Down_Target.gif","[""img/Fire_Up_Distractor.gif"",""img/Fire_Up_Distractor.gif"",""img/Fire_Up_Distractor.gif"",""img/Fire_Up_Distractor.gif"",""img/Fire_Up_Distractor.gif"",""img/Fire_Up_Distractor.gif"",""img/Fire_Up_Distractor.gif"",""img/Fire_Up_Distractor.gif"",""img/Fire_Up_Distractor.gif"",""img/Fire_Up_Distractor.gif"",""img/Fire_Up_Distractor.gif"",""img/Fire_Up_Distractor.gif""]","targetDown_distractorsUp"
"","","","","","html-keyboard-response","182","480918","0.0-14.0-0.0-0.84","5f2dc0823d736d0f81069b93","6186fb1cc52d38b480598eb7","618733d24be33ca9d6e738d2","null","","null","","","","","fixation","","","",""
"","","","","","visual-search-circle","183","483052","0.0-14.0-0.0-1.84","5f2dc0823d736d0f81069b93","6186fb1cc52d38b480598eb7","618733d24be33ca9d6e738d2","1127","","d","true","[[263,597],[571,426],[504,80],[154,37],[5,357]]","true","5","","","img/Fire_Down_Target.gif","[""img/Fire_Up_Distractor.gif"",""img/Fire_Up_Distractor.gif"",""img/Fire_Up_Distractor.gif"",""img/Fire_Up_Distractor.gif"",""img/Fire_Up_Distractor.gif"",""img/Fire_Up_Distractor.gif"",""img/Fire_Up_Distractor.gif"",""img/Fire_Up_Distractor.gif"",""img/Fire_Up_Distractor.gif"",""img/Fire_Up_Distractor.gif"",""img/Fire_Up_Distractor.gif"",""img/Fire_Up_Distractor.gif""]","targetDown_distractorsUp"
"","","","","","html-keyboard-response","184","483053","0.0-14.0-0.0-0.85","5f2dc0823d736d0f81069b93","6186fb1cc52d38b480598eb7","618733d24be33ca9d6e738d2","null","","null","","","","","fixation","","","",""
"","","","","","visual-search-circle","185","485408","0.0-14.0-0.0-1.85","5f2dc0823d736d0f81069b93","6186fb1cc52d38b480598eb7","618733d24be33ca9d6e738d2","1334","","s","false","[[54,127],[12,384],[186,577],[446,561],[596,348],[522,98],[281,0]]","true","7","","","img/Fire_Up_Target.gif","[""img/Fire_Down_Distractor.gif"",""img/Fire_Down_Distractor.gif"",""img/Fire_Down_Distractor.gif"",""img/Fire_Down_Distractor.gif"",""img/Fire_Down_Distractor.gif"",""img/Fire_Down_Distractor.gif"",""img/Fire_Down_Distractor.gif"",""img/Fire_Down_Distractor.gif"",""img/Fire_Down_Distractor.gif"",""img/Fire_Down_Distractor.gif"",""img/Fire_Down_Distractor.gif"",""img/Fire_Down_Distractor.gif""]","targetUp_distractorsDown"
"","","","","","html-keyboard-response","186","485410","0.0-14.0-0.0-0.86","5f2dc0823d736d0f81069b93","6186fb1cc52d38b480598eb7","618733d24be33ca9d6e738d2","null","","null","","","","","fixation","","","",""
"","","","","","visual-search-circle","187","488464","0.0-14.0-0.0-1.86","5f2dc0823d736d0f81069b93","6186fb1cc52d38b480598eb7","618733d24be33ca9d6e738d2","2040","","d","true","[[40,150],[20,409],[211,586],[468,547],[599,322],[504,80],[255,3]]","true","7","","","img/Fire_Up_Target.gif","[""img/Fire_Down_Distractor.gif"",""img/Fire_Down_Distractor.gif"",""img/Fire_Down_Distractor.gif"",""img/Fire_Down_Distractor.gif"",""img/Fire_Down_Distractor.gif"",""img/Fire_Down_Distractor.gif"",""img/Fire_Down_Distractor.gif"",""img/Fire_Down_Distractor.gif"",""img/Fire_Down_Distractor.gif"",""img/Fire_Down_Distractor.gif"",""img/Fire_Down_Distractor.gif"",""img/Fire_Down_Distractor.gif""]","targetUp_distractorsDown"
"","","","","","html-keyboard-response","188","488465","0.0-14.0-0.0-0.87","5f2dc0823d736d0f81069b93","6186fb1cc52d38b480598eb7","618733d24be33ca9d6e738d2","null","","null","","","","","fixation","","","",""
"","","","","","visual-search-circle","189","490358","0.0-14.0-0.0-1.87","5f2dc0823d736d0f81069b93","6186fb1cc52d38b480598eb7","618733d24be33ca9d6e738d2","879","","s","true","[[279,599],[496,526],[599,320],[526,103],[320,0],[103,73],[0,279],[73,496]]","false","8","","","img/Fire_Down_Target.gif","[""img/Fire_Up_Distractor.gif"",""img/Fire_Up_Distractor.gif"",""img/Fire_Up_Distractor.gif"",""img/Fire_Up_Distractor.gif"",""img/Fire_Up_Distractor.gif"",""img/Fire_Up_Distractor.gif"",""img/Fire_Up_Distractor.gif"",""img/Fire_Up_Distractor.gif"",""img/Fire_Up_Distractor.gif"",""img/Fire_Up_Distractor.gif"",""img/Fire_Up_Distractor.gif"",""img/Fire_Up_Distractor.gif""]","targetDown_distractorsUp"
"","","","","","html-keyboard-response","190","490359","0.0-14.0-0.0-0.88","5f2dc0823d736d0f81069b93","6186fb1cc52d38b480598eb7","618733d24be33ca9d6e738d2","null","","null","","","","","fixation","","","",""
"","","","","","visual-search-circle","191","495773","0.0-14.0-0.0-1.88","5f2dc0823d736d0f81069b93","6186fb1cc52d38b480598eb7","618733d24be33ca9d6e738d2","4399","","s","false","[[80,95],[95,519],[519,504],[504,80]]","true","4","","","img/Fire_Up_Target.gif","[""img/Fire_Down_Distractor.gif"",""img/Fire_Down_Distractor.gif"",""img/Fire_Down_Distractor.gif"",""img/Fire_Down_Distractor.gif"",""img/Fire_Down_Distractor.gif"",""img/Fire_Down_Distractor.gif"",""img/Fire_Down_Distractor.gif"",""img/Fire_Down_Distractor.gif"",""img/Fire_Down_Distractor.gif"",""img/Fire_Down_Distractor.gif"",""img/Fire_Down_Distractor.gif"",""img/Fire_Down_Distractor.gif""]","targetUp_distractorsDown"
"","","","","","html-keyboard-response","192","495773","0.0-14.0-0.0-0.89","5f2dc0823d736d0f81069b93","6186fb1cc52d38b480598eb7","618733d24be33ca9d6e738d2","null","","null","","","","","fixation","","","",""
"","","","","","visual-search-circle","193","497630","0.0-14.0-0.0-1.89","5f2dc0823d736d0f81069b93","6186fb1cc52d38b480598eb7","618733d24be33ca9d6e738d2","848","","d","true","[[77,99],[40,450],[362,593],[598,331],[422,25]]","true","5","","","img/Fire_Down_Target.gif","[""img/Fire_Up_Distractor.gif"",""img/Fire_Up_Distractor.gif"",""img/Fire_Up_Distractor.gif"",""img/Fire_Up_Distractor.gif"",""img/Fire_Up_Distractor.gif"",""img/Fire_Up_Distractor.gif"",""img/Fire_Up_Distractor.gif"",""img/Fire_Up_Distractor.gif"",""img/Fire_Up_Distractor.gif"",""img/Fire_Up_Distractor.gif"",""img/Fire_Up_Distractor.gif"",""img/Fire_Up_Distractor.gif""]","targetDown_distractorsUp"
"","","","","","html-keyboard-response","194","497632","0.0-14.0-0.0-0.90","5f2dc0823d736d0f81069b93","6186fb1cc52d38b480598eb7","618733d24be33ca9d6e738d2","null","","null","","","","","fixation","","","",""
"","","","","","visual-search-circle","195","499466","0.0-14.0-0.0-1.90","5f2dc0823d736d0f81069b93","6186fb1cc52d38b480598eb7","618733d24be33ca9d6e738d2","815","","s","true","[[19,192],[111,533],[463,551],[589,222],[315,0]]","false","5","","","img/Fire_Up_Target.gif","[""img/Fire_Down_Distractor.gif"",""img/Fire_Down_Distractor.gif"",""img/Fire_Down_Distractor.gif"",""img/Fire_Down_Distractor.gif"",""img/Fire_Down_Distractor.gif"",""img/Fire_Down_Distractor.gif"",""img/Fire_Down_Distractor.gif"",""img/Fire_Down_Distractor.gif"",""img/Fire_Down_Distractor.gif"",""img/Fire_Down_Distractor.gif"",""img/Fire_Down_Distractor.gif"",""img/Fire_Down_Distractor.gif""]","targetUp_distractorsDown"
"","","","","","html-keyboard-response","196","499467","0.0-14.0-0.0-0.91","5f2dc0823d736d0f81069b93","6186fb1cc52d38b480598eb7","618733d24be33ca9d6e738d2","null","","null","","","","","fixation","","","",""
"","","","","","visual-search-circle","197","501319","0.0-14.0-0.0-1.91","5f2dc0823d736d0f81069b93","6186fb1cc52d38b480598eb7","618733d24be33ca9d6e738d2","824","","s","true","[[407,19],[148,41],[3,257],[81,505],[324,598],[549,467],[586,209]]","false","7","","","img/Fire_Up_Target.gif","[""img/Fire_Down_Distractor.gif"",""img/Fire_Down_Distractor.gif"",""img/Fire_Down_Distractor.gif"",""img/Fire_Down_Distractor.gif"",""img/Fire_Down_Distractor.gif"",""img/Fire_Down_Distractor.gif"",""img/Fire_Down_Distractor.gif"",""img/Fire_Down_Distractor.gif"",""img/Fire_Down_Distractor.gif"",""img/Fire_Down_Distractor.gif"",""img/Fire_Down_Distractor.gif"",""img/Fire_Down_Distractor.gif""]","targetUp_distractorsDown"
"","","","","","html-keyboard-response","198","501320","0.0-14.0-0.0-0.92","5f2dc0823d736d0f81069b93","6186fb1cc52d38b480598eb7","618733d24be33ca9d6e738d2","null","","null","","","","","fixation","","","",""
"","","","","","visual-search-circle","199","503712","0.0-14.0-0.0-1.92","5f2dc0823d736d0f81069b93","6186fb1cc52d38b480598eb7","618733d24be33ca9d6e738d2","1371","","d","true","[[5,242],[51,467],[242,594],[467,548],[594,357],[548,132],[357,5],[132,51]]","true","8","","","img/Fire_Up_Target.gif","[""img/Fire_Down_Distractor.gif"",""img/Fire_Down_Distractor.gif"",""img/Fire_Down_Distractor.gif"",""img/Fire_Down_Distractor.gif"",""img/Fire_Down_Distractor.gif"",""img/Fire_Down_Distractor.gif"",""img/Fire_Down_Distractor.gif"",""img/Fire_Down_Distractor.gif"",""img/Fire_Down_Distractor.gif"",""img/Fire_Down_Distractor.gif"",""img/Fire_Down_Distractor.gif"",""img/Fire_Down_Distractor.gif""]","targetUp_distractorsDown"
"","","","","","html-keyboard-response","200","503713","0.0-14.0-0.0-0.93","5f2dc0823d736d0f81069b93","6186fb1cc52d38b480598eb7","618733d24be33ca9d6e738d2","null","","null","","","","","fixation","","","",""
"","","","","","visual-search-circle","201","506084","0.0-14.0-0.0-1.93","5f2dc0823d736d0f81069b93","6186fb1cc52d38b480598eb7","618733d24be33ca9d6e738d2","1363","","d","false","[[0,305],[117,537],[371,591],[572,425],[567,165],[361,6],[108,68]]","false","7","","","img/Fire_Down_Target.gif","[""img/Fire_Up_Distractor.gif"",""img/Fire_Up_Distractor.gif"",""img/Fire_Up_Distractor.gif"",""img/Fire_Up_Distractor.gif"",""img/Fire_Up_Distractor.gif"",""img/Fire_Up_Distractor.gif"",""img/Fire_Up_Distractor.gif"",""img/Fire_Up_Distractor.gif"",""img/Fire_Up_Distractor.gif"",""img/Fire_Up_Distractor.gif"",""img/Fire_Up_Distractor.gif"",""img/Fire_Up_Distractor.gif""]","targetDown_distractorsUp"
"","","","","","html-keyboard-response","202","506085","0.0-14.0-0.0-0.94","5f2dc0823d736d0f81069b93","6186fb1cc52d38b480598eb7","618733d24be33ca9d6e738d2","null","","null","","","","","fixation","","","",""
"","","","","","visual-search-circle","203","507836","0.0-14.0-0.0-1.94","5f2dc0823d736d0f81069b93","6186fb1cc52d38b480598eb7","618733d24be33ca9d6e738d2","736","","d","true","[[273,1],[1,326],[326,598],[598,273]]","true","4","","","img/Fire_Down_Target.gif","[""img/Fire_Up_Distractor.gif"",""img/Fire_Up_Distractor.gif"",""img/Fire_Up_Distractor.gif"",""img/Fire_Up_Distractor.gif"",""img/Fire_Up_Distractor.gif"",""img/Fire_Up_Distractor.gif"",""img/Fire_Up_Distractor.gif"",""img/Fire_Up_Distractor.gif"",""img/Fire_Up_Distractor.gif"",""img/Fire_Up_Distractor.gif"",""img/Fire_Up_Distractor.gif"",""img/Fire_Up_Distractor.gif""]","targetDown_distractorsUp"
"","","","","","html-keyboard-response","204","507836","0.0-14.0-0.0-0.95","5f2dc0823d736d0f81069b93","6186fb1cc52d38b480598eb7","618733d24be33ca9d6e738d2","null","","null","","","","","fixation","","","",""
"","","","","","visual-search-circle","205","509510","0.0-14.0-0.0-1.95","5f2dc0823d736d0f81069b93","6186fb1cc52d38b480598eb7","618733d24be33ca9d6e738d2","661","","s","true","[[1,326],[107,529],[326,598],[529,492],[598,273],[492,70],[273,1],[70,107]]","false","8","","","img/Fire_Down_Target.gif","[""img/Fire_Up_Distractor.gif"",""img/Fire_Up_Distractor.gif"",""img/Fire_Up_Distractor.gif"",""img/Fire_Up_Distractor.gif"",""img/Fire_Up_Distractor.gif"",""img/Fire_Up_Distractor.gif"",""img/Fire_Up_Distractor.gif"",""img/Fire_Up_Distractor.gif"",""img/Fire_Up_Distractor.gif"",""img/Fire_Up_Distractor.gif"",""img/Fire_Up_Distractor.gif"",""img/Fire_Up_Distractor.gif""]","targetDown_distractorsUp"
"","","","","","html-keyboard-response","206","509511","0.0-14.0-0.0-0.96","5f2dc0823d736d0f81069b93","6186fb1cc52d38b480598eb7","618733d24be33ca9d6e738d2","null","","null","","","","","fixation","","","",""
"","","","","","visual-search-circle","207","511117","0.0-14.0-0.0-1.96","5f2dc0823d736d0f81069b93","6186fb1cc52d38b480598eb7","618733d24be33ca9d6e738d2","596","","s","true","[[84,91],[0,305],[91,515],[305,599],[515,508],[599,294],[508,84],[294,0]]","false","8","","","img/Fire_Up_Target.gif","[""img/Fire_Down_Distractor.gif"",""img/Fire_Down_Distractor.gif"",""img/Fire_Down_Distractor.gif"",""img/Fire_Down_Distractor.gif"",""img/Fire_Down_Distractor.gif"",""img/Fire_Down_Distractor.gif"",""img/Fire_Down_Distractor.gif"",""img/Fire_Down_Distractor.gif"",""img/Fire_Down_Distractor.gif"",""img/Fire_Down_Distractor.gif"",""img/Fire_Down_Distractor.gif"",""img/Fire_Down_Distractor.gif""]","targetUp_distractorsDown"
"","","","","","html-keyboard-response","208","511118","0.0-14.0-0.0-0.97","5f2dc0823d736d0f81069b93","6186fb1cc52d38b480598eb7","618733d24be33ca9d6e738d2","null","","null","","","","","fixation","","","",""
"","","","","","visual-search-circle","209","512766","0.0-14.0-0.0-1.97","5f2dc0823d736d0f81069b93","6186fb1cc52d38b480598eb7","618733d24be33ca9d6e738d2","626","","s","false","[[315,599],[522,500],[599,284],[500,77],[284,0],[77,99],[0,315],[99,522]]","true","8","","","img/Fire_Up_Target.gif","[""img/Fire_Down_Distractor.gif"",""img/Fire_Down_Distractor.gif"",""img/Fire_Down_Distractor.gif"",""img/Fire_Down_Distractor.gif"",""img/Fire_Down_Distractor.gif"",""img/Fire_Down_Distractor.gif"",""img/Fire_Down_Distractor.gif"",""img/Fire_Down_Distractor.gif"",""img/Fire_Down_Distractor.gif"",""img/Fire_Down_Distractor.gif"",""img/Fire_Down_Distractor.gif"",""img/Fire_Down_Distractor.gif""]","targetUp_distractorsDown"
"","","","","","html-keyboard-response","210","512767","0.0-14.0-0.0-0.98","5f2dc0823d736d0f81069b93","6186fb1cc52d38b480598eb7","618733d24be33ca9d6e738d2","null","","null","","","","","fixation","","","",""
"","","","","","visual-search-circle","211","515052","0.0-14.0-0.0-1.98","5f2dc0823d736d0f81069b93","6186fb1cc52d38b480598eb7","618733d24be33ca9d6e738d2","1271","","s","true","[[557,145],[145,42],[42,454],[454,557]]","false","4","","","img/Fire_Up_Target.gif","[""img/Fire_Down_Distractor.gif"",""img/Fire_Down_Distractor.gif"",""img/Fire_Down_Distractor.gif"",""img/Fire_Down_Distractor.gif"",""img/Fire_Down_Distractor.gif"",""img/Fire_Down_Distractor.gif"",""img/Fire_Down_Distractor.gif"",""img/Fire_Down_Distractor.gif"",""img/Fire_Down_Distractor.gif"",""img/Fire_Down_Distractor.gif"",""img/Fire_Down_Distractor.gif"",""img/Fire_Down_Distractor.gif""]","targetUp_distractorsDown"
"","","","","","html-keyboard-response","212","515947","0.0-14.0-0.0-0.99","5f2dc0823d736d0f81069b93","6186fb1cc52d38b480598eb7","618733d24be33ca9d6e738d2","894","Wow! You've completed 100 out of 120 trials! </p> <p>  </p><p> Take a quick break, then press any key when you're ready to continue.","s","","","","","fixation","","","",""
"","","","","","visual-search-circle","213","517612","0.0-14.0-0.0-1.99","5f2dc0823d736d0f81069b93","6186fb1cc52d38b480598eb7","618733d24be33ca9d6e738d2","654","","s","true","[[1,326],[232,592],[557,454],[526,103],[182,23]]","false","5","","","img/Fire_Up_Target.gif","[""img/Fire_Down_Distractor.gif"",""img/Fire_Down_Distractor.gif"",""img/Fire_Down_Distractor.gif"",""img/Fire_Down_Distractor.gif"",""img/Fire_Down_Distractor.gif"",""img/Fire_Down_Distractor.gif"",""img/Fire_Down_Distractor.gif"",""img/Fire_Down_Distractor.gif"",""img/Fire_Down_Distractor.gif"",""img/Fire_Down_Distractor.gif"",""img/Fire_Down_Distractor.gif"",""img/Fire_Down_Distractor.gif""]","targetUp_distractorsDown"
"","","","","","html-keyboard-response","214","517613","0.0-14.0-0.0-0.100","5f2dc0823d736d0f81069b93","6186fb1cc52d38b480598eb7","618733d24be33ca9d6e738d2","null","","null","","","","","fixation","","","",""
"","","","","","visual-search-circle","215","519121","0.0-14.0-0.0-1.100","5f2dc0823d736d0f81069b93","6186fb1cc52d38b480598eb7","618733d24be33ca9d6e738d2","496","","s","true","[[589,377],[377,10],[10,222],[222,589]]","false","4","","","img/Fire_Up_Target.gif","[""img/Fire_Down_Distractor.gif"",""img/Fire_Down_Distractor.gif"",""img/Fire_Down_Distractor.gif"",""img/Fire_Down_Distractor.gif"",""img/Fire_Down_Distractor.gif"",""img/Fire_Down_Distractor.gif"",""img/Fire_Down_Distractor.gif"",""img/Fire_Down_Distractor.gif"",""img/Fire_Down_Distractor.gif"",""img/Fire_Down_Distractor.gif"",""img/Fire_Down_Distractor.gif"",""img/Fire_Down_Distractor.gif""]","targetUp_distractorsDown"
"","","","","","html-keyboard-response","216","519123","0.0-14.0-0.0-0.101","5f2dc0823d736d0f81069b93","6186fb1cc52d38b480598eb7","618733d24be33ca9d6e738d2","null","","null","","","","","fixation","","","",""
"","","","","","visual-search-circle","217","520761","0.0-14.0-0.0-1.101","5f2dc0823d736d0f81069b93","6186fb1cc52d38b480598eb7","618733d24be33ca9d6e738d2","630","","d","true","[[232,7],[29,170],[30,430],[233,592],[487,534],[599,299],[486,64]]","true","7","","","img/Fire_Down_Target.gif","[""img/Fire_Up_Distractor.gif"",""img/Fire_Up_Distractor.gif"",""img/Fire_Up_Distractor.gif"",""img/Fire_Up_Distractor.gif"",""img/Fire_Up_Distractor.gif"",""img/Fire_Up_Distractor.gif"",""img/Fire_Up_Distractor.gif"",""img/Fire_Up_Distractor.gif"",""img/Fire_Up_Distractor.gif"",""img/Fire_Up_Distractor.gif"",""img/Fire_Up_Distractor.gif"",""img/Fire_Up_Distractor.gif""]","targetDown_distractorsUp"
"","","","","","html-keyboard-response","218","520763","0.0-14.0-0.0-0.102","5f2dc0823d736d0f81069b93","6186fb1cc52d38b480598eb7","618733d24be33ca9d6e738d2","null","","null","","","","","fixation","","","",""
"","","","","","visual-search-circle","219","522316","0.0-14.0-0.0-1.102","5f2dc0823d736d0f81069b93","6186fb1cc52d38b480598eb7","618733d24be33ca9d6e738d2","539","","s","true","[[123,57],[1,331],[177,574],[476,542],[598,268],[422,25]]","false","6","","","img/Fire_Down_Target.gif","[""img/Fire_Up_Distractor.gif"",""img/Fire_Up_Distractor.gif"",""img/Fire_Up_Distractor.gif"",""img/Fire_Up_Distractor.gif"",""img/Fire_Up_Distractor.gif"",""img/Fire_Up_Distractor.gif"",""img/Fire_Up_Distractor.gif"",""img/Fire_Up_Distractor.gif"",""img/Fire_Up_Distractor.gif"",""img/Fire_Up_Distractor.gif"",""img/Fire_Up_Distractor.gif"",""img/Fire_Up_Distractor.gif""]","targetDown_distractorsUp"
"","","","","","html-keyboard-response","220","522317","0.0-14.0-0.0-0.103","5f2dc0823d736d0f81069b93","6186fb1cc52d38b480598eb7","618733d24be33ca9d6e738d2","null","","null","","","","","fixation","","","",""
"","","","","","visual-search-circle","221","523796","0.0-14.0-0.0-1.103","5f2dc0823d736d0f81069b93","6186fb1cc52d38b480598eb7","618733d24be33ca9d6e738d2","462","","s","true","[[580,192],[346,3],[66,111],[19,407],[253,596],[533,488]]","false","6","","","img/Fire_Up_Target.gif","[""img/Fire_Down_Distractor.gif"",""img/Fire_Down_Distractor.gif"",""img/Fire_Down_Distractor.gif"",""img/Fire_Down_Distractor.gif"",""img/Fire_Down_Distractor.gif"",""img/Fire_Down_Distractor.gif"",""img/Fire_Down_Distractor.gif"",""img/Fire_Down_Distractor.gif"",""img/Fire_Down_Distractor.gif"",""img/Fire_Down_Distractor.gif"",""img/Fire_Down_Distractor.gif"",""img/Fire_Down_Distractor.gif""]","targetUp_distractorsDown"
"","","","","","html-keyboard-response","222","523799","0.0-14.0-0.0-0.104","5f2dc0823d736d0f81069b93","6186fb1cc52d38b480598eb7","618733d24be33ca9d6e738d2","null","","null","","","","","fixation","","","",""
"","","","","","visual-search-circle","223","526107","0.0-14.0-0.0-1.104","5f2dc0823d736d0f81069b93","6186fb1cc52d38b480598eb7","618733d24be33ca9d6e738d2","1301","","s","true","[[407,19],[177,25],[19,192],[25,422],[192,580],[422,574],[580,407],[574,177]]","false","8","","","img/Fire_Up_Target.gif","[""img/Fire_Down_Distractor.gif"",""img/Fire_Down_Distractor.gif"",""img/Fire_Down_Distractor.gif"",""img/Fire_Down_Distractor.gif"",""img/Fire_Down_Distractor.gif"",""img/Fire_Down_Distractor.gif"",""img/Fire_Down_Distractor.gif"",""img/Fire_Down_Distractor.gif"",""img/Fire_Down_Distractor.gif"",""img/Fire_Down_Distractor.gif"",""img/Fire_Down_Distractor.gif"",""img/Fire_Down_Distractor.gif""]","targetUp_distractorsDown"
"","","","","","html-keyboard-response","224","526107","0.0-14.0-0.0-0.105","5f2dc0823d736d0f81069b93","6186fb1cc52d38b480598eb7","618733d24be33ca9d6e738d2","null","","null","","","","","fixation","","","",""
