"success","timeout","failed_images","failed_audio","failed_video","trial_type","trial_index","time_elapsed","internal_node_id","subject_id","study_id","session_id","rt","stimulus","response","correct","locations","target_present","set_size","task","correct_response","target","foilCM","searchCondition"
"true","false","[]","[]","[]","preload","0","7460","0.0-0.0","5fc44569444cef8809245f94","6186fb1cc52d38b480598eb7","618726801d39e6ee755c43d6","","","","","","","","","","","",""
"true","","","","","fullscreen","1","10033","0.0-1.0","5fc44569444cef8809245f94","6186fb1cc52d38b480598eb7","618726801d39e6ee755c43d6","","","","","","","","","","","",""
"","","","","","html-keyboard-response","2","15125","0.0-2.0","5fc44569444cef8809245f94","6186fb1cc52d38b480598eb7","618726801d39e6ee755c43d6","5090.300000011921","What a beautiful Saturday to do some awesome science! </p> <p>  </p><p> </p>
    By completing this survey or questionnaire, you are consenting to be in this research study. </p>
    Your participation is voluntary and you can stop at any time.
    <p> [Press any key to continue.] </p>
    
    ","enter","","","","","","","","",""
"","","","","","video-keyboard-response","3","34107","0.0-3.0","5fc44569444cef8809245f94","6186fb1cc52d38b480598eb7","618726801d39e6ee755c43d6","18976.899999976158","[""video/TaskInstructions.mp4""]"," ","","","","","","","","",""
"","","","","","html-keyboard-response","4","38087","0.0-4.0","5fc44569444cef8809245f94","6186fb1cc52d38b480598eb7","618726801d39e6ee755c43d6","3980.100000023842","
    <p>First, we're going to do a few practice trials to make sure you understand the task. You will recieve feedback on each trial. </p>

    <p>[Press any key to begin the familiarization phase.]</p>
    "," ","","","","","","","","",""
"","","","","","visual-search-circle","5","40446","0.0-5.0-0.0","5fc44569444cef8809245f94","6186fb1cc52d38b480598eb7","618726801d39e6ee755c43d6","1296","","d","true","[[28,173],[173,571],[571,426],[426,28]]","true","4","training","d","","",""
"","","","","","html-keyboard-response","6","42256","0.0-6.0","5fc44569444cef8809245f94","6186fb1cc52d38b480598eb7","618726801d39e6ee755c43d6","1809.3999999761581"," <div style='float: center; '><img src='img/feedbackRight.png'></img> </div> "," ","","","","","","","","",""
"","","","","","visual-search-circle","7","44215","0.0-7.0-0.0","5fc44569444cef8809245f94","6186fb1cc52d38b480598eb7","618726801d39e6ee755c43d6","952.3999999761581","","s","true","[[91,515],[515,508],[508,84],[84,91]]","false","4","training","s","","",""
"","","","","","html-keyboard-response","8","44785","0.0-8.0","5fc44569444cef8809245f94","6186fb1cc52d38b480598eb7","618726801d39e6ee755c43d6","568.8000000119209"," <div style='float: center; '><img src='img/feedbackRight.png'></img> </div> "," ","","","","","","","","",""
"","","","","","visual-search-circle","9","48751","0.0-9.0-0.0","5fc44569444cef8809245f94","6186fb1cc52d38b480598eb7","618726801d39e6ee755c43d6","2954.600000023842","","s","true","[[571,426],[545,127],[273,1],[28,173],[54,472],[326,598]]","false","6","training","s","","",""
"","","","","","html-keyboard-response","10","49314","0.0-10.0","5fc44569444cef8809245f94","6186fb1cc52d38b480598eb7","618726801d39e6ee755c43d6","561.3999999761581"," <div style='float: center; '><img src='img/feedbackRight.png'></img> </div> "," ","","","","","","","","",""
"","","","","","visual-search-circle","11","51302","0.0-11.0-0.0","5fc44569444cef8809245f94","6186fb1cc52d38b480598eb7","618726801d39e6ee755c43d6","976.5","","d","true","[[253,3],[57,123],[3,346],[123,542],[346,596],[542,476],[596,253],[476,57]]","true","8","training","d","","",""
"","","","","","html-keyboard-response","12","51810","0.0-12.0","5fc44569444cef8809245f94","6186fb1cc52d38b480598eb7","618726801d39e6ee755c43d6","506.60000002384186"," <div style='float: center; '><img src='img/feedbackRight.png'></img> </div> "," ","","","","","","","","",""
"","","","","","video-keyboard-response","13","53073","0.0-13.0","5fc44569444cef8809245f94","6186fb1cc52d38b480598eb7","618726801d39e6ee755c43d6","1258.800000011921","[""video/endTraining.mp4""]"," ","","","","","","","","",""
"","","","","","html-keyboard-response","14","53076","0.0-14.0-0.0-0.0","5fc44569444cef8809245f94","6186fb1cc52d38b480598eb7","618726801d39e6ee755c43d6","null","","null","","","","","fixation","","","",""
"","","","","","visual-search-circle","15","55391","0.0-14.0-0.0-1.0","5fc44569444cef8809245f94","6186fb1cc52d38b480598eb7","618726801d39e6ee755c43d6","1301.9000000357628","","s","true","[[536,484],[597,263],[484,63],[263,2],[63,115],[2,336],[115,536],[336,597]]","false","8","","","img/Fire_Down_Target.gif","[""img/Fire_Up_Distractor.gif"",""img/Fire_Up_Distractor.gif"",""img/Fire_Up_Distractor.gif"",""img/Fire_Up_Distractor.gif"",""img/Fire_Up_Distractor.gif"",""img/Fire_Up_Distractor.gif"",""img/Fire_Up_Distractor.gif"",""img/Fire_Up_Distractor.gif"",""img/Fire_Up_Distractor.gif"",""img/Fire_Up_Distractor.gif"",""img/Fire_Up_Distractor.gif"",""img/Fire_Up_Distractor.gif""]","targetDown_distractorsUp"
"","","","","","html-keyboard-response","16","55400","0.0-14.0-0.0-0.1","5fc44569444cef8809245f94","6186fb1cc52d38b480598eb7","618726801d39e6ee755c43d6","null","","null","","","","","fixation","","","",""
"","","","","","visual-search-circle","17","58047","0.0-14.0-0.0-1.1","5fc44569444cef8809245f94","6186fb1cc52d38b480598eb7","618726801d39e6ee755c43d6","1637.699999988079","","s","true","[[412,578],[599,279],[372,8],[45,141],[70,492]]","false","5","","","img/Fire_Down_Target.gif","[""img/Fire_Up_Distractor.gif"",""img/Fire_Up_Distractor.gif"",""img/Fire_Up_Distractor.gif"",""img/Fire_Up_Distractor.gif"",""img/Fire_Up_Distractor.gif"",""img/Fire_Up_Distractor.gif"",""img/Fire_Up_Distractor.gif"",""img/Fire_Up_Distractor.gif"",""img/Fire_Up_Distractor.gif"",""img/Fire_Up_Distractor.gif"",""img/Fire_Up_Distractor.gif"",""img/Fire_Up_Distractor.gif""]","targetDown_distractorsUp"
"","","","","","html-keyboard-response","18","58050","0.0-14.0-0.0-0.2","5fc44569444cef8809245f94","6186fb1cc52d38b480598eb7","618726801d39e6ee755c43d6","null","","null","","","","","fixation","","","",""
"","","","","","visual-search-circle","19","61129","0.0-14.0-0.0-1.2","5fc44569444cef8809245f94","6186fb1cc52d38b480598eb7","618726801d39e6ee755c43d6","2069","","d","true","[[526,496],[599,279],[496,73],[279,0],[73,103],[0,320],[103,526],[320,599]]","true","8","","","img/Fire_Up_Target.gif","[""img/Fire_Down_Distractor.gif"",""img/Fire_Down_Distractor.gif"",""img/Fire_Down_Distractor.gif"",""img/Fire_Down_Distractor.gif"",""img/Fire_Down_Distractor.gif"",""img/Fire_Down_Distractor.gif"",""img/Fire_Down_Distractor.gif"",""img/Fire_Down_Distractor.gif"",""img/Fire_Down_Distractor.gif"",""img/Fire_Down_Distractor.gif"",""img/Fire_Down_Distractor.gif"",""img/Fire_Down_Distractor.gif""]","targetUp_distractorsDown"
"","","","","","html-keyboard-response","20","61134","0.0-14.0-0.0-0.3","5fc44569444cef8809245f94","6186fb1cc52d38b480598eb7","618726801d39e6ee755c43d6","null","","null","","","","","fixation","","","",""
"","","","","","visual-search-circle","21","63871","0.0-14.0-0.0-1.3","5fc44569444cef8809245f94","6186fb1cc52d38b480598eb7","618726801d39e6ee755c43d6","1729.699999988079","","s","true","[[263,2],[63,115],[2,336],[115,536],[336,597],[536,484],[597,263],[484,63]]","false","8","","","img/Fire_Down_Target.gif","[""img/Fire_Up_Distractor.gif"",""img/Fire_Up_Distractor.gif"",""img/Fire_Up_Distractor.gif"",""img/Fire_Up_Distractor.gif"",""img/Fire_Up_Distractor.gif"",""img/Fire_Up_Distractor.gif"",""img/Fire_Up_Distractor.gif"",""img/Fire_Up_Distractor.gif"",""img/Fire_Up_Distractor.gif"",""img/Fire_Up_Distractor.gif"",""img/Fire_Up_Distractor.gif"",""img/Fire_Up_Distractor.gif""]","targetDown_distractorsUp"
"","","","","","html-keyboard-response","22","63872","0.0-14.0-0.0-0.4","5fc44569444cef8809245f94","6186fb1cc52d38b480598eb7","618726801d39e6ee755c43d6","null","","null","","","","","fixation","","","",""
"","","","","","visual-search-circle","23","65865","0.0-14.0-0.0-1.4","5fc44569444cef8809245f94","6186fb1cc52d38b480598eb7","618726801d39e6ee755c43d6","985.1000000238419","","d","true","[[436,567],[567,163],[163,32],[32,436]]","true","4","","","img/Fire_Up_Target.gif","[""img/Fire_Down_Distractor.gif"",""img/Fire_Down_Distractor.gif"",""img/Fire_Down_Distractor.gif"",""img/Fire_Down_Distractor.gif"",""img/Fire_Down_Distractor.gif"",""img/Fire_Down_Distractor.gif"",""img/Fire_Down_Distractor.gif"",""img/Fire_Down_Distractor.gif"",""img/Fire_Down_Distractor.gif"",""img/Fire_Down_Distractor.gif"",""img/Fire_Down_Distractor.gif"",""img/Fire_Down_Distractor.gif""]","targetUp_distractorsDown"
"","","","","","html-keyboard-response","24","65866","0.0-14.0-0.0-0.5","5fc44569444cef8809245f94","6186fb1cc52d38b480598eb7","618726801d39e6ee755c43d6","null","","null","","","","","fixation","","","",""
"","","","","","visual-search-circle","25","67983","0.0-14.0-0.0-1.5","5fc44569444cef8809245f94","6186fb1cc52d38b480598eb7","618726801d39e6ee755c43d6","1108.199999988079","","s","true","[[591,372],[458,45],[107,70],[21,412],[320,599]]","false","5","","","img/Fire_Up_Target.gif","[""img/Fire_Down_Distractor.gif"",""img/Fire_Down_Distractor.gif"",""img/Fire_Down_Distractor.gif"",""img/Fire_Down_Distractor.gif"",""img/Fire_Down_Distractor.gif"",""img/Fire_Down_Distractor.gif"",""img/Fire_Down_Distractor.gif"",""img/Fire_Down_Distractor.gif"",""img/Fire_Down_Distractor.gif"",""img/Fire_Down_Distractor.gif"",""img/Fire_Down_Distractor.gif"",""img/Fire_Down_Distractor.gif""]","targetUp_distractorsDown"
"","","","","","html-keyboard-response","26","67985","0.0-14.0-0.0-0.6","5fc44569444cef8809245f94","6186fb1cc52d38b480598eb7","618726801d39e6ee755c43d6","null","","null","","","","","fixation","","","",""
"","","","","","visual-search-circle","27","70463","0.0-14.0-0.0-1.6","5fc44569444cef8809245f94","6186fb1cc52d38b480598eb7","618726801d39e6ee755c43d6","1470.5","","s","true","[[500,77],[77,99],[99,522],[522,500]]","false","4","","","img/Fire_Up_Target.gif","[""img/Fire_Down_Distractor.gif"",""img/Fire_Down_Distractor.gif"",""img/Fire_Down_Distractor.gif"",""img/Fire_Down_Distractor.gif"",""img/Fire_Down_Distractor.gif"",""img/Fire_Down_Distractor.gif"",""img/Fire_Down_Distractor.gif"",""img/Fire_Down_Distractor.gif"",""img/Fire_Down_Distractor.gif"",""img/Fire_Down_Distractor.gif"",""img/Fire_Down_Distractor.gif"",""img/Fire_Down_Distractor.gif""]","targetUp_distractorsDown"
"","","","","","html-keyboard-response","28","70466","0.0-14.0-0.0-0.7","5fc44569444cef8809245f94","6186fb1cc52d38b480598eb7","618726801d39e6ee755c43d6","null","","null","","","","","fixation","","","",""
"","","","","","visual-search-circle","29","72685","0.0-14.0-0.0-1.7","5fc44569444cef8809245f94","6186fb1cc52d38b480598eb7","618726801d39e6ee755c43d6","1214.5999999642372","","d","true","[[284,599],[599,315],[315,0],[0,284]]","true","4","","","img/Fire_Up_Target.gif","[""img/Fire_Down_Distractor.gif"",""img/Fire_Down_Distractor.gif"",""img/Fire_Down_Distractor.gif"",""img/Fire_Down_Distractor.gif"",""img/Fire_Down_Distractor.gif"",""img/Fire_Down_Distractor.gif"",""img/Fire_Down_Distractor.gif"",""img/Fire_Down_Distractor.gif"",""img/Fire_Down_Distractor.gif"",""img/Fire_Down_Distractor.gif"",""img/Fire_Down_Distractor.gif"",""img/Fire_Down_Distractor.gif""]","targetUp_distractorsDown"
"","","","","","html-keyboard-response","30","72687","0.0-14.0-0.0-0.8","5fc44569444cef8809245f94","6186fb1cc52d38b480598eb7","618726801d39e6ee755c43d6","null","","null","","","","","fixation","","","",""
"","","","","","visual-search-circle","31","74697","0.0-14.0-0.0-1.8","5fc44569444cef8809245f94","6186fb1cc52d38b480598eb7","618726801d39e6ee755c43d6","999.7000000476837","","d","true","[[111,533],[364,592],[569,432],[571,171],[368,8],[114,64],[0,297]]","true","7","","","img/Fire_Up_Target.gif","[""img/Fire_Down_Distractor.gif"",""img/Fire_Down_Distractor.gif"",""img/Fire_Down_Distractor.gif"",""img/Fire_Down_Distractor.gif"",""img/Fire_Down_Distractor.gif"",""img/Fire_Down_Distractor.gif"",""img/Fire_Down_Distractor.gif"",""img/Fire_Down_Distractor.gif"",""img/Fire_Down_Distractor.gif"",""img/Fire_Down_Distractor.gif"",""img/Fire_Down_Distractor.gif"",""img/Fire_Down_Distractor.gif""]","targetUp_distractorsDown"
"","","","","","html-keyboard-response","32","74701","0.0-14.0-0.0-0.9","5fc44569444cef8809245f94","6186fb1cc52d38b480598eb7","618726801d39e6ee755c43d6","null","","null","","","","","fixation","","","",""
"","","","","","visual-search-circle","33","76831","0.0-14.0-0.0-1.9","5fc44569444cef8809245f94","6186fb1cc52d38b480598eb7","618726801d39e6ee755c43d6","1117.199999988079","","s","true","[[247,4],[54,127],[4,352],[127,545],[352,595],[545,472],[595,247],[472,54]]","false","8","","","img/Fire_Up_Target.gif","[""img/Fire_Down_Distractor.gif"",""img/Fire_Down_Distractor.gif"",""img/Fire_Down_Distractor.gif"",""img/Fire_Down_Distractor.gif"",""img/Fire_Down_Distractor.gif"",""img/Fire_Down_Distractor.gif"",""img/Fire_Down_Distractor.gif"",""img/Fire_Down_Distractor.gif"",""img/Fire_Down_Distractor.gif"",""img/Fire_Down_Distractor.gif"",""img/Fire_Down_Distractor.gif"",""img/Fire_Down_Distractor.gif""]","targetUp_distractorsDown"
"","","","","","html-keyboard-response","34","76833","0.0-14.0-0.0-0.10","5fc44569444cef8809245f94","6186fb1cc52d38b480598eb7","618726801d39e6ee755c43d6","null","","null","","","","","fixation","","","",""
"","","","","","visual-search-circle","35","80134","0.0-14.0-0.0-1.10","5fc44569444cef8809245f94","6186fb1cc52d38b480598eb7","618726801d39e6ee755c43d6","2291.699999988079","","s","true","[[591,372],[557,145],[372,8],[145,42],[8,227],[42,454],[227,591],[454,557]]","false","8","","","img/Fire_Down_Target.gif","[""img/Fire_Up_Distractor.gif"",""img/Fire_Up_Distractor.gif"",""img/Fire_Up_Distractor.gif"",""img/Fire_Up_Distractor.gif"",""img/Fire_Up_Distractor.gif"",""img/Fire_Up_Distractor.gif"",""img/Fire_Up_Distractor.gif"",""img/Fire_Up_Distractor.gif"",""img/Fire_Up_Distractor.gif"",""img/Fire_Up_Distractor.gif"",""img/Fire_Up_Distractor.gif"",""img/Fire_Up_Distractor.gif""]","targetDown_distractorsUp"
"","","","","","html-keyboard-response","36","80136","0.0-14.0-0.0-0.11","5fc44569444cef8809245f94","6186fb1cc52d38b480598eb7","618726801d39e6ee755c43d6","null","","null","","","","","fixation","","","",""
"","","","","","visual-search-circle","37","82360","0.0-14.0-0.0-1.11","5fc44569444cef8809245f94","6186fb1cc52d38b480598eb7","618726801d39e6ee755c43d6","1214.9000000357628","","d","true","[[599,294],[482,62],[228,8],[27,174],[32,434],[238,593],[491,531]]","true","7","","","img/Fire_Up_Target.gif","[""img/Fire_Down_Distractor.gif"",""img/Fire_Down_Distractor.gif"",""img/Fire_Down_Distractor.gif"",""img/Fire_Down_Distractor.gif"",""img/Fire_Down_Distractor.gif"",""img/Fire_Down_Distractor.gif"",""img/Fire_Down_Distractor.gif"",""img/Fire_Down_Distractor.gif"",""img/Fire_Down_Distractor.gif"",""img/Fire_Down_Distractor.gif"",""img/Fire_Down_Distractor.gif"",""img/Fire_Down_Distractor.gif""]","targetUp_distractorsDown"
"","","","","","html-keyboard-response","38","82363","0.0-14.0-0.0-0.12","5fc44569444cef8809245f94","6186fb1cc52d38b480598eb7","618726801d39e6ee755c43d6","null","","null","","","","","fixation","","","",""
"","","","","","visual-search-circle","39","84437","0.0-14.0-0.0-1.12","5fc44569444cef8809245f94","6186fb1cc52d38b480598eb7","618726801d39e6ee755c43d6","1064.4000000357628","","d","true","[[578,412],[561,152],[347,3],[98,78],[0,319],[128,546],[385,587]]","true","7","","","img/Fire_Up_Target.gif","[""img/Fire_Down_Distractor.gif"",""img/Fire_Down_Distractor.gif"",""img/Fire_Down_Distractor.gif"",""img/Fire_Down_Distractor.gif"",""img/Fire_Down_Distractor.gif"",""img/Fire_Down_Distractor.gif"",""img/Fire_Down_Distractor.gif"",""img/Fire_Down_Distractor.gif"",""img/Fire_Down_Distractor.gif"",""img/Fire_Down_Distractor.gif"",""img/Fire_Down_Distractor.gif"",""img/Fire_Down_Distractor.gif""]","targetUp_distractorsDown"
"","","","","","html-keyboard-response","40","84439","0.0-14.0-0.0-0.13","5fc44569444cef8809245f94","6186fb1cc52d38b480598eb7","618726801d39e6ee755c43d6","null","","null","","","","","fixation","","","",""
"","","","","","visual-search-circle","41","86663","0.0-14.0-0.0-1.13","5fc44569444cef8809245f94","6186fb1cc52d38b480598eb7","618726801d39e6ee755c43d6","1216.2999999523163","","d","true","[[30,431],[234,592],[488,533],[599,298],[485,64],[231,7],[29,171]]","true","7","","","img/Fire_Up_Target.gif","[""img/Fire_Down_Distractor.gif"",""img/Fire_Down_Distractor.gif"",""img/Fire_Down_Distractor.gif"",""img/Fire_Down_Distractor.gif"",""img/Fire_Down_Distractor.gif"",""img/Fire_Down_Distractor.gif"",""img/Fire_Down_Distractor.gif"",""img/Fire_Down_Distractor.gif"",""img/Fire_Down_Distractor.gif"",""img/Fire_Down_Distractor.gif"",""img/Fire_Down_Distractor.gif"",""img/Fire_Down_Distractor.gif""]","targetUp_distractorsDown"
"","","","","","html-keyboard-response","42","86666","0.0-14.0-0.0-0.14","5fc44569444cef8809245f94","6186fb1cc52d38b480598eb7","618726801d39e6ee755c43d6","null","","null","","","","","fixation","","","",""
"","","","","","visual-search-circle","43","89167","0.0-14.0-0.0-1.14","5fc44569444cef8809245f94","6186fb1cc52d38b480598eb7","618726801d39e6ee755c43d6","1492.9000000357628","","s","true","[[336,597],[594,357],[445,37],[95,80],[28,426]]","false","5","","","img/Fire_Down_Target.gif","[""img/Fire_Up_Distractor.gif"",""img/Fire_Up_Distractor.gif"",""img/Fire_Up_Distractor.gif"",""img/Fire_Up_Distractor.gif"",""img/Fire_Up_Distractor.gif"",""img/Fire_Up_Distractor.gif"",""img/Fire_Up_Distractor.gif"",""img/Fire_Up_Distractor.gif"",""img/Fire_Up_Distractor.gif"",""img/Fire_Up_Distractor.gif"",""img/Fire_Up_Distractor.gif"",""img/Fire_Up_Distractor.gif""]","targetDown_distractorsUp"
"","","","","","html-keyboard-response","44","89169","0.0-14.0-0.0-0.15","5fc44569444cef8809245f94","6186fb1cc52d38b480598eb7","618726801d39e6ee755c43d6","null","","null","","","","","fixation","","","",""
"","","","","","visual-search-circle","45","91175","0.0-14.0-0.0-1.15","5fc44569444cef8809245f94","6186fb1cc52d38b480598eb7","618726801d39e6ee755c43d6","998.3000000119209","","s","true","[[66,488],[346,596],[580,407],[533,111],[253,3],[19,192]]","false","6","","","img/Fire_Up_Target.gif","[""img/Fire_Down_Distractor.gif"",""img/Fire_Down_Distractor.gif"",""img/Fire_Down_Distractor.gif"",""img/Fire_Down_Distractor.gif"",""img/Fire_Down_Distractor.gif"",""img/Fire_Down_Distractor.gif"",""img/Fire_Down_Distractor.gif"",""img/Fire_Down_Distractor.gif"",""img/Fire_Down_Distractor.gif"",""img/Fire_Down_Distractor.gif"",""img/Fire_Down_Distractor.gif"",""img/Fire_Down_Distractor.gif""]","targetUp_distractorsDown"
"","","","","","html-keyboard-response","46","91180","0.0-14.0-0.0-0.16","5fc44569444cef8809245f94","6186fb1cc52d38b480598eb7","618726801d39e6ee755c43d6","null","","null","","","","","fixation","","","",""
"","","","","","visual-search-circle","47","93823","0.0-14.0-0.0-1.16","5fc44569444cef8809245f94","6186fb1cc52d38b480598eb7","618726801d39e6ee755c43d6","1635.300000011921","","s","true","[[95,80],[7,367],[212,586],[504,519],[592,232],[387,13]]","false","6","","","img/Fire_Up_Target.gif","[""img/Fire_Down_Distractor.gif"",""img/Fire_Down_Distractor.gif"",""img/Fire_Down_Distractor.gif"",""img/Fire_Down_Distractor.gif"",""img/Fire_Down_Distractor.gif"",""img/Fire_Down_Distractor.gif"",""img/Fire_Down_Distractor.gif"",""img/Fire_Down_Distractor.gif"",""img/Fire_Down_Distractor.gif"",""img/Fire_Down_Distractor.gif"",""img/Fire_Down_Distractor.gif"",""img/Fire_Down_Distractor.gif""]","targetUp_distractorsDown"
"","","","","","html-keyboard-response","48","93826","0.0-14.0-0.0-0.17","5fc44569444cef8809245f94","6186fb1cc52d38b480598eb7","618726801d39e6ee755c43d6","null","","null","","","","","fixation","","","",""
"","","","","","visual-search-circle","49","95743","0.0-14.0-0.0-1.17","5fc44569444cef8809245f94","6186fb1cc52d38b480598eb7","618726801d39e6ee755c43d6","911.7000000476837","","d","true","[[450,559],[559,150],[150,40],[40,449]]","true","4","","","img/Fire_Up_Target.gif","[""img/Fire_Down_Distractor.gif"",""img/Fire_Down_Distractor.gif"",""img/Fire_Down_Distractor.gif"",""img/Fire_Down_Distractor.gif"",""img/Fire_Down_Distractor.gif"",""img/Fire_Down_Distractor.gif"",""img/Fire_Down_Distractor.gif"",""img/Fire_Down_Distractor.gif"",""img/Fire_Down_Distractor.gif"",""img/Fire_Down_Distractor.gif"",""img/Fire_Down_Distractor.gif"",""img/Fire_Down_Distractor.gif""]","targetUp_distractorsDown"
"","","","","","html-keyboard-response","50","95748","0.0-14.0-0.0-0.18","5fc44569444cef8809245f94","6186fb1cc52d38b480598eb7","618726801d39e6ee755c43d6","null","","null","","","","","fixation","","","",""
"","","","","","visual-search-circle","51","98056","0.0-14.0-0.0-1.18","5fc44569444cef8809245f94","6186fb1cc52d38b480598eb7","618726801d39e6ee755c43d6","1300.2000000476837","","s","true","[[402,581],[584,395],[552,137],[329,1],[85,90],[2,337],[143,555]]","false","7","","","img/Fire_Down_Target.gif","[""img/Fire_Up_Distractor.gif"",""img/Fire_Up_Distractor.gif"",""img/Fire_Up_Distractor.gif"",""img/Fire_Up_Distractor.gif"",""img/Fire_Up_Distractor.gif"",""img/Fire_Up_Distractor.gif"",""img/Fire_Up_Distractor.gif"",""img/Fire_Up_Distractor.gif"",""img/Fire_Up_Distractor.gif"",""img/Fire_Up_Distractor.gif"",""img/Fire_Up_Distractor.gif"",""img/Fire_Up_Distractor.gif""]","targetDown_distractorsUp"
"","","","","","html-keyboard-response","52","101097","0.0-14.0-0.0-0.19","5fc44569444cef8809245f94","6186fb1cc52d38b480598eb7","618726801d39e6ee755c43d6","3040.800000011921","Wow! You've completed 20 out of 120 trials! </p> <p>  </p><p> Take a quick break, then press any key when you're ready to continue."," ","","","","","fixation","","","",""
"","","","","","visual-search-circle","53","103405","0.0-14.0-0.0-1.19","5fc44569444cef8809245f94","6186fb1cc52d38b480598eb7","618726801d39e6ee755c43d6","1300.4000000357628","","d","true","[[422,574],[598,268],[362,6],[40,150],[77,500]]","true","5","","","img/Fire_Up_Target.gif","[""img/Fire_Down_Distractor.gif"",""img/Fire_Down_Distractor.gif"",""img/Fire_Down_Distractor.gif"",""img/Fire_Down_Distractor.gif"",""img/Fire_Down_Distractor.gif"",""img/Fire_Down_Distractor.gif"",""img/Fire_Down_Distractor.gif"",""img/Fire_Down_Distractor.gif"",""img/Fire_Down_Distractor.gif"",""img/Fire_Down_Distractor.gif"",""img/Fire_Down_Distractor.gif"",""img/Fire_Down_Distractor.gif""]","targetUp_distractorsDown"
"","","","","","html-keyboard-response","54","103406","0.0-14.0-0.0-0.20","5fc44569444cef8809245f94","6186fb1cc52d38b480598eb7","618726801d39e6ee755c43d6","null","","null","","","","","fixation","","","",""
"","","","","","visual-search-circle","55","105303","0.0-14.0-0.0-1.20","5fc44569444cef8809245f94","6186fb1cc52d38b480598eb7","618726801d39e6ee755c43d6","886","","d","true","[[107,70],[4,352],[197,581],[492,529],[595,247],[402,18]]","true","6","","","img/Fire_Down_Target.gif","[""img/Fire_Up_Distractor.gif"",""img/Fire_Up_Distractor.gif"",""img/Fire_Up_Distractor.gif"",""img/Fire_Up_Distractor.gif"",""img/Fire_Up_Distractor.gif"",""img/Fire_Up_Distractor.gif"",""img/Fire_Up_Distractor.gif"",""img/Fire_Up_Distractor.gif"",""img/Fire_Up_Distractor.gif"",""img/Fire_Up_Distractor.gif"",""img/Fire_Up_Distractor.gif"",""img/Fire_Up_Distractor.gif""]","targetDown_distractorsUp"
"","","","","","html-keyboard-response","56","105306","0.0-14.0-0.0-0.21","5fc44569444cef8809245f94","6186fb1cc52d38b480598eb7","618726801d39e6ee755c43d6","null","","null","","","","","fixation","","","",""
"","","","","","visual-search-circle","57","107223","0.0-14.0-0.0-1.21","5fc44569444cef8809245f94","6186fb1cc52d38b480598eb7","618726801d39e6ee755c43d6","908.6999999880791","","d","true","[[107,529],[529,492],[492,70],[70,107]]","true","4","","","img/Fire_Up_Target.gif","[""img/Fire_Down_Distractor.gif"",""img/Fire_Down_Distractor.gif"",""img/Fire_Down_Distractor.gif"",""img/Fire_Down_Distractor.gif"",""img/Fire_Down_Distractor.gif"",""img/Fire_Down_Distractor.gif"",""img/Fire_Down_Distractor.gif"",""img/Fire_Down_Distractor.gif"",""img/Fire_Down_Distractor.gif"",""img/Fire_Down_Distractor.gif"",""img/Fire_Down_Distractor.gif"",""img/Fire_Down_Distractor.gif""]","targetUp_distractorsDown"
"","","","","","html-keyboard-response","58","107228","0.0-14.0-0.0-0.22","5fc44569444cef8809245f94","6186fb1cc52d38b480598eb7","618726801d39e6ee755c43d6","null","","null","","","","","fixation","","","",""
"","","","","","visual-search-circle","59","110396","0.0-14.0-0.0-1.22","5fc44569444cef8809245f94","6186fb1cc52d38b480598eb7","618726801d39e6ee755c43d6","2159.599999964237","","s","true","[[19,407],[253,596],[533,488],[580,192],[346,3],[66,111]]","false","6","","","img/Fire_Down_Target.gif","[""img/Fire_Up_Distractor.gif"",""img/Fire_Up_Distractor.gif"",""img/Fire_Up_Distractor.gif"",""img/Fire_Up_Distractor.gif"",""img/Fire_Up_Distractor.gif"",""img/Fire_Up_Distractor.gif"",""img/Fire_Up_Distractor.gif"",""img/Fire_Up_Distractor.gif"",""img/Fire_Up_Distractor.gif"",""img/Fire_Up_Distractor.gif"",""img/Fire_Up_Distractor.gif"",""img/Fire_Up_Distractor.gif""]","targetDown_distractorsUp"
"","","","","","html-keyboard-response","60","110397","0.0-14.0-0.0-0.23","5fc44569444cef8809245f94","6186fb1cc52d38b480598eb7","618726801d39e6ee755c43d6","null","","null","","","","","fixation","","","",""
"","","","","","visual-search-circle","61","112616","0.0-14.0-0.0-1.23","5fc44569444cef8809245f94","6186fb1cc52d38b480598eb7","618726801d39e6ee755c43d6","1208.5","","s","true","[[14,207],[207,585],[585,392],[392,14]]","false","4","","","img/Fire_Up_Target.gif","[""img/Fire_Down_Distractor.gif"",""img/Fire_Down_Distractor.gif"",""img/Fire_Down_Distractor.gif"",""img/Fire_Down_Distractor.gif"",""img/Fire_Down_Distractor.gif"",""img/Fire_Down_Distractor.gif"",""img/Fire_Down_Distractor.gif"",""img/Fire_Down_Distractor.gif"",""img/Fire_Down_Distractor.gif"",""img/Fire_Down_Distractor.gif"",""img/Fire_Down_Distractor.gif"",""img/Fire_Down_Distractor.gif""]","targetUp_distractorsDown"
"","","","","","html-keyboard-response","62","112617","0.0-14.0-0.0-0.24","5fc44569444cef8809245f94","6186fb1cc52d38b480598eb7","618726801d39e6ee755c43d6","null","","null","","","","","fixation","","","",""
"","","","","","visual-search-circle","63","114872","0.0-14.0-0.0-1.24","5fc44569444cef8809245f94","6186fb1cc52d38b480598eb7","618726801d39e6ee755c43d6","1246.4000000357628","","s","true","[[436,567],[567,163],[163,32],[32,436]]","false","4","","","img/Fire_Down_Target.gif","[""img/Fire_Up_Distractor.gif"",""img/Fire_Up_Distractor.gif"",""img/Fire_Up_Distractor.gif"",""img/Fire_Up_Distractor.gif"",""img/Fire_Up_Distractor.gif"",""img/Fire_Up_Distractor.gif"",""img/Fire_Up_Distractor.gif"",""img/Fire_Up_Distractor.gif"",""img/Fire_Up_Distractor.gif"",""img/Fire_Up_Distractor.gif"",""img/Fire_Up_Distractor.gif"",""img/Fire_Up_Distractor.gif""]","targetDown_distractorsUp"
"","","","","","html-keyboard-response","64","114875","0.0-14.0-0.0-0.25","5fc44569444cef8809245f94","6186fb1cc52d38b480598eb7","618726801d39e6ee755c43d6","null","","null","","","","","fixation","","","",""
"","","","","","visual-search-circle","65","117072","0.0-14.0-0.0-1.25","5fc44569444cef8809245f94","6186fb1cc52d38b480598eb7","618726801d39e6ee755c43d6","1186.199999988079","","s","true","[[422,574],[598,331],[476,57],[177,25],[1,268],[123,542]]","false","6","","","img/Fire_Up_Target.gif","[""img/Fire_Down_Distractor.gif"",""img/Fire_Down_Distractor.gif"",""img/Fire_Down_Distractor.gif"",""img/Fire_Down_Distractor.gif"",""img/Fire_Down_Distractor.gif"",""img/Fire_Down_Distractor.gif"",""img/Fire_Down_Distractor.gif"",""img/Fire_Down_Distractor.gif"",""img/Fire_Down_Distractor.gif"",""img/Fire_Down_Distractor.gif"",""img/Fire_Down_Distractor.gif"",""img/Fire_Down_Distractor.gif""]","targetUp_distractorsDown"
"","","","","","html-keyboard-response","66","117076","0.0-14.0-0.0-0.26","5fc44569444cef8809245f94","6186fb1cc52d38b480598eb7","618726801d39e6ee755c43d6","null","","null","","","","","fixation","","","",""
"","","","","","visual-search-circle","67","119096","0.0-14.0-0.0-1.26","5fc44569444cef8809245f94","6186fb1cc52d38b480598eb7","618726801d39e6ee755c43d6","1010.1999999880791","","s","true","[[247,595],[529,492],[581,197],[352,4],[70,107],[18,402]]","false","6","","","img/Fire_Down_Target.gif","[""img/Fire_Up_Distractor.gif"",""img/Fire_Up_Distractor.gif"",""img/Fire_Up_Distractor.gif"",""img/Fire_Up_Distractor.gif"",""img/Fire_Up_Distractor.gif"",""img/Fire_Up_Distractor.gif"",""img/Fire_Up_Distractor.gif"",""img/Fire_Up_Distractor.gif"",""img/Fire_Up_Distractor.gif"",""img/Fire_Up_Distractor.gif"",""img/Fire_Up_Distractor.gif"",""img/Fire_Up_Distractor.gif""]","targetDown_distractorsUp"
"","","","","","html-keyboard-response","68","119097","0.0-14.0-0.0-0.27","5fc44569444cef8809245f94","6186fb1cc52d38b480598eb7","618726801d39e6ee755c43d6","null","","null","","","","","fixation","","","",""
"","","","","","visual-search-circle","69","121502","0.0-14.0-0.0-1.27","5fc44569444cef8809245f94","6186fb1cc52d38b480598eb7","618726801d39e6ee755c43d6","1395.300000011921","","s","true","[[136,48],[10,377],[284,599],[580,407],[488,66]]","false","5","","","img/Fire_Down_Target.gif","[""img/Fire_Up_Distractor.gif"",""img/Fire_Up_Distractor.gif"",""img/Fire_Up_Distractor.gif"",""img/Fire_Up_Distractor.gif"",""img/Fire_Up_Distractor.gif"",""img/Fire_Up_Distractor.gif"",""img/Fire_Up_Distractor.gif"",""img/Fire_Up_Distractor.gif"",""img/Fire_Up_Distractor.gif"",""img/Fire_Up_Distractor.gif"",""img/Fire_Up_Distractor.gif"",""img/Fire_Up_Distractor.gif""]","targetDown_distractorsUp"
"","","","","","html-keyboard-response","70","121505","0.0-14.0-0.0-0.28","5fc44569444cef8809245f94","6186fb1cc52d38b480598eb7","618726801d39e6ee755c43d6","null","","null","","","","","fixation","","","",""
"","","","","","visual-search-circle","71","123382","0.0-14.0-0.0-1.28","5fc44569444cef8809245f94","6186fb1cc52d38b480598eb7","618726801d39e6ee755c43d6","865.8999999761581","","d","true","[[99,77],[0,284],[77,500],[284,599],[500,522],[599,315],[522,99],[315,0]]","true","8","","","img/Fire_Up_Target.gif","[""img/Fire_Down_Distractor.gif"",""img/Fire_Down_Distractor.gif"",""img/Fire_Down_Distractor.gif"",""img/Fire_Down_Distractor.gif"",""img/Fire_Down_Distractor.gif"",""img/Fire_Down_Distractor.gif"",""img/Fire_Down_Distractor.gif"",""img/Fire_Down_Distractor.gif"",""img/Fire_Down_Distractor.gif"",""img/Fire_Down_Distractor.gif"",""img/Fire_Down_Distractor.gif"",""img/Fire_Down_Distractor.gif""]","targetUp_distractorsDown"
"","","","","","html-keyboard-response","72","123383","0.0-14.0-0.0-0.29","5fc44569444cef8809245f94","6186fb1cc52d38b480598eb7","618726801d39e6ee755c43d6","null","","null","","","","","fixation","","","",""
"","","","","","visual-search-circle","73","125512","0.0-14.0-0.0-1.29","5fc44569444cef8809245f94","6186fb1cc52d38b480598eb7","618726801d39e6ee755c43d6","1121.5","","s","false","[[115,63],[2,341],[187,578],[484,536],[597,258],[412,21]]","true","6","","","img/Fire_Up_Target.gif","[""img/Fire_Down_Distractor.gif"",""img/Fire_Down_Distractor.gif"",""img/Fire_Down_Distractor.gif"",""img/Fire_Down_Distractor.gif"",""img/Fire_Down_Distractor.gif"",""img/Fire_Down_Distractor.gif"",""img/Fire_Down_Distractor.gif"",""img/Fire_Down_Distractor.gif"",""img/Fire_Down_Distractor.gif"",""img/Fire_Down_Distractor.gif"",""img/Fire_Down_Distractor.gif"",""img/Fire_Down_Distractor.gif""]","targetUp_distractorsDown"
"","","","","","html-keyboard-response","74","125514","0.0-14.0-0.0-0.30","5fc44569444cef8809245f94","6186fb1cc52d38b480598eb7","618726801d39e6ee755c43d6","null","","null","","","","","fixation","","","",""
"","","","","","visual-search-circle","75","127447","0.0-14.0-0.0-1.30","5fc44569444cef8809245f94","6186fb1cc52d38b480598eb7","618726801d39e6ee755c43d6","922.2999999523163","","s","false","[[492,70],[197,18],[4,247],[107,529],[402,581],[595,352]]","true","6","","","img/Fire_Up_Target.gif","[""img/Fire_Down_Distractor.gif"",""img/Fire_Down_Distractor.gif"",""img/Fire_Down_Distractor.gif"",""img/Fire_Down_Distractor.gif"",""img/Fire_Down_Distractor.gif"",""img/Fire_Down_Distractor.gif"",""img/Fire_Down_Distractor.gif"",""img/Fire_Down_Distractor.gif"",""img/Fire_Down_Distractor.gif"",""img/Fire_Down_Distractor.gif"",""img/Fire_Down_Distractor.gif"",""img/Fire_Down_Distractor.gif""]","targetUp_distractorsDown"
"","","","","","html-keyboard-response","76","127451","0.0-14.0-0.0-0.31","5fc44569444cef8809245f94","6186fb1cc52d38b480598eb7","618726801d39e6ee755c43d6","null","","null","","","","","fixation","","","",""
"","","","","","visual-search-circle","77","129647","0.0-14.0-0.0-1.31","5fc44569444cef8809245f94","6186fb1cc52d38b480598eb7","618726801d39e6ee755c43d6","1187.2000000476837","","d","true","[[492,529],[599,292],[481,60],[225,9],[26,176],[33,436],[240,594]]","true","7","","","img/Fire_Down_Target.gif","[""img/Fire_Up_Distractor.gif"",""img/Fire_Up_Distractor.gif"",""img/Fire_Up_Distractor.gif"",""img/Fire_Up_Distractor.gif"",""img/Fire_Up_Distractor.gif"",""img/Fire_Up_Distractor.gif"",""img/Fire_Up_Distractor.gif"",""img/Fire_Up_Distractor.gif"",""img/Fire_Up_Distractor.gif"",""img/Fire_Up_Distractor.gif"",""img/Fire_Up_Distractor.gif"",""img/Fire_Up_Distractor.gif""]","targetDown_distractorsUp"
"","","","","","html-keyboard-response","78","129650","0.0-14.0-0.0-0.32","5fc44569444cef8809245f94","6186fb1cc52d38b480598eb7","618726801d39e6ee755c43d6","null","","null","","","","","fixation","","","",""
"","","","","","visual-search-circle","79","131606","0.0-14.0-0.0-1.32","5fc44569444cef8809245f94","6186fb1cc52d38b480598eb7","618726801d39e6ee755c43d6","950.2000000476837","","d","true","[[14,392],[299,600],[585,392],[476,57],[123,57]]","true","5","","","img/Fire_Down_Target.gif","[""img/Fire_Up_Distractor.gif"",""img/Fire_Up_Distractor.gif"",""img/Fire_Up_Distractor.gif"",""img/Fire_Up_Distractor.gif"",""img/Fire_Up_Distractor.gif"",""img/Fire_Up_Distractor.gif"",""img/Fire_Up_Distractor.gif"",""img/Fire_Up_Distractor.gif"",""img/Fire_Up_Distractor.gif"",""img/Fire_Up_Distractor.gif"",""img/Fire_Up_Distractor.gif"",""img/Fire_Up_Distractor.gif""]","targetDown_distractorsUp"
"","","","","","html-keyboard-response","80","131608","0.0-14.0-0.0-0.33","5fc44569444cef8809245f94","6186fb1cc52d38b480598eb7","618726801d39e6ee755c43d6","null","","null","","","","","fixation","","","",""
"","","","","","visual-search-circle","81","134647","0.0-14.0-0.0-1.33","5fc44569444cef8809245f94","6186fb1cc52d38b480598eb7","618726801d39e6ee755c43d6","2026.5","","d","true","[[227,8],[27,175],[32,435],[239,593],[491,530],[599,294],[482,61]]","true","7","","","img/Fire_Up_Target.gif","[""img/Fire_Down_Distractor.gif"",""img/Fire_Down_Distractor.gif"",""img/Fire_Down_Distractor.gif"",""img/Fire_Down_Distractor.gif"",""img/Fire_Down_Distractor.gif"",""img/Fire_Down_Distractor.gif"",""img/Fire_Down_Distractor.gif"",""img/Fire_Down_Distractor.gif"",""img/Fire_Down_Distractor.gif"",""img/Fire_Down_Distractor.gif"",""img/Fire_Down_Distractor.gif"",""img/Fire_Down_Distractor.gif""]","targetUp_distractorsDown"
"","","","","","html-keyboard-response","82","134648","0.0-14.0-0.0-0.34","5fc44569444cef8809245f94","6186fb1cc52d38b480598eb7","618726801d39e6ee755c43d6","null","","null","","","","","fixation","","","",""
"","","","","","visual-search-circle","83","137631","0.0-14.0-0.0-1.34","5fc44569444cef8809245f94","6186fb1cc52d38b480598eb7","618726801d39e6ee755c43d6","1968.199999988079","","s","true","[[564,440],[586,212],[440,35],[212,13],[35,159],[13,387],[159,564],[387,586]]","false","8","","","img/Fire_Down_Target.gif","[""img/Fire_Up_Distractor.gif"",""img/Fire_Up_Distractor.gif"",""img/Fire_Up_Distractor.gif"",""img/Fire_Up_Distractor.gif"",""img/Fire_Up_Distractor.gif"",""img/Fire_Up_Distractor.gif"",""img/Fire_Up_Distractor.gif"",""img/Fire_Up_Distractor.gif"",""img/Fire_Up_Distractor.gif"",""img/Fire_Up_Distractor.gif"",""img/Fire_Up_Distractor.gif"",""img/Fire_Up_Distractor.gif""]","targetDown_distractorsUp"
"","","","","","html-keyboard-response","84","137632","0.0-14.0-0.0-0.35","5fc44569444cef8809245f94","6186fb1cc52d38b480598eb7","618726801d39e6ee755c43d6","null","","null","","","","","fixation","","","",""
"","","","","","visual-search-circle","85","139647","0.0-14.0-0.0-1.35","5fc44569444cef8809245f94","6186fb1cc52d38b480598eb7","618726801d39e6ee755c43d6","1006","","d","true","[[40,150],[20,409],[211,586],[468,547],[599,322],[504,80],[255,3]]","true","7","","","img/Fire_Down_Target.gif","[""img/Fire_Up_Distractor.gif"",""img/Fire_Up_Distractor.gif"",""img/Fire_Up_Distractor.gif"",""img/Fire_Up_Distractor.gif"",""img/Fire_Up_Distractor.gif"",""img/Fire_Up_Distractor.gif"",""img/Fire_Up_Distractor.gif"",""img/Fire_Up_Distractor.gif"",""img/Fire_Up_Distractor.gif"",""img/Fire_Up_Distractor.gif"",""img/Fire_Up_Distractor.gif"",""img/Fire_Up_Distractor.gif""]","targetDown_distractorsUp"
"","","","","","html-keyboard-response","86","139649","0.0-14.0-0.0-0.36","5fc44569444cef8809245f94","6186fb1cc52d38b480598eb7","618726801d39e6ee755c43d6","null","","null","","","","","fixation","","","",""
"","","","","","visual-search-circle","87","141488","0.0-14.0-0.0-1.36","5fc44569444cef8809245f94","6186fb1cc52d38b480598eb7","618726801d39e6ee755c43d6","830","","d","true","[[60,480],[258,597],[480,539],[597,341],[539,119],[341,2],[119,60],[2,258]]","true","8","","","img/Fire_Down_Target.gif","[""img/Fire_Up_Distractor.gif"",""img/Fire_Up_Distractor.gif"",""img/Fire_Up_Distractor.gif"",""img/Fire_Up_Distractor.gif"",""img/Fire_Up_Distractor.gif"",""img/Fire_Up_Distractor.gif"",""img/Fire_Up_Distractor.gif"",""img/Fire_Up_Distractor.gif"",""img/Fire_Up_Distractor.gif"",""img/Fire_Up_Distractor.gif"",""img/Fire_Up_Distractor.gif"",""img/Fire_Up_Distractor.gif""]","targetDown_distractorsUp"
"","","","","","html-keyboard-response","88","141489","0.0-14.0-0.0-0.37","5fc44569444cef8809245f94","6186fb1cc52d38b480598eb7","618726801d39e6ee755c43d6","null","","null","","","","","fixation","","","",""
"","","","","","visual-search-circle","89","143278","0.0-14.0-0.0-1.37","5fc44569444cef8809245f94","6186fb1cc52d38b480598eb7","618726801d39e6ee755c43d6","777.7000000476837","","d","true","[[242,5],[16,202],[73,496],[357,594],[583,397],[526,103]]","true","6","","","img/Fire_Down_Target.gif","[""img/Fire_Up_Distractor.gif"",""img/Fire_Up_Distractor.gif"",""img/Fire_Up_Distractor.gif"",""img/Fire_Up_Distractor.gif"",""img/Fire_Up_Distractor.gif"",""img/Fire_Up_Distractor.gif"",""img/Fire_Up_Distractor.gif"",""img/Fire_Up_Distractor.gif"",""img/Fire_Up_Distractor.gif"",""img/Fire_Up_Distractor.gif"",""img/Fire_Up_Distractor.gif"",""img/Fire_Up_Distractor.gif""]","targetDown_distractorsUp"
"","","","","","html-keyboard-response","90","143279","0.0-14.0-0.0-0.38","5fc44569444cef8809245f94","6186fb1cc52d38b480598eb7","618726801d39e6ee755c43d6","null","","null","","","","","fixation","","","",""
"","","","","","visual-search-circle","91","146999","0.0-14.0-0.0-1.38","5fc44569444cef8809245f94","6186fb1cc52d38b480598eb7","618726801d39e6ee755c43d6","2710.100000023842","","s","true","[[526,103],[242,5],[16,202],[73,496],[357,594],[583,397]]","false","6","","","img/Fire_Down_Target.gif","[""img/Fire_Up_Distractor.gif"",""img/Fire_Up_Distractor.gif"",""img/Fire_Up_Distractor.gif"",""img/Fire_Up_Distractor.gif"",""img/Fire_Up_Distractor.gif"",""img/Fire_Up_Distractor.gif"",""img/Fire_Up_Distractor.gif"",""img/Fire_Up_Distractor.gif"",""img/Fire_Up_Distractor.gif"",""img/Fire_Up_Distractor.gif"",""img/Fire_Up_Distractor.gif"",""img/Fire_Up_Distractor.gif""]","targetDown_distractorsUp"
"","","","","","html-keyboard-response","92","148162","0.0-14.0-0.0-0.39","5fc44569444cef8809245f94","6186fb1cc52d38b480598eb7","618726801d39e6ee755c43d6","1161.699999988079","Wow! You've completed 40 out of 120 trials! </p> <p>  </p><p> Take a quick break, then press any key when you're ready to continue."," ","","","","","fixation","","","",""
"","","","","","visual-search-circle","93","150895","0.0-14.0-0.0-1.39","5fc44569444cef8809245f94","6186fb1cc52d38b480598eb7","618726801d39e6ee755c43d6","1723.1000000238419","","d","true","[[526,103],[182,23],[1,326],[232,592],[557,454]]","true","5","","","img/Fire_Down_Target.gif","[""img/Fire_Up_Distractor.gif"",""img/Fire_Up_Distractor.gif"",""img/Fire_Up_Distractor.gif"",""img/Fire_Up_Distractor.gif"",""img/Fire_Up_Distractor.gif"",""img/Fire_Up_Distractor.gif"",""img/Fire_Up_Distractor.gif"",""img/Fire_Up_Distractor.gif"",""img/Fire_Up_Distractor.gif"",""img/Fire_Up_Distractor.gif"",""img/Fire_Up_Distractor.gif"",""img/Fire_Up_Distractor.gif""]","targetDown_distractorsUp"
"","","","","","html-keyboard-response","94","150898","0.0-14.0-0.0-0.40","5fc44569444cef8809245f94","6186fb1cc52d38b480598eb7","618726801d39e6ee755c43d6","null","","null","","","","","fixation","","","",""
"","","","","","visual-search-circle","95","152798","0.0-14.0-0.0-1.40","5fc44569444cef8809245f94","6186fb1cc52d38b480598eb7","618726801d39e6ee755c43d6","890.6999999880791","","d","true","[[192,580],[580,407],[407,19],[19,192]]","true","4","","","img/Fire_Down_Target.gif","[""img/Fire_Up_Distractor.gif"",""img/Fire_Up_Distractor.gif"",""img/Fire_Up_Distractor.gif"",""img/Fire_Up_Distractor.gif"",""img/Fire_Up_Distractor.gif"",""img/Fire_Up_Distractor.gif"",""img/Fire_Up_Distractor.gif"",""img/Fire_Up_Distractor.gif"",""img/Fire_Up_Distractor.gif"",""img/Fire_Up_Distractor.gif"",""img/Fire_Up_Distractor.gif"",""img/Fire_Up_Distractor.gif""]","targetDown_distractorsUp"
"","","","","","html-keyboard-response","96","152799","0.0-14.0-0.0-0.41","5fc44569444cef8809245f94","6186fb1cc52d38b480598eb7","618726801d39e6ee755c43d6","null","","null","","","","","fixation","","","",""
"","","","","","visual-search-circle","97","154641","0.0-14.0-0.0-1.41","5fc44569444cef8809245f94","6186fb1cc52d38b480598eb7","618726801d39e6ee755c43d6","833.1999999880791","","s","true","[[8,227],[61,482],[294,599],[530,491],[593,239],[435,32],[175,27]]","false","7","","","img/Fire_Down_Target.gif","[""img/Fire_Up_Distractor.gif"",""img/Fire_Up_Distractor.gif"",""img/Fire_Up_Distractor.gif"",""img/Fire_Up_Distractor.gif"",""img/Fire_Up_Distractor.gif"",""img/Fire_Up_Distractor.gif"",""img/Fire_Up_Distractor.gif"",""img/Fire_Up_Distractor.gif"",""img/Fire_Up_Distractor.gif"",""img/Fire_Up_Distractor.gif"",""img/Fire_Up_Distractor.gif"",""img/Fire_Up_Distractor.gif""]","targetDown_distractorsUp"
"","","","","","html-keyboard-response","98","154644","0.0-14.0-0.0-0.42","5fc44569444cef8809245f94","6186fb1cc52d38b480598eb7","618726801d39e6ee755c43d6","null","","null","","","","","fixation","","","",""
"","","","","","visual-search-circle","99","156406","0.0-14.0-0.0-1.42","5fc44569444cef8809245f94","6186fb1cc52d38b480598eb7","618726801d39e6ee755c43d6","754.3000000119209","","s","true","[[13,387],[387,586],[586,212],[212,13]]","false","4","","","img/Fire_Down_Target.gif","[""img/Fire_Up_Distractor.gif"",""img/Fire_Up_Distractor.gif"",""img/Fire_Up_Distractor.gif"",""img/Fire_Up_Distractor.gif"",""img/Fire_Up_Distractor.gif"",""img/Fire_Up_Distractor.gif"",""img/Fire_Up_Distractor.gif"",""img/Fire_Up_Distractor.gif"",""img/Fire_Up_Distractor.gif"",""img/Fire_Up_Distractor.gif"",""img/Fire_Up_Distractor.gif"",""img/Fire_Up_Distractor.gif""]","targetDown_distractorsUp"
"","","","","","html-keyboard-response","100","156408","0.0-14.0-0.0-0.43","5fc44569444cef8809245f94","6186fb1cc52d38b480598eb7","618726801d39e6ee755c43d6","null","","null","","","","","fixation","","","",""
"","","","","","visual-search-circle","101","158899","0.0-14.0-0.0-1.43","5fc44569444cef8809245f94","6186fb1cc52d38b480598eb7","618726801d39e6ee755c43d6","1482.300000011921","","d","true","[[458,554],[591,227],[320,0],[21,187],[107,529]]","true","5","","","img/Fire_Up_Target.gif","[""img/Fire_Down_Distractor.gif"",""img/Fire_Down_Distractor.gif"",""img/Fire_Down_Distractor.gif"",""img/Fire_Down_Distractor.gif"",""img/Fire_Down_Distractor.gif"",""img/Fire_Down_Distractor.gif"",""img/Fire_Down_Distractor.gif"",""img/Fire_Down_Distractor.gif"",""img/Fire_Down_Distractor.gif"",""img/Fire_Down_Distractor.gif"",""img/Fire_Down_Distractor.gif"",""img/Fire_Down_Distractor.gif""]","targetUp_distractorsDown"
"","","","","","html-keyboard-response","102","158901","0.0-14.0-0.0-0.44","5fc44569444cef8809245f94","6186fb1cc52d38b480598eb7","618726801d39e6ee755c43d6","null","","null","","","","","fixation","","","",""
"","","","","","visual-search-circle","103","161407","0.0-14.0-0.0-1.44","5fc44569444cef8809245f94","6186fb1cc52d38b480598eb7","618726801d39e6ee755c43d6","1497.1000000238419","","d","true","[[45,141],[35,440],[289,599],[554,458],[564,159],[310,0]]","true","6","","","img/Fire_Up_Target.gif","[""img/Fire_Down_Distractor.gif"",""img/Fire_Down_Distractor.gif"",""img/Fire_Down_Distractor.gif"",""img/Fire_Down_Distractor.gif"",""img/Fire_Down_Distractor.gif"",""img/Fire_Down_Distractor.gif"",""img/Fire_Down_Distractor.gif"",""img/Fire_Down_Distractor.gif"",""img/Fire_Down_Distractor.gif"",""img/Fire_Down_Distractor.gif"",""img/Fire_Down_Distractor.gif"",""img/Fire_Down_Distractor.gif""]","targetUp_distractorsDown"
"","","","","","html-keyboard-response","104","161412","0.0-14.0-0.0-0.45","5fc44569444cef8809245f94","6186fb1cc52d38b480598eb7","618726801d39e6ee755c43d6","null","","null","","","","","fixation","","","",""
"","","","","","visual-search-circle","105","165280","0.0-14.0-0.0-1.45","5fc44569444cef8809245f94","6186fb1cc52d38b480598eb7","618726801d39e6ee755c43d6","2856.5","","d","true","[[177,25],[19,192],[25,422],[192,580],[422,574],[580,407],[574,177],[407,19]]","true","8","","","img/Fire_Down_Target.gif","[""img/Fire_Up_Distractor.gif"",""img/Fire_Up_Distractor.gif"",""img/Fire_Up_Distractor.gif"",""img/Fire_Up_Distractor.gif"",""img/Fire_Up_Distractor.gif"",""img/Fire_Up_Distractor.gif"",""img/Fire_Up_Distractor.gif"",""img/Fire_Up_Distractor.gif"",""img/Fire_Up_Distractor.gif"",""img/Fire_Up_Distractor.gif"",""img/Fire_Up_Distractor.gif"",""img/Fire_Up_Distractor.gif""]","targetDown_distractorsUp"
"","","","","","html-keyboard-response","106","165283","0.0-14.0-0.0-0.46","5fc44569444cef8809245f94","6186fb1cc52d38b480598eb7","618726801d39e6ee755c43d6","null","","null","","","","","fixation","","","",""
"","","","","","visual-search-circle","107","167286","0.0-14.0-0.0-1.46","5fc44569444cef8809245f94","6186fb1cc52d38b480598eb7","618726801d39e6ee755c43d6","993.8000000119209","","s","true","[[4,247],[247,595],[595,352],[352,4]]","false","4","","","img/Fire_Up_Target.gif","[""img/Fire_Down_Distractor.gif"",""img/Fire_Down_Distractor.gif"",""img/Fire_Down_Distractor.gif"",""img/Fire_Down_Distractor.gif"",""img/Fire_Down_Distractor.gif"",""img/Fire_Down_Distractor.gif"",""img/Fire_Down_Distractor.gif"",""img/Fire_Down_Distractor.gif"",""img/Fire_Down_Distractor.gif"",""img/Fire_Down_Distractor.gif"",""img/Fire_Down_Distractor.gif"",""img/Fire_Down_Distractor.gif""]","targetUp_distractorsDown"
"","","","","","html-keyboard-response","108","167288","0.0-14.0-0.0-0.47","5fc44569444cef8809245f94","6186fb1cc52d38b480598eb7","618726801d39e6ee755c43d6","null","","null","","","","","fixation","","","",""
"","","","","","visual-search-circle","109","169423","0.0-14.0-0.0-1.47","5fc44569444cef8809245f94","6186fb1cc52d38b480598eb7","618726801d39e6ee755c43d6","1124.9000000357628","","d","true","[[305,599],[586,387],[472,54],[119,60],[16,397]]","true","5","","","img/Fire_Up_Target.gif","[""img/Fire_Down_Distractor.gif"",""img/Fire_Down_Distractor.gif"",""img/Fire_Down_Distractor.gif"",""img/Fire_Down_Distractor.gif"",""img/Fire_Down_Distractor.gif"",""img/Fire_Down_Distractor.gif"",""img/Fire_Down_Distractor.gif"",""img/Fire_Down_Distractor.gif"",""img/Fire_Down_Distractor.gif"",""img/Fire_Down_Distractor.gif"",""img/Fire_Down_Distractor.gif"",""img/Fire_Down_Distractor.gif""]","targetUp_distractorsDown"
"","","","","","html-keyboard-response","110","169425","0.0-14.0-0.0-0.48","5fc44569444cef8809245f94","6186fb1cc52d38b480598eb7","618726801d39e6ee755c43d6","null","","null","","","","","fixation","","","",""
"","","","","","visual-search-circle","111","173616","0.0-14.0-0.0-1.48","5fc44569444cef8809245f94","6186fb1cc52d38b480598eb7","618726801d39e6ee755c43d6","3184.100000023842","","d","true","[[557,454],[562,154],[305,0],[42,145],[37,445],[294,599]]","true","6","","","img/Fire_Up_Target.gif","[""img/Fire_Down_Distractor.gif"",""img/Fire_Down_Distractor.gif"",""img/Fire_Down_Distractor.gif"",""img/Fire_Down_Distractor.gif"",""img/Fire_Down_Distractor.gif"",""img/Fire_Down_Distractor.gif"",""img/Fire_Down_Distractor.gif"",""img/Fire_Down_Distractor.gif"",""img/Fire_Down_Distractor.gif"",""img/Fire_Down_Distractor.gif"",""img/Fire_Down_Distractor.gif"",""img/Fire_Down_Distractor.gif""]","targetUp_distractorsDown"
"","","","","","html-keyboard-response","112","173617","0.0-14.0-0.0-0.49","5fc44569444cef8809245f94","6186fb1cc52d38b480598eb7","618726801d39e6ee755c43d6","null","","null","","","","","fixation","","","",""
"","","","","","visual-search-circle","113","176289","0.0-14.0-0.0-1.49","5fc44569444cef8809245f94","6186fb1cc52d38b480598eb7","618726801d39e6ee755c43d6","1661.5","","d","false","[[346,596],[560,448],[578,188],[386,12],[129,53],[0,279],[97,521]]","false","7","","","img/Fire_Up_Target.gif","[""img/Fire_Down_Distractor.gif"",""img/Fire_Down_Distractor.gif"",""img/Fire_Down_Distractor.gif"",""img/Fire_Down_Distractor.gif"",""img/Fire_Down_Distractor.gif"",""img/Fire_Down_Distractor.gif"",""img/Fire_Down_Distractor.gif"",""img/Fire_Down_Distractor.gif"",""img/Fire_Down_Distractor.gif"",""img/Fire_Down_Distractor.gif"",""img/Fire_Down_Distractor.gif"",""img/Fire_Down_Distractor.gif""]","targetUp_distractorsDown"
"","","","","","html-keyboard-response","114","176291","0.0-14.0-0.0-0.50","5fc44569444cef8809245f94","6186fb1cc52d38b480598eb7","618726801d39e6ee755c43d6","null","","null","","","","","fixation","","","",""
"","","","","","visual-search-circle","115","179348","0.0-14.0-0.0-1.50","5fc44569444cef8809245f94","6186fb1cc52d38b480598eb7","618726801d39e6ee755c43d6","2047.800000011921","","s","true","[[599,294],[294,0],[0,305],[305,599]]","false","4","","","img/Fire_Up_Target.gif","[""img/Fire_Down_Distractor.gif"",""img/Fire_Down_Distractor.gif"",""img/Fire_Down_Distractor.gif"",""img/Fire_Down_Distractor.gif"",""img/Fire_Down_Distractor.gif"",""img/Fire_Down_Distractor.gif"",""img/Fire_Down_Distractor.gif"",""img/Fire_Down_Distractor.gif"",""img/Fire_Down_Distractor.gif"",""img/Fire_Down_Distractor.gif"",""img/Fire_Down_Distractor.gif"",""img/Fire_Down_Distractor.gif""]","targetUp_distractorsDown"
"","","","","","html-keyboard-response","116","179350","0.0-14.0-0.0-0.51","5fc44569444cef8809245f94","6186fb1cc52d38b480598eb7","618726801d39e6ee755c43d6","null","","null","","","","","fixation","","","",""
"","","","","","visual-search-circle","117","181978","0.0-14.0-0.0-1.51","5fc44569444cef8809245f94","6186fb1cc52d38b480598eb7","618726801d39e6ee755c43d6","1621.800000011921","","d","true","[[253,596],[596,346],[346,3],[3,253]]","true","4","","","img/Fire_Down_Target.gif","[""img/Fire_Up_Distractor.gif"",""img/Fire_Up_Distractor.gif"",""img/Fire_Up_Distractor.gif"",""img/Fire_Up_Distractor.gif"",""img/Fire_Up_Distractor.gif"",""img/Fire_Up_Distractor.gif"",""img/Fire_Up_Distractor.gif"",""img/Fire_Up_Distractor.gif"",""img/Fire_Up_Distractor.gif"",""img/Fire_Up_Distractor.gif"",""img/Fire_Up_Distractor.gif"",""img/Fire_Up_Distractor.gif""]","targetDown_distractorsUp"
"","","","","","html-keyboard-response","118","181979","0.0-14.0-0.0-0.52","5fc44569444cef8809245f94","6186fb1cc52d38b480598eb7","618726801d39e6ee755c43d6","null","","null","","","","","fixation","","","",""
"","","","","","visual-search-circle","119","184464","0.0-14.0-0.0-1.52","5fc44569444cef8809245f94","6186fb1cc52d38b480598eb7","618726801d39e6ee755c43d6","1477.3999999761581","","s","true","[[346,596],[596,346],[436,32],[87,87],[32,436]]","false","5","","","img/Fire_Up_Target.gif","[""img/Fire_Down_Distractor.gif"",""img/Fire_Down_Distractor.gif"",""img/Fire_Down_Distractor.gif"",""img/Fire_Down_Distractor.gif"",""img/Fire_Down_Distractor.gif"",""img/Fire_Down_Distractor.gif"",""img/Fire_Down_Distractor.gif"",""img/Fire_Down_Distractor.gif"",""img/Fire_Down_Distractor.gif"",""img/Fire_Down_Distractor.gif"",""img/Fire_Down_Distractor.gif"",""img/Fire_Down_Distractor.gif""]","targetUp_distractorsDown"
"","","","","","html-keyboard-response","120","184465","0.0-14.0-0.0-0.53","5fc44569444cef8809245f94","6186fb1cc52d38b480598eb7","618726801d39e6ee755c43d6","null","","null","","","","","fixation","","","",""
"","","","","","visual-search-circle","121","186273","0.0-14.0-0.0-1.53","5fc44569444cef8809245f94","6186fb1cc52d38b480598eb7","618726801d39e6ee755c43d6","797.9000000357628","","d","true","[[28,173],[54,472],[326,598],[571,426],[545,127],[273,1]]","true","6","","","img/Fire_Up_Target.gif","[""img/Fire_Down_Distractor.gif"",""img/Fire_Down_Distractor.gif"",""img/Fire_Down_Distractor.gif"",""img/Fire_Down_Distractor.gif"",""img/Fire_Down_Distractor.gif"",""img/Fire_Down_Distractor.gif"",""img/Fire_Down_Distractor.gif"",""img/Fire_Down_Distractor.gif"",""img/Fire_Down_Distractor.gif"",""img/Fire_Down_Distractor.gif"",""img/Fire_Down_Distractor.gif"",""img/Fire_Down_Distractor.gif""]","targetUp_distractorsDown"
"","","","","","html-keyboard-response","122","186275","0.0-14.0-0.0-0.54","5fc44569444cef8809245f94","6186fb1cc52d38b480598eb7","618726801d39e6ee755c43d6","null","","null","","","","","fixation","","","",""
"","","","","","visual-search-circle","123","188395","0.0-14.0-0.0-1.54","5fc44569444cef8809245f94","6186fb1cc52d38b480598eb7","618726801d39e6ee755c43d6","1106.5999999642372","","s","false","[[542,123],[346,3],[123,57],[3,253],[57,476],[253,596],[476,542],[596,346]]","true","8","","","img/Fire_Up_Target.gif","[""img/Fire_Down_Distractor.gif"",""img/Fire_Down_Distractor.gif"",""img/Fire_Down_Distractor.gif"",""img/Fire_Down_Distractor.gif"",""img/Fire_Down_Distractor.gif"",""img/Fire_Down_Distractor.gif"",""img/Fire_Down_Distractor.gif"",""img/Fire_Down_Distractor.gif"",""img/Fire_Down_Distractor.gif"",""img/Fire_Down_Distractor.gif"",""img/Fire_Down_Distractor.gif"",""img/Fire_Down_Distractor.gif""]","targetUp_distractorsDown"
"","","","","","html-keyboard-response","124","188397","0.0-14.0-0.0-0.55","5fc44569444cef8809245f94","6186fb1cc52d38b480598eb7","618726801d39e6ee755c43d6","null","","null","","","","","fixation","","","",""
"","","","","","visual-search-circle","125","191719","0.0-14.0-0.0-1.55","5fc44569444cef8809245f94","6186fb1cc52d38b480598eb7","618726801d39e6ee755c43d6","2309.400000035763","","d","true","[[551,463],[584,205],[403,18],[144,43],[2,261],[84,508],[329,598]]","true","7","","","img/Fire_Down_Target.gif","[""img/Fire_Up_Distractor.gif"",""img/Fire_Up_Distractor.gif"",""img/Fire_Up_Distractor.gif"",""img/Fire_Up_Distractor.gif"",""img/Fire_Up_Distractor.gif"",""img/Fire_Up_Distractor.gif"",""img/Fire_Up_Distractor.gif"",""img/Fire_Up_Distractor.gif"",""img/Fire_Up_Distractor.gif"",""img/Fire_Up_Distractor.gif"",""img/Fire_Up_Distractor.gif"",""img/Fire_Up_Distractor.gif""]","targetDown_distractorsUp"
"","","","","","html-keyboard-response","126","191721","0.0-14.0-0.0-0.56","5fc44569444cef8809245f94","6186fb1cc52d38b480598eb7","618726801d39e6ee755c43d6","null","","null","","","","","fixation","","","",""
"","","","","","visual-search-circle","127","194009","0.0-14.0-0.0-1.56","5fc44569444cef8809245f94","6186fb1cc52d38b480598eb7","618726801d39e6ee755c43d6","1276.7000000476837","","s","true","[[207,585],[500,522],[593,237],[392,14],[99,77],[6,362]]","false","6","","","img/Fire_Down_Target.gif","[""img/Fire_Up_Distractor.gif"",""img/Fire_Up_Distractor.gif"",""img/Fire_Up_Distractor.gif"",""img/Fire_Up_Distractor.gif"",""img/Fire_Up_Distractor.gif"",""img/Fire_Up_Distractor.gif"",""img/Fire_Up_Distractor.gif"",""img/Fire_Up_Distractor.gif"",""img/Fire_Up_Distractor.gif"",""img/Fire_Up_Distractor.gif"",""img/Fire_Up_Distractor.gif"",""img/Fire_Up_Distractor.gif""]","targetDown_distractorsUp"
"","","","","","html-keyboard-response","128","194011","0.0-14.0-0.0-0.57","5fc44569444cef8809245f94","6186fb1cc52d38b480598eb7","618726801d39e6ee755c43d6","null","","null","","","","","fixation","","","",""
"","","","","","visual-search-circle","129","196564","0.0-14.0-0.0-1.57","5fc44569444cef8809245f94","6186fb1cc52d38b480598eb7","618726801d39e6ee755c43d6","1544.5","","s","true","[[18,197],[28,426],[197,581],[426,571],[581,402],[571,173],[402,18],[173,28]]","false","8","","","img/Fire_Up_Target.gif","[""img/Fire_Down_Distractor.gif"",""img/Fire_Down_Distractor.gif"",""img/Fire_Down_Distractor.gif"",""img/Fire_Down_Distractor.gif"",""img/Fire_Down_Distractor.gif"",""img/Fire_Down_Distractor.gif"",""img/Fire_Down_Distractor.gif"",""img/Fire_Down_Distractor.gif"",""img/Fire_Down_Distractor.gif"",""img/Fire_Down_Distractor.gif"",""img/Fire_Down_Distractor.gif"",""img/Fire_Down_Distractor.gif""]","targetUp_distractorsDown"
"","","","","","html-keyboard-response","130","196566","0.0-14.0-0.0-0.58","5fc44569444cef8809245f94","6186fb1cc52d38b480598eb7","618726801d39e6ee755c43d6","null","","null","","","","","fixation","","","",""
"","","","","","visual-search-circle","131","198880","0.0-14.0-0.0-1.58","5fc44569444cef8809245f94","6186fb1cc52d38b480598eb7","618726801d39e6ee755c43d6","1302.9000000357628","","s","false","[[141,554],[367,592],[554,458],[592,232],[458,45],[232,7],[45,141],[7,367]]","true","8","","","img/Fire_Up_Target.gif","[""img/Fire_Down_Distractor.gif"",""img/Fire_Down_Distractor.gif"",""img/Fire_Down_Distractor.gif"",""img/Fire_Down_Distractor.gif"",""img/Fire_Down_Distractor.gif"",""img/Fire_Down_Distractor.gif"",""img/Fire_Down_Distractor.gif"",""img/Fire_Down_Distractor.gif"",""img/Fire_Down_Distractor.gif"",""img/Fire_Down_Distractor.gif"",""img/Fire_Down_Distractor.gif"",""img/Fire_Down_Distractor.gif""]","targetUp_distractorsDown"
"","","","","","html-keyboard-response","132","199819","0.0-14.0-0.0-0.59","5fc44569444cef8809245f94","6186fb1cc52d38b480598eb7","618726801d39e6ee755c43d6","937.8000000119209","Wow! You've completed 60 out of 120 trials! </p> <p>  </p><p> Take a quick break, then press any key when you're ready to continue."," ","","","","","fixation","","","",""
"","","","","","visual-search-circle","133","203009","0.0-14.0-0.0-1.59","5fc44569444cef8809245f94","6186fb1cc52d38b480598eb7","618726801d39e6ee755c43d6","2181.300000011921","","s","true","[[212,586],[586,387],[387,13],[13,212]]","false","4","","","img/Fire_Down_Target.gif","[""img/Fire_Up_Distractor.gif"",""img/Fire_Up_Distractor.gif"",""img/Fire_Up_Distractor.gif"",""img/Fire_Up_Distractor.gif"",""img/Fire_Up_Distractor.gif"",""img/Fire_Up_Distractor.gif"",""img/Fire_Up_Distractor.gif"",""img/Fire_Up_Distractor.gif"",""img/Fire_Up_Distractor.gif"",""img/Fire_Up_Distractor.gif"",""img/Fire_Up_Distractor.gif"",""img/Fire_Up_Distractor.gif""]","targetDown_distractorsUp"
"","","","","","html-keyboard-response","134","203016","0.0-14.0-0.0-0.60","5fc44569444cef8809245f94","6186fb1cc52d38b480598eb7","618726801d39e6ee755c43d6","null","","null","","","","","fixation","","","",""
"","","","","","visual-search-circle","135","204872","0.0-14.0-0.0-1.60","5fc44569444cef8809245f94","6186fb1cc52d38b480598eb7","618726801d39e6ee755c43d6","846","","d","true","[[30,168],[51,467],[320,599],[569,431],[548,132],[279,0]]","true","6","","","img/Fire_Down_Target.gif","[""img/Fire_Up_Distractor.gif"",""img/Fire_Up_Distractor.gif"",""img/Fire_Up_Distractor.gif"",""img/Fire_Up_Distractor.gif"",""img/Fire_Up_Distractor.gif"",""img/Fire_Up_Distractor.gif"",""img/Fire_Up_Distractor.gif"",""img/Fire_Up_Distractor.gif"",""img/Fire_Up_Distractor.gif"",""img/Fire_Up_Distractor.gif"",""img/Fire_Up_Distractor.gif"",""img/Fire_Up_Distractor.gif""]","targetDown_distractorsUp"
"","","","","","html-keyboard-response","136","204874","0.0-14.0-0.0-0.61","5fc44569444cef8809245f94","6186fb1cc52d38b480598eb7","618726801d39e6ee755c43d6","null","","null","","","","","fixation","","","",""
"","","","","","visual-search-circle","137","207280","0.0-14.0-0.0-1.61","5fc44569444cef8809245f94","6186fb1cc52d38b480598eb7","618726801d39e6ee755c43d6","1395.800000011921","","d","true","[[8,372],[145,557],[372,591],[557,454],[591,227],[454,42],[227,8],[42,145]]","true","8","","","img/Fire_Up_Target.gif","[""img/Fire_Down_Distractor.gif"",""img/Fire_Down_Distractor.gif"",""img/Fire_Down_Distractor.gif"",""img/Fire_Down_Distractor.gif"",""img/Fire_Down_Distractor.gif"",""img/Fire_Down_Distractor.gif"",""img/Fire_Down_Distractor.gif"",""img/Fire_Down_Distractor.gif"",""img/Fire_Down_Distractor.gif"",""img/Fire_Down_Distractor.gif"",""img/Fire_Down_Distractor.gif"",""img/Fire_Down_Distractor.gif""]","targetUp_distractorsDown"
"","","","","","html-keyboard-response","138","207281","0.0-14.0-0.0-0.62","5fc44569444cef8809245f94","6186fb1cc52d38b480598eb7","618726801d39e6ee755c43d6","null","","null","","","","","fixation","","","",""
"","","","","","visual-search-circle","139","209344","0.0-14.0-0.0-1.62","5fc44569444cef8809245f94","6186fb1cc52d38b480598eb7","618726801d39e6ee755c43d6","1051","","s","true","[[84,508],[294,599],[508,515],[599,305],[515,91],[305,0],[91,84],[0,294]]","false","8","","","img/Fire_Down_Target.gif","[""img/Fire_Up_Distractor.gif"",""img/Fire_Up_Distractor.gif"",""img/Fire_Up_Distractor.gif"",""img/Fire_Up_Distractor.gif"",""img/Fire_Up_Distractor.gif"",""img/Fire_Up_Distractor.gif"",""img/Fire_Up_Distractor.gif"",""img/Fire_Up_Distractor.gif"",""img/Fire_Up_Distractor.gif"",""img/Fire_Up_Distractor.gif"",""img/Fire_Up_Distractor.gif"",""img/Fire_Up_Distractor.gif""]","targetDown_distractorsUp"
"","","","","","html-keyboard-response","140","209346","0.0-14.0-0.0-0.63","5fc44569444cef8809245f94","6186fb1cc52d38b480598eb7","618726801d39e6ee755c43d6","null","","null","","","","","fixation","","","",""
"","","","","","visual-search-circle","141","211490","0.0-14.0-0.0-1.63","5fc44569444cef8809245f94","6186fb1cc52d38b480598eb7","618726801d39e6ee755c43d6","1135.800000011921","","s","true","[[177,574],[407,580],[574,422],[580,192],[422,25],[192,19],[25,177],[19,407]]","false","8","","","img/Fire_Down_Target.gif","[""img/Fire_Up_Distractor.gif"",""img/Fire_Up_Distractor.gif"",""img/Fire_Up_Distractor.gif"",""img/Fire_Up_Distractor.gif"",""img/Fire_Up_Distractor.gif"",""img/Fire_Up_Distractor.gif"",""img/Fire_Up_Distractor.gif"",""img/Fire_Up_Distractor.gif"",""img/Fire_Up_Distractor.gif"",""img/Fire_Up_Distractor.gif"",""img/Fire_Up_Distractor.gif"",""img/Fire_Up_Distractor.gif""]","targetDown_distractorsUp"
"","","","","","html-keyboard-response","142","211491","0.0-14.0-0.0-0.64","5fc44569444cef8809245f94","6186fb1cc52d38b480598eb7","618726801d39e6ee755c43d6","null","","null","","","","","fixation","","","",""
"","","","","","visual-search-circle","143","214824","0.0-14.0-0.0-1.64","5fc44569444cef8809245f94","6186fb1cc52d38b480598eb7","618726801d39e6ee755c43d6","2324.100000023842","","d","true","[[222,589],[551,463],[533,111],[192,19],[0,315]]","true","5","","","img/Fire_Down_Target.gif","[""img/Fire_Up_Distractor.gif"",""img/Fire_Up_Distractor.gif"",""img/Fire_Up_Distractor.gif"",""img/Fire_Up_Distractor.gif"",""img/Fire_Up_Distractor.gif"",""img/Fire_Up_Distractor.gif"",""img/Fire_Up_Distractor.gif"",""img/Fire_Up_Distractor.gif"",""img/Fire_Up_Distractor.gif"",""img/Fire_Up_Distractor.gif"",""img/Fire_Up_Distractor.gif"",""img/Fire_Up_Distractor.gif""]","targetDown_distractorsUp"
"","","","","","html-keyboard-response","144","214829","0.0-14.0-0.0-0.65","5fc44569444cef8809245f94","6186fb1cc52d38b480598eb7","618726801d39e6ee755c43d6","null","","null","","","","","fixation","","","",""
"","","","","","visual-search-circle","145","217026","0.0-14.0-0.0-1.65","5fc44569444cef8809245f94","6186fb1cc52d38b480598eb7","618726801d39e6ee755c43d6","1187.800000011921","","s","true","[[496,73],[145,42],[7,367],[273,598],[576,417]]","false","5","","","img/Fire_Down_Target.gif","[""img/Fire_Up_Distractor.gif"",""img/Fire_Up_Distractor.gif"",""img/Fire_Up_Distractor.gif"",""img/Fire_Up_Distractor.gif"",""img/Fire_Up_Distractor.gif"",""img/Fire_Up_Distractor.gif"",""img/Fire_Up_Distractor.gif"",""img/Fire_Up_Distractor.gif"",""img/Fire_Up_Distractor.gif"",""img/Fire_Up_Distractor.gif"",""img/Fire_Up_Distractor.gif"",""img/Fire_Up_Distractor.gif""]","targetDown_distractorsUp"
"","","","","","html-keyboard-response","146","217029","0.0-14.0-0.0-0.66","5fc44569444cef8809245f94","6186fb1cc52d38b480598eb7","618726801d39e6ee755c43d6","null","","null","","","","","fixation","","","",""
"","","","","","visual-search-circle","147","219136","0.0-14.0-0.0-1.66","5fc44569444cef8809245f94","6186fb1cc52d38b480598eb7","618726801d39e6ee755c43d6","1099.8999999761581","","s","true","[[87,512],[299,600],[512,512],[600,300],[512,87],[300,0],[87,87],[0,299]]","false","8","","","img/Fire_Up_Target.gif","[""img/Fire_Down_Distractor.gif"",""img/Fire_Down_Distractor.gif"",""img/Fire_Down_Distractor.gif"",""img/Fire_Down_Distractor.gif"",""img/Fire_Down_Distractor.gif"",""img/Fire_Down_Distractor.gif"",""img/Fire_Down_Distractor.gif"",""img/Fire_Down_Distractor.gif"",""img/Fire_Down_Distractor.gif"",""img/Fire_Down_Distractor.gif"",""img/Fire_Down_Distractor.gif"",""img/Fire_Down_Distractor.gif""]","targetUp_distractorsDown"
"","","","","","html-keyboard-response","148","219138","0.0-14.0-0.0-0.67","5fc44569444cef8809245f94","6186fb1cc52d38b480598eb7","618726801d39e6ee755c43d6","null","","null","","","","","fixation","","","",""
"","","","","","visual-search-circle","149","221239","0.0-14.0-0.0-1.67","5fc44569444cef8809245f94","6186fb1cc52d38b480598eb7","618726801d39e6ee755c43d6","1092.5","","s","true","[[445,562],[595,349],[523,99],[282,0],[55,126],[11,383],[185,577]]","false","7","","","img/Fire_Up_Target.gif","[""img/Fire_Down_Distractor.gif"",""img/Fire_Down_Distractor.gif"",""img/Fire_Down_Distractor.gif"",""img/Fire_Down_Distractor.gif"",""img/Fire_Down_Distractor.gif"",""img/Fire_Down_Distractor.gif"",""img/Fire_Down_Distractor.gif"",""img/Fire_Down_Distractor.gif"",""img/Fire_Down_Distractor.gif"",""img/Fire_Down_Distractor.gif"",""img/Fire_Down_Distractor.gif"",""img/Fire_Down_Distractor.gif""]","targetUp_distractorsDown"
"","","","","","html-keyboard-response","150","221241","0.0-14.0-0.0-0.68","5fc44569444cef8809245f94","6186fb1cc52d38b480598eb7","618726801d39e6ee755c43d6","null","","null","","","","","fixation","","","",""
"","","","","","visual-search-circle","151","223831","0.0-14.0-0.0-1.68","5fc44569444cef8809245f94","6186fb1cc52d38b480598eb7","618726801d39e6ee755c43d6","1584.6000000238419","","s","true","[[99,77],[77,500],[500,522],[522,99]]","false","4","","","img/Fire_Up_Target.gif","[""img/Fire_Down_Distractor.gif"",""img/Fire_Down_Distractor.gif"",""img/Fire_Down_Distractor.gif"",""img/Fire_Down_Distractor.gif"",""img/Fire_Down_Distractor.gif"",""img/Fire_Down_Distractor.gif"",""img/Fire_Down_Distractor.gif"",""img/Fire_Down_Distractor.gif"",""img/Fire_Down_Distractor.gif"",""img/Fire_Down_Distractor.gif"",""img/Fire_Down_Distractor.gif"",""img/Fire_Down_Distractor.gif""]","targetUp_distractorsDown"
"","","","","","html-keyboard-response","152","223833","0.0-14.0-0.0-0.69","5fc44569444cef8809245f94","6186fb1cc52d38b480598eb7","618726801d39e6ee755c43d6","null","","null","","","","","fixation","","","",""
"","","","","","visual-search-circle","153","226663","0.0-14.0-0.0-1.69","5fc44569444cef8809245f94","6186fb1cc52d38b480598eb7","618726801d39e6ee755c43d6","1821.5999999642372","","s","true","[[554,141],[227,8],[0,279],[187,578],[529,492]]","false","5","","","img/Fire_Up_Target.gif","[""img/Fire_Down_Distractor.gif"",""img/Fire_Down_Distractor.gif"",""img/Fire_Down_Distractor.gif"",""img/Fire_Down_Distractor.gif"",""img/Fire_Down_Distractor.gif"",""img/Fire_Down_Distractor.gif"",""img/Fire_Down_Distractor.gif"",""img/Fire_Down_Distractor.gif"",""img/Fire_Down_Distractor.gif"",""img/Fire_Down_Distractor.gif"",""img/Fire_Down_Distractor.gif"",""img/Fire_Down_Distractor.gif""]","targetUp_distractorsDown"
"","","","","","html-keyboard-response","154","226665","0.0-14.0-0.0-0.70","5fc44569444cef8809245f94","6186fb1cc52d38b480598eb7","618726801d39e6ee755c43d6","null","","null","","","","","fixation","","","",""
"","","","","","visual-search-circle","155","228985","0.0-14.0-0.0-1.70","5fc44569444cef8809245f94","6186fb1cc52d38b480598eb7","618726801d39e6ee755c43d6","1312.8999999761581","","s","true","[[115,63],[18,402],[310,599],[588,382],[467,51]]","false","5","","","img/Fire_Up_Target.gif","[""img/Fire_Down_Distractor.gif"",""img/Fire_Down_Distractor.gif"",""img/Fire_Down_Distractor.gif"",""img/Fire_Down_Distractor.gif"",""img/Fire_Down_Distractor.gif"",""img/Fire_Down_Distractor.gif"",""img/Fire_Down_Distractor.gif"",""img/Fire_Down_Distractor.gif"",""img/Fire_Down_Distractor.gif"",""img/Fire_Down_Distractor.gif"",""img/Fire_Down_Distractor.gif"",""img/Fire_Down_Distractor.gif""]","targetUp_distractorsDown"
"","","","","","html-keyboard-response","156","228987","0.0-14.0-0.0-0.71","5fc44569444cef8809245f94","6186fb1cc52d38b480598eb7","618726801d39e6ee755c43d6","null","","null","","","","","fixation","","","",""
"","","","","","visual-search-circle","157","233490","0.0-14.0-0.0-1.71","5fc44569444cef8809245f94","6186fb1cc52d38b480598eb7","618726801d39e6ee755c43d6","3499.400000035763","","s","true","[[123,542],[422,574],[598,331],[476,57],[177,25],[1,268]]","false","6","","","img/Fire_Down_Target.gif","[""img/Fire_Up_Distractor.gif"",""img/Fire_Up_Distractor.gif"",""img/Fire_Up_Distractor.gif"",""img/Fire_Up_Distractor.gif"",""img/Fire_Up_Distractor.gif"",""img/Fire_Up_Distractor.gif"",""img/Fire_Up_Distractor.gif"",""img/Fire_Up_Distractor.gif"",""img/Fire_Up_Distractor.gif"",""img/Fire_Up_Distractor.gif"",""img/Fire_Up_Distractor.gif"",""img/Fire_Up_Distractor.gif""]","targetDown_distractorsUp"
"","","","","","html-keyboard-response","158","233492","0.0-14.0-0.0-0.72","5fc44569444cef8809245f94","6186fb1cc52d38b480598eb7","618726801d39e6ee755c43d6","null","","null","","","","","fixation","","","",""
"","","","","","visual-search-circle","159","236079","0.0-14.0-0.0-1.72","5fc44569444cef8809245f94","6186fb1cc52d38b480598eb7","618726801d39e6ee755c43d6","1576.800000011921","","d","true","[[4,352],[258,597],[569,431],[508,84],[159,35]]","true","5","","","img/Fire_Down_Target.gif","[""img/Fire_Up_Distractor.gif"",""img/Fire_Up_Distractor.gif"",""img/Fire_Up_Distractor.gif"",""img/Fire_Up_Distractor.gif"",""img/Fire_Up_Distractor.gif"",""img/Fire_Up_Distractor.gif"",""img/Fire_Up_Distractor.gif"",""img/Fire_Up_Distractor.gif"",""img/Fire_Up_Distractor.gif"",""img/Fire_Up_Distractor.gif"",""img/Fire_Up_Distractor.gif"",""img/Fire_Up_Distractor.gif""]","targetDown_distractorsUp"
"","","","","","html-keyboard-response","160","236081","0.0-14.0-0.0-0.73","5fc44569444cef8809245f94","6186fb1cc52d38b480598eb7","618726801d39e6ee755c43d6","null","","null","","","","","fixation","","","",""
"","","","","","visual-search-circle","161","239680","0.0-14.0-0.0-1.73","5fc44569444cef8809245f94","6186fb1cc52d38b480598eb7","618726801d39e6ee755c43d6","2592.300000011921","","d","true","[[21,412],[258,597],[536,484],[578,187],[341,2],[63,115]]","true","6","","","img/Fire_Down_Target.gif","[""img/Fire_Up_Distractor.gif"",""img/Fire_Up_Distractor.gif"",""img/Fire_Up_Distractor.gif"",""img/Fire_Up_Distractor.gif"",""img/Fire_Up_Distractor.gif"",""img/Fire_Up_Distractor.gif"",""img/Fire_Up_Distractor.gif"",""img/Fire_Up_Distractor.gif"",""img/Fire_Up_Distractor.gif"",""img/Fire_Up_Distractor.gif"",""img/Fire_Up_Distractor.gif"",""img/Fire_Up_Distractor.gif""]","targetDown_distractorsUp"
"","","","","","html-keyboard-response","162","239682","0.0-14.0-0.0-0.74","5fc44569444cef8809245f94","6186fb1cc52d38b480598eb7","618726801d39e6ee755c43d6","null","","null","","","","","fixation","","","",""
"","","","","","visual-search-circle","163","241650","0.0-14.0-0.0-1.74","5fc44569444cef8809245f94","6186fb1cc52d38b480598eb7","618726801d39e6ee755c43d6","959.1000000238419","","s","true","[[519,95],[173,28],[2,336],[242,594],[562,445]]","false","5","","","img/Fire_Up_Target.gif","[""img/Fire_Down_Distractor.gif"",""img/Fire_Down_Distractor.gif"",""img/Fire_Down_Distractor.gif"",""img/Fire_Down_Distractor.gif"",""img/Fire_Down_Distractor.gif"",""img/Fire_Down_Distractor.gif"",""img/Fire_Down_Distractor.gif"",""img/Fire_Down_Distractor.gif"",""img/Fire_Down_Distractor.gif"",""img/Fire_Down_Distractor.gif"",""img/Fire_Down_Distractor.gif"",""img/Fire_Down_Distractor.gif""]","targetUp_distractorsDown"
"","","","","","html-keyboard-response","164","241652","0.0-14.0-0.0-0.75","5fc44569444cef8809245f94","6186fb1cc52d38b480598eb7","618726801d39e6ee755c43d6","null","","null","","","","","fixation","","","",""
"","","","","","visual-search-circle","165","244321","0.0-14.0-0.0-1.75","5fc44569444cef8809245f94","6186fb1cc52d38b480598eb7","618726801d39e6ee755c43d6","1659.9000000357628","","d","true","[[585,207],[300,0],[14,207],[123,542],[476,542]]","true","5","","","img/Fire_Down_Target.gif","[""img/Fire_Up_Distractor.gif"",""img/Fire_Up_Distractor.gif"",""img/Fire_Up_Distractor.gif"",""img/Fire_Up_Distractor.gif"",""img/Fire_Up_Distractor.gif"",""img/Fire_Up_Distractor.gif"",""img/Fire_Up_Distractor.gif"",""img/Fire_Up_Distractor.gif"",""img/Fire_Up_Distractor.gif"",""img/Fire_Up_Distractor.gif"",""img/Fire_Up_Distractor.gif"",""img/Fire_Up_Distractor.gif""]","targetDown_distractorsUp"
"","","","","","html-keyboard-response","166","244323","0.0-14.0-0.0-0.76","5fc44569444cef8809245f94","6186fb1cc52d38b480598eb7","618726801d39e6ee755c43d6","null","","null","","","","","fixation","","","",""
"","","","","","visual-search-circle","167","246667","0.0-14.0-0.0-1.76","5fc44569444cef8809245f94","6186fb1cc52d38b480598eb7","618726801d39e6ee755c43d6","1335.5","","d","true","[[326,1],[23,182],[103,526],[454,557],[592,232]]","true","5","","","img/Fire_Down_Target.gif","[""img/Fire_Up_Distractor.gif"",""img/Fire_Up_Distractor.gif"",""img/Fire_Up_Distractor.gif"",""img/Fire_Up_Distractor.gif"",""img/Fire_Up_Distractor.gif"",""img/Fire_Up_Distractor.gif"",""img/Fire_Up_Distractor.gif"",""img/Fire_Up_Distractor.gif"",""img/Fire_Up_Distractor.gif"",""img/Fire_Up_Distractor.gif"",""img/Fire_Up_Distractor.gif"",""img/Fire_Up_Distractor.gif""]","targetDown_distractorsUp"
"","","","","","html-keyboard-response","168","246669","0.0-14.0-0.0-0.77","5fc44569444cef8809245f94","6186fb1cc52d38b480598eb7","618726801d39e6ee755c43d6","null","","null","","","","","fixation","","","",""
"","","","","","visual-search-circle","169","248584","0.0-14.0-0.0-1.77","5fc44569444cef8809245f94","6186fb1cc52d38b480598eb7","618726801d39e6ee755c43d6","906.3000000119209","","s","true","[[7,367],[367,592],[592,232],[232,7]]","false","4","","","img/Fire_Down_Target.gif","[""img/Fire_Up_Distractor.gif"",""img/Fire_Up_Distractor.gif"",""img/Fire_Up_Distractor.gif"",""img/Fire_Up_Distractor.gif"",""img/Fire_Up_Distractor.gif"",""img/Fire_Up_Distractor.gif"",""img/Fire_Up_Distractor.gif"",""img/Fire_Up_Distractor.gif"",""img/Fire_Up_Distractor.gif"",""img/Fire_Up_Distractor.gif"",""img/Fire_Up_Distractor.gif"",""img/Fire_Up_Distractor.gif""]","targetDown_distractorsUp"
"","","","","","html-keyboard-response","170","248586","0.0-14.0-0.0-0.78","5fc44569444cef8809245f94","6186fb1cc52d38b480598eb7","618726801d39e6ee755c43d6","null","","null","","","","","fixation","","","",""
"","","","","","visual-search-circle","171","250582","0.0-14.0-0.0-1.78","5fc44569444cef8809245f94","6186fb1cc52d38b480598eb7","618726801d39e6ee755c43d6","988.6000000238419","","s","true","[[576,182],[336,2],[60,119],[23,417],[263,597],[539,480]]","false","6","","","img/Fire_Up_Target.gif","[""img/Fire_Down_Distractor.gif"",""img/Fire_Down_Distractor.gif"",""img/Fire_Down_Distractor.gif"",""img/Fire_Down_Distractor.gif"",""img/Fire_Down_Distractor.gif"",""img/Fire_Down_Distractor.gif"",""img/Fire_Down_Distractor.gif"",""img/Fire_Down_Distractor.gif"",""img/Fire_Down_Distractor.gif"",""img/Fire_Down_Distractor.gif"",""img/Fire_Down_Distractor.gif"",""img/Fire_Down_Distractor.gif""]","targetUp_distractorsDown"
"","","","","","html-keyboard-response","172","251476","0.0-14.0-0.0-0.79","5fc44569444cef8809245f94","6186fb1cc52d38b480598eb7","618726801d39e6ee755c43d6","892","Wow! You've completed 80 out of 120 trials! </p> <p>  </p><p> Take a quick break, then press any key when you're ready to continue.","a","","","","","fixation","","","",""
"","","","","","visual-search-circle","173","254465","0.0-14.0-0.0-1.79","5fc44569444cef8809245f94","6186fb1cc52d38b480598eb7","618726801d39e6ee755c43d6","1977.8999999761581","","d","true","[[10,377],[284,599],[580,407],[488,66],[136,48]]","true","5","","","img/Fire_Up_Target.gif","[""img/Fire_Down_Distractor.gif"",""img/Fire_Down_Distractor.gif"",""img/Fire_Down_Distractor.gif"",""img/Fire_Down_Distractor.gif"",""img/Fire_Down_Distractor.gif"",""img/Fire_Down_Distractor.gif"",""img/Fire_Down_Distractor.gif"",""img/Fire_Down_Distractor.gif"",""img/Fire_Down_Distractor.gif"",""img/Fire_Down_Distractor.gif"",""img/Fire_Down_Distractor.gif"",""img/Fire_Down_Distractor.gif""]","targetUp_distractorsDown"
"","","","","","html-keyboard-response","174","254466","0.0-14.0-0.0-0.80","5fc44569444cef8809245f94","6186fb1cc52d38b480598eb7","618726801d39e6ee755c43d6","null","","null","","","","","fixation","","","",""
"","","","","","visual-search-circle","175","258497","0.0-14.0-0.0-1.80","5fc44569444cef8809245f94","6186fb1cc52d38b480598eb7","618726801d39e6ee755c43d6","3025.800000011921","","d","true","[[372,591],[591,227],[227,8],[8,372]]","true","4","","","img/Fire_Down_Target.gif","[""img/Fire_Up_Distractor.gif"",""img/Fire_Up_Distractor.gif"",""img/Fire_Up_Distractor.gif"",""img/Fire_Up_Distractor.gif"",""img/Fire_Up_Distractor.gif"",""img/Fire_Up_Distractor.gif"",""img/Fire_Up_Distractor.gif"",""img/Fire_Up_Distractor.gif"",""img/Fire_Up_Distractor.gif"",""img/Fire_Up_Distractor.gif"",""img/Fire_Up_Distractor.gif"",""img/Fire_Up_Distractor.gif""]","targetDown_distractorsUp"
"","","","","","html-keyboard-response","176","258499","0.0-14.0-0.0-0.81","5fc44569444cef8809245f94","6186fb1cc52d38b480598eb7","618726801d39e6ee755c43d6","null","","null","","","","","fixation","","","",""
"","","","","","visual-search-circle","177","260386","0.0-14.0-0.0-1.81","5fc44569444cef8809245f94","6186fb1cc52d38b480598eb7","618726801d39e6ee755c43d6","876.6999999880791","","d","true","[[28,173],[31,433],[236,593],[489,532],[599,296],[484,63],[229,8]]","true","7","","","img/Fire_Down_Target.gif","[""img/Fire_Up_Distractor.gif"",""img/Fire_Up_Distractor.gif"",""img/Fire_Up_Distractor.gif"",""img/Fire_Up_Distractor.gif"",""img/Fire_Up_Distractor.gif"",""img/Fire_Up_Distractor.gif"",""img/Fire_Up_Distractor.gif"",""img/Fire_Up_Distractor.gif"",""img/Fire_Up_Distractor.gif"",""img/Fire_Up_Distractor.gif"",""img/Fire_Up_Distractor.gif"",""img/Fire_Up_Distractor.gif""]","targetDown_distractorsUp"
"","","","","","html-keyboard-response","178","260388","0.0-14.0-0.0-0.82","5fc44569444cef8809245f94","6186fb1cc52d38b480598eb7","618726801d39e6ee755c43d6","null","","null","","","","","fixation","","","",""
"","","","","","visual-search-circle","179","262536","0.0-14.0-0.0-1.82","5fc44569444cef8809245f94","6186fb1cc52d38b480598eb7","618726801d39e6ee755c43d6","1137.5999999642372","","s","true","[[45,458],[372,591],[599,320],[412,21],[70,107]]","false","5","","","img/Fire_Down_Target.gif","[""img/Fire_Up_Distractor.gif"",""img/Fire_Up_Distractor.gif"",""img/Fire_Up_Distractor.gif"",""img/Fire_Up_Distractor.gif"",""img/Fire_Up_Distractor.gif"",""img/Fire_Up_Distractor.gif"",""img/Fire_Up_Distractor.gif"",""img/Fire_Up_Distractor.gif"",""img/Fire_Up_Distractor.gif"",""img/Fire_Up_Distractor.gif"",""img/Fire_Up_Distractor.gif"",""img/Fire_Up_Distractor.gif""]","targetDown_distractorsUp"
"","","","","","html-keyboard-response","180","262537","0.0-14.0-0.0-0.83","5fc44569444cef8809245f94","6186fb1cc52d38b480598eb7","618726801d39e6ee755c43d6","null","","null","","","","","fixation","","","",""
"","","","","","visual-search-circle","181","265610","0.0-14.0-0.0-1.83","5fc44569444cef8809245f94","6186fb1cc52d38b480598eb7","618726801d39e6ee755c43d6","2063.800000011921","","d","true","[[222,589],[589,377],[377,10],[10,222]]","true","4","","","img/Fire_Up_Target.gif","[""img/Fire_Down_Distractor.gif"",""img/Fire_Down_Distractor.gif"",""img/Fire_Down_Distractor.gif"",""img/Fire_Down_Distractor.gif"",""img/Fire_Down_Distractor.gif"",""img/Fire_Down_Distractor.gif"",""img/Fire_Down_Distractor.gif"",""img/Fire_Down_Distractor.gif"",""img/Fire_Down_Distractor.gif"",""img/Fire_Down_Distractor.gif"",""img/Fire_Down_Distractor.gif"",""img/Fire_Down_Distractor.gif""]","targetUp_distractorsDown"
"","","","","","html-keyboard-response","182","265613","0.0-14.0-0.0-0.84","5fc44569444cef8809245f94","6186fb1cc52d38b480598eb7","618726801d39e6ee755c43d6","null","","null","","","","","fixation","","","",""
"","","","","","visual-search-circle","183","267496","0.0-14.0-0.0-1.84","5fc44569444cef8809245f94","6186fb1cc52d38b480598eb7","618726801d39e6ee755c43d6","874.6999999880791","","s","true","[[594,357],[357,5],[5,242],[242,594]]","false","4","","","img/Fire_Down_Target.gif","[""img/Fire_Up_Distractor.gif"",""img/Fire_Up_Distractor.gif"",""img/Fire_Up_Distractor.gif"",""img/Fire_Up_Distractor.gif"",""img/Fire_Up_Distractor.gif"",""img/Fire_Up_Distractor.gif"",""img/Fire_Up_Distractor.gif"",""img/Fire_Up_Distractor.gif"",""img/Fire_Up_Distractor.gif"",""img/Fire_Up_Distractor.gif"",""img/Fire_Up_Distractor.gif"",""img/Fire_Up_Distractor.gif""]","targetDown_distractorsUp"
"","","","","","html-keyboard-response","184","267498","0.0-14.0-0.0-0.85","5fc44569444cef8809245f94","6186fb1cc52d38b480598eb7","618726801d39e6ee755c43d6","null","","null","","","","","fixation","","","",""
"","","","","","visual-search-circle","185","272737","0.0-14.0-0.0-1.85","5fc44569444cef8809245f94","6186fb1cc52d38b480598eb7","618726801d39e6ee755c43d6","4228.400000035763","","d","true","[[247,4],[54,127],[4,352],[127,545],[352,595],[545,472],[595,247],[472,54]]","true","8","","","img/Fire_Down_Target.gif","[""img/Fire_Up_Distractor.gif"",""img/Fire_Up_Distractor.gif"",""img/Fire_Up_Distractor.gif"",""img/Fire_Up_Distractor.gif"",""img/Fire_Up_Distractor.gif"",""img/Fire_Up_Distractor.gif"",""img/Fire_Up_Distractor.gif"",""img/Fire_Up_Distractor.gif"",""img/Fire_Up_Distractor.gif"",""img/Fire_Up_Distractor.gif"",""img/Fire_Up_Distractor.gif"",""img/Fire_Up_Distractor.gif""]","targetDown_distractorsUp"
"","","","","","html-keyboard-response","186","272738","0.0-14.0-0.0-0.86","5fc44569444cef8809245f94","6186fb1cc52d38b480598eb7","618726801d39e6ee755c43d6","null","","null","","","","","fixation","","","",""
"","","","","","visual-search-circle","187","274841","0.0-14.0-0.0-1.86","5fc44569444cef8809245f94","6186fb1cc52d38b480598eb7","618726801d39e6ee755c43d6","1090.8999999761581","","d","true","[[458,554],[598,334],[512,88],[267,1],[46,139],[16,398],[200,582]]","true","7","","","img/Fire_Down_Target.gif","[""img/Fire_Up_Distractor.gif"",""img/Fire_Up_Distractor.gif"",""img/Fire_Up_Distractor.gif"",""img/Fire_Up_Distractor.gif"",""img/Fire_Up_Distractor.gif"",""img/Fire_Up_Distractor.gif"",""img/Fire_Up_Distractor.gif"",""img/Fire_Up_Distractor.gif"",""img/Fire_Up_Distractor.gif"",""img/Fire_Up_Distractor.gif"",""img/Fire_Up_Distractor.gif"",""img/Fire_Up_Distractor.gif""]","targetDown_distractorsUp"
"","","","","","html-keyboard-response","188","274852","0.0-14.0-0.0-0.87","5fc44569444cef8809245f94","6186fb1cc52d38b480598eb7","618726801d39e6ee755c43d6","null","","null","","","","","fixation","","","",""
"","","","","","visual-search-circle","189","276938","0.0-14.0-0.0-1.87","5fc44569444cef8809245f94","6186fb1cc52d38b480598eb7","618726801d39e6ee755c43d6","1074.699999988079","","s","true","[[397,16],[139,46],[1,267],[88,513],[335,597],[554,458],[582,199]]","false","7","","","img/Fire_Down_Target.gif","[""img/Fire_Up_Distractor.gif"",""img/Fire_Up_Distractor.gif"",""img/Fire_Up_Distractor.gif"",""img/Fire_Up_Distractor.gif"",""img/Fire_Up_Distractor.gif"",""img/Fire_Up_Distractor.gif"",""img/Fire_Up_Distractor.gif"",""img/Fire_Up_Distractor.gif"",""img/Fire_Up_Distractor.gif"",""img/Fire_Up_Distractor.gif"",""img/Fire_Up_Distractor.gif"",""img/Fire_Up_Distractor.gif""]","targetDown_distractorsUp"
"","","","","","html-keyboard-response","190","276940","0.0-14.0-0.0-0.88","5fc44569444cef8809245f94","6186fb1cc52d38b480598eb7","618726801d39e6ee755c43d6","null","","null","","","","","fixation","","","",""
"","","","","","visual-search-circle","191","279932","0.0-14.0-0.0-1.88","5fc44569444cef8809245f94","6186fb1cc52d38b480598eb7","618726801d39e6ee755c43d6","1980","","s","true","[[103,526],[354,595],[564,441],[575,181],[379,10],[123,57],[0,287]]","false","7","","","img/Fire_Up_Target.gif","[""img/Fire_Down_Distractor.gif"",""img/Fire_Down_Distractor.gif"",""img/Fire_Down_Distractor.gif"",""img/Fire_Down_Distractor.gif"",""img/Fire_Down_Distractor.gif"",""img/Fire_Down_Distractor.gif"",""img/Fire_Down_Distractor.gif"",""img/Fire_Down_Distractor.gif"",""img/Fire_Down_Distractor.gif"",""img/Fire_Down_Distractor.gif"",""img/Fire_Down_Distractor.gif"",""img/Fire_Down_Distractor.gif""]","targetUp_distractorsDown"
"","","","","","html-keyboard-response","192","279934","0.0-14.0-0.0-0.89","5fc44569444cef8809245f94","6186fb1cc52d38b480598eb7","618726801d39e6ee755c43d6","null","","null","","","","","fixation","","","",""
"","","","","","visual-search-circle","193","282811","0.0-14.0-0.0-1.89","5fc44569444cef8809245f94","6186fb1cc52d38b480598eb7","618726801d39e6ee755c43d6","1868.800000011921","","d","true","[[192,19],[0,315],[222,589],[551,463],[533,111]]","true","5","","","img/Fire_Up_Target.gif","[""img/Fire_Down_Distractor.gif"",""img/Fire_Down_Distractor.gif"",""img/Fire_Down_Distractor.gif"",""img/Fire_Down_Distractor.gif"",""img/Fire_Down_Distractor.gif"",""img/Fire_Down_Distractor.gif"",""img/Fire_Down_Distractor.gif"",""img/Fire_Down_Distractor.gif"",""img/Fire_Down_Distractor.gif"",""img/Fire_Down_Distractor.gif"",""img/Fire_Down_Distractor.gif"",""img/Fire_Down_Distractor.gif""]","targetUp_distractorsDown"
"","","","","","html-keyboard-response","194","282814","0.0-14.0-0.0-0.90","5fc44569444cef8809245f94","6186fb1cc52d38b480598eb7","618726801d39e6ee755c43d6","null","","null","","","","","fixation","","","",""
"","","","","","visual-search-circle","195","284681","0.0-14.0-0.0-1.90","5fc44569444cef8809245f94","6186fb1cc52d38b480598eb7","618726801d39e6ee755c43d6","860.3000000119209","","d","true","[[377,589],[589,222],[222,10],[10,377]]","true","4","","","img/Fire_Down_Target.gif","[""img/Fire_Up_Distractor.gif"",""img/Fire_Up_Distractor.gif"",""img/Fire_Up_Distractor.gif"",""img/Fire_Up_Distractor.gif"",""img/Fire_Up_Distractor.gif"",""img/Fire_Up_Distractor.gif"",""img/Fire_Up_Distractor.gif"",""img/Fire_Up_Distractor.gif"",""img/Fire_Up_Distractor.gif"",""img/Fire_Up_Distractor.gif"",""img/Fire_Up_Distractor.gif"",""img/Fire_Up_Distractor.gif""]","targetDown_distractorsUp"
"","","","","","html-keyboard-response","196","284682","0.0-14.0-0.0-0.91","5fc44569444cef8809245f94","6186fb1cc52d38b480598eb7","618726801d39e6ee755c43d6","null","","null","","","","","fixation","","","",""
"","","","","","visual-search-circle","197","286880","0.0-14.0-0.0-1.91","5fc44569444cef8809245f94","6186fb1cc52d38b480598eb7","618726801d39e6ee755c43d6","1189.5999999642372","","s","true","[[73,103],[4,354],[158,564],[418,575],[589,379],[542,123],[312,0]]","false","7","","","img/Fire_Up_Target.gif","[""img/Fire_Down_Distractor.gif"",""img/Fire_Down_Distractor.gif"",""img/Fire_Down_Distractor.gif"",""img/Fire_Down_Distractor.gif"",""img/Fire_Down_Distractor.gif"",""img/Fire_Down_Distractor.gif"",""img/Fire_Down_Distractor.gif"",""img/Fire_Down_Distractor.gif"",""img/Fire_Down_Distractor.gif"",""img/Fire_Down_Distractor.gif"",""img/Fire_Down_Distractor.gif"",""img/Fire_Down_Distractor.gif""]","targetUp_distractorsDown"
"","","","","","html-keyboard-response","198","286885","0.0-14.0-0.0-0.92","5fc44569444cef8809245f94","6186fb1cc52d38b480598eb7","618726801d39e6ee755c43d6","null","","null","","","","","fixation","","","",""
"","","","","","visual-search-circle","199","289234","0.0-14.0-0.0-1.92","5fc44569444cef8809245f94","6186fb1cc52d38b480598eb7","618726801d39e6ee755c43d6","1340.5","","d","true","[[542,476],[476,57],[57,123],[123,542]]","true","4","","","img/Fire_Down_Target.gif","[""img/Fire_Up_Distractor.gif"",""img/Fire_Up_Distractor.gif"",""img/Fire_Up_Distractor.gif"",""img/Fire_Up_Distractor.gif"",""img/Fire_Up_Distractor.gif"",""img/Fire_Up_Distractor.gif"",""img/Fire_Up_Distractor.gif"",""img/Fire_Up_Distractor.gif"",""img/Fire_Up_Distractor.gif"",""img/Fire_Up_Distractor.gif"",""img/Fire_Up_Distractor.gif"",""img/Fire_Up_Distractor.gif""]","targetDown_distractorsUp"
"","","","","","html-keyboard-response","200","289235","0.0-14.0-0.0-0.93","5fc44569444cef8809245f94","6186fb1cc52d38b480598eb7","618726801d39e6ee755c43d6","null","","null","","","","","fixation","","","",""
"","","","","","visual-search-circle","201","292179","0.0-14.0-0.0-1.93","5fc44569444cef8809245f94","6186fb1cc52d38b480598eb7","618726801d39e6ee755c43d6","1933.699999988079","","d","true","[[23,417],[187,578],[417,576],[578,412],[576,182],[412,21],[182,23],[21,187]]","true","8","","","img/Fire_Down_Target.gif","[""img/Fire_Up_Distractor.gif"",""img/Fire_Up_Distractor.gif"",""img/Fire_Up_Distractor.gif"",""img/Fire_Up_Distractor.gif"",""img/Fire_Up_Distractor.gif"",""img/Fire_Up_Distractor.gif"",""img/Fire_Up_Distractor.gif"",""img/Fire_Up_Distractor.gif"",""img/Fire_Up_Distractor.gif"",""img/Fire_Up_Distractor.gif"",""img/Fire_Up_Distractor.gif"",""img/Fire_Up_Distractor.gif""]","targetDown_distractorsUp"
"","","","","","html-keyboard-response","202","292181","0.0-14.0-0.0-0.94","5fc44569444cef8809245f94","6186fb1cc52d38b480598eb7","618726801d39e6ee755c43d6","null","","null","","","","","fixation","","","",""
"","","","","","visual-search-circle","203","294736","0.0-14.0-0.0-1.94","5fc44569444cef8809245f94","6186fb1cc52d38b480598eb7","618726801d39e6ee755c43d6","1545.3999999761581","","s","true","[[132,548],[389,586],[579,408],[559,148],[343,3],[94,81],[0,323]]","false","7","","","img/Fire_Down_Target.gif","[""img/Fire_Up_Distractor.gif"",""img/Fire_Up_Distractor.gif"",""img/Fire_Up_Distractor.gif"",""img/Fire_Up_Distractor.gif"",""img/Fire_Up_Distractor.gif"",""img/Fire_Up_Distractor.gif"",""img/Fire_Up_Distractor.gif"",""img/Fire_Up_Distractor.gif"",""img/Fire_Up_Distractor.gif"",""img/Fire_Up_Distractor.gif"",""img/Fire_Up_Distractor.gif"",""img/Fire_Up_Distractor.gif""]","targetDown_distractorsUp"
"","","","","","html-keyboard-response","204","294738","0.0-14.0-0.0-0.95","5fc44569444cef8809245f94","6186fb1cc52d38b480598eb7","618726801d39e6ee755c43d6","null","","null","","","","","fixation","","","",""
"","","","","","visual-search-circle","205","297113","0.0-14.0-0.0-1.95","5fc44569444cef8809245f94","6186fb1cc52d38b480598eb7","618726801d39e6ee755c43d6","1364.5","","s","false","[[21,412],[258,597],[536,484],[578,187],[341,2],[63,115]]","true","6","","","img/Fire_Down_Target.gif","[""img/Fire_Up_Distractor.gif"",""img/Fire_Up_Distractor.gif"",""img/Fire_Up_Distractor.gif"",""img/Fire_Up_Distractor.gif"",""img/Fire_Up_Distractor.gif"",""img/Fire_Up_Distractor.gif"",""img/Fire_Up_Distractor.gif"",""img/Fire_Up_Distractor.gif"",""img/Fire_Up_Distractor.gif"",""img/Fire_Up_Distractor.gif"",""img/Fire_Up_Distractor.gif"",""img/Fire_Up_Distractor.gif""]","targetDown_distractorsUp"
"","","","","","html-keyboard-response","206","297115","0.0-14.0-0.0-0.96","5fc44569444cef8809245f94","6186fb1cc52d38b480598eb7","618726801d39e6ee755c43d6","null","","null","","","","","fixation","","","",""
"","","","","","visual-search-circle","207","300512","0.0-14.0-0.0-1.96","5fc44569444cef8809245f94","6186fb1cc52d38b480598eb7","618726801d39e6ee755c43d6","2391.7999999523163","","d","true","[[3,253],[163,567],[512,512],[567,163],[253,3]]","true","5","","","img/Fire_Up_Target.gif","[""img/Fire_Down_Distractor.gif"",""img/Fire_Down_Distractor.gif"",""img/Fire_Down_Distractor.gif"",""img/Fire_Down_Distractor.gif"",""img/Fire_Down_Distractor.gif"",""img/Fire_Down_Distractor.gif"",""img/Fire_Down_Distractor.gif"",""img/Fire_Down_Distractor.gif"",""img/Fire_Down_Distractor.gif"",""img/Fire_Down_Distractor.gif"",""img/Fire_Down_Distractor.gif"",""img/Fire_Down_Distractor.gif""]","targetUp_distractorsDown"
"","","","","","html-keyboard-response","208","300514","0.0-14.0-0.0-0.97","5fc44569444cef8809245f94","6186fb1cc52d38b480598eb7","618726801d39e6ee755c43d6","null","","null","","","","","fixation","","","",""
"","","","","","visual-search-circle","209","302797","0.0-14.0-0.0-1.97","5fc44569444cef8809245f94","6186fb1cc52d38b480598eb7","618726801d39e6ee755c43d6","1275.0999999642372","","d","true","[[548,132],[132,51],[51,467],[467,548]]","true","4","","","img/Fire_Down_Target.gif","[""img/Fire_Up_Distractor.gif"",""img/Fire_Up_Distractor.gif"",""img/Fire_Up_Distractor.gif"",""img/Fire_Up_Distractor.gif"",""img/Fire_Up_Distractor.gif"",""img/Fire_Up_Distractor.gif"",""img/Fire_Up_Distractor.gif"",""img/Fire_Up_Distractor.gif"",""img/Fire_Up_Distractor.gif"",""img/Fire_Up_Distractor.gif"",""img/Fire_Up_Distractor.gif"",""img/Fire_Up_Distractor.gif""]","targetDown_distractorsUp"
"","","","","","html-keyboard-response","210","302798","0.0-14.0-0.0-0.98","5fc44569444cef8809245f94","6186fb1cc52d38b480598eb7","618726801d39e6ee755c43d6","null","","null","","","","","fixation","","","",""
"","","","","","visual-search-circle","211","304986","0.0-14.0-0.0-1.98","5fc44569444cef8809245f94","6186fb1cc52d38b480598eb7","618726801d39e6ee755c43d6","1178.800000011921","","s","true","[[310,599],[540,478],[589,223],[420,25],[160,34],[5,243],[72,495]]","false","7","","","img/Fire_Up_Target.gif","[""img/Fire_Down_Distractor.gif"",""img/Fire_Down_Distractor.gif"",""img/Fire_Down_Distractor.gif"",""img/Fire_Down_Distractor.gif"",""img/Fire_Down_Distractor.gif"",""img/Fire_Down_Distractor.gif"",""img/Fire_Down_Distractor.gif"",""img/Fire_Down_Distractor.gif"",""img/Fire_Down_Distractor.gif"",""img/Fire_Down_Distractor.gif"",""img/Fire_Down_Distractor.gif"",""img/Fire_Down_Distractor.gif""]","targetUp_distractorsDown"
"","","","","","html-keyboard-response","212","305805","0.0-14.0-0.0-0.99","5fc44569444cef8809245f94","6186fb1cc52d38b480598eb7","618726801d39e6ee755c43d6","817.2999999523163","Wow! You've completed 100 out of 120 trials! </p> <p>  </p><p> Take a quick break, then press any key when you're ready to continue."," ","","","","","fixation","","","",""
"","","","","","visual-search-circle","213","308034","0.0-14.0-0.0-1.99","5fc44569444cef8809245f94","6186fb1cc52d38b480598eb7","618726801d39e6ee755c43d6","1217.7000000476837","","s","true","[[145,557],[404,581],[585,393],[550,135],[327,1],[83,92],[2,339]]","false","7","","","img/Fire_Down_Target.gif","[""img/Fire_Up_Distractor.gif"",""img/Fire_Up_Distractor.gif"",""img/Fire_Up_Distractor.gif"",""img/Fire_Up_Distractor.gif"",""img/Fire_Up_Distractor.gif"",""img/Fire_Up_Distractor.gif"",""img/Fire_Up_Distractor.gif"",""img/Fire_Up_Distractor.gif"",""img/Fire_Up_Distractor.gif"",""img/Fire_Up_Distractor.gif"",""img/Fire_Up_Distractor.gif"",""img/Fire_Up_Distractor.gif""]","targetDown_distractorsUp"
"","","","","","html-keyboard-response","214","308036","0.0-14.0-0.0-0.100","5fc44569444cef8809245f94","6186fb1cc52d38b480598eb7","618726801d39e6ee755c43d6","null","","null","","","","","fixation","","","",""
"","","","","","visual-search-circle","215","309889","0.0-14.0-0.0-1.100","5fc44569444cef8809245f94","6186fb1cc52d38b480598eb7","618726801d39e6ee755c43d6","843.2999999523163","","s","true","[[30,168],[29,428],[231,592],[485,535],[599,301],[488,66],[234,7]]","false","7","","","img/Fire_Down_Target.gif","[""img/Fire_Up_Distractor.gif"",""img/Fire_Up_Distractor.gif"",""img/Fire_Up_Distractor.gif"",""img/Fire_Up_Distractor.gif"",""img/Fire_Up_Distractor.gif"",""img/Fire_Up_Distractor.gif"",""img/Fire_Up_Distractor.gif"",""img/Fire_Up_Distractor.gif"",""img/Fire_Up_Distractor.gif"",""img/Fire_Up_Distractor.gif"",""img/Fire_Up_Distractor.gif"",""img/Fire_Up_Distractor.gif""]","targetDown_distractorsUp"
"","","","","","html-keyboard-response","216","309891","0.0-14.0-0.0-0.101","5fc44569444cef8809245f94","6186fb1cc52d38b480598eb7","618726801d39e6ee755c43d6","null","","null","","","","","fixation","","","",""
"","","","","","visual-search-circle","217","311980","0.0-14.0-0.0-1.101","5fc44569444cef8809245f94","6186fb1cc52d38b480598eb7","618726801d39e6ee755c43d6","1080.3999999761581","","d","true","[[16,397],[242,594],[526,496],[583,202],[357,5],[73,103]]","true","6","","","img/Fire_Down_Target.gif","[""img/Fire_Up_Distractor.gif"",""img/Fire_Up_Distractor.gif"",""img/Fire_Up_Distractor.gif"",""img/Fire_Up_Distractor.gif"",""img/Fire_Up_Distractor.gif"",""img/Fire_Up_Distractor.gif"",""img/Fire_Up_Distractor.gif"",""img/Fire_Up_Distractor.gif"",""img/Fire_Up_Distractor.gif"",""img/Fire_Up_Distractor.gif"",""img/Fire_Up_Distractor.gif"",""img/Fire_Up_Distractor.gif""]","targetDown_distractorsUp"
"","","","","","html-keyboard-response","218","311982","0.0-14.0-0.0-0.102","5fc44569444cef8809245f94","6186fb1cc52d38b480598eb7","618726801d39e6ee755c43d6","null","","null","","","","","fixation","","","",""
"","","","","","visual-search-circle","219","313971","0.0-14.0-0.0-1.102","5fc44569444cef8809245f94","6186fb1cc52d38b480598eb7","618726801d39e6ee755c43d6","977","","d","true","[[177,25],[19,192],[25,422],[192,580],[422,574],[580,407],[574,177],[407,19]]","true","8","","","img/Fire_Down_Target.gif","[""img/Fire_Up_Distractor.gif"",""img/Fire_Up_Distractor.gif"",""img/Fire_Up_Distractor.gif"",""img/Fire_Up_Distractor.gif"",""img/Fire_Up_Distractor.gif"",""img/Fire_Up_Distractor.gif"",""img/Fire_Up_Distractor.gif"",""img/Fire_Up_Distractor.gif"",""img/Fire_Up_Distractor.gif"",""img/Fire_Up_Distractor.gif"",""img/Fire_Up_Distractor.gif"",""img/Fire_Up_Distractor.gif""]","targetDown_distractorsUp"
"","","","","","html-keyboard-response","220","313973","0.0-14.0-0.0-0.103","5fc44569444cef8809245f94","6186fb1cc52d38b480598eb7","618726801d39e6ee755c43d6","null","","null","","","","","fixation","","","",""
"","","","","","visual-search-circle","221","315929","0.0-14.0-0.0-1.103","5fc44569444cef8809245f94","6186fb1cc52d38b480598eb7","618726801d39e6ee755c43d6","952.3999999761581","","s","false","[[545,127],[273,1],[28,173],[54,472],[326,598],[571,426]]","true","6","","","img/Fire_Up_Target.gif","[""img/Fire_Down_Distractor.gif"",""img/Fire_Down_Distractor.gif"",""img/Fire_Down_Distractor.gif"",""img/Fire_Down_Distractor.gif"",""img/Fire_Down_Distractor.gif"",""img/Fire_Down_Distractor.gif"",""img/Fire_Down_Distractor.gif"",""img/Fire_Down_Distractor.gif"",""img/Fire_Down_Distractor.gif"",""img/Fire_Down_Distractor.gif"",""img/Fire_Down_Distractor.gif"",""img/Fire_Down_Distractor.gif""]","targetUp_distractorsDown"
"","","","","","html-keyboard-response","222","315930","0.0-14.0-0.0-0.104","5fc44569444cef8809245f94","6186fb1cc52d38b480598eb7","618726801d39e6ee755c43d6","null","","null","","","","","fixation","","","",""
