"success","timeout","failed_images","failed_audio","failed_video","trial_type","trial_index","time_elapsed","internal_node_id","subject_id","study_id","session_id","rt","stimulus","response","correct","locations","target_present","set_size","task","correct_response","target","foilCM","searchCondition"
"true","false","[]","[]","[]","preload","0","2966","0.0-0.0","600b867e297f072364af7a99","6186fb1cc52d38b480598eb7","6187200eefe163220b525c5d","","","","","","","","","","","",""
"true","","","","","fullscreen","1","6318","0.0-1.0","600b867e297f072364af7a99","6186fb1cc52d38b480598eb7","6187200eefe163220b525c5d","","","","","","","","","","","",""
"","","","","","html-keyboard-response","2","12332","0.0-2.0","600b867e297f072364af7a99","6186fb1cc52d38b480598eb7","6187200eefe163220b525c5d","6013.300000190735","What a beautiful Saturday to do some awesome science! </p> <p>  </p><p> </p>
    By completing this survey or questionnaire, you are consenting to be in this research study. </p>
    Your participation is voluntary and you can stop at any time.
    <p> [Press any key to continue.] </p>
    
    "," ","","","","","","","","",""
"","","","","","video-keyboard-response","3","47237","0.0-3.0","600b867e297f072364af7a99","6186fb1cc52d38b480598eb7","6187200eefe163220b525c5d","34903","[""video/TaskInstructions.mp4""]","d","","","","","","","","",""
"","","","","","html-keyboard-response","4","51464","0.0-4.0","600b867e297f072364af7a99","6186fb1cc52d38b480598eb7","6187200eefe163220b525c5d","4226.700000047684","
    <p>First, we're going to do a few practice trials to make sure you understand the task. You will recieve feedback on each trial. </p>

    <p>[Press any key to begin the familiarization phase.]</p>
    ","d","","","","","","","","",""
"","","","","","visual-search-circle","5","58717","0.0-5.0-0.0","600b867e297f072364af7a99","6186fb1cc52d38b480598eb7","6187200eefe163220b525c5d","6197.600000143051","","d","true","[[454,42],[42,145],[145,557],[557,454]]","true","4","training","d","","",""
"","","","","","html-keyboard-response","6","61662","0.0-6.0","600b867e297f072364af7a99","6186fb1cc52d38b480598eb7","6187200eefe163220b525c5d","2945.2000000476837"," <div style='float: center; '><img src='img/feedbackRight.png'></img> </div> ","d","","","","","","","","",""
"","","","","","visual-search-circle","7","65455","0.0-7.0-0.0","600b867e297f072364af7a99","6186fb1cc52d38b480598eb7","6187200eefe163220b525c5d","2790.7999999523163","","s","true","[[597,263],[263,2],[2,336],[336,597]]","false","4","training","s","","",""
"","","","","","html-keyboard-response","8","66676","0.0-8.0","600b867e297f072364af7a99","6186fb1cc52d38b480598eb7","6187200eefe163220b525c5d","1220.4000000953674"," <div style='float: center; '><img src='img/feedbackRight.png'></img> </div> ","s","","","","","","","","",""
"","","","","","visual-search-circle","9","75751","0.0-9.0-0.0","600b867e297f072364af7a99","6186fb1cc52d38b480598eb7","6187200eefe163220b525c5d","8072","","d","false","[[496,73],[202,16],[5,242],[103,526],[397,583],[594,357]]","false","6","training","s","","",""
"","","","","","html-keyboard-response","10","80072","0.0-10.0","600b867e297f072364af7a99","6186fb1cc52d38b480598eb7","6187200eefe163220b525c5d","4319.5"," <div style='float: center;'><img src='img/feedbackWrong.png'></img> </div> ","d","","","","","","","","",""
"","","","","","visual-search-circle","11","90967","0.0-11.0-0.0","600b867e297f072364af7a99","6186fb1cc52d38b480598eb7","6187200eefe163220b525c5d","9891.800000190735","","d","true","[[222,10],[40,150],[10,377],[149,559],[377,589],[559,450],[589,222],[449,40]]","true","8","training","d","","",""
"","","","","","html-keyboard-response","12","91989","0.0-12.0","600b867e297f072364af7a99","6186fb1cc52d38b480598eb7","6187200eefe163220b525c5d","1021.1000001430511"," <div style='float: center; '><img src='img/feedbackRight.png'></img> </div> ","d","","","","","","","","",""
"","","","","","video-keyboard-response","13","97043","0.0-13.0","600b867e297f072364af7a99","6186fb1cc52d38b480598eb7","6187200eefe163220b525c5d","5052.599999904633","[""video/endTraining.mp4""]","d","","","","","","","","",""
"","","","","","html-keyboard-response","14","97044","0.0-14.0-0.0-0.0","600b867e297f072364af7a99","6186fb1cc52d38b480598eb7","6187200eefe163220b525c5d","null","","null","","","","","fixation","","","",""
"","","","","","visual-search-circle","15","103134","0.0-14.0-0.0-1.0","600b867e297f072364af7a99","6186fb1cc52d38b480598eb7","6187200eefe163220b525c5d","5086.5","","d","true","[[119,539],[417,576],[597,336],[480,60],[182,23],[2,263]]","true","6","","","img/Fire_Down_Target.gif","[""img/Fire_Up_Distractor.gif"",""img/Fire_Up_Distractor.gif"",""img/Fire_Up_Distractor.gif"",""img/Fire_Up_Distractor.gif"",""img/Fire_Up_Distractor.gif"",""img/Fire_Up_Distractor.gif"",""img/Fire_Up_Distractor.gif"",""img/Fire_Up_Distractor.gif"",""img/Fire_Up_Distractor.gif"",""img/Fire_Up_Distractor.gif"",""img/Fire_Up_Distractor.gif"",""img/Fire_Up_Distractor.gif""]","targetDown_distractorsUp"
"","","","","","html-keyboard-response","16","103145","0.0-14.0-0.0-0.1","600b867e297f072364af7a99","6186fb1cc52d38b480598eb7","6187200eefe163220b525c5d","null","","null","","","","","fixation","","","",""
"","","","","","visual-search-circle","17","109665","0.0-14.0-0.0-1.1","600b867e297f072364af7a99","6186fb1cc52d38b480598eb7","6187200eefe163220b525c5d","5516.400000095367","","s","true","[[508,515],[598,271],[464,48],[205,15],[18,195],[43,455],[261,597]]","false","7","","","img/Fire_Up_Target.gif","[""img/Fire_Down_Distractor.gif"",""img/Fire_Down_Distractor.gif"",""img/Fire_Down_Distractor.gif"",""img/Fire_Down_Distractor.gif"",""img/Fire_Down_Distractor.gif"",""img/Fire_Down_Distractor.gif"",""img/Fire_Down_Distractor.gif"",""img/Fire_Down_Distractor.gif"",""img/Fire_Down_Distractor.gif"",""img/Fire_Down_Distractor.gif"",""img/Fire_Down_Distractor.gif"",""img/Fire_Down_Distractor.gif""]","targetUp_distractorsDown"
"","","","","","html-keyboard-response","18","109667","0.0-14.0-0.0-0.2","600b867e297f072364af7a99","6186fb1cc52d38b480598eb7","6187200eefe163220b525c5d","null","","null","","","","","fixation","","","",""
"","","","","","visual-search-circle","19","116327","0.0-14.0-0.0-1.2","600b867e297f072364af7a99","6186fb1cc52d38b480598eb7","6187200eefe163220b525c5d","5648.299999952316","","d","true","[[127,54],[0,281],[98,522],[348,596],[561,446],[577,186],[384,12]]","true","7","","","img/Fire_Down_Target.gif","[""img/Fire_Up_Distractor.gif"",""img/Fire_Up_Distractor.gif"",""img/Fire_Up_Distractor.gif"",""img/Fire_Up_Distractor.gif"",""img/Fire_Up_Distractor.gif"",""img/Fire_Up_Distractor.gif"",""img/Fire_Up_Distractor.gif"",""img/Fire_Up_Distractor.gif"",""img/Fire_Up_Distractor.gif"",""img/Fire_Up_Distractor.gif"",""img/Fire_Up_Distractor.gif"",""img/Fire_Up_Distractor.gif""]","targetDown_distractorsUp"
"","","","","","html-keyboard-response","20","116330","0.0-14.0-0.0-0.3","600b867e297f072364af7a99","6186fb1cc52d38b480598eb7","6187200eefe163220b525c5d","null","","null","","","","","fixation","","","",""
"","","","","","visual-search-circle","21","126338","0.0-14.0-0.0-1.3","600b867e297f072364af7a99","6186fb1cc52d38b480598eb7","6187200eefe163220b525c5d","9003.5","","d","true","[[173,28],[2,336],[242,594],[562,445],[519,95]]","true","5","","","img/Fire_Down_Target.gif","[""img/Fire_Up_Distractor.gif"",""img/Fire_Up_Distractor.gif"",""img/Fire_Up_Distractor.gif"",""img/Fire_Up_Distractor.gif"",""img/Fire_Up_Distractor.gif"",""img/Fire_Up_Distractor.gif"",""img/Fire_Up_Distractor.gif"",""img/Fire_Up_Distractor.gif"",""img/Fire_Up_Distractor.gif"",""img/Fire_Up_Distractor.gif"",""img/Fire_Up_Distractor.gif"",""img/Fire_Up_Distractor.gif""]","targetDown_distractorsUp"
"","","","","","html-keyboard-response","22","126340","0.0-14.0-0.0-0.4","600b867e297f072364af7a99","6186fb1cc52d38b480598eb7","6187200eefe163220b525c5d","null","","null","","","","","fixation","","","",""
"","","","","","visual-search-circle","23","138851","0.0-14.0-0.0-1.4","600b867e297f072364af7a99","6186fb1cc52d38b480598eb7","6187200eefe163220b525c5d","11508.200000047684","","s","false","[[0,284],[136,551],[436,567],[599,315],[463,48],[163,32]]","true","6","","","img/Fire_Up_Target.gif","[""img/Fire_Down_Distractor.gif"",""img/Fire_Down_Distractor.gif"",""img/Fire_Down_Distractor.gif"",""img/Fire_Down_Distractor.gif"",""img/Fire_Down_Distractor.gif"",""img/Fire_Down_Distractor.gif"",""img/Fire_Down_Distractor.gif"",""img/Fire_Down_Distractor.gif"",""img/Fire_Down_Distractor.gif"",""img/Fire_Down_Distractor.gif"",""img/Fire_Down_Distractor.gif"",""img/Fire_Down_Distractor.gif""]","targetUp_distractorsDown"
"","","","","","html-keyboard-response","24","138861","0.0-14.0-0.0-0.5","600b867e297f072364af7a99","6186fb1cc52d38b480598eb7","6187200eefe163220b525c5d","null","","null","","","","","fixation","","","",""
"","","","","","visual-search-circle","25","146661","0.0-14.0-0.0-1.5","600b867e297f072364af7a99","6186fb1cc52d38b480598eb7","6187200eefe163220b525c5d","6795.900000095367","","s","true","[[431,569],[583,397],[569,168],[397,16],[168,30],[16,202],[30,431],[202,583]]","false","8","","","img/Fire_Down_Target.gif","[""img/Fire_Up_Distractor.gif"",""img/Fire_Up_Distractor.gif"",""img/Fire_Up_Distractor.gif"",""img/Fire_Up_Distractor.gif"",""img/Fire_Up_Distractor.gif"",""img/Fire_Up_Distractor.gif"",""img/Fire_Up_Distractor.gif"",""img/Fire_Up_Distractor.gif"",""img/Fire_Up_Distractor.gif"",""img/Fire_Up_Distractor.gif"",""img/Fire_Up_Distractor.gif"",""img/Fire_Up_Distractor.gif""]","targetDown_distractorsUp"
"","","","","","html-keyboard-response","26","146662","0.0-14.0-0.0-0.6","600b867e297f072364af7a99","6186fb1cc52d38b480598eb7","6187200eefe163220b525c5d","null","","null","","","","","fixation","","","",""
"","","","","","visual-search-circle","27","155694","0.0-14.0-0.0-1.6","600b867e297f072364af7a99","6186fb1cc52d38b480598eb7","6187200eefe163220b525c5d","8028.799999952316","","s","true","[[372,591],[588,382],[515,91],[227,8],[11,217],[84,508]]","false","6","","","img/Fire_Up_Target.gif","[""img/Fire_Down_Distractor.gif"",""img/Fire_Down_Distractor.gif"",""img/Fire_Down_Distractor.gif"",""img/Fire_Down_Distractor.gif"",""img/Fire_Down_Distractor.gif"",""img/Fire_Down_Distractor.gif"",""img/Fire_Down_Distractor.gif"",""img/Fire_Down_Distractor.gif"",""img/Fire_Down_Distractor.gif"",""img/Fire_Down_Distractor.gif"",""img/Fire_Down_Distractor.gif"",""img/Fire_Down_Distractor.gif""]","targetUp_distractorsDown"
"","","","","","html-keyboard-response","28","155696","0.0-14.0-0.0-0.7","600b867e297f072364af7a99","6186fb1cc52d38b480598eb7","6187200eefe163220b525c5d","null","","null","","","","","fixation","","","",""
"","","","","","visual-search-circle","29","164413","0.0-14.0-0.0-1.7","600b867e297f072364af7a99","6186fb1cc52d38b480598eb7","6187200eefe163220b525c5d","7715","","s","true","[[529,107],[107,70],[70,492],[492,529]]","false","4","","","img/Fire_Up_Target.gif","[""img/Fire_Down_Distractor.gif"",""img/Fire_Down_Distractor.gif"",""img/Fire_Down_Distractor.gif"",""img/Fire_Down_Distractor.gif"",""img/Fire_Down_Distractor.gif"",""img/Fire_Down_Distractor.gif"",""img/Fire_Down_Distractor.gif"",""img/Fire_Down_Distractor.gif"",""img/Fire_Down_Distractor.gif"",""img/Fire_Down_Distractor.gif"",""img/Fire_Down_Distractor.gif"",""img/Fire_Down_Distractor.gif""]","targetUp_distractorsDown"
"","","","","","html-keyboard-response","30","164414","0.0-14.0-0.0-0.8","600b867e297f072364af7a99","6186fb1cc52d38b480598eb7","6187200eefe163220b525c5d","null","","null","","","","","fixation","","","",""
"","","","","","visual-search-circle","31","172965","0.0-14.0-0.0-1.8","600b867e297f072364af7a99","6186fb1cc52d38b480598eb7","6187200eefe163220b525c5d","7548.299999952316","","s","false","[[6,362],[362,593],[593,237],[237,6]]","true","4","","","img/Fire_Down_Target.gif","[""img/Fire_Up_Distractor.gif"",""img/Fire_Up_Distractor.gif"",""img/Fire_Up_Distractor.gif"",""img/Fire_Up_Distractor.gif"",""img/Fire_Up_Distractor.gif"",""img/Fire_Up_Distractor.gif"",""img/Fire_Up_Distractor.gif"",""img/Fire_Up_Distractor.gif"",""img/Fire_Up_Distractor.gif"",""img/Fire_Up_Distractor.gif"",""img/Fire_Up_Distractor.gif"",""img/Fire_Up_Distractor.gif""]","targetDown_distractorsUp"
"","","","","","html-keyboard-response","32","172966","0.0-14.0-0.0-0.9","600b867e297f072364af7a99","6186fb1cc52d38b480598eb7","6187200eefe163220b525c5d","null","","null","","","","","fixation","","","",""
"","","","","","visual-search-circle","33","181053","0.0-14.0-0.0-1.9","600b867e297f072364af7a99","6186fb1cc52d38b480598eb7","6187200eefe163220b525c5d","7083.5","","s","true","[[431,569],[583,397],[569,168],[397,16],[168,30],[16,202],[30,431],[202,583]]","false","8","","","img/Fire_Up_Target.gif","[""img/Fire_Down_Distractor.gif"",""img/Fire_Down_Distractor.gif"",""img/Fire_Down_Distractor.gif"",""img/Fire_Down_Distractor.gif"",""img/Fire_Down_Distractor.gif"",""img/Fire_Down_Distractor.gif"",""img/Fire_Down_Distractor.gif"",""img/Fire_Down_Distractor.gif"",""img/Fire_Down_Distractor.gif"",""img/Fire_Down_Distractor.gif"",""img/Fire_Down_Distractor.gif"",""img/Fire_Down_Distractor.gif""]","targetUp_distractorsDown"
"","","","","","html-keyboard-response","34","181056","0.0-14.0-0.0-0.10","600b867e297f072364af7a99","6186fb1cc52d38b480598eb7","6187200eefe163220b525c5d","null","","null","","","","","fixation","","","",""
"","","","","","visual-search-circle","35","191066","0.0-14.0-0.0-1.10","600b867e297f072364af7a99","6186fb1cc52d38b480598eb7","6187200eefe163220b525c5d","9007.299999952316","","s","true","[[119,60],[2,258],[60,480],[258,597],[480,539],[597,341],[539,119],[341,2]]","false","8","","","img/Fire_Down_Target.gif","[""img/Fire_Up_Distractor.gif"",""img/Fire_Up_Distractor.gif"",""img/Fire_Up_Distractor.gif"",""img/Fire_Up_Distractor.gif"",""img/Fire_Up_Distractor.gif"",""img/Fire_Up_Distractor.gif"",""img/Fire_Up_Distractor.gif"",""img/Fire_Up_Distractor.gif"",""img/Fire_Up_Distractor.gif"",""img/Fire_Up_Distractor.gif"",""img/Fire_Up_Distractor.gif"",""img/Fire_Up_Distractor.gif""]","targetDown_distractorsUp"
"","","","","","html-keyboard-response","36","191147","0.0-14.0-0.0-0.11","600b867e297f072364af7a99","6186fb1cc52d38b480598eb7","6187200eefe163220b525c5d","null","","null","","","","","fixation","","","",""
"","","","","","visual-search-circle","37","194890","0.0-14.0-0.0-1.11","600b867e297f072364af7a99","6186fb1cc52d38b480598eb7","6187200eefe163220b525c5d","2740.0999999046326","","d","true","[[119,539],[374,590],[573,422],[566,162],[358,5],[106,70],[0,308]]","true","7","","","img/Fire_Up_Target.gif","[""img/Fire_Down_Distractor.gif"",""img/Fire_Down_Distractor.gif"",""img/Fire_Down_Distractor.gif"",""img/Fire_Down_Distractor.gif"",""img/Fire_Down_Distractor.gif"",""img/Fire_Down_Distractor.gif"",""img/Fire_Down_Distractor.gif"",""img/Fire_Down_Distractor.gif"",""img/Fire_Down_Distractor.gif"",""img/Fire_Down_Distractor.gif"",""img/Fire_Down_Distractor.gif"",""img/Fire_Down_Distractor.gif""]","targetUp_distractorsDown"
"","","","","","html-keyboard-response","38","194892","0.0-14.0-0.0-0.12","600b867e297f072364af7a99","6186fb1cc52d38b480598eb7","6187200eefe163220b525c5d","null","","null","","","","","fixation","","","",""
"","","","","","visual-search-circle","39","201107","0.0-14.0-0.0-1.12","600b867e297f072364af7a99","6186fb1cc52d38b480598eb7","6187200eefe163220b525c5d","5210.899999856949","","s","true","[[595,352],[545,127],[352,4],[127,54],[4,247],[54,472],[247,595],[472,545]]","false","8","","","img/Fire_Up_Target.gif","[""img/Fire_Down_Distractor.gif"",""img/Fire_Down_Distractor.gif"",""img/Fire_Down_Distractor.gif"",""img/Fire_Down_Distractor.gif"",""img/Fire_Down_Distractor.gif"",""img/Fire_Down_Distractor.gif"",""img/Fire_Down_Distractor.gif"",""img/Fire_Down_Distractor.gif"",""img/Fire_Down_Distractor.gif"",""img/Fire_Down_Distractor.gif"",""img/Fire_Down_Distractor.gif"",""img/Fire_Down_Distractor.gif""]","targetUp_distractorsDown"
"","","","","","html-keyboard-response","40","201109","0.0-14.0-0.0-0.13","600b867e297f072364af7a99","6186fb1cc52d38b480598eb7","6187200eefe163220b525c5d","null","","null","","","","","fixation","","","",""
"","","","","","visual-search-circle","41","205068","0.0-14.0-0.0-1.13","600b867e297f072364af7a99","6186fb1cc52d38b480598eb7","6187200eefe163220b525c5d","2956","","d","true","[[591,372],[538,117],[305,0],[69,108],[6,360],[164,567],[424,572]]","true","7","","","img/Fire_Down_Target.gif","[""img/Fire_Up_Distractor.gif"",""img/Fire_Up_Distractor.gif"",""img/Fire_Up_Distractor.gif"",""img/Fire_Up_Distractor.gif"",""img/Fire_Up_Distractor.gif"",""img/Fire_Up_Distractor.gif"",""img/Fire_Up_Distractor.gif"",""img/Fire_Up_Distractor.gif"",""img/Fire_Up_Distractor.gif"",""img/Fire_Up_Distractor.gif"",""img/Fire_Up_Distractor.gif"",""img/Fire_Up_Distractor.gif""]","targetDown_distractorsUp"
"","","","","","html-keyboard-response","42","205070","0.0-14.0-0.0-0.14","600b867e297f072364af7a99","6186fb1cc52d38b480598eb7","6187200eefe163220b525c5d","null","","null","","","","","fixation","","","",""
"","","","","","visual-search-circle","43","210904","0.0-14.0-0.0-1.14","600b867e297f072364af7a99","6186fb1cc52d38b480598eb7","6187200eefe163220b525c5d","4831.900000095367","","s","true","[[1,273],[182,576],[526,496],[557,145],[232,7]]","false","5","","","img/Fire_Up_Target.gif","[""img/Fire_Down_Distractor.gif"",""img/Fire_Down_Distractor.gif"",""img/Fire_Down_Distractor.gif"",""img/Fire_Down_Distractor.gif"",""img/Fire_Down_Distractor.gif"",""img/Fire_Down_Distractor.gif"",""img/Fire_Down_Distractor.gif"",""img/Fire_Down_Distractor.gif"",""img/Fire_Down_Distractor.gif"",""img/Fire_Down_Distractor.gif"",""img/Fire_Down_Distractor.gif"",""img/Fire_Down_Distractor.gif""]","targetUp_distractorsDown"
"","","","","","html-keyboard-response","44","210906","0.0-14.0-0.0-0.15","600b867e297f072364af7a99","6186fb1cc52d38b480598eb7","6187200eefe163220b525c5d","null","","null","","","","","fixation","","","",""
"","","","","","visual-search-circle","45","216527","0.0-14.0-0.0-1.15","600b867e297f072364af7a99","6186fb1cc52d38b480598eb7","6187200eefe163220b525c5d","4618.399999856949","","d","true","[[522,99],[177,25],[1,331],[237,593],[559,450]]","true","5","","","img/Fire_Up_Target.gif","[""img/Fire_Down_Distractor.gif"",""img/Fire_Down_Distractor.gif"",""img/Fire_Down_Distractor.gif"",""img/Fire_Down_Distractor.gif"",""img/Fire_Down_Distractor.gif"",""img/Fire_Down_Distractor.gif"",""img/Fire_Down_Distractor.gif"",""img/Fire_Down_Distractor.gif"",""img/Fire_Down_Distractor.gif"",""img/Fire_Down_Distractor.gif"",""img/Fire_Down_Distractor.gif"",""img/Fire_Down_Distractor.gif""]","targetUp_distractorsDown"
"","","","","","html-keyboard-response","46","216529","0.0-14.0-0.0-0.16","600b867e297f072364af7a99","6186fb1cc52d38b480598eb7","6187200eefe163220b525c5d","null","","null","","","","","fixation","","","",""
"","","","","","visual-search-circle","47","222779","0.0-14.0-0.0-1.16","600b867e297f072364af7a99","6186fb1cc52d38b480598eb7","6187200eefe163220b525c5d","5247.900000095367","","s","true","[[21,187],[107,529],[458,554],[591,227],[320,0]]","false","5","","","img/Fire_Up_Target.gif","[""img/Fire_Down_Distractor.gif"",""img/Fire_Down_Distractor.gif"",""img/Fire_Down_Distractor.gif"",""img/Fire_Down_Distractor.gif"",""img/Fire_Down_Distractor.gif"",""img/Fire_Down_Distractor.gif"",""img/Fire_Down_Distractor.gif"",""img/Fire_Down_Distractor.gif"",""img/Fire_Down_Distractor.gif"",""img/Fire_Down_Distractor.gif"",""img/Fire_Down_Distractor.gif"",""img/Fire_Down_Distractor.gif""]","targetUp_distractorsDown"
"","","","","","html-keyboard-response","48","222781","0.0-14.0-0.0-0.17","600b867e297f072364af7a99","6186fb1cc52d38b480598eb7","6187200eefe163220b525c5d","null","","null","","","","","fixation","","","",""
"","","","","","visual-search-circle","49","226348","0.0-14.0-0.0-1.17","600b867e297f072364af7a99","6186fb1cc52d38b480598eb7","6187200eefe163220b525c5d","2565.2999999523163","","d","true","[[571,426],[504,80],[154,37],[5,357],[263,597]]","true","5","","","img/Fire_Up_Target.gif","[""img/Fire_Down_Distractor.gif"",""img/Fire_Down_Distractor.gif"",""img/Fire_Down_Distractor.gif"",""img/Fire_Down_Distractor.gif"",""img/Fire_Down_Distractor.gif"",""img/Fire_Down_Distractor.gif"",""img/Fire_Down_Distractor.gif"",""img/Fire_Down_Distractor.gif"",""img/Fire_Down_Distractor.gif"",""img/Fire_Down_Distractor.gif"",""img/Fire_Down_Distractor.gif"",""img/Fire_Down_Distractor.gif""]","targetUp_distractorsDown"
"","","","","","html-keyboard-response","50","226350","0.0-14.0-0.0-0.18","600b867e297f072364af7a99","6186fb1cc52d38b480598eb7","6187200eefe163220b525c5d","null","","null","","","","","fixation","","","",""
"","","","","","visual-search-circle","51","231574","0.0-14.0-0.0-1.18","600b867e297f072364af7a99","6186fb1cc52d38b480598eb7","6187200eefe163220b525c5d","4220.900000095367","","d","true","[[581,402],[571,173],[402,18],[173,28],[18,197],[28,426],[197,581],[426,571]]","true","8","","","img/Fire_Down_Target.gif","[""img/Fire_Up_Distractor.gif"",""img/Fire_Up_Distractor.gif"",""img/Fire_Up_Distractor.gif"",""img/Fire_Up_Distractor.gif"",""img/Fire_Up_Distractor.gif"",""img/Fire_Up_Distractor.gif"",""img/Fire_Up_Distractor.gif"",""img/Fire_Up_Distractor.gif"",""img/Fire_Up_Distractor.gif"",""img/Fire_Up_Distractor.gif"",""img/Fire_Up_Distractor.gif"",""img/Fire_Up_Distractor.gif""]","targetDown_distractorsUp"
"","","","","","html-keyboard-response","52","246471","0.0-14.0-0.0-0.19","600b867e297f072364af7a99","6186fb1cc52d38b480598eb7","6187200eefe163220b525c5d","14895.400000095367","Wow! You've completed 20 out of 120 trials! </p> <p>  </p><p> Take a quick break, then press any key when you're ready to continue.","s","","","","","fixation","","","",""
"","","","","","visual-search-circle","53","251186","0.0-14.0-0.0-1.19","600b867e297f072364af7a99","6186fb1cc52d38b480598eb7","6187200eefe163220b525c5d","3711.5","","d","true","[[445,37],[185,22],[11,216],[55,473],[282,599],[523,500],[595,250]]","true","7","","","img/Fire_Up_Target.gif","[""img/Fire_Down_Distractor.gif"",""img/Fire_Down_Distractor.gif"",""img/Fire_Down_Distractor.gif"",""img/Fire_Down_Distractor.gif"",""img/Fire_Down_Distractor.gif"",""img/Fire_Down_Distractor.gif"",""img/Fire_Down_Distractor.gif"",""img/Fire_Down_Distractor.gif"",""img/Fire_Down_Distractor.gif"",""img/Fire_Down_Distractor.gif"",""img/Fire_Down_Distractor.gif"",""img/Fire_Down_Distractor.gif""]","targetUp_distractorsDown"
"","","","","","html-keyboard-response","54","251189","0.0-14.0-0.0-0.20","600b867e297f072364af7a99","6186fb1cc52d38b480598eb7","6187200eefe163220b525c5d","null","","null","","","","","fixation","","","",""
"","","","","","visual-search-circle","55","256770","0.0-14.0-0.0-1.20","600b867e297f072364af7a99","6186fb1cc52d38b480598eb7","6187200eefe163220b525c5d","4572.800000190735","","s","true","[[70,107],[1,326],[107,529],[326,598],[529,492],[598,273],[492,70],[273,1]]","false","8","","","img/Fire_Down_Target.gif","[""img/Fire_Up_Distractor.gif"",""img/Fire_Up_Distractor.gif"",""img/Fire_Up_Distractor.gif"",""img/Fire_Up_Distractor.gif"",""img/Fire_Up_Distractor.gif"",""img/Fire_Up_Distractor.gif"",""img/Fire_Up_Distractor.gif"",""img/Fire_Up_Distractor.gif"",""img/Fire_Up_Distractor.gif"",""img/Fire_Up_Distractor.gif"",""img/Fire_Up_Distractor.gif"",""img/Fire_Up_Distractor.gif""]","targetDown_distractorsUp"
"","","","","","html-keyboard-response","56","256771","0.0-14.0-0.0-0.21","600b867e297f072364af7a99","6186fb1cc52d38b480598eb7","6187200eefe163220b525c5d","null","","null","","","","","fixation","","","",""
"","","","","","visual-search-circle","57","263896","0.0-14.0-0.0-1.21","600b867e297f072364af7a99","6186fb1cc52d38b480598eb7","6187200eefe163220b525c5d","6122.099999904633","","s","true","[[412,578],[578,187],[187,21],[21,412]]","false","4","","","img/Fire_Up_Target.gif","[""img/Fire_Down_Distractor.gif"",""img/Fire_Down_Distractor.gif"",""img/Fire_Down_Distractor.gif"",""img/Fire_Down_Distractor.gif"",""img/Fire_Down_Distractor.gif"",""img/Fire_Down_Distractor.gif"",""img/Fire_Down_Distractor.gif"",""img/Fire_Down_Distractor.gif"",""img/Fire_Down_Distractor.gif"",""img/Fire_Down_Distractor.gif"",""img/Fire_Down_Distractor.gif"",""img/Fire_Down_Distractor.gif""]","targetUp_distractorsDown"
"","","","","","html-keyboard-response","58","263898","0.0-14.0-0.0-0.22","600b867e297f072364af7a99","6186fb1cc52d38b480598eb7","6187200eefe163220b525c5d","null","","null","","","","","fixation","","","",""
"","","","","","visual-search-circle","59","271807","0.0-14.0-0.0-1.22","600b867e297f072364af7a99","6186fb1cc52d38b480598eb7","6187200eefe163220b525c5d","6905.400000095367","","s","true","[[40,150],[20,409],[211,586],[468,547],[599,322],[504,80],[255,3]]","false","7","","","img/Fire_Up_Target.gif","[""img/Fire_Down_Distractor.gif"",""img/Fire_Down_Distractor.gif"",""img/Fire_Down_Distractor.gif"",""img/Fire_Down_Distractor.gif"",""img/Fire_Down_Distractor.gif"",""img/Fire_Down_Distractor.gif"",""img/Fire_Down_Distractor.gif"",""img/Fire_Down_Distractor.gif"",""img/Fire_Down_Distractor.gif"",""img/Fire_Down_Distractor.gif"",""img/Fire_Down_Distractor.gif"",""img/Fire_Down_Distractor.gif""]","targetUp_distractorsDown"
"","","","","","html-keyboard-response","60","271808","0.0-14.0-0.0-0.23","600b867e297f072364af7a99","6186fb1cc52d38b480598eb7","6187200eefe163220b525c5d","null","","null","","","","","fixation","","","",""
"","","","","","visual-search-circle","61","277445","0.0-14.0-0.0-1.23","600b867e297f072364af7a99","6186fb1cc52d38b480598eb7","6187200eefe163220b525c5d","4634.800000190735","","s","true","[[512,512],[512,87],[87,87],[87,512]]","false","4","","","img/Fire_Down_Target.gif","[""img/Fire_Up_Distractor.gif"",""img/Fire_Up_Distractor.gif"",""img/Fire_Up_Distractor.gif"",""img/Fire_Up_Distractor.gif"",""img/Fire_Up_Distractor.gif"",""img/Fire_Up_Distractor.gif"",""img/Fire_Up_Distractor.gif"",""img/Fire_Up_Distractor.gif"",""img/Fire_Up_Distractor.gif"",""img/Fire_Up_Distractor.gif"",""img/Fire_Up_Distractor.gif"",""img/Fire_Up_Distractor.gif""]","targetDown_distractorsUp"
"","","","","","html-keyboard-response","62","277447","0.0-14.0-0.0-0.24","600b867e297f072364af7a99","6186fb1cc52d38b480598eb7","6187200eefe163220b525c5d","null","","null","","","","","fixation","","","",""
"","","","","","visual-search-circle","63","284810","0.0-14.0-0.0-1.24","600b867e297f072364af7a99","6186fb1cc52d38b480598eb7","6187200eefe163220b525c5d","6355.799999952316","","s","true","[[387,586],[586,212],[212,13],[13,387]]","false","4","","","img/Fire_Down_Target.gif","[""img/Fire_Up_Distractor.gif"",""img/Fire_Up_Distractor.gif"",""img/Fire_Up_Distractor.gif"",""img/Fire_Up_Distractor.gif"",""img/Fire_Up_Distractor.gif"",""img/Fire_Up_Distractor.gif"",""img/Fire_Up_Distractor.gif"",""img/Fire_Up_Distractor.gif"",""img/Fire_Up_Distractor.gif"",""img/Fire_Up_Distractor.gif"",""img/Fire_Up_Distractor.gif"",""img/Fire_Up_Distractor.gif""]","targetDown_distractorsUp"
"","","","","","html-keyboard-response","64","284812","0.0-14.0-0.0-0.25","600b867e297f072364af7a99","6186fb1cc52d38b480598eb7","6187200eefe163220b525c5d","null","","null","","","","","fixation","","","",""
"","","","","","visual-search-circle","65","290972","0.0-14.0-0.0-1.25","600b867e297f072364af7a99","6186fb1cc52d38b480598eb7","6187200eefe163220b525c5d","5157.200000047684","","s","true","[[594,242],[438,34],[178,25],[9,223],[59,479],[290,599],[528,494]]","false","7","","","img/Fire_Down_Target.gif","[""img/Fire_Up_Distractor.gif"",""img/Fire_Up_Distractor.gif"",""img/Fire_Up_Distractor.gif"",""img/Fire_Up_Distractor.gif"",""img/Fire_Up_Distractor.gif"",""img/Fire_Up_Distractor.gif"",""img/Fire_Up_Distractor.gif"",""img/Fire_Up_Distractor.gif"",""img/Fire_Up_Distractor.gif"",""img/Fire_Up_Distractor.gif"",""img/Fire_Up_Distractor.gif"",""img/Fire_Up_Distractor.gif""]","targetDown_distractorsUp"
"","","","","","html-keyboard-response","66","290975","0.0-14.0-0.0-0.26","600b867e297f072364af7a99","6186fb1cc52d38b480598eb7","6187200eefe163220b525c5d","null","","null","","","","","fixation","","","",""
"","","","","","visual-search-circle","67","296600","0.0-14.0-0.0-1.26","600b867e297f072364af7a99","6186fb1cc52d38b480598eb7","6187200eefe163220b525c5d","4623.200000047684","","s","true","[[0,299],[207,585],[542,476],[542,123],[207,14]]","false","5","","","img/Fire_Down_Target.gif","[""img/Fire_Up_Distractor.gif"",""img/Fire_Up_Distractor.gif"",""img/Fire_Up_Distractor.gif"",""img/Fire_Up_Distractor.gif"",""img/Fire_Up_Distractor.gif"",""img/Fire_Up_Distractor.gif"",""img/Fire_Up_Distractor.gif"",""img/Fire_Up_Distractor.gif"",""img/Fire_Up_Distractor.gif"",""img/Fire_Up_Distractor.gif"",""img/Fire_Up_Distractor.gif"",""img/Fire_Up_Distractor.gif""]","targetDown_distractorsUp"
"","","","","","html-keyboard-response","68","296603","0.0-14.0-0.0-0.27","600b867e297f072364af7a99","6186fb1cc52d38b480598eb7","6187200eefe163220b525c5d","null","","null","","","","","fixation","","","",""
"","","","","","visual-search-circle","69","307897","0.0-14.0-0.0-1.27","600b867e297f072364af7a99","6186fb1cc52d38b480598eb7","6187200eefe163220b525c5d","10291.899999856949","","s","true","[[581,197],[197,18],[18,402],[402,581]]","false","4","","","img/Fire_Down_Target.gif","[""img/Fire_Up_Distractor.gif"",""img/Fire_Up_Distractor.gif"",""img/Fire_Up_Distractor.gif"",""img/Fire_Up_Distractor.gif"",""img/Fire_Up_Distractor.gif"",""img/Fire_Up_Distractor.gif"",""img/Fire_Up_Distractor.gif"",""img/Fire_Up_Distractor.gif"",""img/Fire_Up_Distractor.gif"",""img/Fire_Up_Distractor.gif"",""img/Fire_Up_Distractor.gif"",""img/Fire_Up_Distractor.gif""]","targetDown_distractorsUp"
"","","","","","html-keyboard-response","70","307899","0.0-14.0-0.0-0.28","600b867e297f072364af7a99","6186fb1cc52d38b480598eb7","6187200eefe163220b525c5d","null","","null","","","","","fixation","","","",""
"","","","","","visual-search-circle","71","313317","0.0-14.0-0.0-1.28","600b867e297f072364af7a99","6186fb1cc52d38b480598eb7","6187200eefe163220b525c5d","4413.300000190735","","s","true","[[18,402],[173,571],[402,581],[571,426],[581,197],[426,28],[197,18],[28,173]]","false","8","","","img/Fire_Down_Target.gif","[""img/Fire_Up_Distractor.gif"",""img/Fire_Up_Distractor.gif"",""img/Fire_Up_Distractor.gif"",""img/Fire_Up_Distractor.gif"",""img/Fire_Up_Distractor.gif"",""img/Fire_Up_Distractor.gif"",""img/Fire_Up_Distractor.gif"",""img/Fire_Up_Distractor.gif"",""img/Fire_Up_Distractor.gif"",""img/Fire_Up_Distractor.gif"",""img/Fire_Up_Distractor.gif"",""img/Fire_Up_Distractor.gif""]","targetDown_distractorsUp"
"","","","","","html-keyboard-response","72","313319","0.0-14.0-0.0-0.29","600b867e297f072364af7a99","6186fb1cc52d38b480598eb7","6187200eefe163220b525c5d","null","","null","","","","","fixation","","","",""
"","","","","","visual-search-circle","73","320681","0.0-14.0-0.0-1.29","600b867e297f072364af7a99","6186fb1cc52d38b480598eb7","6187200eefe163220b525c5d","6359.400000095367","","s","true","[[596,346],[488,66],[192,19],[3,253],[111,533],[407,580]]","false","6","","","img/Fire_Up_Target.gif","[""img/Fire_Down_Distractor.gif"",""img/Fire_Down_Distractor.gif"",""img/Fire_Down_Distractor.gif"",""img/Fire_Down_Distractor.gif"",""img/Fire_Down_Distractor.gif"",""img/Fire_Down_Distractor.gif"",""img/Fire_Down_Distractor.gif"",""img/Fire_Down_Distractor.gif"",""img/Fire_Down_Distractor.gif"",""img/Fire_Down_Distractor.gif"",""img/Fire_Down_Distractor.gif"",""img/Fire_Down_Distractor.gif""]","targetUp_distractorsDown"
"","","","","","html-keyboard-response","74","320682","0.0-14.0-0.0-0.30","600b867e297f072364af7a99","6186fb1cc52d38b480598eb7","6187200eefe163220b525c5d","null","","null","","","","","fixation","","","",""
"","","","","","visual-search-circle","75","323724","0.0-14.0-0.0-1.30","600b867e297f072364af7a99","6186fb1cc52d38b480598eb7","6187200eefe163220b525c5d","2037.7999999523163","","d","true","[[554,458],[592,232],[458,45],[232,7],[45,141],[7,367],[141,554],[367,592]]","true","8","","","img/Fire_Down_Target.gif","[""img/Fire_Up_Distractor.gif"",""img/Fire_Up_Distractor.gif"",""img/Fire_Up_Distractor.gif"",""img/Fire_Up_Distractor.gif"",""img/Fire_Up_Distractor.gif"",""img/Fire_Up_Distractor.gif"",""img/Fire_Up_Distractor.gif"",""img/Fire_Up_Distractor.gif"",""img/Fire_Up_Distractor.gif"",""img/Fire_Up_Distractor.gif"",""img/Fire_Up_Distractor.gif"",""img/Fire_Up_Distractor.gif""]","targetDown_distractorsUp"
"","","","","","html-keyboard-response","76","323726","0.0-14.0-0.0-0.31","600b867e297f072364af7a99","6186fb1cc52d38b480598eb7","6187200eefe163220b525c5d","null","","null","","","","","fixation","","","",""
"","","","","","visual-search-circle","77","326017","0.0-14.0-0.0-1.31","600b867e297f072364af7a99","6186fb1cc52d38b480598eb7","6187200eefe163220b525c5d","1287.8999998569489","","d","true","[[571,173],[370,8],[115,63],[0,296],[110,532],[363,593],[568,433]]","true","7","","","img/Fire_Up_Target.gif","[""img/Fire_Down_Distractor.gif"",""img/Fire_Down_Distractor.gif"",""img/Fire_Down_Distractor.gif"",""img/Fire_Down_Distractor.gif"",""img/Fire_Down_Distractor.gif"",""img/Fire_Down_Distractor.gif"",""img/Fire_Down_Distractor.gif"",""img/Fire_Down_Distractor.gif"",""img/Fire_Down_Distractor.gif"",""img/Fire_Down_Distractor.gif"",""img/Fire_Down_Distractor.gif"",""img/Fire_Down_Distractor.gif""]","targetUp_distractorsDown"
"","","","","","html-keyboard-response","78","326019","0.0-14.0-0.0-0.32","600b867e297f072364af7a99","6186fb1cc52d38b480598eb7","6187200eefe163220b525c5d","null","","null","","","","","fixation","","","",""
"","","","","","visual-search-circle","79","329865","0.0-14.0-0.0-1.32","600b867e297f072364af7a99","6186fb1cc52d38b480598eb7","6187200eefe163220b525c5d","2842.7000000476837","","d","true","[[576,182],[336,2],[60,119],[23,417],[263,597],[539,480]]","true","6","","","img/Fire_Down_Target.gif","[""img/Fire_Up_Distractor.gif"",""img/Fire_Up_Distractor.gif"",""img/Fire_Up_Distractor.gif"",""img/Fire_Up_Distractor.gif"",""img/Fire_Up_Distractor.gif"",""img/Fire_Up_Distractor.gif"",""img/Fire_Up_Distractor.gif"",""img/Fire_Up_Distractor.gif"",""img/Fire_Up_Distractor.gif"",""img/Fire_Up_Distractor.gif"",""img/Fire_Up_Distractor.gif"",""img/Fire_Up_Distractor.gif""]","targetDown_distractorsUp"
"","","","","","html-keyboard-response","80","329866","0.0-14.0-0.0-0.33","600b867e297f072364af7a99","6186fb1cc52d38b480598eb7","6187200eefe163220b525c5d","null","","null","","","","","fixation","","","",""
"","","","","","visual-search-circle","81","334395","0.0-14.0-0.0-1.33","600b867e297f072364af7a99","6186fb1cc52d38b480598eb7","6187200eefe163220b525c5d","3526.800000190735","","d","true","[[99,77],[6,362],[207,585],[500,522],[593,237],[392,14]]","true","6","","","img/Fire_Up_Target.gif","[""img/Fire_Down_Distractor.gif"",""img/Fire_Down_Distractor.gif"",""img/Fire_Down_Distractor.gif"",""img/Fire_Down_Distractor.gif"",""img/Fire_Down_Distractor.gif"",""img/Fire_Down_Distractor.gif"",""img/Fire_Down_Distractor.gif"",""img/Fire_Down_Distractor.gif"",""img/Fire_Down_Distractor.gif"",""img/Fire_Down_Distractor.gif"",""img/Fire_Down_Distractor.gif"",""img/Fire_Down_Distractor.gif""]","targetUp_distractorsDown"
"","","","","","html-keyboard-response","82","334397","0.0-14.0-0.0-0.34","600b867e297f072364af7a99","6186fb1cc52d38b480598eb7","6187200eefe163220b525c5d","null","","null","","","","","fixation","","","",""
"","","","","","visual-search-circle","83","341505","0.0-14.0-0.0-1.34","600b867e297f072364af7a99","6186fb1cc52d38b480598eb7","6187200eefe163220b525c5d","6091.900000095367","","d","true","[[11,382],[382,588],[588,217],[217,11]]","true","4","","","img/Fire_Down_Target.gif","[""img/Fire_Up_Distractor.gif"",""img/Fire_Up_Distractor.gif"",""img/Fire_Up_Distractor.gif"",""img/Fire_Up_Distractor.gif"",""img/Fire_Up_Distractor.gif"",""img/Fire_Up_Distractor.gif"",""img/Fire_Up_Distractor.gif"",""img/Fire_Up_Distractor.gif"",""img/Fire_Up_Distractor.gif"",""img/Fire_Up_Distractor.gif"",""img/Fire_Up_Distractor.gif"",""img/Fire_Up_Distractor.gif""]","targetDown_distractorsUp"
"","","","","","html-keyboard-response","84","341508","0.0-14.0-0.0-0.35","600b867e297f072364af7a99","6186fb1cc52d38b480598eb7","6187200eefe163220b525c5d","null","","null","","","","","fixation","","","",""
"","","","","","visual-search-circle","85","347131","0.0-14.0-0.0-1.35","600b867e297f072364af7a99","6186fb1cc52d38b480598eb7","6187200eefe163220b525c5d","4620.100000143051","","d","true","[[1,331],[138,552],[396,583],[582,401],[555,142],[335,2],[89,86]]","true","7","","","img/Fire_Down_Target.gif","[""img/Fire_Up_Distractor.gif"",""img/Fire_Up_Distractor.gif"",""img/Fire_Up_Distractor.gif"",""img/Fire_Up_Distractor.gif"",""img/Fire_Up_Distractor.gif"",""img/Fire_Up_Distractor.gif"",""img/Fire_Up_Distractor.gif"",""img/Fire_Up_Distractor.gif"",""img/Fire_Up_Distractor.gif"",""img/Fire_Up_Distractor.gif"",""img/Fire_Up_Distractor.gif"",""img/Fire_Up_Distractor.gif""]","targetDown_distractorsUp"
"","","","","","html-keyboard-response","86","347132","0.0-14.0-0.0-0.36","600b867e297f072364af7a99","6186fb1cc52d38b480598eb7","6187200eefe163220b525c5d","null","","null","","","","","fixation","","","",""
"","","","","","visual-search-circle","87","350655","0.0-14.0-0.0-1.36","600b867e297f072364af7a99","6186fb1cc52d38b480598eb7","6187200eefe163220b525c5d","2520.2000000476837","","s","true","[[422,574],[598,268],[362,6],[40,150],[77,500]]","false","5","","","img/Fire_Down_Target.gif","[""img/Fire_Up_Distractor.gif"",""img/Fire_Up_Distractor.gif"",""img/Fire_Up_Distractor.gif"",""img/Fire_Up_Distractor.gif"",""img/Fire_Up_Distractor.gif"",""img/Fire_Up_Distractor.gif"",""img/Fire_Up_Distractor.gif"",""img/Fire_Up_Distractor.gif"",""img/Fire_Up_Distractor.gif"",""img/Fire_Up_Distractor.gif"",""img/Fire_Up_Distractor.gif"",""img/Fire_Up_Distractor.gif""]","targetDown_distractorsUp"
"","","","","","html-keyboard-response","88","350657","0.0-14.0-0.0-0.37","600b867e297f072364af7a99","6186fb1cc52d38b480598eb7","6187200eefe163220b525c5d","null","","null","","","","","fixation","","","",""
"","","","","","visual-search-circle","89","360915","0.0-14.0-0.0-1.37","600b867e297f072364af7a99","6186fb1cc52d38b480598eb7","6187200eefe163220b525c5d","9255.799999952316","","s","false","[[417,23],[119,60],[2,336],[182,576],[480,539],[597,263]]","true","6","","","img/Fire_Up_Target.gif","[""img/Fire_Down_Distractor.gif"",""img/Fire_Down_Distractor.gif"",""img/Fire_Down_Distractor.gif"",""img/Fire_Down_Distractor.gif"",""img/Fire_Down_Distractor.gif"",""img/Fire_Down_Distractor.gif"",""img/Fire_Down_Distractor.gif"",""img/Fire_Down_Distractor.gif"",""img/Fire_Down_Distractor.gif"",""img/Fire_Down_Distractor.gif"",""img/Fire_Down_Distractor.gif"",""img/Fire_Down_Distractor.gif""]","targetUp_distractorsDown"
"","","","","","html-keyboard-response","90","360917","0.0-14.0-0.0-0.38","600b867e297f072364af7a99","6186fb1cc52d38b480598eb7","6187200eefe163220b525c5d","null","","null","","","","","fixation","","","",""
"","","","","","visual-search-circle","91","366035","0.0-14.0-0.0-1.38","600b867e297f072364af7a99","6186fb1cc52d38b480598eb7","6187200eefe163220b525c5d","4116.200000047684","","d","true","[[227,591],[554,458],[529,107],[187,21],[0,320]]","true","5","","","img/Fire_Down_Target.gif","[""img/Fire_Up_Distractor.gif"",""img/Fire_Up_Distractor.gif"",""img/Fire_Up_Distractor.gif"",""img/Fire_Up_Distractor.gif"",""img/Fire_Up_Distractor.gif"",""img/Fire_Up_Distractor.gif"",""img/Fire_Up_Distractor.gif"",""img/Fire_Up_Distractor.gif"",""img/Fire_Up_Distractor.gif"",""img/Fire_Up_Distractor.gif"",""img/Fire_Up_Distractor.gif"",""img/Fire_Up_Distractor.gif""]","targetDown_distractorsUp"
"","","","","","html-keyboard-response","92","371994","0.0-14.0-0.0-0.39","600b867e297f072364af7a99","6186fb1cc52d38b480598eb7","6187200eefe163220b525c5d","5958.5","Wow! You've completed 40 out of 120 trials! </p> <p>  </p><p> Take a quick break, then press any key when you're ready to continue.","d","","","","","fixation","","","",""
"","","","","","visual-search-circle","93","380557","0.0-14.0-0.0-1.39","600b867e297f072364af7a99","6186fb1cc52d38b480598eb7","6187200eefe163220b525c5d","7558.399999856949","","s","true","[[559,150],[377,10],[150,40],[10,222],[40,450],[222,589],[450,559],[589,377]]","false","8","","","img/Fire_Up_Target.gif","[""img/Fire_Down_Distractor.gif"",""img/Fire_Down_Distractor.gif"",""img/Fire_Down_Distractor.gif"",""img/Fire_Down_Distractor.gif"",""img/Fire_Down_Distractor.gif"",""img/Fire_Down_Distractor.gif"",""img/Fire_Down_Distractor.gif"",""img/Fire_Down_Distractor.gif"",""img/Fire_Down_Distractor.gif"",""img/Fire_Down_Distractor.gif"",""img/Fire_Down_Distractor.gif"",""img/Fire_Down_Distractor.gif""]","targetUp_distractorsDown"
"","","","","","html-keyboard-response","94","380558","0.0-14.0-0.0-0.40","600b867e297f072364af7a99","6186fb1cc52d38b480598eb7","6187200eefe163220b525c5d","null","","null","","","","","fixation","","","",""
"","","","","","visual-search-circle","95","385877","0.0-14.0-0.0-1.40","600b867e297f072364af7a99","6186fb1cc52d38b480598eb7","6187200eefe163220b525c5d","4315.400000095367","","s","true","[[586,212],[367,7],[80,95],[13,387],[232,592],[519,504]]","false","6","","","img/Fire_Up_Target.gif","[""img/Fire_Down_Distractor.gif"",""img/Fire_Down_Distractor.gif"",""img/Fire_Down_Distractor.gif"",""img/Fire_Down_Distractor.gif"",""img/Fire_Down_Distractor.gif"",""img/Fire_Down_Distractor.gif"",""img/Fire_Down_Distractor.gif"",""img/Fire_Down_Distractor.gif"",""img/Fire_Down_Distractor.gif"",""img/Fire_Down_Distractor.gif"",""img/Fire_Down_Distractor.gif"",""img/Fire_Down_Distractor.gif""]","targetUp_distractorsDown"
"","","","","","html-keyboard-response","96","385878","0.0-14.0-0.0-0.41","600b867e297f072364af7a99","6186fb1cc52d38b480598eb7","6187200eefe163220b525c5d","null","","null","","","","","fixation","","","",""
"","","","","","visual-search-circle","97","388196","0.0-14.0-0.0-1.41","600b867e297f072364af7a99","6186fb1cc52d38b480598eb7","6187200eefe163220b525c5d","1313.7000000476837","","d","true","[[66,111],[1,331],[111,533],[331,598],[533,488],[598,268],[488,66],[268,1]]","true","8","","","img/Fire_Down_Target.gif","[""img/Fire_Up_Distractor.gif"",""img/Fire_Up_Distractor.gif"",""img/Fire_Up_Distractor.gif"",""img/Fire_Up_Distractor.gif"",""img/Fire_Up_Distractor.gif"",""img/Fire_Up_Distractor.gif"",""img/Fire_Up_Distractor.gif"",""img/Fire_Up_Distractor.gif"",""img/Fire_Up_Distractor.gif"",""img/Fire_Up_Distractor.gif"",""img/Fire_Up_Distractor.gif"",""img/Fire_Up_Distractor.gif""]","targetDown_distractorsUp"
"","","","","","html-keyboard-response","98","388197","0.0-14.0-0.0-0.42","600b867e297f072364af7a99","6186fb1cc52d38b480598eb7","6187200eefe163220b525c5d","null","","null","","","","","fixation","","","",""
"","","","","","visual-search-circle","99","391539","0.0-14.0-0.0-1.42","600b867e297f072364af7a99","6186fb1cc52d38b480598eb7","6187200eefe163220b525c5d","2339.7000000476837","","d","true","[[136,551],[551,463],[463,48],[48,136]]","true","4","","","img/Fire_Up_Target.gif","[""img/Fire_Down_Distractor.gif"",""img/Fire_Down_Distractor.gif"",""img/Fire_Down_Distractor.gif"",""img/Fire_Down_Distractor.gif"",""img/Fire_Down_Distractor.gif"",""img/Fire_Down_Distractor.gif"",""img/Fire_Down_Distractor.gif"",""img/Fire_Down_Distractor.gif"",""img/Fire_Down_Distractor.gif"",""img/Fire_Down_Distractor.gif"",""img/Fire_Down_Distractor.gif"",""img/Fire_Down_Distractor.gif""]","targetUp_distractorsDown"
"","","","","","html-keyboard-response","100","391540","0.0-14.0-0.0-0.43","600b867e297f072364af7a99","6186fb1cc52d38b480598eb7","6187200eefe163220b525c5d","null","","null","","","","","fixation","","","",""
"","","","","","visual-search-circle","101","395350","0.0-14.0-0.0-1.43","600b867e297f072364af7a99","6186fb1cc52d38b480598eb7","6187200eefe163220b525c5d","2806.4000000953674","","s","true","[[567,163],[315,0],[48,136],[32,436],[284,599],[551,463]]","false","6","","","img/Fire_Up_Target.gif","[""img/Fire_Down_Distractor.gif"",""img/Fire_Down_Distractor.gif"",""img/Fire_Down_Distractor.gif"",""img/Fire_Down_Distractor.gif"",""img/Fire_Down_Distractor.gif"",""img/Fire_Down_Distractor.gif"",""img/Fire_Down_Distractor.gif"",""img/Fire_Down_Distractor.gif"",""img/Fire_Down_Distractor.gif"",""img/Fire_Down_Distractor.gif"",""img/Fire_Down_Distractor.gif"",""img/Fire_Down_Distractor.gif""]","targetUp_distractorsDown"
"","","","","","html-keyboard-response","102","395352","0.0-14.0-0.0-0.44","600b867e297f072364af7a99","6186fb1cc52d38b480598eb7","6187200eefe163220b525c5d","null","","null","","","","","fixation","","","",""
"","","","","","visual-search-circle","103","400314","0.0-14.0-0.0-1.44","600b867e297f072364af7a99","6186fb1cc52d38b480598eb7","6187200eefe163220b525c5d","3959.2999999523163","","d","true","[[163,567],[424,573],[590,373],[538,118],[306,0],[69,107],[6,360]]","true","7","","","img/Fire_Down_Target.gif","[""img/Fire_Up_Distractor.gif"",""img/Fire_Up_Distractor.gif"",""img/Fire_Up_Distractor.gif"",""img/Fire_Up_Distractor.gif"",""img/Fire_Up_Distractor.gif"",""img/Fire_Up_Distractor.gif"",""img/Fire_Up_Distractor.gif"",""img/Fire_Up_Distractor.gif"",""img/Fire_Up_Distractor.gif"",""img/Fire_Up_Distractor.gif"",""img/Fire_Up_Distractor.gif"",""img/Fire_Up_Distractor.gif""]","targetDown_distractorsUp"
"","","","","","html-keyboard-response","104","400316","0.0-14.0-0.0-0.45","600b867e297f072364af7a99","6186fb1cc52d38b480598eb7","6187200eefe163220b525c5d","null","","null","","","","","fixation","","","",""
"","","","","","visual-search-circle","105","409703","0.0-14.0-0.0-1.45","600b867e297f072364af7a99","6186fb1cc52d38b480598eb7","6187200eefe163220b525c5d","8384.5","","d","true","[[599,279],[279,0],[0,320],[320,599]]","true","4","","","img/Fire_Up_Target.gif","[""img/Fire_Down_Distractor.gif"",""img/Fire_Down_Distractor.gif"",""img/Fire_Down_Distractor.gif"",""img/Fire_Down_Distractor.gif"",""img/Fire_Down_Distractor.gif"",""img/Fire_Down_Distractor.gif"",""img/Fire_Down_Distractor.gif"",""img/Fire_Down_Distractor.gif"",""img/Fire_Down_Distractor.gif"",""img/Fire_Down_Distractor.gif"",""img/Fire_Down_Distractor.gif"",""img/Fire_Down_Distractor.gif""]","targetUp_distractorsDown"
"","","","","","html-keyboard-response","106","409706","0.0-14.0-0.0-0.46","600b867e297f072364af7a99","6186fb1cc52d38b480598eb7","6187200eefe163220b525c5d","null","","null","","","","","fixation","","","",""
"","","","","","visual-search-circle","107","412959","0.0-14.0-0.0-1.46","600b867e297f072364af7a99","6186fb1cc52d38b480598eb7","6187200eefe163220b525c5d","2250.5","","s","true","[[551,136],[329,1],[84,91],[2,338],[144,556],[403,581],[584,394]]","false","7","","","img/Fire_Up_Target.gif","[""img/Fire_Down_Distractor.gif"",""img/Fire_Down_Distractor.gif"",""img/Fire_Down_Distractor.gif"",""img/Fire_Down_Distractor.gif"",""img/Fire_Down_Distractor.gif"",""img/Fire_Down_Distractor.gif"",""img/Fire_Down_Distractor.gif"",""img/Fire_Down_Distractor.gif"",""img/Fire_Down_Distractor.gif"",""img/Fire_Down_Distractor.gif"",""img/Fire_Down_Distractor.gif"",""img/Fire_Down_Distractor.gif""]","targetUp_distractorsDown"
"","","","","","html-keyboard-response","108","412962","0.0-14.0-0.0-0.47","600b867e297f072364af7a99","6186fb1cc52d38b480598eb7","6187200eefe163220b525c5d","null","","null","","","","","fixation","","","",""
"","","","","","visual-search-circle","109","415765","0.0-14.0-0.0-1.47","600b867e297f072364af7a99","6186fb1cc52d38b480598eb7","6187200eefe163220b525c5d","1800","","d","true","[[91,515],[382,588],[591,372],[508,84],[217,11],[8,227]]","true","6","","","img/Fire_Down_Target.gif","[""img/Fire_Up_Distractor.gif"",""img/Fire_Up_Distractor.gif"",""img/Fire_Up_Distractor.gif"",""img/Fire_Up_Distractor.gif"",""img/Fire_Up_Distractor.gif"",""img/Fire_Up_Distractor.gif"",""img/Fire_Up_Distractor.gif"",""img/Fire_Up_Distractor.gif"",""img/Fire_Up_Distractor.gif"",""img/Fire_Up_Distractor.gif"",""img/Fire_Up_Distractor.gif"",""img/Fire_Up_Distractor.gif""]","targetDown_distractorsUp"
"","","","","","html-keyboard-response","110","415766","0.0-14.0-0.0-0.48","600b867e297f072364af7a99","6186fb1cc52d38b480598eb7","6187200eefe163220b525c5d","null","","null","","","","","fixation","","","",""
"","","","","","visual-search-circle","111","419486","0.0-14.0-0.0-1.48","600b867e297f072364af7a99","6186fb1cc52d38b480598eb7","6187200eefe163220b525c5d","2716.5999999046326","","s","true","[[14,207],[49,465],[273,598],[516,507],[597,259],[453,42],[194,19]]","false","7","","","img/Fire_Up_Target.gif","[""img/Fire_Down_Distractor.gif"",""img/Fire_Down_Distractor.gif"",""img/Fire_Down_Distractor.gif"",""img/Fire_Down_Distractor.gif"",""img/Fire_Down_Distractor.gif"",""img/Fire_Down_Distractor.gif"",""img/Fire_Down_Distractor.gif"",""img/Fire_Down_Distractor.gif"",""img/Fire_Down_Distractor.gif"",""img/Fire_Down_Distractor.gif"",""img/Fire_Down_Distractor.gif"",""img/Fire_Down_Distractor.gif""]","targetUp_distractorsDown"
"","","","","","html-keyboard-response","112","419488","0.0-14.0-0.0-0.49","600b867e297f072364af7a99","6186fb1cc52d38b480598eb7","6187200eefe163220b525c5d","null","","null","","","","","fixation","","","",""
"","","","","","visual-search-circle","113","421639","0.0-14.0-0.0-1.49","600b867e297f072364af7a99","6186fb1cc52d38b480598eb7","6187200eefe163220b525c5d","1148.5","","d","true","[[7,232],[64,486],[299,599],[534,487],[592,233],[430,30],[170,29]]","true","7","","","img/Fire_Down_Target.gif","[""img/Fire_Up_Distractor.gif"",""img/Fire_Up_Distractor.gif"",""img/Fire_Up_Distractor.gif"",""img/Fire_Up_Distractor.gif"",""img/Fire_Up_Distractor.gif"",""img/Fire_Up_Distractor.gif"",""img/Fire_Up_Distractor.gif"",""img/Fire_Up_Distractor.gif"",""img/Fire_Up_Distractor.gif"",""img/Fire_Up_Distractor.gif"",""img/Fire_Up_Distractor.gif"",""img/Fire_Up_Distractor.gif""]","targetDown_distractorsUp"
"","","","","","html-keyboard-response","114","421643","0.0-14.0-0.0-0.50","600b867e297f072364af7a99","6186fb1cc52d38b480598eb7","6187200eefe163220b525c5d","null","","null","","","","","fixation","","","",""
"","","","","","visual-search-circle","115","425218","0.0-14.0-0.0-1.50","600b867e297f072364af7a99","6186fb1cc52d38b480598eb7","6187200eefe163220b525c5d","2571.399999856949","","s","true","[[545,472],[571,173],[326,1],[54,127],[28,426],[273,598]]","false","6","","","img/Fire_Up_Target.gif","[""img/Fire_Down_Distractor.gif"",""img/Fire_Down_Distractor.gif"",""img/Fire_Down_Distractor.gif"",""img/Fire_Down_Distractor.gif"",""img/Fire_Down_Distractor.gif"",""img/Fire_Down_Distractor.gif"",""img/Fire_Down_Distractor.gif"",""img/Fire_Down_Distractor.gif"",""img/Fire_Down_Distractor.gif"",""img/Fire_Down_Distractor.gif"",""img/Fire_Down_Distractor.gif"",""img/Fire_Down_Distractor.gif""]","targetUp_distractorsDown"
"","","","","","html-keyboard-response","116","425219","0.0-14.0-0.0-0.51","600b867e297f072364af7a99","6186fb1cc52d38b480598eb7","6187200eefe163220b525c5d","null","","null","","","","","fixation","","","",""
"","","","","","visual-search-circle","117","428261","0.0-14.0-0.0-1.51","600b867e297f072364af7a99","6186fb1cc52d38b480598eb7","6187200eefe163220b525c5d","2040","","s","true","[[107,70],[70,492],[492,529],[529,107]]","false","4","","","img/Fire_Down_Target.gif","[""img/Fire_Up_Distractor.gif"",""img/Fire_Up_Distractor.gif"",""img/Fire_Up_Distractor.gif"",""img/Fire_Up_Distractor.gif"",""img/Fire_Up_Distractor.gif"",""img/Fire_Up_Distractor.gif"",""img/Fire_Up_Distractor.gif"",""img/Fire_Up_Distractor.gif"",""img/Fire_Up_Distractor.gif"",""img/Fire_Up_Distractor.gif"",""img/Fire_Up_Distractor.gif"",""img/Fire_Up_Distractor.gif""]","targetDown_distractorsUp"
"","","","","","html-keyboard-response","118","428263","0.0-14.0-0.0-0.52","600b867e297f072364af7a99","6186fb1cc52d38b480598eb7","6187200eefe163220b525c5d","null","","null","","","","","fixation","","","",""
"","","","","","visual-search-circle","119","432276","0.0-14.0-0.0-1.52","600b867e297f072364af7a99","6186fb1cc52d38b480598eb7","6187200eefe163220b525c5d","3011.2000000476837","","d","true","[[159,564],[508,515],[569,168],[258,2],[4,247]]","true","5","","","img/Fire_Up_Target.gif","[""img/Fire_Down_Distractor.gif"",""img/Fire_Down_Distractor.gif"",""img/Fire_Down_Distractor.gif"",""img/Fire_Down_Distractor.gif"",""img/Fire_Down_Distractor.gif"",""img/Fire_Down_Distractor.gif"",""img/Fire_Down_Distractor.gif"",""img/Fire_Down_Distractor.gif"",""img/Fire_Down_Distractor.gif"",""img/Fire_Down_Distractor.gif"",""img/Fire_Down_Distractor.gif"",""img/Fire_Down_Distractor.gif""]","targetUp_distractorsDown"
"","","","","","html-keyboard-response","120","432278","0.0-14.0-0.0-0.53","600b867e297f072364af7a99","6186fb1cc52d38b480598eb7","6187200eefe163220b525c5d","null","","null","","","","","fixation","","","",""
"","","","","","visual-search-circle","121","436208","0.0-14.0-0.0-1.53","600b867e297f072364af7a99","6186fb1cc52d38b480598eb7","6187200eefe163220b525c5d","2927.2000000476837","","s","true","[[237,6],[1,268],[177,574],[522,500],[559,150]]","false","5","","","img/Fire_Up_Target.gif","[""img/Fire_Down_Distractor.gif"",""img/Fire_Down_Distractor.gif"",""img/Fire_Down_Distractor.gif"",""img/Fire_Down_Distractor.gif"",""img/Fire_Down_Distractor.gif"",""img/Fire_Down_Distractor.gif"",""img/Fire_Down_Distractor.gif"",""img/Fire_Down_Distractor.gif"",""img/Fire_Down_Distractor.gif"",""img/Fire_Down_Distractor.gif"",""img/Fire_Down_Distractor.gif"",""img/Fire_Down_Distractor.gif""]","targetUp_distractorsDown"
"","","","","","html-keyboard-response","122","436210","0.0-14.0-0.0-0.54","600b867e297f072364af7a99","6186fb1cc52d38b480598eb7","6187200eefe163220b525c5d","null","","null","","","","","fixation","","","",""
"","","","","","visual-search-circle","123","440523","0.0-14.0-0.0-1.54","600b867e297f072364af7a99","6186fb1cc52d38b480598eb7","6187200eefe163220b525c5d","3308.5999999046326","","s","true","[[192,19],[25,177],[19,407],[177,574],[407,580],[574,422],[580,192],[422,25]]","false","8","","","img/Fire_Down_Target.gif","[""img/Fire_Up_Distractor.gif"",""img/Fire_Up_Distractor.gif"",""img/Fire_Up_Distractor.gif"",""img/Fire_Up_Distractor.gif"",""img/Fire_Up_Distractor.gif"",""img/Fire_Up_Distractor.gif"",""img/Fire_Up_Distractor.gif"",""img/Fire_Up_Distractor.gif"",""img/Fire_Up_Distractor.gif"",""img/Fire_Up_Distractor.gif"",""img/Fire_Up_Distractor.gif"",""img/Fire_Up_Distractor.gif""]","targetDown_distractorsUp"
"","","","","","html-keyboard-response","124","440524","0.0-14.0-0.0-0.55","600b867e297f072364af7a99","6186fb1cc52d38b480598eb7","6187200eefe163220b525c5d","null","","null","","","","","fixation","","","",""
"","","","","","visual-search-circle","125","444415","0.0-14.0-0.0-1.55","600b867e297f072364af7a99","6186fb1cc52d38b480598eb7","6187200eefe163220b525c5d","2887.0999999046326","","s","true","[[168,569],[467,548],[599,279],[431,30],[132,51],[0,320]]","false","6","","","img/Fire_Down_Target.gif","[""img/Fire_Up_Distractor.gif"",""img/Fire_Up_Distractor.gif"",""img/Fire_Up_Distractor.gif"",""img/Fire_Up_Distractor.gif"",""img/Fire_Up_Distractor.gif"",""img/Fire_Up_Distractor.gif"",""img/Fire_Up_Distractor.gif"",""img/Fire_Up_Distractor.gif"",""img/Fire_Up_Distractor.gif"",""img/Fire_Up_Distractor.gif"",""img/Fire_Up_Distractor.gif"",""img/Fire_Up_Distractor.gif""]","targetDown_distractorsUp"
"","","","","","html-keyboard-response","126","444417","0.0-14.0-0.0-0.56","600b867e297f072364af7a99","6186fb1cc52d38b480598eb7","6187200eefe163220b525c5d","null","","null","","","","","fixation","","","",""
"","","","","","visual-search-circle","127","450463","0.0-14.0-0.0-1.56","600b867e297f072364af7a99","6186fb1cc52d38b480598eb7","6187200eefe163220b525c5d","5042.700000047684","","d","true","[[11,217],[37,445],[217,588],[445,562],[588,382],[562,154],[382,11],[154,37]]","true","8","","","img/Fire_Down_Target.gif","[""img/Fire_Up_Distractor.gif"",""img/Fire_Up_Distractor.gif"",""img/Fire_Up_Distractor.gif"",""img/Fire_Up_Distractor.gif"",""img/Fire_Up_Distractor.gif"",""img/Fire_Up_Distractor.gif"",""img/Fire_Up_Distractor.gif"",""img/Fire_Up_Distractor.gif"",""img/Fire_Up_Distractor.gif"",""img/Fire_Up_Distractor.gif"",""img/Fire_Up_Distractor.gif"",""img/Fire_Up_Distractor.gif""]","targetDown_distractorsUp"
"","","","","","html-keyboard-response","128","450466","0.0-14.0-0.0-0.57","600b867e297f072364af7a99","6186fb1cc52d38b480598eb7","6187200eefe163220b525c5d","null","","null","","","","","fixation","","","",""
"","","","","","visual-search-circle","129","456284","0.0-14.0-0.0-1.57","600b867e297f072364af7a99","6186fb1cc52d38b480598eb7","6187200eefe163220b525c5d","4815","","s","false","[[599,284],[474,55],[218,11],[23,184],[36,444],[248,595],[499,524]]","true","7","","","img/Fire_Up_Target.gif","[""img/Fire_Down_Distractor.gif"",""img/Fire_Down_Distractor.gif"",""img/Fire_Down_Distractor.gif"",""img/Fire_Down_Distractor.gif"",""img/Fire_Down_Distractor.gif"",""img/Fire_Down_Distractor.gif"",""img/Fire_Down_Distractor.gif"",""img/Fire_Down_Distractor.gif"",""img/Fire_Down_Distractor.gif"",""img/Fire_Down_Distractor.gif"",""img/Fire_Down_Distractor.gif"",""img/Fire_Down_Distractor.gif""]","targetUp_distractorsDown"
"","","","","","html-keyboard-response","130","456286","0.0-14.0-0.0-0.58","600b867e297f072364af7a99","6186fb1cc52d38b480598eb7","6187200eefe163220b525c5d","null","","null","","","","","fixation","","","",""
"","","","","","visual-search-circle","131","459504","0.0-14.0-0.0-1.58","600b867e297f072364af7a99","6186fb1cc52d38b480598eb7","6187200eefe163220b525c5d","2215.5","","s","true","[[35,440],[289,599],[554,458],[564,159],[310,0],[45,141]]","false","6","","","img/Fire_Down_Target.gif","[""img/Fire_Up_Distractor.gif"",""img/Fire_Up_Distractor.gif"",""img/Fire_Up_Distractor.gif"",""img/Fire_Up_Distractor.gif"",""img/Fire_Up_Distractor.gif"",""img/Fire_Up_Distractor.gif"",""img/Fire_Up_Distractor.gif"",""img/Fire_Up_Distractor.gif"",""img/Fire_Up_Distractor.gif"",""img/Fire_Up_Distractor.gif"",""img/Fire_Up_Distractor.gif"",""img/Fire_Up_Distractor.gif""]","targetDown_distractorsUp"
"","","","","","html-keyboard-response","132","477260","0.0-14.0-0.0-0.59","600b867e297f072364af7a99","6186fb1cc52d38b480598eb7","6187200eefe163220b525c5d","17754.799999952316","Wow! You've completed 60 out of 120 trials! </p> <p>  </p><p> Take a quick break, then press any key when you're ready to continue.","s","","","","","fixation","","","",""
"","","","","","visual-search-circle","133","482389","0.0-14.0-0.0-1.59","600b867e297f072364af7a99","6186fb1cc52d38b480598eb7","6187200eefe163220b525c5d","4126.5","","d","true","[[598,326],[326,1],[1,273],[273,598]]","true","4","","","img/Fire_Down_Target.gif","[""img/Fire_Up_Distractor.gif"",""img/Fire_Up_Distractor.gif"",""img/Fire_Up_Distractor.gif"",""img/Fire_Up_Distractor.gif"",""img/Fire_Up_Distractor.gif"",""img/Fire_Up_Distractor.gif"",""img/Fire_Up_Distractor.gif"",""img/Fire_Up_Distractor.gif"",""img/Fire_Up_Distractor.gif"",""img/Fire_Up_Distractor.gif"",""img/Fire_Up_Distractor.gif"",""img/Fire_Up_Distractor.gif""]","targetDown_distractorsUp"
"","","","","","html-keyboard-response","134","482495","0.0-14.0-0.0-0.60","600b867e297f072364af7a99","6186fb1cc52d38b480598eb7","6187200eefe163220b525c5d","null","","null","","","","","fixation","","","",""
"","","","","","visual-search-circle","135","484791","0.0-14.0-0.0-1.60","600b867e297f072364af7a99","6186fb1cc52d38b480598eb7","6187200eefe163220b525c5d","1291.5","","d","true","[[253,3],[57,123],[3,346],[123,542],[346,596],[542,476],[596,253],[476,57]]","true","8","","","img/Fire_Down_Target.gif","[""img/Fire_Up_Distractor.gif"",""img/Fire_Up_Distractor.gif"",""img/Fire_Up_Distractor.gif"",""img/Fire_Up_Distractor.gif"",""img/Fire_Up_Distractor.gif"",""img/Fire_Up_Distractor.gif"",""img/Fire_Up_Distractor.gif"",""img/Fire_Up_Distractor.gif"",""img/Fire_Up_Distractor.gif"",""img/Fire_Up_Distractor.gif"",""img/Fire_Up_Distractor.gif"",""img/Fire_Up_Distractor.gif""]","targetDown_distractorsUp"
"","","","","","html-keyboard-response","136","484793","0.0-14.0-0.0-0.61","600b867e297f072364af7a99","6186fb1cc52d38b480598eb7","6187200eefe163220b525c5d","null","","null","","","","","fixation","","","",""
"","","","","","visual-search-circle","137","487900","0.0-14.0-0.0-1.61","600b867e297f072364af7a99","6186fb1cc52d38b480598eb7","6187200eefe163220b525c5d","2103.600000143051","","s","true","[[284,599],[524,499],[595,248],[444,36],[184,23],[11,218],[55,474]]","false","7","","","img/Fire_Down_Target.gif","[""img/Fire_Up_Distractor.gif"",""img/Fire_Up_Distractor.gif"",""img/Fire_Up_Distractor.gif"",""img/Fire_Up_Distractor.gif"",""img/Fire_Up_Distractor.gif"",""img/Fire_Up_Distractor.gif"",""img/Fire_Up_Distractor.gif"",""img/Fire_Up_Distractor.gif"",""img/Fire_Up_Distractor.gif"",""img/Fire_Up_Distractor.gif"",""img/Fire_Up_Distractor.gif"",""img/Fire_Up_Distractor.gif""]","targetDown_distractorsUp"
"","","","","","html-keyboard-response","138","487902","0.0-14.0-0.0-0.62","600b867e297f072364af7a99","6186fb1cc52d38b480598eb7","6187200eefe163220b525c5d","null","","null","","","","","fixation","","","",""
"","","","","","visual-search-circle","139","492578","0.0-14.0-0.0-1.62","600b867e297f072364af7a99","6186fb1cc52d38b480598eb7","6187200eefe163220b525c5d","3674.399999856949","","s","true","[[387,13],[13,212],[212,586],[586,387]]","false","4","","","img/Fire_Up_Target.gif","[""img/Fire_Down_Distractor.gif"",""img/Fire_Down_Distractor.gif"",""img/Fire_Down_Distractor.gif"",""img/Fire_Down_Distractor.gif"",""img/Fire_Down_Distractor.gif"",""img/Fire_Down_Distractor.gif"",""img/Fire_Down_Distractor.gif"",""img/Fire_Down_Distractor.gif"",""img/Fire_Down_Distractor.gif"",""img/Fire_Down_Distractor.gif"",""img/Fire_Down_Distractor.gif"",""img/Fire_Down_Distractor.gif""]","targetUp_distractorsDown"
"","","","","","html-keyboard-response","140","492580","0.0-14.0-0.0-0.63","600b867e297f072364af7a99","6186fb1cc52d38b480598eb7","6187200eefe163220b525c5d","null","","null","","","","","fixation","","","",""
"","","","","","visual-search-circle","141","496957","0.0-14.0-0.0-1.63","600b867e297f072364af7a99","6186fb1cc52d38b480598eb7","6187200eefe163220b525c5d","3374.100000143051","","s","true","[[0,279],[97,520],[346,596],[560,448],[578,189],[386,12],[129,52]]","false","7","","","img/Fire_Down_Target.gif","[""img/Fire_Up_Distractor.gif"",""img/Fire_Up_Distractor.gif"",""img/Fire_Up_Distractor.gif"",""img/Fire_Up_Distractor.gif"",""img/Fire_Up_Distractor.gif"",""img/Fire_Up_Distractor.gif"",""img/Fire_Up_Distractor.gif"",""img/Fire_Up_Distractor.gif"",""img/Fire_Up_Distractor.gif"",""img/Fire_Up_Distractor.gif"",""img/Fire_Up_Distractor.gif"",""img/Fire_Up_Distractor.gif""]","targetDown_distractorsUp"
"","","","","","html-keyboard-response","142","496960","0.0-14.0-0.0-0.64","600b867e297f072364af7a99","6186fb1cc52d38b480598eb7","6187200eefe163220b525c5d","null","","null","","","","","fixation","","","",""
"","","","","","visual-search-circle","143","499702","0.0-14.0-0.0-1.64","600b867e297f072364af7a99","6186fb1cc52d38b480598eb7","6187200eefe163220b525c5d","1739.7999999523163","","s","true","[[362,593],[593,237],[237,6],[6,362]]","false","4","","","img/Fire_Down_Target.gif","[""img/Fire_Up_Distractor.gif"",""img/Fire_Up_Distractor.gif"",""img/Fire_Up_Distractor.gif"",""img/Fire_Up_Distractor.gif"",""img/Fire_Up_Distractor.gif"",""img/Fire_Up_Distractor.gif"",""img/Fire_Up_Distractor.gif"",""img/Fire_Up_Distractor.gif"",""img/Fire_Up_Distractor.gif"",""img/Fire_Up_Distractor.gif"",""img/Fire_Up_Distractor.gif"",""img/Fire_Up_Distractor.gif""]","targetDown_distractorsUp"
"","","","","","html-keyboard-response","144","499704","0.0-14.0-0.0-0.65","600b867e297f072364af7a99","6186fb1cc52d38b480598eb7","6187200eefe163220b525c5d","null","","null","","","","","fixation","","","",""
"","","","","","visual-search-circle","145","503062","0.0-14.0-0.0-1.65","600b867e297f072364af7a99","6186fb1cc52d38b480598eb7","6187200eefe163220b525c5d","2355","","s","true","[[187,21],[23,182],[21,412],[182,576],[412,578],[576,417],[578,187],[417,23]]","false","8","","","img/Fire_Up_Target.gif","[""img/Fire_Down_Distractor.gif"",""img/Fire_Down_Distractor.gif"",""img/Fire_Down_Distractor.gif"",""img/Fire_Down_Distractor.gif"",""img/Fire_Down_Distractor.gif"",""img/Fire_Down_Distractor.gif"",""img/Fire_Down_Distractor.gif"",""img/Fire_Down_Distractor.gif"",""img/Fire_Down_Distractor.gif"",""img/Fire_Down_Distractor.gif"",""img/Fire_Down_Distractor.gif"",""img/Fire_Down_Distractor.gif""]","targetUp_distractorsDown"
"","","","","","html-keyboard-response","146","503064","0.0-14.0-0.0-0.66","600b867e297f072364af7a99","6186fb1cc52d38b480598eb7","6187200eefe163220b525c5d","null","","null","","","","","fixation","","","",""
"","","","","","visual-search-circle","147","506923","0.0-14.0-0.0-1.66","600b867e297f072364af7a99","6186fb1cc52d38b480598eb7","6187200eefe163220b525c5d","2857.9000000953674","","s","true","[[504,519],[519,95],[95,80],[80,504]]","false","4","","","img/Fire_Down_Target.gif","[""img/Fire_Up_Distractor.gif"",""img/Fire_Up_Distractor.gif"",""img/Fire_Up_Distractor.gif"",""img/Fire_Up_Distractor.gif"",""img/Fire_Up_Distractor.gif"",""img/Fire_Up_Distractor.gif"",""img/Fire_Up_Distractor.gif"",""img/Fire_Up_Distractor.gif"",""img/Fire_Up_Distractor.gif"",""img/Fire_Up_Distractor.gif"",""img/Fire_Up_Distractor.gif"",""img/Fire_Up_Distractor.gif""]","targetDown_distractorsUp"
"","","","","","html-keyboard-response","148","506926","0.0-14.0-0.0-0.67","600b867e297f072364af7a99","6186fb1cc52d38b480598eb7","6187200eefe163220b525c5d","null","","null","","","","","fixation","","","",""
"","","","","","visual-search-circle","149","510885","0.0-14.0-0.0-1.67","600b867e297f072364af7a99","6186fb1cc52d38b480598eb7","6187200eefe163220b525c5d","2956.399999856949","","s","true","[[0,310],[159,564],[458,554],[599,289],[440,35],[141,45]]","false","6","","","img/Fire_Down_Target.gif","[""img/Fire_Up_Distractor.gif"",""img/Fire_Up_Distractor.gif"",""img/Fire_Up_Distractor.gif"",""img/Fire_Up_Distractor.gif"",""img/Fire_Up_Distractor.gif"",""img/Fire_Up_Distractor.gif"",""img/Fire_Up_Distractor.gif"",""img/Fire_Up_Distractor.gif"",""img/Fire_Up_Distractor.gif"",""img/Fire_Up_Distractor.gif"",""img/Fire_Up_Distractor.gif"",""img/Fire_Up_Distractor.gif""]","targetDown_distractorsUp"
"","","","","","html-keyboard-response","150","510889","0.0-14.0-0.0-0.68","600b867e297f072364af7a99","6186fb1cc52d38b480598eb7","6187200eefe163220b525c5d","null","","null","","","","","fixation","","","",""
"","","","","","visual-search-circle","151","513598","0.0-14.0-0.0-1.68","600b867e297f072364af7a99","6186fb1cc52d38b480598eb7","6187200eefe163220b525c5d","1706.5","","d","true","[[574,422],[500,77],[150,40],[6,362],[268,598]]","true","5","","","img/Fire_Up_Target.gif","[""img/Fire_Down_Distractor.gif"",""img/Fire_Down_Distractor.gif"",""img/Fire_Down_Distractor.gif"",""img/Fire_Down_Distractor.gif"",""img/Fire_Down_Distractor.gif"",""img/Fire_Down_Distractor.gif"",""img/Fire_Down_Distractor.gif"",""img/Fire_Down_Distractor.gif"",""img/Fire_Down_Distractor.gif"",""img/Fire_Down_Distractor.gif"",""img/Fire_Down_Distractor.gif"",""img/Fire_Down_Distractor.gif""]","targetUp_distractorsDown"
"","","","","","html-keyboard-response","152","513600","0.0-14.0-0.0-0.69","600b867e297f072364af7a99","6186fb1cc52d38b480598eb7","6187200eefe163220b525c5d","null","","null","","","","","fixation","","","",""
"","","","","","visual-search-circle","153","521080","0.0-14.0-0.0-1.69","600b867e297f072364af7a99","6186fb1cc52d38b480598eb7","6187200eefe163220b525c5d","6476.5","","d","true","[[0,305],[91,515],[305,599],[515,508],[599,294],[508,84],[294,0],[84,91]]","true","8","","","img/Fire_Up_Target.gif","[""img/Fire_Down_Distractor.gif"",""img/Fire_Down_Distractor.gif"",""img/Fire_Down_Distractor.gif"",""img/Fire_Down_Distractor.gif"",""img/Fire_Down_Distractor.gif"",""img/Fire_Down_Distractor.gif"",""img/Fire_Down_Distractor.gif"",""img/Fire_Down_Distractor.gif"",""img/Fire_Down_Distractor.gif"",""img/Fire_Down_Distractor.gif"",""img/Fire_Down_Distractor.gif"",""img/Fire_Down_Distractor.gif""]","targetUp_distractorsDown"
"","","","","","html-keyboard-response","154","521082","0.0-14.0-0.0-0.70","600b867e297f072364af7a99","6186fb1cc52d38b480598eb7","6187200eefe163220b525c5d","null","","null","","","","","fixation","","","",""
"","","","","","visual-search-circle","155","526485","0.0-14.0-0.0-1.70","600b867e297f072364af7a99","6186fb1cc52d38b480598eb7","6187200eefe163220b525c5d","4400","","s","true","[[476,542],[598,268],[422,25],[123,57],[1,331],[177,574]]","false","6","","","img/Fire_Up_Target.gif","[""img/Fire_Down_Distractor.gif"",""img/Fire_Down_Distractor.gif"",""img/Fire_Down_Distractor.gif"",""img/Fire_Down_Distractor.gif"",""img/Fire_Down_Distractor.gif"",""img/Fire_Down_Distractor.gif"",""img/Fire_Down_Distractor.gif"",""img/Fire_Down_Distractor.gif"",""img/Fire_Down_Distractor.gif"",""img/Fire_Down_Distractor.gif"",""img/Fire_Down_Distractor.gif"",""img/Fire_Down_Distractor.gif""]","targetUp_distractorsDown"
"","","","","","html-keyboard-response","156","526487","0.0-14.0-0.0-0.71","600b867e297f072364af7a99","6186fb1cc52d38b480598eb7","6187200eefe163220b525c5d","null","","null","","","","","fixation","","","",""
"","","","","","visual-search-circle","157","532533","0.0-14.0-0.0-1.71","600b867e297f072364af7a99","6186fb1cc52d38b480598eb7","6187200eefe163220b525c5d","5043.5","","s","true","[[559,450],[522,99],[177,25],[1,331],[237,593]]","false","5","","","img/Fire_Up_Target.gif","[""img/Fire_Down_Distractor.gif"",""img/Fire_Down_Distractor.gif"",""img/Fire_Down_Distractor.gif"",""img/Fire_Down_Distractor.gif"",""img/Fire_Down_Distractor.gif"",""img/Fire_Down_Distractor.gif"",""img/Fire_Down_Distractor.gif"",""img/Fire_Down_Distractor.gif"",""img/Fire_Down_Distractor.gif"",""img/Fire_Down_Distractor.gif"",""img/Fire_Down_Distractor.gif"",""img/Fire_Down_Distractor.gif""]","targetUp_distractorsDown"
"","","","","","html-keyboard-response","158","532538","0.0-14.0-0.0-0.72","600b867e297f072364af7a99","6186fb1cc52d38b480598eb7","6187200eefe163220b525c5d","null","","null","","","","","fixation","","","",""
"","","","","","visual-search-circle","159","535579","0.0-14.0-0.0-1.72","600b867e297f072364af7a99","6186fb1cc52d38b480598eb7","6187200eefe163220b525c5d","2037","","d","true","[[593,237],[434,31],[173,27],[8,228],[62,483],[295,599],[531,490]]","true","7","","","img/Fire_Down_Target.gif","[""img/Fire_Up_Distractor.gif"",""img/Fire_Up_Distractor.gif"",""img/Fire_Up_Distractor.gif"",""img/Fire_Up_Distractor.gif"",""img/Fire_Up_Distractor.gif"",""img/Fire_Up_Distractor.gif"",""img/Fire_Up_Distractor.gif"",""img/Fire_Up_Distractor.gif"",""img/Fire_Up_Distractor.gif"",""img/Fire_Up_Distractor.gif"",""img/Fire_Up_Distractor.gif"",""img/Fire_Up_Distractor.gif""]","targetDown_distractorsUp"
"","","","","","html-keyboard-response","160","535580","0.0-14.0-0.0-0.73","600b867e297f072364af7a99","6186fb1cc52d38b480598eb7","6187200eefe163220b525c5d","null","","null","","","","","fixation","","","",""
"","","","","","visual-search-circle","161","539129","0.0-14.0-0.0-1.73","600b867e297f072364af7a99","6186fb1cc52d38b480598eb7","6187200eefe163220b525c5d","2546.5","","s","true","[[508,515],[569,168],[258,2],[4,247],[159,564]]","false","5","","","img/Fire_Down_Target.gif","[""img/Fire_Up_Distractor.gif"",""img/Fire_Up_Distractor.gif"",""img/Fire_Up_Distractor.gif"",""img/Fire_Up_Distractor.gif"",""img/Fire_Up_Distractor.gif"",""img/Fire_Up_Distractor.gif"",""img/Fire_Up_Distractor.gif"",""img/Fire_Up_Distractor.gif"",""img/Fire_Up_Distractor.gif"",""img/Fire_Up_Distractor.gif"",""img/Fire_Up_Distractor.gif"",""img/Fire_Up_Distractor.gif""]","targetDown_distractorsUp"
"","","","","","html-keyboard-response","162","539131","0.0-14.0-0.0-0.74","600b867e297f072364af7a99","6186fb1cc52d38b480598eb7","6187200eefe163220b525c5d","null","","null","","","","","fixation","","","",""
"","","","","","visual-search-circle","163","541929","0.0-14.0-0.0-1.74","600b867e297f072364af7a99","6186fb1cc52d38b480598eb7","6187200eefe163220b525c5d","1794.1000001430511","","d","true","[[492,70],[197,18],[4,247],[107,529],[402,581],[595,352]]","true","6","","","img/Fire_Down_Target.gif","[""img/Fire_Up_Distractor.gif"",""img/Fire_Up_Distractor.gif"",""img/Fire_Up_Distractor.gif"",""img/Fire_Up_Distractor.gif"",""img/Fire_Up_Distractor.gif"",""img/Fire_Up_Distractor.gif"",""img/Fire_Up_Distractor.gif"",""img/Fire_Up_Distractor.gif"",""img/Fire_Up_Distractor.gif"",""img/Fire_Up_Distractor.gif"",""img/Fire_Up_Distractor.gif"",""img/Fire_Up_Distractor.gif""]","targetDown_distractorsUp"
"","","","","","html-keyboard-response","164","541931","0.0-14.0-0.0-0.75","600b867e297f072364af7a99","6186fb1cc52d38b480598eb7","6187200eefe163220b525c5d","null","","null","","","","","fixation","","","",""
"","","","","","visual-search-circle","165","544632","0.0-14.0-0.0-1.75","600b867e297f072364af7a99","6186fb1cc52d38b480598eb7","6187200eefe163220b525c5d","1698.7000000476837","","d","true","[[529,492],[554,141],[227,8],[0,279],[187,578]]","true","5","","","img/Fire_Down_Target.gif","[""img/Fire_Up_Distractor.gif"",""img/Fire_Up_Distractor.gif"",""img/Fire_Up_Distractor.gif"",""img/Fire_Up_Distractor.gif"",""img/Fire_Up_Distractor.gif"",""img/Fire_Up_Distractor.gif"",""img/Fire_Up_Distractor.gif"",""img/Fire_Up_Distractor.gif"",""img/Fire_Up_Distractor.gif"",""img/Fire_Up_Distractor.gif"",""img/Fire_Up_Distractor.gif"",""img/Fire_Up_Distractor.gif""]","targetDown_distractorsUp"
"","","","","","html-keyboard-response","166","544634","0.0-14.0-0.0-0.76","600b867e297f072364af7a99","6186fb1cc52d38b480598eb7","6187200eefe163220b525c5d","null","","null","","","","","fixation","","","",""
"","","","","","visual-search-circle","167","548448","0.0-14.0-0.0-1.76","600b867e297f072364af7a99","6186fb1cc52d38b480598eb7","6187200eefe163220b525c5d","2811.100000143051","","s","true","[[569,168],[258,2],[4,247],[159,564],[508,515]]","false","5","","","img/Fire_Up_Target.gif","[""img/Fire_Down_Distractor.gif"",""img/Fire_Down_Distractor.gif"",""img/Fire_Down_Distractor.gif"",""img/Fire_Down_Distractor.gif"",""img/Fire_Down_Distractor.gif"",""img/Fire_Down_Distractor.gif"",""img/Fire_Down_Distractor.gif"",""img/Fire_Down_Distractor.gif"",""img/Fire_Down_Distractor.gif"",""img/Fire_Down_Distractor.gif"",""img/Fire_Down_Distractor.gif"",""img/Fire_Down_Distractor.gif""]","targetUp_distractorsDown"
"","","","","","html-keyboard-response","168","548450","0.0-14.0-0.0-0.77","600b867e297f072364af7a99","6186fb1cc52d38b480598eb7","6187200eefe163220b525c5d","null","","null","","","","","fixation","","","",""
"","","","","","visual-search-circle","169","550531","0.0-14.0-0.0-1.77","600b867e297f072364af7a99","6186fb1cc52d38b480598eb7","6187200eefe163220b525c5d","1078.7000000476837","","d","true","[[212,586],[504,519],[592,232],[387,13],[95,80],[7,367]]","true","6","","","img/Fire_Up_Target.gif","[""img/Fire_Down_Distractor.gif"",""img/Fire_Down_Distractor.gif"",""img/Fire_Down_Distractor.gif"",""img/Fire_Down_Distractor.gif"",""img/Fire_Down_Distractor.gif"",""img/Fire_Down_Distractor.gif"",""img/Fire_Down_Distractor.gif"",""img/Fire_Down_Distractor.gif"",""img/Fire_Down_Distractor.gif"",""img/Fire_Down_Distractor.gif"",""img/Fire_Down_Distractor.gif"",""img/Fire_Down_Distractor.gif""]","targetUp_distractorsDown"
"","","","","","html-keyboard-response","170","550533","0.0-14.0-0.0-0.78","600b867e297f072364af7a99","6186fb1cc52d38b480598eb7","6187200eefe163220b525c5d","null","","null","","","","","fixation","","","",""
"","","","","","visual-search-circle","171","553137","0.0-14.0-0.0-1.78","600b867e297f072364af7a99","6186fb1cc52d38b480598eb7","6187200eefe163220b525c5d","1602.5","","s","true","[[559,150],[237,6],[1,268],[177,574],[522,500]]","false","5","","","img/Fire_Down_Target.gif","[""img/Fire_Up_Distractor.gif"",""img/Fire_Up_Distractor.gif"",""img/Fire_Up_Distractor.gif"",""img/Fire_Up_Distractor.gif"",""img/Fire_Up_Distractor.gif"",""img/Fire_Up_Distractor.gif"",""img/Fire_Up_Distractor.gif"",""img/Fire_Up_Distractor.gif"",""img/Fire_Up_Distractor.gif"",""img/Fire_Up_Distractor.gif"",""img/Fire_Up_Distractor.gif"",""img/Fire_Up_Distractor.gif""]","targetDown_distractorsUp"
"","","","","","html-keyboard-response","172","592876","0.0-14.0-0.0-0.79","600b867e297f072364af7a99","6186fb1cc52d38b480598eb7","6187200eefe163220b525c5d","39738.09999990463","Wow! You've completed 80 out of 120 trials! </p> <p>  </p><p> Take a quick break, then press any key when you're ready to continue.","s","","","","","fixation","","","",""
"","","","","","visual-search-circle","173","598336","0.0-14.0-0.0-1.79","600b867e297f072364af7a99","6186fb1cc52d38b480598eb7","6187200eefe163220b525c5d","4457.900000095367","","d","true","[[247,4],[2,258],[168,569],[515,508],[564,159]]","true","5","","","img/Fire_Down_Target.gif","[""img/Fire_Up_Distractor.gif"",""img/Fire_Up_Distractor.gif"",""img/Fire_Up_Distractor.gif"",""img/Fire_Up_Distractor.gif"",""img/Fire_Up_Distractor.gif"",""img/Fire_Up_Distractor.gif"",""img/Fire_Up_Distractor.gif"",""img/Fire_Up_Distractor.gif"",""img/Fire_Up_Distractor.gif"",""img/Fire_Up_Distractor.gif"",""img/Fire_Up_Distractor.gif"",""img/Fire_Up_Distractor.gif""]","targetDown_distractorsUp"
"","","","","","html-keyboard-response","174","598338","0.0-14.0-0.0-0.80","600b867e297f072364af7a99","6186fb1cc52d38b480598eb7","6187200eefe163220b525c5d","null","","null","","","","","fixation","","","",""
"","","","","","visual-search-circle","175","603278","0.0-14.0-0.0-1.80","600b867e297f072364af7a99","6186fb1cc52d38b480598eb7","6187200eefe163220b525c5d","3937","","d","true","[[387,13],[130,52],[0,278],[96,520],[345,596],[560,449],[578,189]]","true","7","","","img/Fire_Up_Target.gif","[""img/Fire_Down_Distractor.gif"",""img/Fire_Down_Distractor.gif"",""img/Fire_Down_Distractor.gif"",""img/Fire_Down_Distractor.gif"",""img/Fire_Down_Distractor.gif"",""img/Fire_Down_Distractor.gif"",""img/Fire_Down_Distractor.gif"",""img/Fire_Down_Distractor.gif"",""img/Fire_Down_Distractor.gif"",""img/Fire_Down_Distractor.gif"",""img/Fire_Down_Distractor.gif"",""img/Fire_Down_Distractor.gif""]","targetUp_distractorsDown"
"","","","","","html-keyboard-response","176","603279","0.0-14.0-0.0-0.81","600b867e297f072364af7a99","6186fb1cc52d38b480598eb7","6187200eefe163220b525c5d","null","","null","","","","","fixation","","","",""
"","","","","","visual-search-circle","177","606977","0.0-14.0-0.0-1.81","600b867e297f072364af7a99","6186fb1cc52d38b480598eb7","6187200eefe163220b525c5d","2694.5999999046326","","s","true","[[242,594],[494,528],[599,290],[479,59],[223,9],[25,178],[34,438]]","false","7","","","img/Fire_Down_Target.gif","[""img/Fire_Up_Distractor.gif"",""img/Fire_Up_Distractor.gif"",""img/Fire_Up_Distractor.gif"",""img/Fire_Up_Distractor.gif"",""img/Fire_Up_Distractor.gif"",""img/Fire_Up_Distractor.gif"",""img/Fire_Up_Distractor.gif"",""img/Fire_Up_Distractor.gif"",""img/Fire_Up_Distractor.gif"",""img/Fire_Up_Distractor.gif"",""img/Fire_Up_Distractor.gif"",""img/Fire_Up_Distractor.gif""]","targetDown_distractorsUp"
"","","","","","html-keyboard-response","178","606979","0.0-14.0-0.0-0.82","600b867e297f072364af7a99","6186fb1cc52d38b480598eb7","6187200eefe163220b525c5d","null","","null","","","","","fixation","","","",""
"","","","","","visual-search-circle","179","613202","0.0-14.0-0.0-1.82","600b867e297f072364af7a99","6186fb1cc52d38b480598eb7","6187200eefe163220b525c5d","5220.900000095367","","d","true","[[551,463],[463,48],[48,136],[136,551]]","true","4","","","img/Fire_Down_Target.gif","[""img/Fire_Up_Distractor.gif"",""img/Fire_Up_Distractor.gif"",""img/Fire_Up_Distractor.gif"",""img/Fire_Up_Distractor.gif"",""img/Fire_Up_Distractor.gif"",""img/Fire_Up_Distractor.gif"",""img/Fire_Up_Distractor.gif"",""img/Fire_Up_Distractor.gif"",""img/Fire_Up_Distractor.gif"",""img/Fire_Up_Distractor.gif"",""img/Fire_Up_Distractor.gif"",""img/Fire_Up_Distractor.gif""]","targetDown_distractorsUp"
"","","","","","html-keyboard-response","180","613208","0.0-14.0-0.0-0.83","600b867e297f072364af7a99","6186fb1cc52d38b480598eb7","6187200eefe163220b525c5d","null","","null","","","","","fixation","","","",""
"","","","","","visual-search-circle","181","619001","0.0-14.0-0.0-1.83","600b867e297f072364af7a99","6186fb1cc52d38b480598eb7","6187200eefe163220b525c5d","4789.700000047684","","d","true","[[591,372],[557,145],[372,8],[145,42],[8,227],[42,454],[227,591],[454,557]]","true","8","","","img/Fire_Up_Target.gif","[""img/Fire_Down_Distractor.gif"",""img/Fire_Down_Distractor.gif"",""img/Fire_Down_Distractor.gif"",""img/Fire_Down_Distractor.gif"",""img/Fire_Down_Distractor.gif"",""img/Fire_Down_Distractor.gif"",""img/Fire_Down_Distractor.gif"",""img/Fire_Down_Distractor.gif"",""img/Fire_Down_Distractor.gif"",""img/Fire_Down_Distractor.gif"",""img/Fire_Down_Distractor.gif"",""img/Fire_Down_Distractor.gif""]","targetUp_distractorsDown"
"","","","","","html-keyboard-response","182","619003","0.0-14.0-0.0-0.84","600b867e297f072364af7a99","6186fb1cc52d38b480598eb7","6187200eefe163220b525c5d","null","","null","","","","","fixation","","","",""
"","","","","","visual-search-circle","183","628913","0.0-14.0-0.0-1.84","600b867e297f072364af7a99","6186fb1cc52d38b480598eb7","6187200eefe163220b525c5d","8906.299999952316","","d","true","[[77,500],[422,574],[598,268],[362,6],[40,150]]","true","5","","","img/Fire_Up_Target.gif","[""img/Fire_Down_Distractor.gif"",""img/Fire_Down_Distractor.gif"",""img/Fire_Down_Distractor.gif"",""img/Fire_Down_Distractor.gif"",""img/Fire_Down_Distractor.gif"",""img/Fire_Down_Distractor.gif"",""img/Fire_Down_Distractor.gif"",""img/Fire_Down_Distractor.gif"",""img/Fire_Down_Distractor.gif"",""img/Fire_Down_Distractor.gif"",""img/Fire_Down_Distractor.gif"",""img/Fire_Down_Distractor.gif""]","targetUp_distractorsDown"
"","","","","","html-keyboard-response","184","628915","0.0-14.0-0.0-0.85","600b867e297f072364af7a99","6186fb1cc52d38b480598eb7","6187200eefe163220b525c5d","null","","null","","","","","fixation","","","",""
"","","","","","visual-search-circle","185","638510","0.0-14.0-0.0-1.85","600b867e297f072364af7a99","6186fb1cc52d38b480598eb7","6187200eefe163220b525c5d","8592.200000047684","","d","true","[[310,599],[588,382],[467,51],[115,63],[18,402]]","true","5","","","img/Fire_Up_Target.gif","[""img/Fire_Down_Distractor.gif"",""img/Fire_Down_Distractor.gif"",""img/Fire_Down_Distractor.gif"",""img/Fire_Down_Distractor.gif"",""img/Fire_Down_Distractor.gif"",""img/Fire_Down_Distractor.gif"",""img/Fire_Down_Distractor.gif"",""img/Fire_Down_Distractor.gif"",""img/Fire_Down_Distractor.gif"",""img/Fire_Down_Distractor.gif"",""img/Fire_Down_Distractor.gif"",""img/Fire_Down_Distractor.gif""]","targetUp_distractorsDown"
"","","","","","html-keyboard-response","186","638512","0.0-14.0-0.0-0.86","600b867e297f072364af7a99","6186fb1cc52d38b480598eb7","6187200eefe163220b525c5d","null","","null","","","","","fixation","","","",""
"","","","","","visual-search-circle","187","642462","0.0-14.0-0.0-1.86","600b867e297f072364af7a99","6186fb1cc52d38b480598eb7","6187200eefe163220b525c5d","2946","","s","true","[[576,182],[412,21],[182,23],[21,187],[23,417],[187,578],[417,576],[578,412]]","false","8","","","img/Fire_Down_Target.gif","[""img/Fire_Up_Distractor.gif"",""img/Fire_Up_Distractor.gif"",""img/Fire_Up_Distractor.gif"",""img/Fire_Up_Distractor.gif"",""img/Fire_Up_Distractor.gif"",""img/Fire_Up_Distractor.gif"",""img/Fire_Up_Distractor.gif"",""img/Fire_Up_Distractor.gif"",""img/Fire_Up_Distractor.gif"",""img/Fire_Up_Distractor.gif"",""img/Fire_Up_Distractor.gif"",""img/Fire_Up_Distractor.gif""]","targetDown_distractorsUp"
"","","","","","html-keyboard-response","188","642469","0.0-14.0-0.0-0.87","600b867e297f072364af7a99","6186fb1cc52d38b480598eb7","6187200eefe163220b525c5d","null","","null","","","","","fixation","","","",""
"","","","","","visual-search-circle","189","645968","0.0-14.0-0.0-1.87","600b867e297f072364af7a99","6186fb1cc52d38b480598eb7","6187200eefe163220b525c5d","2495.7999999523163","","d","true","[[10,377],[222,589],[512,512],[589,222],[377,10],[87,87]]","true","6","","","img/Fire_Down_Target.gif","[""img/Fire_Up_Distractor.gif"",""img/Fire_Up_Distractor.gif"",""img/Fire_Up_Distractor.gif"",""img/Fire_Up_Distractor.gif"",""img/Fire_Up_Distractor.gif"",""img/Fire_Up_Distractor.gif"",""img/Fire_Up_Distractor.gif"",""img/Fire_Up_Distractor.gif"",""img/Fire_Up_Distractor.gif"",""img/Fire_Up_Distractor.gif"",""img/Fire_Up_Distractor.gif"",""img/Fire_Up_Distractor.gif""]","targetDown_distractorsUp"
"","","","","","html-keyboard-response","190","645969","0.0-14.0-0.0-0.88","600b867e297f072364af7a99","6186fb1cc52d38b480598eb7","6187200eefe163220b525c5d","null","","null","","","","","fixation","","","",""
"","","","","","visual-search-circle","191","648177","0.0-14.0-0.0-1.88","600b867e297f072364af7a99","6186fb1cc52d38b480598eb7","6187200eefe163220b525c5d","1204.8000001907349","","d","true","[[346,3],[66,111],[19,407],[253,596],[533,488],[580,192]]","true","6","","","img/Fire_Down_Target.gif","[""img/Fire_Up_Distractor.gif"",""img/Fire_Up_Distractor.gif"",""img/Fire_Up_Distractor.gif"",""img/Fire_Up_Distractor.gif"",""img/Fire_Up_Distractor.gif"",""img/Fire_Up_Distractor.gif"",""img/Fire_Up_Distractor.gif"",""img/Fire_Up_Distractor.gif"",""img/Fire_Up_Distractor.gif"",""img/Fire_Up_Distractor.gif"",""img/Fire_Up_Distractor.gif"",""img/Fire_Up_Distractor.gif""]","targetDown_distractorsUp"
"","","","","","html-keyboard-response","192","648182","0.0-14.0-0.0-0.89","600b867e297f072364af7a99","6186fb1cc52d38b480598eb7","6187200eefe163220b525c5d","null","","null","","","","","fixation","","","",""
"","","","","","visual-search-circle","193","654019","0.0-14.0-0.0-1.89","600b867e297f072364af7a99","6186fb1cc52d38b480598eb7","6187200eefe163220b525c5d","4833.700000047684","","s","false","[[136,48],[0,315],[163,567],[463,551],[599,284],[436,32]]","true","6","","","img/Fire_Up_Target.gif","[""img/Fire_Down_Distractor.gif"",""img/Fire_Down_Distractor.gif"",""img/Fire_Down_Distractor.gif"",""img/Fire_Down_Distractor.gif"",""img/Fire_Down_Distractor.gif"",""img/Fire_Down_Distractor.gif"",""img/Fire_Down_Distractor.gif"",""img/Fire_Down_Distractor.gif"",""img/Fire_Down_Distractor.gif"",""img/Fire_Down_Distractor.gif"",""img/Fire_Down_Distractor.gif"",""img/Fire_Down_Distractor.gif""]","targetUp_distractorsDown"
"","","","","","html-keyboard-response","194","654022","0.0-14.0-0.0-0.90","600b867e297f072364af7a99","6186fb1cc52d38b480598eb7","6187200eefe163220b525c5d","null","","null","","","","","fixation","","","",""
"","","","","","visual-search-circle","195","657936","0.0-14.0-0.0-1.90","600b867e297f072364af7a99","6186fb1cc52d38b480598eb7","6187200eefe163220b525c5d","2911","","d","true","[[480,539],[599,308],[493,70],[241,5],[33,162],[26,422],[225,590]]","true","7","","","img/Fire_Up_Target.gif","[""img/Fire_Down_Distractor.gif"",""img/Fire_Down_Distractor.gif"",""img/Fire_Down_Distractor.gif"",""img/Fire_Down_Distractor.gif"",""img/Fire_Down_Distractor.gif"",""img/Fire_Down_Distractor.gif"",""img/Fire_Down_Distractor.gif"",""img/Fire_Down_Distractor.gif"",""img/Fire_Down_Distractor.gif"",""img/Fire_Down_Distractor.gif"",""img/Fire_Down_Distractor.gif"",""img/Fire_Down_Distractor.gif""]","targetUp_distractorsDown"
"","","","","","html-keyboard-response","196","657938","0.0-14.0-0.0-0.91","600b867e297f072364af7a99","6186fb1cc52d38b480598eb7","6187200eefe163220b525c5d","null","","null","","","","","fixation","","","",""
"","","","","","visual-search-circle","197","662595","0.0-14.0-0.0-1.91","600b867e297f072364af7a99","6186fb1cc52d38b480598eb7","6187200eefe163220b525c5d","3641.2000000476837","","s","false","[[536,115],[115,63],[63,484],[484,536]]","true","4","","","img/Fire_Up_Target.gif","[""img/Fire_Down_Distractor.gif"",""img/Fire_Down_Distractor.gif"",""img/Fire_Down_Distractor.gif"",""img/Fire_Down_Distractor.gif"",""img/Fire_Down_Distractor.gif"",""img/Fire_Down_Distractor.gif"",""img/Fire_Down_Distractor.gif"",""img/Fire_Down_Distractor.gif"",""img/Fire_Down_Distractor.gif"",""img/Fire_Down_Distractor.gif"",""img/Fire_Down_Distractor.gif"",""img/Fire_Down_Distractor.gif""]","targetUp_distractorsDown"
"","","","","","html-keyboard-response","198","662597","0.0-14.0-0.0-0.92","600b867e297f072364af7a99","6186fb1cc52d38b480598eb7","6187200eefe163220b525c5d","null","","null","","","","","fixation","","","",""
"","","","","","visual-search-circle","199","665633","0.0-14.0-0.0-1.92","600b867e297f072364af7a99","6186fb1cc52d38b480598eb7","6187200eefe163220b525c5d","2034.2999999523163","","s","true","[[111,533],[533,488],[488,66],[66,111]]","false","4","","","img/Fire_Up_Target.gif","[""img/Fire_Down_Distractor.gif"",""img/Fire_Down_Distractor.gif"",""img/Fire_Down_Distractor.gif"",""img/Fire_Down_Distractor.gif"",""img/Fire_Down_Distractor.gif"",""img/Fire_Down_Distractor.gif"",""img/Fire_Down_Distractor.gif"",""img/Fire_Down_Distractor.gif"",""img/Fire_Down_Distractor.gif"",""img/Fire_Down_Distractor.gif"",""img/Fire_Down_Distractor.gif"",""img/Fire_Down_Distractor.gif""]","targetUp_distractorsDown"
"","","","","","html-keyboard-response","200","665635","0.0-14.0-0.0-0.93","600b867e297f072364af7a99","6186fb1cc52d38b480598eb7","6187200eefe163220b525c5d","null","","null","","","","","fixation","","","",""
"","","","","","visual-search-circle","201","669178","0.0-14.0-0.0-1.93","600b867e297f072364af7a99","6186fb1cc52d38b480598eb7","6187200eefe163220b525c5d","2539.4000000953674","","d","true","[[500,522],[599,315],[522,99],[315,0],[99,77],[0,284],[77,500],[284,599]]","true","8","","","img/Fire_Up_Target.gif","[""img/Fire_Down_Distractor.gif"",""img/Fire_Down_Distractor.gif"",""img/Fire_Down_Distractor.gif"",""img/Fire_Down_Distractor.gif"",""img/Fire_Down_Distractor.gif"",""img/Fire_Down_Distractor.gif"",""img/Fire_Down_Distractor.gif"",""img/Fire_Down_Distractor.gif"",""img/Fire_Down_Distractor.gif"",""img/Fire_Down_Distractor.gif"",""img/Fire_Down_Distractor.gif"",""img/Fire_Down_Distractor.gif""]","targetUp_distractorsDown"
"","","","","","html-keyboard-response","202","669180","0.0-14.0-0.0-0.94","600b867e297f072364af7a99","6186fb1cc52d38b480598eb7","6187200eefe163220b525c5d","null","","null","","","","","fixation","","","",""
"","","","","","visual-search-circle","203","672762","0.0-14.0-0.0-1.94","600b867e297f072364af7a99","6186fb1cc52d38b480598eb7","6187200eefe163220b525c5d","2578.5999999046326","","s","true","[[467,548],[588,217],[310,0],[18,197],[115,536]]","false","5","","","img/Fire_Down_Target.gif","[""img/Fire_Up_Distractor.gif"",""img/Fire_Up_Distractor.gif"",""img/Fire_Up_Distractor.gif"",""img/Fire_Up_Distractor.gif"",""img/Fire_Up_Distractor.gif"",""img/Fire_Up_Distractor.gif"",""img/Fire_Up_Distractor.gif"",""img/Fire_Up_Distractor.gif"",""img/Fire_Up_Distractor.gif"",""img/Fire_Up_Distractor.gif"",""img/Fire_Up_Distractor.gif"",""img/Fire_Up_Distractor.gif""]","targetDown_distractorsUp"
"","","","","","html-keyboard-response","204","672764","0.0-14.0-0.0-0.95","600b867e297f072364af7a99","6186fb1cc52d38b480598eb7","6187200eefe163220b525c5d","null","","null","","","","","fixation","","","",""
"","","","","","visual-search-circle","205","678839","0.0-14.0-0.0-1.95","600b867e297f072364af7a99","6186fb1cc52d38b480598eb7","6187200eefe163220b525c5d","5071.299999952316","","d","true","[[559,450],[589,222],[449,40],[222,10],[40,150],[10,377],[150,559],[377,589]]","true","8","","","img/Fire_Up_Target.gif","[""img/Fire_Down_Distractor.gif"",""img/Fire_Down_Distractor.gif"",""img/Fire_Down_Distractor.gif"",""img/Fire_Down_Distractor.gif"",""img/Fire_Down_Distractor.gif"",""img/Fire_Down_Distractor.gif"",""img/Fire_Down_Distractor.gif"",""img/Fire_Down_Distractor.gif"",""img/Fire_Down_Distractor.gif"",""img/Fire_Down_Distractor.gif"",""img/Fire_Down_Distractor.gif"",""img/Fire_Down_Distractor.gif""]","targetUp_distractorsDown"
"","","","","","html-keyboard-response","206","678840","0.0-14.0-0.0-0.96","600b867e297f072364af7a99","6186fb1cc52d38b480598eb7","6187200eefe163220b525c5d","null","","null","","","","","fixation","","","",""
"","","","","","visual-search-circle","207","684707","0.0-14.0-0.0-1.96","600b867e297f072364af7a99","6186fb1cc52d38b480598eb7","6187200eefe163220b525c5d","4863.100000143051","","s","true","[[367,592],[554,458],[592,232],[458,45],[232,7],[45,141],[7,367],[141,554]]","false","8","","","img/Fire_Up_Target.gif","[""img/Fire_Down_Distractor.gif"",""img/Fire_Down_Distractor.gif"",""img/Fire_Down_Distractor.gif"",""img/Fire_Down_Distractor.gif"",""img/Fire_Down_Distractor.gif"",""img/Fire_Down_Distractor.gif"",""img/Fire_Down_Distractor.gif"",""img/Fire_Down_Distractor.gif"",""img/Fire_Down_Distractor.gif"",""img/Fire_Down_Distractor.gif"",""img/Fire_Down_Distractor.gif"",""img/Fire_Down_Distractor.gif""]","targetUp_distractorsDown"
"","","","","","html-keyboard-response","208","684709","0.0-14.0-0.0-0.97","600b867e297f072364af7a99","6186fb1cc52d38b480598eb7","6187200eefe163220b525c5d","null","","null","","","","","fixation","","","",""
"","","","","","visual-search-circle","209","688083","0.0-14.0-0.0-1.97","600b867e297f072364af7a99","6186fb1cc52d38b480598eb7","6187200eefe163220b525c5d","2372.2000000476837","","d","true","[[346,596],[596,346],[436,32],[87,87],[32,436]]","true","5","","","img/Fire_Down_Target.gif","[""img/Fire_Up_Distractor.gif"",""img/Fire_Up_Distractor.gif"",""img/Fire_Up_Distractor.gif"",""img/Fire_Up_Distractor.gif"",""img/Fire_Up_Distractor.gif"",""img/Fire_Up_Distractor.gif"",""img/Fire_Up_Distractor.gif"",""img/Fire_Up_Distractor.gif"",""img/Fire_Up_Distractor.gif"",""img/Fire_Up_Distractor.gif"",""img/Fire_Up_Distractor.gif"",""img/Fire_Up_Distractor.gif""]","targetDown_distractorsUp"
"","","","","","html-keyboard-response","210","688085","0.0-14.0-0.0-0.98","600b867e297f072364af7a99","6186fb1cc52d38b480598eb7","6187200eefe163220b525c5d","null","","null","","","","","fixation","","","",""
"","","","","","visual-search-circle","211","693622","0.0-14.0-0.0-1.98","600b867e297f072364af7a99","6186fb1cc52d38b480598eb7","6187200eefe163220b525c5d","4535.5","","d","true","[[545,127],[127,54],[54,472],[472,545]]","true","4","","","img/Fire_Up_Target.gif","[""img/Fire_Down_Distractor.gif"",""img/Fire_Down_Distractor.gif"",""img/Fire_Down_Distractor.gif"",""img/Fire_Down_Distractor.gif"",""img/Fire_Down_Distractor.gif"",""img/Fire_Down_Distractor.gif"",""img/Fire_Down_Distractor.gif"",""img/Fire_Down_Distractor.gif"",""img/Fire_Down_Distractor.gif"",""img/Fire_Down_Distractor.gif"",""img/Fire_Down_Distractor.gif"",""img/Fire_Down_Distractor.gif""]","targetUp_distractorsDown"
"","","","","","html-keyboard-response","212","695484","0.0-14.0-0.0-0.99","600b867e297f072364af7a99","6186fb1cc52d38b480598eb7","6187200eefe163220b525c5d","1861.2999999523163","Wow! You've completed 100 out of 120 trials! </p> <p>  </p><p> Take a quick break, then press any key when you're ready to continue.","d","","","","","fixation","","","",""
"","","","","","visual-search-circle","213","698645","0.0-14.0-0.0-1.99","600b867e297f072364af7a99","6186fb1cc52d38b480598eb7","6187200eefe163220b525c5d","2158.2000000476837","","s","true","[[212,586],[504,519],[592,232],[387,13],[95,80],[7,367]]","false","6","","","img/Fire_Down_Target.gif","[""img/Fire_Up_Distractor.gif"",""img/Fire_Up_Distractor.gif"",""img/Fire_Up_Distractor.gif"",""img/Fire_Up_Distractor.gif"",""img/Fire_Up_Distractor.gif"",""img/Fire_Up_Distractor.gif"",""img/Fire_Up_Distractor.gif"",""img/Fire_Up_Distractor.gif"",""img/Fire_Up_Distractor.gif"",""img/Fire_Up_Distractor.gif"",""img/Fire_Up_Distractor.gif"",""img/Fire_Up_Distractor.gif""]","targetDown_distractorsUp"
"","","","","","html-keyboard-response","214","698647","0.0-14.0-0.0-0.100","600b867e297f072364af7a99","6186fb1cc52d38b480598eb7","6187200eefe163220b525c5d","null","","null","","","","","fixation","","","",""
"","","","","","visual-search-circle","215","701759","0.0-14.0-0.0-1.100","600b867e297f072364af7a99","6186fb1cc52d38b480598eb7","6187200eefe163220b525c5d","2109.5","","d","true","[[182,576],[576,417],[417,23],[23,182]]","true","4","","","img/Fire_Down_Target.gif","[""img/Fire_Up_Distractor.gif"",""img/Fire_Up_Distractor.gif"",""img/Fire_Up_Distractor.gif"",""img/Fire_Up_Distractor.gif"",""img/Fire_Up_Distractor.gif"",""img/Fire_Up_Distractor.gif"",""img/Fire_Up_Distractor.gif"",""img/Fire_Up_Distractor.gif"",""img/Fire_Up_Distractor.gif"",""img/Fire_Up_Distractor.gif"",""img/Fire_Up_Distractor.gif"",""img/Fire_Up_Distractor.gif""]","targetDown_distractorsUp"
"","","","","","html-keyboard-response","216","701761","0.0-14.0-0.0-0.101","600b867e297f072364af7a99","6186fb1cc52d38b480598eb7","6187200eefe163220b525c5d","null","","null","","","","","fixation","","","",""
"","","","","","visual-search-circle","217","708824","0.0-14.0-0.0-1.101","600b867e297f072364af7a99","6186fb1cc52d38b480598eb7","6187200eefe163220b525c5d","6059.200000047684","","s","true","[[600,300],[512,87],[300,0],[87,87],[0,299],[87,512],[299,600],[512,512]]","false","8","","","img/Fire_Up_Target.gif","[""img/Fire_Down_Distractor.gif"",""img/Fire_Down_Distractor.gif"",""img/Fire_Down_Distractor.gif"",""img/Fire_Down_Distractor.gif"",""img/Fire_Down_Distractor.gif"",""img/Fire_Down_Distractor.gif"",""img/Fire_Down_Distractor.gif"",""img/Fire_Down_Distractor.gif"",""img/Fire_Down_Distractor.gif"",""img/Fire_Down_Distractor.gif"",""img/Fire_Down_Distractor.gif"",""img/Fire_Down_Distractor.gif""]","targetUp_distractorsDown"
"","","","","","html-keyboard-response","218","708825","0.0-14.0-0.0-0.102","600b867e297f072364af7a99","6186fb1cc52d38b480598eb7","6187200eefe163220b525c5d","null","","null","","","","","fixation","","","",""
"","","","","","visual-search-circle","219","715070","0.0-14.0-0.0-1.102","600b867e297f072364af7a99","6186fb1cc52d38b480598eb7","6187200eefe163220b525c5d","5242.5","","d","true","[[436,567],[567,163],[163,32],[32,436]]","true","4","","","img/Fire_Up_Target.gif","[""img/Fire_Down_Distractor.gif"",""img/Fire_Down_Distractor.gif"",""img/Fire_Down_Distractor.gif"",""img/Fire_Down_Distractor.gif"",""img/Fire_Down_Distractor.gif"",""img/Fire_Down_Distractor.gif"",""img/Fire_Down_Distractor.gif"",""img/Fire_Down_Distractor.gif"",""img/Fire_Down_Distractor.gif"",""img/Fire_Down_Distractor.gif"",""img/Fire_Down_Distractor.gif"",""img/Fire_Down_Distractor.gif""]","targetUp_distractorsDown"
"","","","","","html-keyboard-response","220","715072","0.0-14.0-0.0-0.103","600b867e297f072364af7a99","6186fb1cc52d38b480598eb7","6187200eefe163220b525c5d","null","","null","","","","","fixation","","","",""
"","","","","","visual-search-circle","221","721900","0.0-14.0-0.0-1.103","600b867e297f072364af7a99","6186fb1cc52d38b480598eb7","6187200eefe163220b525c5d","5825.899999856949","","s","true","[[593,237],[237,6],[6,362],[362,593]]","false","4","","","img/Fire_Up_Target.gif","[""img/Fire_Down_Distractor.gif"",""img/Fire_Down_Distractor.gif"",""img/Fire_Down_Distractor.gif"",""img/Fire_Down_Distractor.gif"",""img/Fire_Down_Distractor.gif"",""img/Fire_Down_Distractor.gif"",""img/Fire_Down_Distractor.gif"",""img/Fire_Down_Distractor.gif"",""img/Fire_Down_Distractor.gif"",""img/Fire_Down_Distractor.gif"",""img/Fire_Down_Distractor.gif"",""img/Fire_Down_Distractor.gif""]","targetUp_distractorsDown"
"","","","","","html-keyboard-response","222","721902","0.0-14.0-0.0-0.104","600b867e297f072364af7a99","6186fb1cc52d38b480598eb7","6187200eefe163220b525c5d","null","","null","","","","","fixation","","","",""
