"success","timeout","failed_images","failed_audio","failed_video","trial_type","trial_index","time_elapsed","internal_node_id","subject_id","study_id","session_id","rt","stimulus","response","correct","locations","target_present","set_size","task","correct_response","target","foilCM","searchCondition"
"true","false","[]","[]","[]","preload","0","14163","0.0-0.0","6063da0f55279e9ff7d38e2c","6186fb1cc52d38b480598eb7","618732e6508dc878b7e50df9","","","","","","","","","","","",""
"true","","","","","fullscreen","1","18017","0.0-1.0","6063da0f55279e9ff7d38e2c","6186fb1cc52d38b480598eb7","618732e6508dc878b7e50df9","","","","","","","","","","","",""
"","","","","","html-keyboard-response","2","21418","0.0-2.0","6063da0f55279e9ff7d38e2c","6186fb1cc52d38b480598eb7","618732e6508dc878b7e50df9","3399.5","What a beautiful Saturday to do some awesome science! </p> <p>  </p><p> </p>
    By completing this survey or questionnaire, you are consenting to be in this research study. </p>
    Your participation is voluntary and you can stop at any time.
    <p> [Press any key to continue.] </p>
    
    "," ","","","","","","","","",""
"","","","","","video-keyboard-response","3","43617","0.0-3.0","6063da0f55279e9ff7d38e2c","6186fb1cc52d38b480598eb7","618732e6508dc878b7e50df9","22193.900000002235","[""video/TaskInstructions.mp4""]"," ","","","","","","","","",""
"","","","","","html-keyboard-response","4","47402","0.0-4.0","6063da0f55279e9ff7d38e2c","6186fb1cc52d38b480598eb7","618732e6508dc878b7e50df9","3783.300000000745","
    <p>First, we're going to do a few practice trials to make sure you understand the task. You will recieve feedback on each trial. </p>

    <p>[Press any key to begin the familiarization phase.]</p>
    "," ","","","","","","","","",""
"","","","","","visual-search-circle","5","50804","0.0-5.0-0.0","6063da0f55279e9ff7d38e2c","6186fb1cc52d38b480598eb7","618732e6508dc878b7e50df9","2336.39999999851","","d","true","[[42,145],[145,557],[557,454],[454,42]]","true","4","training","d","","",""
"","","","","","html-keyboard-response","6","52499","0.0-6.0","6063da0f55279e9ff7d38e2c","6186fb1cc52d38b480598eb7","618732e6508dc878b7e50df9","1692.5999999977648"," <div style='float: center; '><img src='img/feedbackRight.png'></img> </div> "," ","","","","","","","","",""
"","","","","","visual-search-circle","7","54757","0.0-7.0-0.0","6063da0f55279e9ff7d38e2c","6186fb1cc52d38b480598eb7","618732e6508dc878b7e50df9","1247.0999999977648","","s","true","[[352,595],[595,247],[247,4],[4,352]]","false","4","training","s","","",""
"","","","","","html-keyboard-response","8","55589","0.0-8.0","6063da0f55279e9ff7d38e2c","6186fb1cc52d38b480598eb7","618732e6508dc878b7e50df9","830.8999999985099"," <div style='float: center; '><img src='img/feedbackRight.png'></img> </div> "," ","","","","","","","","",""
"","","","","","visual-search-circle","9","58099","0.0-9.0-0.0","6063da0f55279e9ff7d38e2c","6186fb1cc52d38b480598eb7","618732e6508dc878b7e50df9","1497.8999999985099","","s","true","[[154,37],[0,294],[145,557],[445,562],[599,305],[454,42]]","false","6","training","s","","",""
"","","","","","html-keyboard-response","10","58771","0.0-10.0","6063da0f55279e9ff7d38e2c","6186fb1cc52d38b480598eb7","618732e6508dc878b7e50df9","669.7999999970198"," <div style='float: center; '><img src='img/feedbackRight.png'></img> </div> "," ","","","","","","","","",""
"","","","","","visual-search-circle","11","60858","0.0-11.0-0.0","6063da0f55279e9ff7d38e2c","6186fb1cc52d38b480598eb7","618732e6508dc878b7e50df9","1072.199999999255","","d","true","[[163,32],[14,207],[32,436],[207,585],[436,567],[585,392],[567,163],[392,14]]","true","8","training","d","","",""
"","","","","","html-keyboard-response","12","61717","0.0-12.0","6063da0f55279e9ff7d38e2c","6186fb1cc52d38b480598eb7","618732e6508dc878b7e50df9","857.8000000007451"," <div style='float: center; '><img src='img/feedbackRight.png'></img> </div> "," ","","","","","","","","",""
"","","","","","video-keyboard-response","13","64484","0.0-13.0","6063da0f55279e9ff7d38e2c","6186fb1cc52d38b480598eb7","618732e6508dc878b7e50df9","2764.199999999255","[""video/endTraining.mp4""]"," ","","","","","","","","",""
"","","","","","html-keyboard-response","14","64487","0.0-14.0-0.0-0.0","6063da0f55279e9ff7d38e2c","6186fb1cc52d38b480598eb7","618732e6508dc878b7e50df9","null","","null","","","","","fixation","","","",""
"","","","","","visual-search-circle","15","66771","0.0-14.0-0.0-1.0","6063da0f55279e9ff7d38e2c","6186fb1cc52d38b480598eb7","618732e6508dc878b7e50df9","1274.199999999255","","d","true","[[63,115],[51,467],[382,588],[599,310],[402,18]]","true","5","","","img/Fire_Up_Target.gif","[""img/Fire_Down_Distractor.gif"",""img/Fire_Down_Distractor.gif"",""img/Fire_Down_Distractor.gif"",""img/Fire_Down_Distractor.gif"",""img/Fire_Down_Distractor.gif"",""img/Fire_Down_Distractor.gif"",""img/Fire_Down_Distractor.gif"",""img/Fire_Down_Distractor.gif"",""img/Fire_Down_Distractor.gif"",""img/Fire_Down_Distractor.gif"",""img/Fire_Down_Distractor.gif"",""img/Fire_Down_Distractor.gif""]","targetUp_distractorsDown"
"","","","","","html-keyboard-response","16","66773","0.0-14.0-0.0-0.1","6063da0f55279e9ff7d38e2c","6186fb1cc52d38b480598eb7","618732e6508dc878b7e50df9","null","","null","","","","","fixation","","","",""
"","","","","","visual-search-circle","17","69135","0.0-14.0-0.0-1.1","6063da0f55279e9ff7d38e2c","6186fb1cc52d38b480598eb7","618732e6508dc878b7e50df9","1339.8999999985099","","d","true","[[2,341],[187,578],[484,536],[597,258],[412,21],[115,63]]","true","6","","","img/Fire_Up_Target.gif","[""img/Fire_Down_Distractor.gif"",""img/Fire_Down_Distractor.gif"",""img/Fire_Down_Distractor.gif"",""img/Fire_Down_Distractor.gif"",""img/Fire_Down_Distractor.gif"",""img/Fire_Down_Distractor.gif"",""img/Fire_Down_Distractor.gif"",""img/Fire_Down_Distractor.gif"",""img/Fire_Down_Distractor.gif"",""img/Fire_Down_Distractor.gif"",""img/Fire_Down_Distractor.gif"",""img/Fire_Down_Distractor.gif""]","targetUp_distractorsDown"
"","","","","","html-keyboard-response","18","69137","0.0-14.0-0.0-0.2","6063da0f55279e9ff7d38e2c","6186fb1cc52d38b480598eb7","618732e6508dc878b7e50df9","null","","null","","","","","fixation","","","",""
"","","","","","visual-search-circle","19","71415","0.0-14.0-0.0-1.2","6063da0f55279e9ff7d38e2c","6186fb1cc52d38b480598eb7","618732e6508dc878b7e50df9","1265.6000000014901","","s","true","[[48,136],[6,362],[136,551],[362,593],[551,463],[593,237],[463,48],[237,6]]","false","8","","","img/Fire_Down_Target.gif","[""img/Fire_Up_Distractor.gif"",""img/Fire_Up_Distractor.gif"",""img/Fire_Up_Distractor.gif"",""img/Fire_Up_Distractor.gif"",""img/Fire_Up_Distractor.gif"",""img/Fire_Up_Distractor.gif"",""img/Fire_Up_Distractor.gif"",""img/Fire_Up_Distractor.gif"",""img/Fire_Up_Distractor.gif"",""img/Fire_Up_Distractor.gif"",""img/Fire_Up_Distractor.gif"",""img/Fire_Up_Distractor.gif""]","targetDown_distractorsUp"
"","","","","","html-keyboard-response","20","71417","0.0-14.0-0.0-0.3","6063da0f55279e9ff7d38e2c","6186fb1cc52d38b480598eb7","618732e6508dc878b7e50df9","null","","null","","","","","fixation","","","",""
"","","","","","visual-search-circle","21","73725","0.0-14.0-0.0-1.3","6063da0f55279e9ff7d38e2c","6186fb1cc52d38b480598eb7","618732e6508dc878b7e50df9","1297.9000000022352","","s","true","[[440,35],[35,159],[159,564],[564,440]]","false","4","","","img/Fire_Up_Target.gif","[""img/Fire_Down_Distractor.gif"",""img/Fire_Down_Distractor.gif"",""img/Fire_Down_Distractor.gif"",""img/Fire_Down_Distractor.gif"",""img/Fire_Down_Distractor.gif"",""img/Fire_Down_Distractor.gif"",""img/Fire_Down_Distractor.gif"",""img/Fire_Down_Distractor.gif"",""img/Fire_Down_Distractor.gif"",""img/Fire_Down_Distractor.gif"",""img/Fire_Down_Distractor.gif"",""img/Fire_Down_Distractor.gif""]","targetUp_distractorsDown"
"","","","","","html-keyboard-response","22","73727","0.0-14.0-0.0-0.4","6063da0f55279e9ff7d38e2c","6186fb1cc52d38b480598eb7","618732e6508dc878b7e50df9","null","","null","","","","","fixation","","","",""
"","","","","","visual-search-circle","23","75906","0.0-14.0-0.0-1.4","6063da0f55279e9ff7d38e2c","6186fb1cc52d38b480598eb7","618732e6508dc878b7e50df9","1172.199999999255","","s","true","[[30,431],[431,569],[569,168],[168,30]]","false","4","","","img/Fire_Down_Target.gif","[""img/Fire_Up_Distractor.gif"",""img/Fire_Up_Distractor.gif"",""img/Fire_Up_Distractor.gif"",""img/Fire_Up_Distractor.gif"",""img/Fire_Up_Distractor.gif"",""img/Fire_Up_Distractor.gif"",""img/Fire_Up_Distractor.gif"",""img/Fire_Up_Distractor.gif"",""img/Fire_Up_Distractor.gif"",""img/Fire_Up_Distractor.gif"",""img/Fire_Up_Distractor.gif"",""img/Fire_Up_Distractor.gif""]","targetDown_distractorsUp"
"","","","","","html-keyboard-response","24","75908","0.0-14.0-0.0-0.5","6063da0f55279e9ff7d38e2c","6186fb1cc52d38b480598eb7","618732e6508dc878b7e50df9","null","","null","","","","","fixation","","","",""
"","","","","","visual-search-circle","25","77931","0.0-14.0-0.0-1.5","6063da0f55279e9ff7d38e2c","6186fb1cc52d38b480598eb7","618732e6508dc878b7e50df9","1008.7000000029802","","d","true","[[222,589],[478,541],[599,311],[495,72],[244,5],[34,159],[25,419]]","true","7","","","img/Fire_Down_Target.gif","[""img/Fire_Up_Distractor.gif"",""img/Fire_Up_Distractor.gif"",""img/Fire_Up_Distractor.gif"",""img/Fire_Up_Distractor.gif"",""img/Fire_Up_Distractor.gif"",""img/Fire_Up_Distractor.gif"",""img/Fire_Up_Distractor.gif"",""img/Fire_Up_Distractor.gif"",""img/Fire_Up_Distractor.gif"",""img/Fire_Up_Distractor.gif"",""img/Fire_Up_Distractor.gif"",""img/Fire_Up_Distractor.gif""]","targetDown_distractorsUp"
"","","","","","html-keyboard-response","26","77933","0.0-14.0-0.0-0.6","6063da0f55279e9ff7d38e2c","6186fb1cc52d38b480598eb7","618732e6508dc878b7e50df9","null","","null","","","","","fixation","","","",""
"","","","","","visual-search-circle","27","80251","0.0-14.0-0.0-1.6","6063da0f55279e9ff7d38e2c","6186fb1cc52d38b480598eb7","618732e6508dc878b7e50df9","1305.7999999970198","","s","true","[[253,3],[39,151],[21,411],[213,587],[470,546],[599,320],[502,78]]","false","7","","","img/Fire_Down_Target.gif","[""img/Fire_Up_Distractor.gif"",""img/Fire_Up_Distractor.gif"",""img/Fire_Up_Distractor.gif"",""img/Fire_Up_Distractor.gif"",""img/Fire_Up_Distractor.gif"",""img/Fire_Up_Distractor.gif"",""img/Fire_Up_Distractor.gif"",""img/Fire_Up_Distractor.gif"",""img/Fire_Up_Distractor.gif"",""img/Fire_Up_Distractor.gif"",""img/Fire_Up_Distractor.gif"",""img/Fire_Up_Distractor.gif""]","targetDown_distractorsUp"
"","","","","","html-keyboard-response","28","80255","0.0-14.0-0.0-0.7","6063da0f55279e9ff7d38e2c","6186fb1cc52d38b480598eb7","618732e6508dc878b7e50df9","null","","null","","","","","fixation","","","",""
"","","","","","visual-search-circle","29","82498","0.0-14.0-0.0-1.7","6063da0f55279e9ff7d38e2c","6186fb1cc52d38b480598eb7","618732e6508dc878b7e50df9","1227.300000000745","","s","true","[[242,594],[467,548],[594,357],[548,132],[357,5],[132,51],[5,242],[51,467]]","false","8","","","img/Fire_Up_Target.gif","[""img/Fire_Down_Distractor.gif"",""img/Fire_Down_Distractor.gif"",""img/Fire_Down_Distractor.gif"",""img/Fire_Down_Distractor.gif"",""img/Fire_Down_Distractor.gif"",""img/Fire_Down_Distractor.gif"",""img/Fire_Down_Distractor.gif"",""img/Fire_Down_Distractor.gif"",""img/Fire_Down_Distractor.gif"",""img/Fire_Down_Distractor.gif"",""img/Fire_Down_Distractor.gif"",""img/Fire_Down_Distractor.gif""]","targetUp_distractorsDown"
"","","","","","html-keyboard-response","30","82500","0.0-14.0-0.0-0.8","6063da0f55279e9ff7d38e2c","6186fb1cc52d38b480598eb7","618732e6508dc878b7e50df9","null","","null","","","","","fixation","","","",""
"","","","","","visual-search-circle","31","84572","0.0-14.0-0.0-1.8","6063da0f55279e9ff7d38e2c","6186fb1cc52d38b480598eb7","618732e6508dc878b7e50df9","1058.4000000022352","","d","true","[[63,484],[341,597],[578,412],[536,115],[258,2],[21,187]]","true","6","","","img/Fire_Up_Target.gif","[""img/Fire_Down_Distractor.gif"",""img/Fire_Down_Distractor.gif"",""img/Fire_Down_Distractor.gif"",""img/Fire_Down_Distractor.gif"",""img/Fire_Down_Distractor.gif"",""img/Fire_Down_Distractor.gif"",""img/Fire_Down_Distractor.gif"",""img/Fire_Down_Distractor.gif"",""img/Fire_Down_Distractor.gif"",""img/Fire_Down_Distractor.gif"",""img/Fire_Down_Distractor.gif"",""img/Fire_Down_Distractor.gif""]","targetUp_distractorsDown"
"","","","","","html-keyboard-response","32","84574","0.0-14.0-0.0-0.9","6063da0f55279e9ff7d38e2c","6186fb1cc52d38b480598eb7","618732e6508dc878b7e50df9","null","","null","","","","","fixation","","","",""
"","","","","","visual-search-circle","33","86728","0.0-14.0-0.0-1.9","6063da0f55279e9ff7d38e2c","6186fb1cc52d38b480598eb7","618732e6508dc878b7e50df9","1141.5","","s","true","[[30,168],[51,467],[320,599],[569,431],[548,132],[279,0]]","false","6","","","img/Fire_Down_Target.gif","[""img/Fire_Up_Distractor.gif"",""img/Fire_Up_Distractor.gif"",""img/Fire_Up_Distractor.gif"",""img/Fire_Up_Distractor.gif"",""img/Fire_Up_Distractor.gif"",""img/Fire_Up_Distractor.gif"",""img/Fire_Up_Distractor.gif"",""img/Fire_Up_Distractor.gif"",""img/Fire_Up_Distractor.gif"",""img/Fire_Up_Distractor.gif"",""img/Fire_Up_Distractor.gif"",""img/Fire_Up_Distractor.gif""]","targetDown_distractorsUp"
"","","","","","html-keyboard-response","34","86730","0.0-14.0-0.0-0.10","6063da0f55279e9ff7d38e2c","6186fb1cc52d38b480598eb7","618732e6508dc878b7e50df9","null","","null","","","","","fixation","","","",""
"","","","","","visual-search-circle","35","88839","0.0-14.0-0.0-1.10","6063da0f55279e9ff7d38e2c","6186fb1cc52d38b480598eb7","618732e6508dc878b7e50df9","1095.4000000022352","","d","true","[[310,599],[540,478],[589,223],[420,25],[160,34],[5,243],[72,495]]","true","7","","","img/Fire_Up_Target.gif","[""img/Fire_Down_Distractor.gif"",""img/Fire_Down_Distractor.gif"",""img/Fire_Down_Distractor.gif"",""img/Fire_Down_Distractor.gif"",""img/Fire_Down_Distractor.gif"",""img/Fire_Down_Distractor.gif"",""img/Fire_Down_Distractor.gif"",""img/Fire_Down_Distractor.gif"",""img/Fire_Down_Distractor.gif"",""img/Fire_Down_Distractor.gif"",""img/Fire_Down_Distractor.gif"",""img/Fire_Down_Distractor.gif""]","targetUp_distractorsDown"
"","","","","","html-keyboard-response","36","88841","0.0-14.0-0.0-0.11","6063da0f55279e9ff7d38e2c","6186fb1cc52d38b480598eb7","618732e6508dc878b7e50df9","null","","null","","","","","fixation","","","",""
"","","","","","visual-search-circle","37","90910","0.0-14.0-0.0-1.11","6063da0f55279e9ff7d38e2c","6186fb1cc52d38b480598eb7","618732e6508dc878b7e50df9","1059","","s","true","[[407,580],[586,390],[549,132],[324,1],[81,94],[3,342],[148,558]]","false","7","","","img/Fire_Up_Target.gif","[""img/Fire_Down_Distractor.gif"",""img/Fire_Down_Distractor.gif"",""img/Fire_Down_Distractor.gif"",""img/Fire_Down_Distractor.gif"",""img/Fire_Down_Distractor.gif"",""img/Fire_Down_Distractor.gif"",""img/Fire_Down_Distractor.gif"",""img/Fire_Down_Distractor.gif"",""img/Fire_Down_Distractor.gif"",""img/Fire_Down_Distractor.gif"",""img/Fire_Down_Distractor.gif"",""img/Fire_Down_Distractor.gif""]","targetUp_distractorsDown"
"","","","","","html-keyboard-response","38","90912","0.0-14.0-0.0-0.12","6063da0f55279e9ff7d38e2c","6186fb1cc52d38b480598eb7","618732e6508dc878b7e50df9","null","","null","","","","","fixation","","","",""
"","","","","","visual-search-circle","39","93948","0.0-14.0-0.0-1.12","6063da0f55279e9ff7d38e2c","6186fb1cc52d38b480598eb7","618732e6508dc878b7e50df9","2024.2999999970198","","d","true","[[564,159],[387,13],[159,35],[13,212],[35,440],[212,586],[440,564],[586,387]]","true","8","","","img/Fire_Up_Target.gif","[""img/Fire_Down_Distractor.gif"",""img/Fire_Down_Distractor.gif"",""img/Fire_Down_Distractor.gif"",""img/Fire_Down_Distractor.gif"",""img/Fire_Down_Distractor.gif"",""img/Fire_Down_Distractor.gif"",""img/Fire_Down_Distractor.gif"",""img/Fire_Down_Distractor.gif"",""img/Fire_Down_Distractor.gif"",""img/Fire_Down_Distractor.gif"",""img/Fire_Down_Distractor.gif"",""img/Fire_Down_Distractor.gif""]","targetUp_distractorsDown"
"","","","","","html-keyboard-response","40","93950","0.0-14.0-0.0-0.13","6063da0f55279e9ff7d38e2c","6186fb1cc52d38b480598eb7","618732e6508dc878b7e50df9","null","","null","","","","","fixation","","","",""
"","","","","","visual-search-circle","41","96704","0.0-14.0-0.0-1.13","6063da0f55279e9ff7d38e2c","6186fb1cc52d38b480598eb7","618732e6508dc878b7e50df9","1742.7000000029802","","s","true","[[107,529],[529,492],[492,70],[70,107]]","false","4","","","img/Fire_Down_Target.gif","[""img/Fire_Up_Distractor.gif"",""img/Fire_Up_Distractor.gif"",""img/Fire_Up_Distractor.gif"",""img/Fire_Up_Distractor.gif"",""img/Fire_Up_Distractor.gif"",""img/Fire_Up_Distractor.gif"",""img/Fire_Up_Distractor.gif"",""img/Fire_Up_Distractor.gif"",""img/Fire_Up_Distractor.gif"",""img/Fire_Up_Distractor.gif"",""img/Fire_Up_Distractor.gif"",""img/Fire_Up_Distractor.gif""]","targetDown_distractorsUp"
"","","","","","html-keyboard-response","42","96706","0.0-14.0-0.0-0.14","6063da0f55279e9ff7d38e2c","6186fb1cc52d38b480598eb7","618732e6508dc878b7e50df9","null","","null","","","","","fixation","","","",""
"","","","","","visual-search-circle","43","98931","0.0-14.0-0.0-1.14","6063da0f55279e9ff7d38e2c","6186fb1cc52d38b480598eb7","618732e6508dc878b7e50df9","1213.5","","d","true","[[123,542],[476,542],[585,207],[300,0],[14,207]]","true","5","","","img/Fire_Down_Target.gif","[""img/Fire_Up_Distractor.gif"",""img/Fire_Up_Distractor.gif"",""img/Fire_Up_Distractor.gif"",""img/Fire_Up_Distractor.gif"",""img/Fire_Up_Distractor.gif"",""img/Fire_Up_Distractor.gif"",""img/Fire_Up_Distractor.gif"",""img/Fire_Up_Distractor.gif"",""img/Fire_Up_Distractor.gif"",""img/Fire_Up_Distractor.gif"",""img/Fire_Up_Distractor.gif"",""img/Fire_Up_Distractor.gif""]","targetDown_distractorsUp"
"","","","","","html-keyboard-response","44","98933","0.0-14.0-0.0-0.15","6063da0f55279e9ff7d38e2c","6186fb1cc52d38b480598eb7","618732e6508dc878b7e50df9","null","","null","","","","","fixation","","","",""
"","","","","","visual-search-circle","45","101333","0.0-14.0-0.0-1.15","6063da0f55279e9ff7d38e2c","6186fb1cc52d38b480598eb7","618732e6508dc878b7e50df9","1388.5","","s","true","[[569,168],[365,7],[111,66],[0,301],[114,535],[368,592],[570,428]]","false","7","","","img/Fire_Down_Target.gif","[""img/Fire_Up_Distractor.gif"",""img/Fire_Up_Distractor.gif"",""img/Fire_Up_Distractor.gif"",""img/Fire_Up_Distractor.gif"",""img/Fire_Up_Distractor.gif"",""img/Fire_Up_Distractor.gif"",""img/Fire_Up_Distractor.gif"",""img/Fire_Up_Distractor.gif"",""img/Fire_Up_Distractor.gif"",""img/Fire_Up_Distractor.gif"",""img/Fire_Up_Distractor.gif"",""img/Fire_Up_Distractor.gif""]","targetDown_distractorsUp"
"","","","","","html-keyboard-response","46","101335","0.0-14.0-0.0-0.16","6063da0f55279e9ff7d38e2c","6186fb1cc52d38b480598eb7","618732e6508dc878b7e50df9","null","","null","","","","","fixation","","","",""
"","","","","","visual-search-circle","47","103782","0.0-14.0-0.0-1.16","6063da0f55279e9ff7d38e2c","6186fb1cc52d38b480598eb7","618732e6508dc878b7e50df9","1436","","s","true","[[397,16],[60,119],[54,472],[387,586],[599,305]]","false","5","","","img/Fire_Up_Target.gif","[""img/Fire_Down_Distractor.gif"",""img/Fire_Down_Distractor.gif"",""img/Fire_Down_Distractor.gif"",""img/Fire_Down_Distractor.gif"",""img/Fire_Down_Distractor.gif"",""img/Fire_Down_Distractor.gif"",""img/Fire_Down_Distractor.gif"",""img/Fire_Down_Distractor.gif"",""img/Fire_Down_Distractor.gif"",""img/Fire_Down_Distractor.gif"",""img/Fire_Down_Distractor.gif"",""img/Fire_Down_Distractor.gif""]","targetUp_distractorsDown"
"","","","","","html-keyboard-response","48","103784","0.0-14.0-0.0-0.17","6063da0f55279e9ff7d38e2c","6186fb1cc52d38b480598eb7","618732e6508dc878b7e50df9","null","","null","","","","","fixation","","","",""
"","","","","","visual-search-circle","49","106532","0.0-14.0-0.0-1.17","6063da0f55279e9ff7d38e2c","6186fb1cc52d38b480598eb7","618732e6508dc878b7e50df9","1736.6000000014901","","s","true","[[222,10],[0,284],[192,580],[533,488],[551,136]]","false","5","","","img/Fire_Down_Target.gif","[""img/Fire_Up_Distractor.gif"",""img/Fire_Up_Distractor.gif"",""img/Fire_Up_Distractor.gif"",""img/Fire_Up_Distractor.gif"",""img/Fire_Up_Distractor.gif"",""img/Fire_Up_Distractor.gif"",""img/Fire_Up_Distractor.gif"",""img/Fire_Up_Distractor.gif"",""img/Fire_Up_Distractor.gif"",""img/Fire_Up_Distractor.gif"",""img/Fire_Up_Distractor.gif"",""img/Fire_Up_Distractor.gif""]","targetDown_distractorsUp"
"","","","","","html-keyboard-response","50","106533","0.0-14.0-0.0-0.18","6063da0f55279e9ff7d38e2c","6186fb1cc52d38b480598eb7","618732e6508dc878b7e50df9","null","","null","","","","","fixation","","","",""
"","","","","","visual-search-circle","51","108445","0.0-14.0-0.0-1.18","6063da0f55279e9ff7d38e2c","6186fb1cc52d38b480598eb7","618732e6508dc878b7e50df9","900.6000000014901","","d","true","[[0,305],[154,562],[454,557],[599,294],[445,37],[145,42]]","true","6","","","img/Fire_Down_Target.gif","[""img/Fire_Up_Distractor.gif"",""img/Fire_Up_Distractor.gif"",""img/Fire_Up_Distractor.gif"",""img/Fire_Up_Distractor.gif"",""img/Fire_Up_Distractor.gif"",""img/Fire_Up_Distractor.gif"",""img/Fire_Up_Distractor.gif"",""img/Fire_Up_Distractor.gif"",""img/Fire_Up_Distractor.gif"",""img/Fire_Up_Distractor.gif"",""img/Fire_Up_Distractor.gif"",""img/Fire_Up_Distractor.gif""]","targetDown_distractorsUp"
"","","","","","html-keyboard-response","52","112940","0.0-14.0-0.0-0.19","6063da0f55279e9ff7d38e2c","6186fb1cc52d38b480598eb7","618732e6508dc878b7e50df9","4494","Wow! You've completed 20 out of 120 trials! </p> <p>  </p><p> Take a quick break, then press any key when you're ready to continue."," ","","","","","fixation","","","",""
"","","","","","visual-search-circle","53","115423","0.0-14.0-0.0-1.19","6063da0f55279e9ff7d38e2c","6186fb1cc52d38b480598eb7","618732e6508dc878b7e50df9","1469.6000000014901","","d","true","[[599,310],[495,72],[243,5],[34,160],[25,420],[223,589],[478,540]]","true","7","","","img/Fire_Down_Target.gif","[""img/Fire_Up_Distractor.gif"",""img/Fire_Up_Distractor.gif"",""img/Fire_Up_Distractor.gif"",""img/Fire_Up_Distractor.gif"",""img/Fire_Up_Distractor.gif"",""img/Fire_Up_Distractor.gif"",""img/Fire_Up_Distractor.gif"",""img/Fire_Up_Distractor.gif"",""img/Fire_Up_Distractor.gif"",""img/Fire_Up_Distractor.gif"",""img/Fire_Up_Distractor.gif"",""img/Fire_Up_Distractor.gif""]","targetDown_distractorsUp"
"","","","","","html-keyboard-response","54","115425","0.0-14.0-0.0-0.20","6063da0f55279e9ff7d38e2c","6186fb1cc52d38b480598eb7","618732e6508dc878b7e50df9","null","","null","","","","","fixation","","","",""
"","","","","","visual-search-circle","55","118055","0.0-14.0-0.0-1.20","6063da0f55279e9ff7d38e2c","6186fb1cc52d38b480598eb7","618732e6508dc878b7e50df9","1620.2000000029802","","d","true","[[551,136],[222,10],[0,284],[192,580],[533,488]]","true","5","","","img/Fire_Up_Target.gif","[""img/Fire_Down_Distractor.gif"",""img/Fire_Down_Distractor.gif"",""img/Fire_Down_Distractor.gif"",""img/Fire_Down_Distractor.gif"",""img/Fire_Down_Distractor.gif"",""img/Fire_Down_Distractor.gif"",""img/Fire_Down_Distractor.gif"",""img/Fire_Down_Distractor.gif"",""img/Fire_Down_Distractor.gif"",""img/Fire_Down_Distractor.gif"",""img/Fire_Down_Distractor.gif"",""img/Fire_Down_Distractor.gif""]","targetUp_distractorsDown"
"","","","","","html-keyboard-response","56","118057","0.0-14.0-0.0-0.21","6063da0f55279e9ff7d38e2c","6186fb1cc52d38b480598eb7","618732e6508dc878b7e50df9","null","","null","","","","","fixation","","","",""
"","","","","","visual-search-circle","57","120215","0.0-14.0-0.0-1.21","6063da0f55279e9ff7d38e2c","6186fb1cc52d38b480598eb7","618732e6508dc878b7e50df9","1148.1000000014901","","s","true","[[25,422],[422,574],[574,177],[177,25]]","false","4","","","img/Fire_Up_Target.gif","[""img/Fire_Down_Distractor.gif"",""img/Fire_Down_Distractor.gif"",""img/Fire_Down_Distractor.gif"",""img/Fire_Down_Distractor.gif"",""img/Fire_Down_Distractor.gif"",""img/Fire_Down_Distractor.gif"",""img/Fire_Down_Distractor.gif"",""img/Fire_Down_Distractor.gif"",""img/Fire_Down_Distractor.gif"",""img/Fire_Down_Distractor.gif"",""img/Fire_Down_Distractor.gif"",""img/Fire_Down_Distractor.gif""]","targetUp_distractorsDown"
"","","","","","html-keyboard-response","58","120217","0.0-14.0-0.0-0.22","6063da0f55279e9ff7d38e2c","6186fb1cc52d38b480598eb7","618732e6508dc878b7e50df9","null","","null","","","","","fixation","","","",""
"","","","","","visual-search-circle","59","122755","0.0-14.0-0.0-1.22","6063da0f55279e9ff7d38e2c","6186fb1cc52d38b480598eb7","618732e6508dc878b7e50df9","1524.800000000745","","d","true","[[294,599],[557,454],[562,154],[305,0],[42,145],[37,445]]","true","6","","","img/Fire_Down_Target.gif","[""img/Fire_Up_Distractor.gif"",""img/Fire_Up_Distractor.gif"",""img/Fire_Up_Distractor.gif"",""img/Fire_Up_Distractor.gif"",""img/Fire_Up_Distractor.gif"",""img/Fire_Up_Distractor.gif"",""img/Fire_Up_Distractor.gif"",""img/Fire_Up_Distractor.gif"",""img/Fire_Up_Distractor.gif"",""img/Fire_Up_Distractor.gif"",""img/Fire_Up_Distractor.gif"",""img/Fire_Up_Distractor.gif""]","targetDown_distractorsUp"
"","","","","","html-keyboard-response","60","122757","0.0-14.0-0.0-0.23","6063da0f55279e9ff7d38e2c","6186fb1cc52d38b480598eb7","618732e6508dc878b7e50df9","null","","null","","","","","fixation","","","",""
"","","","","","visual-search-circle","61","124877","0.0-14.0-0.0-1.23","6063da0f55279e9ff7d38e2c","6186fb1cc52d38b480598eb7","618732e6508dc878b7e50df9","1104.300000000745","","d","true","[[305,0],[91,84],[0,294],[84,508],[294,599],[508,515],[599,305],[515,91]]","true","8","","","img/Fire_Down_Target.gif","[""img/Fire_Up_Distractor.gif"",""img/Fire_Up_Distractor.gif"",""img/Fire_Up_Distractor.gif"",""img/Fire_Up_Distractor.gif"",""img/Fire_Up_Distractor.gif"",""img/Fire_Up_Distractor.gif"",""img/Fire_Up_Distractor.gif"",""img/Fire_Up_Distractor.gif"",""img/Fire_Up_Distractor.gif"",""img/Fire_Up_Distractor.gif"",""img/Fire_Up_Distractor.gif"",""img/Fire_Up_Distractor.gif""]","targetDown_distractorsUp"
"","","","","","html-keyboard-response","62","124879","0.0-14.0-0.0-0.24","6063da0f55279e9ff7d38e2c","6186fb1cc52d38b480598eb7","618732e6508dc878b7e50df9","null","","null","","","","","fixation","","","",""
"","","","","","visual-search-circle","63","126903","0.0-14.0-0.0-1.24","6063da0f55279e9ff7d38e2c","6186fb1cc52d38b480598eb7","618732e6508dc878b7e50df9","1007.3000000007451","","d","true","[[352,595],[545,472],[595,247],[472,54],[247,4],[54,127],[4,352],[127,545]]","true","8","","","img/Fire_Up_Target.gif","[""img/Fire_Down_Distractor.gif"",""img/Fire_Down_Distractor.gif"",""img/Fire_Down_Distractor.gif"",""img/Fire_Down_Distractor.gif"",""img/Fire_Down_Distractor.gif"",""img/Fire_Down_Distractor.gif"",""img/Fire_Down_Distractor.gif"",""img/Fire_Down_Distractor.gif"",""img/Fire_Down_Distractor.gif"",""img/Fire_Down_Distractor.gif"",""img/Fire_Down_Distractor.gif"",""img/Fire_Down_Distractor.gif""]","targetUp_distractorsDown"
"","","","","","html-keyboard-response","64","126905","0.0-14.0-0.0-0.25","6063da0f55279e9ff7d38e2c","6186fb1cc52d38b480598eb7","618732e6508dc878b7e50df9","null","","null","","","","","fixation","","","",""
"","","","","","visual-search-circle","65","129382","0.0-14.0-0.0-1.25","6063da0f55279e9ff7d38e2c","6186fb1cc52d38b480598eb7","618732e6508dc878b7e50df9","1465.3999999985099","","s","true","[[111,66],[19,407],[315,599],[589,377],[463,48]]","false","5","","","img/Fire_Down_Target.gif","[""img/Fire_Up_Distractor.gif"",""img/Fire_Up_Distractor.gif"",""img/Fire_Up_Distractor.gif"",""img/Fire_Up_Distractor.gif"",""img/Fire_Up_Distractor.gif"",""img/Fire_Up_Distractor.gif"",""img/Fire_Up_Distractor.gif"",""img/Fire_Up_Distractor.gif"",""img/Fire_Up_Distractor.gif"",""img/Fire_Up_Distractor.gif"",""img/Fire_Up_Distractor.gif"",""img/Fire_Up_Distractor.gif""]","targetDown_distractorsUp"
"","","","","","html-keyboard-response","66","129384","0.0-14.0-0.0-0.26","6063da0f55279e9ff7d38e2c","6186fb1cc52d38b480598eb7","618732e6508dc878b7e50df9","null","","null","","","","","fixation","","","",""
"","","","","","visual-search-circle","67","131970","0.0-14.0-0.0-1.26","6063da0f55279e9ff7d38e2c","6186fb1cc52d38b480598eb7","618732e6508dc878b7e50df9","1579.8999999985099","","d","true","[[40,150],[149,559],[559,450],[449,40]]","true","4","","","img/Fire_Up_Target.gif","[""img/Fire_Down_Distractor.gif"",""img/Fire_Down_Distractor.gif"",""img/Fire_Down_Distractor.gif"",""img/Fire_Down_Distractor.gif"",""img/Fire_Down_Distractor.gif"",""img/Fire_Down_Distractor.gif"",""img/Fire_Down_Distractor.gif"",""img/Fire_Down_Distractor.gif"",""img/Fire_Down_Distractor.gif"",""img/Fire_Down_Distractor.gif"",""img/Fire_Down_Distractor.gif"",""img/Fire_Down_Distractor.gif""]","targetUp_distractorsDown"
"","","","","","html-keyboard-response","68","131974","0.0-14.0-0.0-0.27","6063da0f55279e9ff7d38e2c","6186fb1cc52d38b480598eb7","618732e6508dc878b7e50df9","null","","null","","","","","fixation","","","",""
"","","","","","visual-search-circle","69","134021","0.0-14.0-0.0-1.27","6063da0f55279e9ff7d38e2c","6186fb1cc52d38b480598eb7","618732e6508dc878b7e50df9","1040.199999999255","","s","true","[[504,519],[599,276],[468,51],[210,13],[20,191],[40,450],[256,596]]","false","7","","","img/Fire_Up_Target.gif","[""img/Fire_Down_Distractor.gif"",""img/Fire_Down_Distractor.gif"",""img/Fire_Down_Distractor.gif"",""img/Fire_Down_Distractor.gif"",""img/Fire_Down_Distractor.gif"",""img/Fire_Down_Distractor.gif"",""img/Fire_Down_Distractor.gif"",""img/Fire_Down_Distractor.gif"",""img/Fire_Down_Distractor.gif"",""img/Fire_Down_Distractor.gif"",""img/Fire_Down_Distractor.gif"",""img/Fire_Down_Distractor.gif""]","targetUp_distractorsDown"
"","","","","","html-keyboard-response","70","134024","0.0-14.0-0.0-0.28","6063da0f55279e9ff7d38e2c","6186fb1cc52d38b480598eb7","618732e6508dc878b7e50df9","null","","null","","","","","fixation","","","",""
"","","","","","visual-search-circle","71","136631","0.0-14.0-0.0-1.28","6063da0f55279e9ff7d38e2c","6186fb1cc52d38b480598eb7","618732e6508dc878b7e50df9","1597.6000000014901","","s","true","[[154,562],[504,519],[571,173],[263,2],[5,242]]","false","5","","","img/Fire_Up_Target.gif","[""img/Fire_Down_Distractor.gif"",""img/Fire_Down_Distractor.gif"",""img/Fire_Down_Distractor.gif"",""img/Fire_Down_Distractor.gif"",""img/Fire_Down_Distractor.gif"",""img/Fire_Down_Distractor.gif"",""img/Fire_Down_Distractor.gif"",""img/Fire_Down_Distractor.gif"",""img/Fire_Down_Distractor.gif"",""img/Fire_Down_Distractor.gif"",""img/Fire_Down_Distractor.gif"",""img/Fire_Down_Distractor.gif""]","targetUp_distractorsDown"
"","","","","","html-keyboard-response","72","136633","0.0-14.0-0.0-0.29","6063da0f55279e9ff7d38e2c","6186fb1cc52d38b480598eb7","618732e6508dc878b7e50df9","null","","null","","","","","fixation","","","",""
"","","","","","visual-search-circle","73","138627","0.0-14.0-0.0-1.29","6063da0f55279e9ff7d38e2c","6186fb1cc52d38b480598eb7","618732e6508dc878b7e50df9","985.9000000022352","","d","true","[[187,21],[0,320],[227,591],[554,458],[529,107]]","true","5","","","img/Fire_Down_Target.gif","[""img/Fire_Up_Distractor.gif"",""img/Fire_Up_Distractor.gif"",""img/Fire_Up_Distractor.gif"",""img/Fire_Up_Distractor.gif"",""img/Fire_Up_Distractor.gif"",""img/Fire_Up_Distractor.gif"",""img/Fire_Up_Distractor.gif"",""img/Fire_Up_Distractor.gif"",""img/Fire_Up_Distractor.gif"",""img/Fire_Up_Distractor.gif"",""img/Fire_Up_Distractor.gif"",""img/Fire_Up_Distractor.gif""]","targetDown_distractorsUp"
"","","","","","html-keyboard-response","74","138629","0.0-14.0-0.0-0.30","6063da0f55279e9ff7d38e2c","6186fb1cc52d38b480598eb7","618732e6508dc878b7e50df9","null","","null","","","","","fixation","","","",""
"","","","","","visual-search-circle","75","141163","0.0-14.0-0.0-1.30","6063da0f55279e9ff7d38e2c","6186fb1cc52d38b480598eb7","618732e6508dc878b7e50df9","1519.5","","s","true","[[2,336],[242,594],[562,445],[519,95],[173,28]]","false","5","","","img/Fire_Up_Target.gif","[""img/Fire_Down_Distractor.gif"",""img/Fire_Down_Distractor.gif"",""img/Fire_Down_Distractor.gif"",""img/Fire_Down_Distractor.gif"",""img/Fire_Down_Distractor.gif"",""img/Fire_Down_Distractor.gif"",""img/Fire_Down_Distractor.gif"",""img/Fire_Down_Distractor.gif"",""img/Fire_Down_Distractor.gif"",""img/Fire_Down_Distractor.gif"",""img/Fire_Down_Distractor.gif"",""img/Fire_Down_Distractor.gif""]","targetUp_distractorsDown"
"","","","","","html-keyboard-response","76","141165","0.0-14.0-0.0-0.31","6063da0f55279e9ff7d38e2c","6186fb1cc52d38b480598eb7","618732e6508dc878b7e50df9","null","","null","","","","","fixation","","","",""
"","","","","","visual-search-circle","77","143767","0.0-14.0-0.0-1.31","6063da0f55279e9ff7d38e2c","6186fb1cc52d38b480598eb7","618732e6508dc878b7e50df9","1593.699999999255","","d","true","[[599,315],[463,48],[163,32],[0,284],[136,551],[436,567]]","true","6","","","img/Fire_Up_Target.gif","[""img/Fire_Down_Distractor.gif"",""img/Fire_Down_Distractor.gif"",""img/Fire_Down_Distractor.gif"",""img/Fire_Down_Distractor.gif"",""img/Fire_Down_Distractor.gif"",""img/Fire_Down_Distractor.gif"",""img/Fire_Down_Distractor.gif"",""img/Fire_Down_Distractor.gif"",""img/Fire_Down_Distractor.gif"",""img/Fire_Down_Distractor.gif"",""img/Fire_Down_Distractor.gif"",""img/Fire_Down_Distractor.gif""]","targetUp_distractorsDown"
"","","","","","html-keyboard-response","78","143769","0.0-14.0-0.0-0.32","6063da0f55279e9ff7d38e2c","6186fb1cc52d38b480598eb7","618732e6508dc878b7e50df9","null","","null","","","","","fixation","","","",""
"","","","","","visual-search-circle","79","145757","0.0-14.0-0.0-1.32","6063da0f55279e9ff7d38e2c","6186fb1cc52d38b480598eb7","618732e6508dc878b7e50df9","972.5","","s","true","[[526,103],[287,0],[57,123],[10,379],[181,575],[441,564],[595,354]]","false","7","","","img/Fire_Up_Target.gif","[""img/Fire_Down_Distractor.gif"",""img/Fire_Down_Distractor.gif"",""img/Fire_Down_Distractor.gif"",""img/Fire_Down_Distractor.gif"",""img/Fire_Down_Distractor.gif"",""img/Fire_Down_Distractor.gif"",""img/Fire_Down_Distractor.gif"",""img/Fire_Down_Distractor.gif"",""img/Fire_Down_Distractor.gif"",""img/Fire_Down_Distractor.gif"",""img/Fire_Down_Distractor.gif"",""img/Fire_Down_Distractor.gif""]","targetUp_distractorsDown"
"","","","","","html-keyboard-response","80","145759","0.0-14.0-0.0-0.33","6063da0f55279e9ff7d38e2c","6186fb1cc52d38b480598eb7","618732e6508dc878b7e50df9","null","","null","","","","","fixation","","","",""
"","","","","","visual-search-circle","81","148276","0.0-14.0-0.0-1.33","6063da0f55279e9ff7d38e2c","6186fb1cc52d38b480598eb7","618732e6508dc878b7e50df9","1508.4000000022352","","s","true","[[84,508],[372,591],[588,382],[515,91],[227,8],[11,217]]","false","6","","","img/Fire_Up_Target.gif","[""img/Fire_Down_Distractor.gif"",""img/Fire_Down_Distractor.gif"",""img/Fire_Down_Distractor.gif"",""img/Fire_Down_Distractor.gif"",""img/Fire_Down_Distractor.gif"",""img/Fire_Down_Distractor.gif"",""img/Fire_Down_Distractor.gif"",""img/Fire_Down_Distractor.gif"",""img/Fire_Down_Distractor.gif"",""img/Fire_Down_Distractor.gif"",""img/Fire_Down_Distractor.gif"",""img/Fire_Down_Distractor.gif""]","targetUp_distractorsDown"
"","","","","","html-keyboard-response","82","148277","0.0-14.0-0.0-0.34","6063da0f55279e9ff7d38e2c","6186fb1cc52d38b480598eb7","618732e6508dc878b7e50df9","null","","null","","","","","fixation","","","",""
"","","","","","visual-search-circle","83","150568","0.0-14.0-0.0-1.34","6063da0f55279e9ff7d38e2c","6186fb1cc52d38b480598eb7","618732e6508dc878b7e50df9","1285.300000000745","","d","true","[[222,10],[10,377],[377,589],[589,222]]","true","4","","","img/Fire_Down_Target.gif","[""img/Fire_Up_Distractor.gif"",""img/Fire_Up_Distractor.gif"",""img/Fire_Up_Distractor.gif"",""img/Fire_Up_Distractor.gif"",""img/Fire_Up_Distractor.gif"",""img/Fire_Up_Distractor.gif"",""img/Fire_Up_Distractor.gif"",""img/Fire_Up_Distractor.gif"",""img/Fire_Up_Distractor.gif"",""img/Fire_Up_Distractor.gif"",""img/Fire_Up_Distractor.gif"",""img/Fire_Up_Distractor.gif""]","targetDown_distractorsUp"
"","","","","","html-keyboard-response","84","150570","0.0-14.0-0.0-0.35","6063da0f55279e9ff7d38e2c","6186fb1cc52d38b480598eb7","618732e6508dc878b7e50df9","null","","null","","","","","fixation","","","",""
"","","","","","visual-search-circle","85","153030","0.0-14.0-0.0-1.35","6063da0f55279e9ff7d38e2c","6186fb1cc52d38b480598eb7","618732e6508dc878b7e50df9","1447.699999999255","","d","true","[[7,232],[45,458],[232,592],[458,554],[592,367],[554,141],[367,7],[141,45]]","true","8","","","img/Fire_Up_Target.gif","[""img/Fire_Down_Distractor.gif"",""img/Fire_Down_Distractor.gif"",""img/Fire_Down_Distractor.gif"",""img/Fire_Down_Distractor.gif"",""img/Fire_Down_Distractor.gif"",""img/Fire_Down_Distractor.gif"",""img/Fire_Down_Distractor.gif"",""img/Fire_Down_Distractor.gif"",""img/Fire_Down_Distractor.gif"",""img/Fire_Down_Distractor.gif"",""img/Fire_Down_Distractor.gif"",""img/Fire_Down_Distractor.gif""]","targetUp_distractorsDown"
"","","","","","html-keyboard-response","86","153031","0.0-14.0-0.0-0.36","6063da0f55279e9ff7d38e2c","6186fb1cc52d38b480598eb7","618732e6508dc878b7e50df9","null","","null","","","","","fixation","","","",""
"","","","","","visual-search-circle","87","154973","0.0-14.0-0.0-1.36","6063da0f55279e9ff7d38e2c","6186fb1cc52d38b480598eb7","618732e6508dc878b7e50df9","932","","d","true","[[581,402],[484,63],[132,51],[11,382],[289,599]]","true","5","","","img/Fire_Down_Target.gif","[""img/Fire_Up_Distractor.gif"",""img/Fire_Up_Distractor.gif"",""img/Fire_Up_Distractor.gif"",""img/Fire_Up_Distractor.gif"",""img/Fire_Up_Distractor.gif"",""img/Fire_Up_Distractor.gif"",""img/Fire_Up_Distractor.gif"",""img/Fire_Up_Distractor.gif"",""img/Fire_Up_Distractor.gif"",""img/Fire_Up_Distractor.gif"",""img/Fire_Up_Distractor.gif"",""img/Fire_Up_Distractor.gif""]","targetDown_distractorsUp"
"","","","","","html-keyboard-response","88","154974","0.0-14.0-0.0-0.37","6063da0f55279e9ff7d38e2c","6186fb1cc52d38b480598eb7","618732e6508dc878b7e50df9","null","","null","","","","","fixation","","","",""
"","","","","","visual-search-circle","89","157612","0.0-14.0-0.0-1.37","6063da0f55279e9ff7d38e2c","6186fb1cc52d38b480598eb7","618732e6508dc878b7e50df9","1627.199999999255","","d","true","[[154,562],[562,445],[445,37],[37,154]]","true","4","","","img/Fire_Up_Target.gif","[""img/Fire_Down_Distractor.gif"",""img/Fire_Down_Distractor.gif"",""img/Fire_Down_Distractor.gif"",""img/Fire_Down_Distractor.gif"",""img/Fire_Down_Distractor.gif"",""img/Fire_Down_Distractor.gif"",""img/Fire_Down_Distractor.gif"",""img/Fire_Down_Distractor.gif"",""img/Fire_Down_Distractor.gif"",""img/Fire_Down_Distractor.gif"",""img/Fire_Down_Distractor.gif"",""img/Fire_Down_Distractor.gif""]","targetUp_distractorsDown"
"","","","","","html-keyboard-response","90","157614","0.0-14.0-0.0-0.38","6063da0f55279e9ff7d38e2c","6186fb1cc52d38b480598eb7","618732e6508dc878b7e50df9","null","","null","","","","","fixation","","","",""
"","","","","","visual-search-circle","91","159572","0.0-14.0-0.0-1.38","6063da0f55279e9ff7d38e2c","6186fb1cc52d38b480598eb7","618732e6508dc878b7e50df9","944.8999999985099","","s","true","[[583,202],[400,17],[141,45],[2,264],[86,511],[332,598],[553,460]]","false","7","","","img/Fire_Down_Target.gif","[""img/Fire_Up_Distractor.gif"",""img/Fire_Up_Distractor.gif"",""img/Fire_Up_Distractor.gif"",""img/Fire_Up_Distractor.gif"",""img/Fire_Up_Distractor.gif"",""img/Fire_Up_Distractor.gif"",""img/Fire_Up_Distractor.gif"",""img/Fire_Up_Distractor.gif"",""img/Fire_Up_Distractor.gif"",""img/Fire_Up_Distractor.gif"",""img/Fire_Up_Distractor.gif"",""img/Fire_Up_Distractor.gif""]","targetDown_distractorsUp"
"","","","","","html-keyboard-response","92","161538","0.0-14.0-0.0-0.39","6063da0f55279e9ff7d38e2c","6186fb1cc52d38b480598eb7","618732e6508dc878b7e50df9","1965.300000000745","Wow! You've completed 40 out of 120 trials! </p> <p>  </p><p> Take a quick break, then press any key when you're ready to continue."," ","","","","","fixation","","","",""
"","","","","","visual-search-circle","93","163976","0.0-14.0-0.0-1.39","6063da0f55279e9ff7d38e2c","6186fb1cc52d38b480598eb7","618732e6508dc878b7e50df9","1422.800000000745","","s","true","[[598,268],[461,47],[203,16],[17,198],[44,457],[264,597],[510,513]]","false","7","","","img/Fire_Up_Target.gif","[""img/Fire_Down_Distractor.gif"",""img/Fire_Down_Distractor.gif"",""img/Fire_Down_Distractor.gif"",""img/Fire_Down_Distractor.gif"",""img/Fire_Down_Distractor.gif"",""img/Fire_Down_Distractor.gif"",""img/Fire_Down_Distractor.gif"",""img/Fire_Down_Distractor.gif"",""img/Fire_Down_Distractor.gif"",""img/Fire_Down_Distractor.gif"",""img/Fire_Down_Distractor.gif"",""img/Fire_Down_Distractor.gif""]","targetUp_distractorsDown"
"","","","","","html-keyboard-response","94","163978","0.0-14.0-0.0-0.40","6063da0f55279e9ff7d38e2c","6186fb1cc52d38b480598eb7","618732e6508dc878b7e50df9","null","","null","","","","","fixation","","","",""
"","","","","","visual-search-circle","95","165981","0.0-14.0-0.0-1.40","6063da0f55279e9ff7d38e2c","6186fb1cc52d38b480598eb7","618732e6508dc878b7e50df9","989.1000000014901","","d","true","[[25,177],[177,574],[574,422],[422,25]]","true","4","","","img/Fire_Down_Target.gif","[""img/Fire_Up_Distractor.gif"",""img/Fire_Up_Distractor.gif"",""img/Fire_Up_Distractor.gif"",""img/Fire_Up_Distractor.gif"",""img/Fire_Up_Distractor.gif"",""img/Fire_Up_Distractor.gif"",""img/Fire_Up_Distractor.gif"",""img/Fire_Up_Distractor.gif"",""img/Fire_Up_Distractor.gif"",""img/Fire_Up_Distractor.gif"",""img/Fire_Up_Distractor.gif"",""img/Fire_Up_Distractor.gif""]","targetDown_distractorsUp"
"","","","","","html-keyboard-response","96","165983","0.0-14.0-0.0-0.41","6063da0f55279e9ff7d38e2c","6186fb1cc52d38b480598eb7","618732e6508dc878b7e50df9","null","","null","","","","","fixation","","","",""
"","","","","","visual-search-circle","97","168239","0.0-14.0-0.0-1.41","6063da0f55279e9ff7d38e2c","6186fb1cc52d38b480598eb7","618732e6508dc878b7e50df9","1244.300000000745","","d","true","[[284,0],[55,125],[11,381],[184,576],[444,563],[595,351],[524,100]]","true","7","","","img/Fire_Up_Target.gif","[""img/Fire_Down_Distractor.gif"",""img/Fire_Down_Distractor.gif"",""img/Fire_Down_Distractor.gif"",""img/Fire_Down_Distractor.gif"",""img/Fire_Down_Distractor.gif"",""img/Fire_Down_Distractor.gif"",""img/Fire_Down_Distractor.gif"",""img/Fire_Down_Distractor.gif"",""img/Fire_Down_Distractor.gif"",""img/Fire_Down_Distractor.gif"",""img/Fire_Down_Distractor.gif"",""img/Fire_Down_Distractor.gif""]","targetUp_distractorsDown"
"","","","","","html-keyboard-response","98","168241","0.0-14.0-0.0-0.42","6063da0f55279e9ff7d38e2c","6186fb1cc52d38b480598eb7","618732e6508dc878b7e50df9","null","","null","","","","","fixation","","","",""
"","","","","","visual-search-circle","99","170141","0.0-14.0-0.0-1.42","6063da0f55279e9ff7d38e2c","6186fb1cc52d38b480598eb7","618732e6508dc878b7e50df9","884.6999999992549","","d","true","[[320,599],[526,496],[599,279],[496,73],[279,0],[73,103],[0,320],[103,526]]","true","8","","","img/Fire_Up_Target.gif","[""img/Fire_Down_Distractor.gif"",""img/Fire_Down_Distractor.gif"",""img/Fire_Down_Distractor.gif"",""img/Fire_Down_Distractor.gif"",""img/Fire_Down_Distractor.gif"",""img/Fire_Down_Distractor.gif"",""img/Fire_Down_Distractor.gif"",""img/Fire_Down_Distractor.gif"",""img/Fire_Down_Distractor.gif"",""img/Fire_Down_Distractor.gif"",""img/Fire_Down_Distractor.gif"",""img/Fire_Down_Distractor.gif""]","targetUp_distractorsDown"
"","","","","","html-keyboard-response","100","170143","0.0-14.0-0.0-0.43","6063da0f55279e9ff7d38e2c","6186fb1cc52d38b480598eb7","618732e6508dc878b7e50df9","null","","null","","","","","fixation","","","",""
"","","","","","visual-search-circle","101","172035","0.0-14.0-0.0-1.43","6063da0f55279e9ff7d38e2c","6186fb1cc52d38b480598eb7","618732e6508dc878b7e50df9","878.8000000007451","","s","true","[[492,70],[273,1],[70,107],[1,326],[107,529],[326,598],[529,492],[598,273]]","false","8","","","img/Fire_Up_Target.gif","[""img/Fire_Down_Distractor.gif"",""img/Fire_Down_Distractor.gif"",""img/Fire_Down_Distractor.gif"",""img/Fire_Down_Distractor.gif"",""img/Fire_Down_Distractor.gif"",""img/Fire_Down_Distractor.gif"",""img/Fire_Down_Distractor.gif"",""img/Fire_Down_Distractor.gif"",""img/Fire_Down_Distractor.gif"",""img/Fire_Down_Distractor.gif"",""img/Fire_Down_Distractor.gif"",""img/Fire_Down_Distractor.gif""]","targetUp_distractorsDown"
"","","","","","html-keyboard-response","102","172037","0.0-14.0-0.0-0.44","6063da0f55279e9ff7d38e2c","6186fb1cc52d38b480598eb7","618732e6508dc878b7e50df9","null","","null","","","","","fixation","","","",""
"","","","","","visual-search-circle","103","174671","0.0-14.0-0.0-1.44","6063da0f55279e9ff7d38e2c","6186fb1cc52d38b480598eb7","618732e6508dc878b7e50df9","1618.699999999255","","d","true","[[539,119],[341,2],[119,60],[2,258],[60,480],[258,597],[480,539],[597,341]]","true","8","","","img/Fire_Down_Target.gif","[""img/Fire_Up_Distractor.gif"",""img/Fire_Up_Distractor.gif"",""img/Fire_Up_Distractor.gif"",""img/Fire_Up_Distractor.gif"",""img/Fire_Up_Distractor.gif"",""img/Fire_Up_Distractor.gif"",""img/Fire_Up_Distractor.gif"",""img/Fire_Up_Distractor.gif"",""img/Fire_Up_Distractor.gif"",""img/Fire_Up_Distractor.gif"",""img/Fire_Up_Distractor.gif"",""img/Fire_Up_Distractor.gif""]","targetDown_distractorsUp"
"","","","","","html-keyboard-response","104","174673","0.0-14.0-0.0-0.45","6063da0f55279e9ff7d38e2c","6186fb1cc52d38b480598eb7","618732e6508dc878b7e50df9","null","","null","","","","","fixation","","","",""
"","","","","","visual-search-circle","105","176660","0.0-14.0-0.0-1.45","6063da0f55279e9ff7d38e2c","6186fb1cc52d38b480598eb7","618732e6508dc878b7e50df9","979.1000000014901","","s","true","[[467,51],[168,30],[0,279],[132,548],[431,569],[599,320]]","false","6","","","img/Fire_Up_Target.gif","[""img/Fire_Down_Distractor.gif"",""img/Fire_Down_Distractor.gif"",""img/Fire_Down_Distractor.gif"",""img/Fire_Down_Distractor.gif"",""img/Fire_Down_Distractor.gif"",""img/Fire_Down_Distractor.gif"",""img/Fire_Down_Distractor.gif"",""img/Fire_Down_Distractor.gif"",""img/Fire_Down_Distractor.gif"",""img/Fire_Down_Distractor.gif"",""img/Fire_Down_Distractor.gif"",""img/Fire_Down_Distractor.gif""]","targetUp_distractorsDown"
"","","","","","html-keyboard-response","106","176662","0.0-14.0-0.0-0.46","6063da0f55279e9ff7d38e2c","6186fb1cc52d38b480598eb7","618732e6508dc878b7e50df9","null","","null","","","","","fixation","","","",""
"","","","","","visual-search-circle","107","178632","0.0-14.0-0.0-1.46","6063da0f55279e9ff7d38e2c","6186fb1cc52d38b480598eb7","618732e6508dc878b7e50df9","953.8000000007451","","s","true","[[595,352],[524,101],[285,0],[56,124],[11,381],[183,576],[443,563]]","false","7","","","img/Fire_Up_Target.gif","[""img/Fire_Down_Distractor.gif"",""img/Fire_Down_Distractor.gif"",""img/Fire_Down_Distractor.gif"",""img/Fire_Down_Distractor.gif"",""img/Fire_Down_Distractor.gif"",""img/Fire_Down_Distractor.gif"",""img/Fire_Down_Distractor.gif"",""img/Fire_Down_Distractor.gif"",""img/Fire_Down_Distractor.gif"",""img/Fire_Down_Distractor.gif"",""img/Fire_Down_Distractor.gif"",""img/Fire_Down_Distractor.gif""]","targetUp_distractorsDown"
"","","","","","html-keyboard-response","108","178634","0.0-14.0-0.0-0.47","6063da0f55279e9ff7d38e2c","6186fb1cc52d38b480598eb7","618732e6508dc878b7e50df9","null","","null","","","","","fixation","","","",""
"","","","","","visual-search-circle","109","180743","0.0-14.0-0.0-1.47","6063da0f55279e9ff7d38e2c","6186fb1cc52d38b480598eb7","618732e6508dc878b7e50df9","1096.6000000014901","","s","true","[[557,454],[526,103],[182,23],[1,326],[232,592]]","false","5","","","img/Fire_Down_Target.gif","[""img/Fire_Up_Distractor.gif"",""img/Fire_Up_Distractor.gif"",""img/Fire_Up_Distractor.gif"",""img/Fire_Up_Distractor.gif"",""img/Fire_Up_Distractor.gif"",""img/Fire_Up_Distractor.gif"",""img/Fire_Up_Distractor.gif"",""img/Fire_Up_Distractor.gif"",""img/Fire_Up_Distractor.gif"",""img/Fire_Up_Distractor.gif"",""img/Fire_Up_Distractor.gif"",""img/Fire_Up_Distractor.gif""]","targetDown_distractorsUp"
"","","","","","html-keyboard-response","110","180745","0.0-14.0-0.0-0.48","6063da0f55279e9ff7d38e2c","6186fb1cc52d38b480598eb7","618732e6508dc878b7e50df9","null","","null","","","","","fixation","","","",""
"","","","","","visual-search-circle","111","182829","0.0-14.0-0.0-1.48","6063da0f55279e9ff7d38e2c","6186fb1cc52d38b480598eb7","618732e6508dc878b7e50df9","1068.6000000014901","","d","true","[[279,0],[73,103],[0,320],[103,526],[320,599],[526,496],[599,279],[496,73]]","true","8","","","img/Fire_Up_Target.gif","[""img/Fire_Down_Distractor.gif"",""img/Fire_Down_Distractor.gif"",""img/Fire_Down_Distractor.gif"",""img/Fire_Down_Distractor.gif"",""img/Fire_Down_Distractor.gif"",""img/Fire_Down_Distractor.gif"",""img/Fire_Down_Distractor.gif"",""img/Fire_Down_Distractor.gif"",""img/Fire_Down_Distractor.gif"",""img/Fire_Down_Distractor.gif"",""img/Fire_Down_Distractor.gif"",""img/Fire_Down_Distractor.gif""]","targetUp_distractorsDown"
"","","","","","html-keyboard-response","112","182831","0.0-14.0-0.0-0.49","6063da0f55279e9ff7d38e2c","6186fb1cc52d38b480598eb7","618732e6508dc878b7e50df9","null","","null","","","","","fixation","","","",""
"","","","","","visual-search-circle","113","184698","0.0-14.0-0.0-1.49","6063da0f55279e9ff7d38e2c","6186fb1cc52d38b480598eb7","618732e6508dc878b7e50df9","858.5","","d","true","[[315,0],[0,284],[284,599],[599,315]]","true","4","","","img/Fire_Up_Target.gif","[""img/Fire_Down_Distractor.gif"",""img/Fire_Down_Distractor.gif"",""img/Fire_Down_Distractor.gif"",""img/Fire_Down_Distractor.gif"",""img/Fire_Down_Distractor.gif"",""img/Fire_Down_Distractor.gif"",""img/Fire_Down_Distractor.gif"",""img/Fire_Down_Distractor.gif"",""img/Fire_Down_Distractor.gif"",""img/Fire_Down_Distractor.gif"",""img/Fire_Down_Distractor.gif"",""img/Fire_Down_Distractor.gif""]","targetUp_distractorsDown"
"","","","","","html-keyboard-response","114","184700","0.0-14.0-0.0-0.50","6063da0f55279e9ff7d38e2c","6186fb1cc52d38b480598eb7","618732e6508dc878b7e50df9","null","","null","","","","","fixation","","","",""
"","","","","","visual-search-circle","115","186670","0.0-14.0-0.0-1.50","6063da0f55279e9ff7d38e2c","6186fb1cc52d38b480598eb7","618732e6508dc878b7e50df9","960.7999999970198","","s","true","[[207,585],[500,522],[593,237],[392,14],[99,77],[6,362]]","false","6","","","img/Fire_Up_Target.gif","[""img/Fire_Down_Distractor.gif"",""img/Fire_Down_Distractor.gif"",""img/Fire_Down_Distractor.gif"",""img/Fire_Down_Distractor.gif"",""img/Fire_Down_Distractor.gif"",""img/Fire_Down_Distractor.gif"",""img/Fire_Down_Distractor.gif"",""img/Fire_Down_Distractor.gif"",""img/Fire_Down_Distractor.gif"",""img/Fire_Down_Distractor.gif"",""img/Fire_Down_Distractor.gif"",""img/Fire_Down_Distractor.gif""]","targetUp_distractorsDown"
"","","","","","html-keyboard-response","116","186674","0.0-14.0-0.0-0.51","6063da0f55279e9ff7d38e2c","6186fb1cc52d38b480598eb7","618732e6508dc878b7e50df9","null","","null","","","","","fixation","","","",""
"","","","","","visual-search-circle","117","188919","0.0-14.0-0.0-1.51","6063da0f55279e9ff7d38e2c","6186fb1cc52d38b480598eb7","618732e6508dc878b7e50df9","1230.699999999255","","s","true","[[103,526],[354,595],[564,441],[575,181],[379,10],[123,57],[0,287]]","false","7","","","img/Fire_Down_Target.gif","[""img/Fire_Up_Distractor.gif"",""img/Fire_Up_Distractor.gif"",""img/Fire_Up_Distractor.gif"",""img/Fire_Up_Distractor.gif"",""img/Fire_Up_Distractor.gif"",""img/Fire_Up_Distractor.gif"",""img/Fire_Up_Distractor.gif"",""img/Fire_Up_Distractor.gif"",""img/Fire_Up_Distractor.gif"",""img/Fire_Up_Distractor.gif"",""img/Fire_Up_Distractor.gif"",""img/Fire_Up_Distractor.gif""]","targetDown_distractorsUp"
"","","","","","html-keyboard-response","118","188920","0.0-14.0-0.0-0.52","6063da0f55279e9ff7d38e2c","6186fb1cc52d38b480598eb7","618732e6508dc878b7e50df9","null","","null","","","","","fixation","","","",""
"","","","","","visual-search-circle","119","190922","0.0-14.0-0.0-1.52","6063da0f55279e9ff7d38e2c","6186fb1cc52d38b480598eb7","618732e6508dc878b7e50df9","990.3999999985099","","s","true","[[294,0],[37,154],[42,454],[305,599],[562,445],[557,145]]","false","6","","","img/Fire_Down_Target.gif","[""img/Fire_Up_Distractor.gif"",""img/Fire_Up_Distractor.gif"",""img/Fire_Up_Distractor.gif"",""img/Fire_Up_Distractor.gif"",""img/Fire_Up_Distractor.gif"",""img/Fire_Up_Distractor.gif"",""img/Fire_Up_Distractor.gif"",""img/Fire_Up_Distractor.gif"",""img/Fire_Up_Distractor.gif"",""img/Fire_Up_Distractor.gif"",""img/Fire_Up_Distractor.gif"",""img/Fire_Up_Distractor.gif""]","targetDown_distractorsUp"
"","","","","","html-keyboard-response","120","190924","0.0-14.0-0.0-0.53","6063da0f55279e9ff7d38e2c","6186fb1cc52d38b480598eb7","618732e6508dc878b7e50df9","null","","null","","","","","fixation","","","",""
"","","","","","visual-search-circle","121","192957","0.0-14.0-0.0-1.53","6063da0f55279e9ff7d38e2c","6186fb1cc52d38b480598eb7","618732e6508dc878b7e50df9","1019.4000000022352","","d","true","[[70,107],[18,402],[247,595],[529,492],[581,197],[352,4]]","true","6","","","img/Fire_Up_Target.gif","[""img/Fire_Down_Distractor.gif"",""img/Fire_Down_Distractor.gif"",""img/Fire_Down_Distractor.gif"",""img/Fire_Down_Distractor.gif"",""img/Fire_Down_Distractor.gif"",""img/Fire_Down_Distractor.gif"",""img/Fire_Down_Distractor.gif"",""img/Fire_Down_Distractor.gif"",""img/Fire_Down_Distractor.gif"",""img/Fire_Down_Distractor.gif"",""img/Fire_Down_Distractor.gif"",""img/Fire_Down_Distractor.gif""]","targetUp_distractorsDown"
"","","","","","html-keyboard-response","122","192959","0.0-14.0-0.0-0.54","6063da0f55279e9ff7d38e2c","6186fb1cc52d38b480598eb7","618732e6508dc878b7e50df9","null","","null","","","","","fixation","","","",""
"","","","","","visual-search-circle","123","195167","0.0-14.0-0.0-1.54","6063da0f55279e9ff7d38e2c","6186fb1cc52d38b480598eb7","618732e6508dc878b7e50df9","1194.4000000022352","","d","true","[[571,173],[326,1],[54,127],[28,426],[273,598],[545,472]]","true","6","","","img/Fire_Down_Target.gif","[""img/Fire_Up_Distractor.gif"",""img/Fire_Up_Distractor.gif"",""img/Fire_Up_Distractor.gif"",""img/Fire_Up_Distractor.gif"",""img/Fire_Up_Distractor.gif"",""img/Fire_Up_Distractor.gif"",""img/Fire_Up_Distractor.gif"",""img/Fire_Up_Distractor.gif"",""img/Fire_Up_Distractor.gif"",""img/Fire_Up_Distractor.gif"",""img/Fire_Up_Distractor.gif"",""img/Fire_Up_Distractor.gif""]","targetDown_distractorsUp"
"","","","","","html-keyboard-response","124","195169","0.0-14.0-0.0-0.55","6063da0f55279e9ff7d38e2c","6186fb1cc52d38b480598eb7","618732e6508dc878b7e50df9","null","","null","","","","","fixation","","","",""
"","","","","","visual-search-circle","125","197096","0.0-14.0-0.0-1.55","6063da0f55279e9ff7d38e2c","6186fb1cc52d38b480598eb7","618732e6508dc878b7e50df9","920.5","","s","true","[[533,111],[192,19],[0,315],[222,589],[551,463]]","false","5","","","img/Fire_Up_Target.gif","[""img/Fire_Down_Distractor.gif"",""img/Fire_Down_Distractor.gif"",""img/Fire_Down_Distractor.gif"",""img/Fire_Down_Distractor.gif"",""img/Fire_Down_Distractor.gif"",""img/Fire_Down_Distractor.gif"",""img/Fire_Down_Distractor.gif"",""img/Fire_Down_Distractor.gif"",""img/Fire_Down_Distractor.gif"",""img/Fire_Down_Distractor.gif"",""img/Fire_Down_Distractor.gif"",""img/Fire_Down_Distractor.gif""]","targetUp_distractorsDown"
"","","","","","html-keyboard-response","126","197098","0.0-14.0-0.0-0.56","6063da0f55279e9ff7d38e2c","6186fb1cc52d38b480598eb7","618732e6508dc878b7e50df9","null","","null","","","","","fixation","","","",""
"","","","","","visual-search-circle","127","199443","0.0-14.0-0.0-1.56","6063da0f55279e9ff7d38e2c","6186fb1cc52d38b480598eb7","618732e6508dc878b7e50df9","1332.8999999985099","","s","true","[[48,463],[463,551],[551,136],[136,48]]","false","4","","","img/Fire_Up_Target.gif","[""img/Fire_Down_Distractor.gif"",""img/Fire_Down_Distractor.gif"",""img/Fire_Down_Distractor.gif"",""img/Fire_Down_Distractor.gif"",""img/Fire_Down_Distractor.gif"",""img/Fire_Down_Distractor.gif"",""img/Fire_Down_Distractor.gif"",""img/Fire_Down_Distractor.gif"",""img/Fire_Down_Distractor.gif"",""img/Fire_Down_Distractor.gif"",""img/Fire_Down_Distractor.gif"",""img/Fire_Down_Distractor.gif""]","targetUp_distractorsDown"
"","","","","","html-keyboard-response","128","199446","0.0-14.0-0.0-0.57","6063da0f55279e9ff7d38e2c","6186fb1cc52d38b480598eb7","618732e6508dc878b7e50df9","null","","null","","","","","fixation","","","",""
"","","","","","visual-search-circle","129","201888","0.0-14.0-0.0-1.57","6063da0f55279e9ff7d38e2c","6186fb1cc52d38b480598eb7","618732e6508dc878b7e50df9","1430.699999999255","","s","true","[[70,492],[412,578],[599,279],[372,8],[45,141]]","false","5","","","img/Fire_Down_Target.gif","[""img/Fire_Up_Distractor.gif"",""img/Fire_Up_Distractor.gif"",""img/Fire_Up_Distractor.gif"",""img/Fire_Up_Distractor.gif"",""img/Fire_Up_Distractor.gif"",""img/Fire_Up_Distractor.gif"",""img/Fire_Up_Distractor.gif"",""img/Fire_Up_Distractor.gif"",""img/Fire_Up_Distractor.gif"",""img/Fire_Up_Distractor.gif"",""img/Fire_Up_Distractor.gif"",""img/Fire_Up_Distractor.gif""]","targetDown_distractorsUp"
"","","","","","html-keyboard-response","130","201890","0.0-14.0-0.0-0.58","6063da0f55279e9ff7d38e2c","6186fb1cc52d38b480598eb7","618732e6508dc878b7e50df9","null","","null","","","","","fixation","","","",""
"","","","","","visual-search-circle","131","203898","0.0-14.0-0.0-1.58","6063da0f55279e9ff7d38e2c","6186fb1cc52d38b480598eb7","618732e6508dc878b7e50df9","996.1999999992549","","d","true","[[504,80],[80,95],[95,519],[519,504]]","true","4","","","img/Fire_Down_Target.gif","[""img/Fire_Up_Distractor.gif"",""img/Fire_Up_Distractor.gif"",""img/Fire_Up_Distractor.gif"",""img/Fire_Up_Distractor.gif"",""img/Fire_Up_Distractor.gif"",""img/Fire_Up_Distractor.gif"",""img/Fire_Up_Distractor.gif"",""img/Fire_Up_Distractor.gif"",""img/Fire_Up_Distractor.gif"",""img/Fire_Up_Distractor.gif"",""img/Fire_Up_Distractor.gif"",""img/Fire_Up_Distractor.gif""]","targetDown_distractorsUp"
"","","","","","html-keyboard-response","132","205281","0.0-14.0-0.0-0.59","6063da0f55279e9ff7d38e2c","6186fb1cc52d38b480598eb7","618732e6508dc878b7e50df9","1382.3999999985099","Wow! You've completed 60 out of 120 trials! </p> <p>  </p><p> Take a quick break, then press any key when you're ready to continue."," ","","","","","fixation","","","",""
"","","","","","visual-search-circle","133","207490","0.0-14.0-0.0-1.59","6063da0f55279e9ff7d38e2c","6186fb1cc52d38b480598eb7","618732e6508dc878b7e50df9","1196","","s","true","[[10,222],[40,450],[222,589],[450,559],[589,377],[559,150],[377,10],[150,40]]","false","8","","","img/Fire_Up_Target.gif","[""img/Fire_Down_Distractor.gif"",""img/Fire_Down_Distractor.gif"",""img/Fire_Down_Distractor.gif"",""img/Fire_Down_Distractor.gif"",""img/Fire_Down_Distractor.gif"",""img/Fire_Down_Distractor.gif"",""img/Fire_Down_Distractor.gif"",""img/Fire_Down_Distractor.gif"",""img/Fire_Down_Distractor.gif"",""img/Fire_Down_Distractor.gif"",""img/Fire_Down_Distractor.gif"",""img/Fire_Down_Distractor.gif""]","targetUp_distractorsDown"
"","","","","","html-keyboard-response","134","207492","0.0-14.0-0.0-0.60","6063da0f55279e9ff7d38e2c","6186fb1cc52d38b480598eb7","618732e6508dc878b7e50df9","null","","null","","","","","fixation","","","",""
"","","","","","visual-search-circle","135","210208","0.0-14.0-0.0-1.60","6063da0f55279e9ff7d38e2c","6186fb1cc52d38b480598eb7","618732e6508dc878b7e50df9","1704.2000000029802","","d","true","[[136,48],[1,270],[91,515],[338,597],[556,455],[581,196],[394,15]]","true","7","","","img/Fire_Up_Target.gif","[""img/Fire_Down_Distractor.gif"",""img/Fire_Down_Distractor.gif"",""img/Fire_Down_Distractor.gif"",""img/Fire_Down_Distractor.gif"",""img/Fire_Down_Distractor.gif"",""img/Fire_Down_Distractor.gif"",""img/Fire_Down_Distractor.gif"",""img/Fire_Down_Distractor.gif"",""img/Fire_Down_Distractor.gif"",""img/Fire_Down_Distractor.gif"",""img/Fire_Down_Distractor.gif"",""img/Fire_Down_Distractor.gif""]","targetUp_distractorsDown"
"","","","","","html-keyboard-response","136","210210","0.0-14.0-0.0-0.61","6063da0f55279e9ff7d38e2c","6186fb1cc52d38b480598eb7","618732e6508dc878b7e50df9","null","","null","","","","","fixation","","","",""
"","","","","","visual-search-circle","137","212394","0.0-14.0-0.0-1.61","6063da0f55279e9ff7d38e2c","6186fb1cc52d38b480598eb7","618732e6508dc878b7e50df9","1170","","d","true","[[57,123],[3,346],[123,542],[346,596],[542,476],[596,253],[476,57],[253,3]]","true","8","","","img/Fire_Down_Target.gif","[""img/Fire_Up_Distractor.gif"",""img/Fire_Up_Distractor.gif"",""img/Fire_Up_Distractor.gif"",""img/Fire_Up_Distractor.gif"",""img/Fire_Up_Distractor.gif"",""img/Fire_Up_Distractor.gif"",""img/Fire_Up_Distractor.gif"",""img/Fire_Up_Distractor.gif"",""img/Fire_Up_Distractor.gif"",""img/Fire_Up_Distractor.gif"",""img/Fire_Up_Distractor.gif"",""img/Fire_Up_Distractor.gif""]","targetDown_distractorsUp"
"","","","","","html-keyboard-response","138","212396","0.0-14.0-0.0-0.62","6063da0f55279e9ff7d38e2c","6186fb1cc52d38b480598eb7","618732e6508dc878b7e50df9","null","","null","","","","","fixation","","","",""
"","","","","","visual-search-circle","139","214360","0.0-14.0-0.0-1.62","6063da0f55279e9ff7d38e2c","6186fb1cc52d38b480598eb7","618732e6508dc878b7e50df9","949.0999999977648","","s","true","[[592,232],[458,45],[232,7],[45,141],[7,367],[141,554],[367,592],[554,458]]","false","8","","","img/Fire_Down_Target.gif","[""img/Fire_Up_Distractor.gif"",""img/Fire_Up_Distractor.gif"",""img/Fire_Up_Distractor.gif"",""img/Fire_Up_Distractor.gif"",""img/Fire_Up_Distractor.gif"",""img/Fire_Up_Distractor.gif"",""img/Fire_Up_Distractor.gif"",""img/Fire_Up_Distractor.gif"",""img/Fire_Up_Distractor.gif"",""img/Fire_Up_Distractor.gif"",""img/Fire_Up_Distractor.gif"",""img/Fire_Up_Distractor.gif""]","targetDown_distractorsUp"
"","","","","","html-keyboard-response","140","214362","0.0-14.0-0.0-0.63","6063da0f55279e9ff7d38e2c","6186fb1cc52d38b480598eb7","618732e6508dc878b7e50df9","null","","null","","","","","fixation","","","",""
"","","","","","visual-search-circle","141","216419","0.0-14.0-0.0-1.63","6063da0f55279e9ff7d38e2c","6186fb1cc52d38b480598eb7","618732e6508dc878b7e50df9","1043.6000000014901","","s","true","[[578,412],[561,152],[347,3],[98,78],[0,319],[128,546],[385,587]]","false","7","","","img/Fire_Up_Target.gif","[""img/Fire_Down_Distractor.gif"",""img/Fire_Down_Distractor.gif"",""img/Fire_Down_Distractor.gif"",""img/Fire_Down_Distractor.gif"",""img/Fire_Down_Distractor.gif"",""img/Fire_Down_Distractor.gif"",""img/Fire_Down_Distractor.gif"",""img/Fire_Down_Distractor.gif"",""img/Fire_Down_Distractor.gif"",""img/Fire_Down_Distractor.gif"",""img/Fire_Down_Distractor.gif"",""img/Fire_Down_Distractor.gif""]","targetUp_distractorsDown"
"","","","","","html-keyboard-response","142","216421","0.0-14.0-0.0-0.64","6063da0f55279e9ff7d38e2c","6186fb1cc52d38b480598eb7","618732e6508dc878b7e50df9","null","","null","","","","","fixation","","","",""
"","","","","","visual-search-circle","143","218563","0.0-14.0-0.0-1.64","6063da0f55279e9ff7d38e2c","6186fb1cc52d38b480598eb7","618732e6508dc878b7e50df9","1130.3999999985099","","s","true","[[14,392],[163,567],[392,585],[567,436],[585,207],[436,32],[207,14],[32,163]]","false","8","","","img/Fire_Down_Target.gif","[""img/Fire_Up_Distractor.gif"",""img/Fire_Up_Distractor.gif"",""img/Fire_Up_Distractor.gif"",""img/Fire_Up_Distractor.gif"",""img/Fire_Up_Distractor.gif"",""img/Fire_Up_Distractor.gif"",""img/Fire_Up_Distractor.gif"",""img/Fire_Up_Distractor.gif"",""img/Fire_Up_Distractor.gif"",""img/Fire_Up_Distractor.gif"",""img/Fire_Up_Distractor.gif"",""img/Fire_Up_Distractor.gif""]","targetDown_distractorsUp"
"","","","","","html-keyboard-response","144","218567","0.0-14.0-0.0-0.65","6063da0f55279e9ff7d38e2c","6186fb1cc52d38b480598eb7","618732e6508dc878b7e50df9","null","","null","","","","","fixation","","","",""
"","","","","","visual-search-circle","145","221369","0.0-14.0-0.0-1.65","6063da0f55279e9ff7d38e2c","6186fb1cc52d38b480598eb7","618732e6508dc878b7e50df9","1792","","s","true","[[145,42],[7,367],[273,598],[576,417],[496,73]]","false","5","","","img/Fire_Down_Target.gif","[""img/Fire_Up_Distractor.gif"",""img/Fire_Up_Distractor.gif"",""img/Fire_Up_Distractor.gif"",""img/Fire_Up_Distractor.gif"",""img/Fire_Up_Distractor.gif"",""img/Fire_Up_Distractor.gif"",""img/Fire_Up_Distractor.gif"",""img/Fire_Up_Distractor.gif"",""img/Fire_Up_Distractor.gif"",""img/Fire_Up_Distractor.gif"",""img/Fire_Up_Distractor.gif"",""img/Fire_Up_Distractor.gif""]","targetDown_distractorsUp"
"","","","","","html-keyboard-response","146","221371","0.0-14.0-0.0-0.66","6063da0f55279e9ff7d38e2c","6186fb1cc52d38b480598eb7","618732e6508dc878b7e50df9","null","","null","","","","","fixation","","","",""
"","","","","","visual-search-circle","147","223258","0.0-14.0-0.0-1.66","6063da0f55279e9ff7d38e2c","6186fb1cc52d38b480598eb7","618732e6508dc878b7e50df9","872.8000000007451","","d","true","[[392,585],[580,405],[557,146],[340,2],[92,83],[1,326],[134,550]]","true","7","","","img/Fire_Up_Target.gif","[""img/Fire_Down_Distractor.gif"",""img/Fire_Down_Distractor.gif"",""img/Fire_Down_Distractor.gif"",""img/Fire_Down_Distractor.gif"",""img/Fire_Down_Distractor.gif"",""img/Fire_Down_Distractor.gif"",""img/Fire_Down_Distractor.gif"",""img/Fire_Down_Distractor.gif"",""img/Fire_Down_Distractor.gif"",""img/Fire_Down_Distractor.gif"",""img/Fire_Down_Distractor.gif"",""img/Fire_Down_Distractor.gif""]","targetUp_distractorsDown"
"","","","","","html-keyboard-response","148","223260","0.0-14.0-0.0-0.67","6063da0f55279e9ff7d38e2c","6186fb1cc52d38b480598eb7","618732e6508dc878b7e50df9","null","","null","","","","","fixation","","","",""
"","","","","","visual-search-circle","149","225179","0.0-14.0-0.0-1.67","6063da0f55279e9ff7d38e2c","6186fb1cc52d38b480598eb7","618732e6508dc878b7e50df9","908.6000000014901","","s","true","[[412,21],[21,187],[187,578],[578,412]]","false","4","","","img/Fire_Up_Target.gif","[""img/Fire_Down_Distractor.gif"",""img/Fire_Down_Distractor.gif"",""img/Fire_Down_Distractor.gif"",""img/Fire_Down_Distractor.gif"",""img/Fire_Down_Distractor.gif"",""img/Fire_Down_Distractor.gif"",""img/Fire_Down_Distractor.gif"",""img/Fire_Down_Distractor.gif"",""img/Fire_Down_Distractor.gif"",""img/Fire_Down_Distractor.gif"",""img/Fire_Down_Distractor.gif"",""img/Fire_Down_Distractor.gif""]","targetUp_distractorsDown"
"","","","","","html-keyboard-response","150","225182","0.0-14.0-0.0-0.68","6063da0f55279e9ff7d38e2c","6186fb1cc52d38b480598eb7","618732e6508dc878b7e50df9","null","","null","","","","","fixation","","","",""
"","","","","","visual-search-circle","151","227212","0.0-14.0-0.0-1.68","6063da0f55279e9ff7d38e2c","6186fb1cc52d38b480598eb7","618732e6508dc878b7e50df9","1021.8000000007451","","s","true","[[357,5],[5,242],[242,594],[594,357]]","false","4","","","img/Fire_Down_Target.gif","[""img/Fire_Up_Distractor.gif"",""img/Fire_Up_Distractor.gif"",""img/Fire_Up_Distractor.gif"",""img/Fire_Up_Distractor.gif"",""img/Fire_Up_Distractor.gif"",""img/Fire_Up_Distractor.gif"",""img/Fire_Up_Distractor.gif"",""img/Fire_Up_Distractor.gif"",""img/Fire_Up_Distractor.gif"",""img/Fire_Up_Distractor.gif"",""img/Fire_Up_Distractor.gif"",""img/Fire_Up_Distractor.gif""]","targetDown_distractorsUp"
"","","","","","html-keyboard-response","152","227215","0.0-14.0-0.0-0.69","6063da0f55279e9ff7d38e2c","6186fb1cc52d38b480598eb7","618732e6508dc878b7e50df9","null","","null","","","","","fixation","","","",""
"","","","","","visual-search-circle","153","229251","0.0-14.0-0.0-1.69","6063da0f55279e9ff7d38e2c","6186fb1cc52d38b480598eb7","618732e6508dc878b7e50df9","1025.699999999255","","d","true","[[599,310],[458,45],[159,35],[0,289],[141,554],[440,564]]","true","6","","","img/Fire_Down_Target.gif","[""img/Fire_Up_Distractor.gif"",""img/Fire_Up_Distractor.gif"",""img/Fire_Up_Distractor.gif"",""img/Fire_Up_Distractor.gif"",""img/Fire_Up_Distractor.gif"",""img/Fire_Up_Distractor.gif"",""img/Fire_Up_Distractor.gif"",""img/Fire_Up_Distractor.gif"",""img/Fire_Up_Distractor.gif"",""img/Fire_Up_Distractor.gif"",""img/Fire_Up_Distractor.gif"",""img/Fire_Up_Distractor.gif""]","targetDown_distractorsUp"
"","","","","","html-keyboard-response","154","229253","0.0-14.0-0.0-0.70","6063da0f55279e9ff7d38e2c","6186fb1cc52d38b480598eb7","618732e6508dc878b7e50df9","null","","null","","","","","fixation","","","",""
"","","","","","visual-search-circle","155","231988","0.0-14.0-0.0-1.70","6063da0f55279e9ff7d38e2c","6186fb1cc52d38b480598eb7","618732e6508dc878b7e50df9","1723.3999999985099","","s","true","[[315,0],[99,77],[0,284],[77,500],[284,599],[500,522],[599,315],[522,99]]","false","8","","","img/Fire_Up_Target.gif","[""img/Fire_Down_Distractor.gif"",""img/Fire_Down_Distractor.gif"",""img/Fire_Down_Distractor.gif"",""img/Fire_Down_Distractor.gif"",""img/Fire_Down_Distractor.gif"",""img/Fire_Down_Distractor.gif"",""img/Fire_Down_Distractor.gif"",""img/Fire_Down_Distractor.gif"",""img/Fire_Down_Distractor.gif"",""img/Fire_Down_Distractor.gif"",""img/Fire_Down_Distractor.gif"",""img/Fire_Down_Distractor.gif""]","targetUp_distractorsDown"
"","","","","","html-keyboard-response","156","231990","0.0-14.0-0.0-0.71","6063da0f55279e9ff7d38e2c","6186fb1cc52d38b480598eb7","618732e6508dc878b7e50df9","null","","null","","","","","fixation","","","",""
"","","","","","visual-search-circle","157","233873","0.0-14.0-0.0-1.71","6063da0f55279e9ff7d38e2c","6186fb1cc52d38b480598eb7","618732e6508dc878b7e50df9","870.1999999992549","","d","true","[[19,407],[177,574],[407,580],[574,422],[580,192],[422,25],[192,19],[25,177]]","true","8","","","img/Fire_Down_Target.gif","[""img/Fire_Up_Distractor.gif"",""img/Fire_Up_Distractor.gif"",""img/Fire_Up_Distractor.gif"",""img/Fire_Up_Distractor.gif"",""img/Fire_Up_Distractor.gif"",""img/Fire_Up_Distractor.gif"",""img/Fire_Up_Distractor.gif"",""img/Fire_Up_Distractor.gif"",""img/Fire_Up_Distractor.gif"",""img/Fire_Up_Distractor.gif"",""img/Fire_Up_Distractor.gif"",""img/Fire_Up_Distractor.gif""]","targetDown_distractorsUp"
"","","","","","html-keyboard-response","158","233874","0.0-14.0-0.0-0.72","6063da0f55279e9ff7d38e2c","6186fb1cc52d38b480598eb7","618732e6508dc878b7e50df9","null","","null","","","","","fixation","","","",""
"","","","","","visual-search-circle","159","235827","0.0-14.0-0.0-1.72","6063da0f55279e9ff7d38e2c","6186fb1cc52d38b480598eb7","618732e6508dc878b7e50df9","940.8999999985099","","d","true","[[8,372],[279,599],[578,412],[492,70],[141,45]]","true","5","","","img/Fire_Down_Target.gif","[""img/Fire_Up_Distractor.gif"",""img/Fire_Up_Distractor.gif"",""img/Fire_Up_Distractor.gif"",""img/Fire_Up_Distractor.gif"",""img/Fire_Up_Distractor.gif"",""img/Fire_Up_Distractor.gif"",""img/Fire_Up_Distractor.gif"",""img/Fire_Up_Distractor.gif"",""img/Fire_Up_Distractor.gif"",""img/Fire_Up_Distractor.gif"",""img/Fire_Up_Distractor.gif"",""img/Fire_Up_Distractor.gif""]","targetDown_distractorsUp"
"","","","","","html-keyboard-response","160","235829","0.0-14.0-0.0-0.73","6063da0f55279e9ff7d38e2c","6186fb1cc52d38b480598eb7","618732e6508dc878b7e50df9","null","","null","","","","","fixation","","","",""
"","","","","","visual-search-circle","161","238117","0.0-14.0-0.0-1.73","6063da0f55279e9ff7d38e2c","6186fb1cc52d38b480598eb7","618732e6508dc878b7e50df9","1279.300000000745","","d","true","[[268,598],[574,422],[500,77],[150,40],[6,362]]","true","5","","","img/Fire_Up_Target.gif","[""img/Fire_Down_Distractor.gif"",""img/Fire_Down_Distractor.gif"",""img/Fire_Down_Distractor.gif"",""img/Fire_Down_Distractor.gif"",""img/Fire_Down_Distractor.gif"",""img/Fire_Down_Distractor.gif"",""img/Fire_Down_Distractor.gif"",""img/Fire_Down_Distractor.gif"",""img/Fire_Down_Distractor.gif"",""img/Fire_Down_Distractor.gif"",""img/Fire_Down_Distractor.gif"",""img/Fire_Down_Distractor.gif""]","targetUp_distractorsDown"
"","","","","","html-keyboard-response","162","238119","0.0-14.0-0.0-0.74","6063da0f55279e9ff7d38e2c","6186fb1cc52d38b480598eb7","618732e6508dc878b7e50df9","null","","null","","","","","fixation","","","",""
"","","","","","visual-search-circle","163","240726","0.0-14.0-0.0-1.74","6063da0f55279e9ff7d38e2c","6186fb1cc52d38b480598eb7","618732e6508dc878b7e50df9","1592.1000000014901","","s","true","[[467,51],[242,5],[51,132],[5,357],[132,548],[357,594],[548,467],[594,242]]","false","8","","","img/Fire_Down_Target.gif","[""img/Fire_Up_Distractor.gif"",""img/Fire_Up_Distractor.gif"",""img/Fire_Up_Distractor.gif"",""img/Fire_Up_Distractor.gif"",""img/Fire_Up_Distractor.gif"",""img/Fire_Up_Distractor.gif"",""img/Fire_Up_Distractor.gif"",""img/Fire_Up_Distractor.gif"",""img/Fire_Up_Distractor.gif"",""img/Fire_Up_Distractor.gif"",""img/Fire_Up_Distractor.gif"",""img/Fire_Up_Distractor.gif""]","targetDown_distractorsUp"
"","","","","","html-keyboard-response","164","240728","0.0-14.0-0.0-0.75","6063da0f55279e9ff7d38e2c","6186fb1cc52d38b480598eb7","618732e6508dc878b7e50df9","null","","null","","","","","fixation","","","",""
"","","","","","visual-search-circle","165","242745","0.0-14.0-0.0-1.75","6063da0f55279e9ff7d38e2c","6186fb1cc52d38b480598eb7","618732e6508dc878b7e50df9","1002.3000000007451","","d","true","[[237,6],[48,136],[6,362],[136,551],[362,593],[551,463],[593,237],[463,48]]","true","8","","","img/Fire_Down_Target.gif","[""img/Fire_Up_Distractor.gif"",""img/Fire_Up_Distractor.gif"",""img/Fire_Up_Distractor.gif"",""img/Fire_Up_Distractor.gif"",""img/Fire_Up_Distractor.gif"",""img/Fire_Up_Distractor.gif"",""img/Fire_Up_Distractor.gif"",""img/Fire_Up_Distractor.gif"",""img/Fire_Up_Distractor.gif"",""img/Fire_Up_Distractor.gif"",""img/Fire_Up_Distractor.gif"",""img/Fire_Up_Distractor.gif""]","targetDown_distractorsUp"
"","","","","","html-keyboard-response","166","242747","0.0-14.0-0.0-0.76","6063da0f55279e9ff7d38e2c","6186fb1cc52d38b480598eb7","618732e6508dc878b7e50df9","null","","null","","","","","fixation","","","",""
"","","","","","visual-search-circle","167","244856","0.0-14.0-0.0-1.76","6063da0f55279e9ff7d38e2c","6186fb1cc52d38b480598eb7","618732e6508dc878b7e50df9","1098.7999999970198","","d","true","[[80,95],[37,445],[357,594],[597,336],[426,28]]","true","5","","","img/Fire_Down_Target.gif","[""img/Fire_Up_Distractor.gif"",""img/Fire_Up_Distractor.gif"",""img/Fire_Up_Distractor.gif"",""img/Fire_Up_Distractor.gif"",""img/Fire_Up_Distractor.gif"",""img/Fire_Up_Distractor.gif"",""img/Fire_Up_Distractor.gif"",""img/Fire_Up_Distractor.gif"",""img/Fire_Up_Distractor.gif"",""img/Fire_Up_Distractor.gif"",""img/Fire_Up_Distractor.gif"",""img/Fire_Up_Distractor.gif""]","targetDown_distractorsUp"
"","","","","","html-keyboard-response","168","244858","0.0-14.0-0.0-0.77","6063da0f55279e9ff7d38e2c","6186fb1cc52d38b480598eb7","618732e6508dc878b7e50df9","null","","null","","","","","fixation","","","",""
"","","","","","visual-search-circle","169","247268","0.0-14.0-0.0-1.77","6063da0f55279e9ff7d38e2c","6186fb1cc52d38b480598eb7","618732e6508dc878b7e50df9","1401.300000000745","","s","true","[[407,19],[66,111],[48,463],[377,589],[599,315]]","false","5","","","img/Fire_Up_Target.gif","[""img/Fire_Down_Distractor.gif"",""img/Fire_Down_Distractor.gif"",""img/Fire_Down_Distractor.gif"",""img/Fire_Down_Distractor.gif"",""img/Fire_Down_Distractor.gif"",""img/Fire_Down_Distractor.gif"",""img/Fire_Down_Distractor.gif"",""img/Fire_Down_Distractor.gif"",""img/Fire_Down_Distractor.gif"",""img/Fire_Down_Distractor.gif"",""img/Fire_Down_Distractor.gif"",""img/Fire_Down_Distractor.gif""]","targetUp_distractorsDown"
"","","","","","html-keyboard-response","170","247270","0.0-14.0-0.0-0.78","6063da0f55279e9ff7d38e2c","6186fb1cc52d38b480598eb7","618732e6508dc878b7e50df9","null","","null","","","","","fixation","","","",""
"","","","","","visual-search-circle","171","249879","0.0-14.0-0.0-1.78","6063da0f55279e9ff7d38e2c","6186fb1cc52d38b480598eb7","618732e6508dc878b7e50df9","1596","","d","true","[[554,458],[592,232],[458,45],[232,7],[45,141],[7,367],[141,554],[367,592]]","true","8","","","img/Fire_Down_Target.gif","[""img/Fire_Up_Distractor.gif"",""img/Fire_Up_Distractor.gif"",""img/Fire_Up_Distractor.gif"",""img/Fire_Up_Distractor.gif"",""img/Fire_Up_Distractor.gif"",""img/Fire_Up_Distractor.gif"",""img/Fire_Up_Distractor.gif"",""img/Fire_Up_Distractor.gif"",""img/Fire_Up_Distractor.gif"",""img/Fire_Up_Distractor.gif"",""img/Fire_Up_Distractor.gif"",""img/Fire_Up_Distractor.gif""]","targetDown_distractorsUp"
"","","","","","html-keyboard-response","172","251820","0.0-14.0-0.0-0.79","6063da0f55279e9ff7d38e2c","6186fb1cc52d38b480598eb7","618732e6508dc878b7e50df9","1940","Wow! You've completed 80 out of 120 trials! </p> <p>  </p><p> Take a quick break, then press any key when you're ready to continue."," ","","","","","fixation","","","",""
"","","","","","visual-search-circle","173","253751","0.0-14.0-0.0-1.79","6063da0f55279e9ff7d38e2c","6186fb1cc52d38b480598eb7","618732e6508dc878b7e50df9","920.5","","d","true","[[362,6],[6,237],[237,593],[593,362]]","true","4","","","img/Fire_Down_Target.gif","[""img/Fire_Up_Distractor.gif"",""img/Fire_Up_Distractor.gif"",""img/Fire_Up_Distractor.gif"",""img/Fire_Up_Distractor.gif"",""img/Fire_Up_Distractor.gif"",""img/Fire_Up_Distractor.gif"",""img/Fire_Up_Distractor.gif"",""img/Fire_Up_Distractor.gif"",""img/Fire_Up_Distractor.gif"",""img/Fire_Up_Distractor.gif"",""img/Fire_Up_Distractor.gif"",""img/Fire_Up_Distractor.gif""]","targetDown_distractorsUp"
"","","","","","html-keyboard-response","174","253753","0.0-14.0-0.0-0.80","6063da0f55279e9ff7d38e2c","6186fb1cc52d38b480598eb7","618732e6508dc878b7e50df9","null","","null","","","","","fixation","","","",""
"","","","","","visual-search-circle","175","256849","0.0-14.0-0.0-1.80","6063da0f55279e9ff7d38e2c","6186fb1cc52d38b480598eb7","618732e6508dc878b7e50df9","2084.39999999851","","d","true","[[0,315],[315,599],[599,284],[284,0]]","true","4","","","img/Fire_Up_Target.gif","[""img/Fire_Down_Distractor.gif"",""img/Fire_Down_Distractor.gif"",""img/Fire_Down_Distractor.gif"",""img/Fire_Down_Distractor.gif"",""img/Fire_Down_Distractor.gif"",""img/Fire_Down_Distractor.gif"",""img/Fire_Down_Distractor.gif"",""img/Fire_Down_Distractor.gif"",""img/Fire_Down_Distractor.gif"",""img/Fire_Down_Distractor.gif"",""img/Fire_Down_Distractor.gif"",""img/Fire_Down_Distractor.gif""]","targetUp_distractorsDown"
"","","","","","html-keyboard-response","176","256851","0.0-14.0-0.0-0.81","6063da0f55279e9ff7d38e2c","6186fb1cc52d38b480598eb7","618732e6508dc878b7e50df9","null","","null","","","","","fixation","","","",""
"","","","","","visual-search-circle","177","258782","0.0-14.0-0.0-1.81","6063da0f55279e9ff7d38e2c","6186fb1cc52d38b480598eb7","618732e6508dc878b7e50df9","918.5","","d","true","[[597,341],[484,63],[187,21],[2,258],[115,536],[412,578]]","true","6","","","img/Fire_Down_Target.gif","[""img/Fire_Up_Distractor.gif"",""img/Fire_Up_Distractor.gif"",""img/Fire_Up_Distractor.gif"",""img/Fire_Up_Distractor.gif"",""img/Fire_Up_Distractor.gif"",""img/Fire_Up_Distractor.gif"",""img/Fire_Up_Distractor.gif"",""img/Fire_Up_Distractor.gif"",""img/Fire_Up_Distractor.gif"",""img/Fire_Up_Distractor.gif"",""img/Fire_Up_Distractor.gif"",""img/Fire_Up_Distractor.gif""]","targetDown_distractorsUp"
"","","","","","html-keyboard-response","178","258784","0.0-14.0-0.0-0.82","6063da0f55279e9ff7d38e2c","6186fb1cc52d38b480598eb7","618732e6508dc878b7e50df9","null","","null","","","","","fixation","","","",""
"","","","","","visual-search-circle","179","260745","0.0-14.0-0.0-1.82","6063da0f55279e9ff7d38e2c","6186fb1cc52d38b480598eb7","618732e6508dc878b7e50df9","949.2999999970198","","s","true","[[508,515],[591,227],[382,11],[91,84],[8,372],[217,588]]","false","6","","","img/Fire_Down_Target.gif","[""img/Fire_Up_Distractor.gif"",""img/Fire_Up_Distractor.gif"",""img/Fire_Up_Distractor.gif"",""img/Fire_Up_Distractor.gif"",""img/Fire_Up_Distractor.gif"",""img/Fire_Up_Distractor.gif"",""img/Fire_Up_Distractor.gif"",""img/Fire_Up_Distractor.gif"",""img/Fire_Up_Distractor.gif"",""img/Fire_Up_Distractor.gif"",""img/Fire_Up_Distractor.gif"",""img/Fire_Up_Distractor.gif""]","targetDown_distractorsUp"
"","","","","","html-keyboard-response","180","260747","0.0-14.0-0.0-0.83","6063da0f55279e9ff7d38e2c","6186fb1cc52d38b480598eb7","618732e6508dc878b7e50df9","null","","null","","","","","fixation","","","",""
"","","","","","visual-search-circle","181","262547","0.0-14.0-0.0-1.83","6063da0f55279e9ff7d38e2c","6186fb1cc52d38b480598eb7","618732e6508dc878b7e50df9","788.1000000014901","","d","true","[[91,84],[1,328],[135,551],[394,584],[581,404],[556,144],[338,2]]","true","7","","","img/Fire_Down_Target.gif","[""img/Fire_Up_Distractor.gif"",""img/Fire_Up_Distractor.gif"",""img/Fire_Up_Distractor.gif"",""img/Fire_Up_Distractor.gif"",""img/Fire_Up_Distractor.gif"",""img/Fire_Up_Distractor.gif"",""img/Fire_Up_Distractor.gif"",""img/Fire_Up_Distractor.gif"",""img/Fire_Up_Distractor.gif"",""img/Fire_Up_Distractor.gif"",""img/Fire_Up_Distractor.gif"",""img/Fire_Up_Distractor.gif""]","targetDown_distractorsUp"
"","","","","","html-keyboard-response","182","262549","0.0-14.0-0.0-0.84","6063da0f55279e9ff7d38e2c","6186fb1cc52d38b480598eb7","618732e6508dc878b7e50df9","null","","null","","","","","fixation","","","",""
"","","","","","visual-search-circle","183","264480","0.0-14.0-0.0-1.84","6063da0f55279e9ff7d38e2c","6186fb1cc52d38b480598eb7","618732e6508dc878b7e50df9","919.7999999970198","","d","true","[[99,522],[315,599],[522,500],[599,284],[500,77],[284,0],[77,99],[0,315]]","true","8","","","img/Fire_Up_Target.gif","[""img/Fire_Down_Distractor.gif"",""img/Fire_Down_Distractor.gif"",""img/Fire_Down_Distractor.gif"",""img/Fire_Down_Distractor.gif"",""img/Fire_Down_Distractor.gif"",""img/Fire_Down_Distractor.gif"",""img/Fire_Down_Distractor.gif"",""img/Fire_Down_Distractor.gif"",""img/Fire_Down_Distractor.gif"",""img/Fire_Down_Distractor.gif"",""img/Fire_Down_Distractor.gif"",""img/Fire_Down_Distractor.gif""]","targetUp_distractorsDown"
"","","","","","html-keyboard-response","184","264482","0.0-14.0-0.0-0.85","6063da0f55279e9ff7d38e2c","6186fb1cc52d38b480598eb7","618732e6508dc878b7e50df9","null","","null","","","","","fixation","","","",""
"","","","","","visual-search-circle","185","266636","0.0-14.0-0.0-1.85","6063da0f55279e9ff7d38e2c","6186fb1cc52d38b480598eb7","618732e6508dc878b7e50df9","1139.0999999977648","","s","true","[[545,127],[352,4],[127,54],[4,247],[54,472],[247,595],[472,545],[595,352]]","false","8","","","img/Fire_Up_Target.gif","[""img/Fire_Down_Distractor.gif"",""img/Fire_Down_Distractor.gif"",""img/Fire_Down_Distractor.gif"",""img/Fire_Down_Distractor.gif"",""img/Fire_Down_Distractor.gif"",""img/Fire_Down_Distractor.gif"",""img/Fire_Down_Distractor.gif"",""img/Fire_Down_Distractor.gif"",""img/Fire_Down_Distractor.gif"",""img/Fire_Down_Distractor.gif"",""img/Fire_Down_Distractor.gif"",""img/Fire_Down_Distractor.gif""]","targetUp_distractorsDown"
"","","","","","html-keyboard-response","186","266638","0.0-14.0-0.0-0.86","6063da0f55279e9ff7d38e2c","6186fb1cc52d38b480598eb7","618732e6508dc878b7e50df9","null","","null","","","","","fixation","","","",""
"","","","","","visual-search-circle","187","268956","0.0-14.0-0.0-1.86","6063da0f55279e9ff7d38e2c","6186fb1cc52d38b480598eb7","618732e6508dc878b7e50df9","1305.800000000745","","d","true","[[7,232],[145,557],[496,526],[576,182],[273,1]]","true","5","","","img/Fire_Down_Target.gif","[""img/Fire_Up_Distractor.gif"",""img/Fire_Up_Distractor.gif"",""img/Fire_Up_Distractor.gif"",""img/Fire_Up_Distractor.gif"",""img/Fire_Up_Distractor.gif"",""img/Fire_Up_Distractor.gif"",""img/Fire_Up_Distractor.gif"",""img/Fire_Up_Distractor.gif"",""img/Fire_Up_Distractor.gif"",""img/Fire_Up_Distractor.gif"",""img/Fire_Up_Distractor.gif"",""img/Fire_Up_Distractor.gif""]","targetDown_distractorsUp"
"","","","","","html-keyboard-response","188","268958","0.0-14.0-0.0-0.87","6063da0f55279e9ff7d38e2c","6186fb1cc52d38b480598eb7","618732e6508dc878b7e50df9","null","","null","","","","","fixation","","","",""
"","","","","","visual-search-circle","189","271842","0.0-14.0-0.0-1.87","6063da0f55279e9ff7d38e2c","6186fb1cc52d38b480598eb7","618732e6508dc878b7e50df9","1871.8999999985099","","d","true","[[402,18],[63,115],[51,467],[382,588],[599,310]]","true","5","","","img/Fire_Up_Target.gif","[""img/Fire_Down_Distractor.gif"",""img/Fire_Down_Distractor.gif"",""img/Fire_Down_Distractor.gif"",""img/Fire_Down_Distractor.gif"",""img/Fire_Down_Distractor.gif"",""img/Fire_Down_Distractor.gif"",""img/Fire_Down_Distractor.gif"",""img/Fire_Down_Distractor.gif"",""img/Fire_Down_Distractor.gif"",""img/Fire_Down_Distractor.gif"",""img/Fire_Down_Distractor.gif"",""img/Fire_Down_Distractor.gif""]","targetUp_distractorsDown"
"","","","","","html-keyboard-response","190","271844","0.0-14.0-0.0-0.88","6063da0f55279e9ff7d38e2c","6186fb1cc52d38b480598eb7","618732e6508dc878b7e50df9","null","","null","","","","","fixation","","","",""
"","","","","","visual-search-circle","191","273899","0.0-14.0-0.0-1.88","6063da0f55279e9ff7d38e2c","6186fb1cc52d38b480598eb7","618732e6508dc878b7e50df9","1044.699999999255","","s","true","[[598,331],[476,57],[177,25],[1,268],[123,542],[422,574]]","false","6","","","img/Fire_Down_Target.gif","[""img/Fire_Up_Distractor.gif"",""img/Fire_Up_Distractor.gif"",""img/Fire_Up_Distractor.gif"",""img/Fire_Up_Distractor.gif"",""img/Fire_Up_Distractor.gif"",""img/Fire_Up_Distractor.gif"",""img/Fire_Up_Distractor.gif"",""img/Fire_Up_Distractor.gif"",""img/Fire_Up_Distractor.gif"",""img/Fire_Up_Distractor.gif"",""img/Fire_Up_Distractor.gif"",""img/Fire_Up_Distractor.gif""]","targetDown_distractorsUp"
"","","","","","html-keyboard-response","192","273901","0.0-14.0-0.0-0.89","6063da0f55279e9ff7d38e2c","6186fb1cc52d38b480598eb7","618732e6508dc878b7e50df9","null","","null","","","","","fixation","","","",""
"","","","","","visual-search-circle","193","276422","0.0-14.0-0.0-1.89","6063da0f55279e9ff7d38e2c","6186fb1cc52d38b480598eb7","618732e6508dc878b7e50df9","1509.6000000014901","","s","true","[[431,569],[597,258],[352,4],[35,159],[84,508]]","false","5","","","img/Fire_Up_Target.gif","[""img/Fire_Down_Distractor.gif"",""img/Fire_Down_Distractor.gif"",""img/Fire_Down_Distractor.gif"",""img/Fire_Down_Distractor.gif"",""img/Fire_Down_Distractor.gif"",""img/Fire_Down_Distractor.gif"",""img/Fire_Down_Distractor.gif"",""img/Fire_Down_Distractor.gif"",""img/Fire_Down_Distractor.gif"",""img/Fire_Down_Distractor.gif"",""img/Fire_Down_Distractor.gif"",""img/Fire_Down_Distractor.gif""]","targetUp_distractorsDown"
"","","","","","html-keyboard-response","194","276424","0.0-14.0-0.0-0.90","6063da0f55279e9ff7d38e2c","6186fb1cc52d38b480598eb7","618732e6508dc878b7e50df9","null","","null","","","","","fixation","","","",""
"","","","","","visual-search-circle","195","278373","0.0-14.0-0.0-1.90","6063da0f55279e9ff7d38e2c","6186fb1cc52d38b480598eb7","618732e6508dc878b7e50df9","933.5","","s","true","[[21,412],[182,576],[412,578],[576,417],[578,187],[417,23],[187,21],[23,182]]","false","8","","","img/Fire_Down_Target.gif","[""img/Fire_Up_Distractor.gif"",""img/Fire_Up_Distractor.gif"",""img/Fire_Up_Distractor.gif"",""img/Fire_Up_Distractor.gif"",""img/Fire_Up_Distractor.gif"",""img/Fire_Up_Distractor.gif"",""img/Fire_Up_Distractor.gif"",""img/Fire_Up_Distractor.gif"",""img/Fire_Up_Distractor.gif"",""img/Fire_Up_Distractor.gif"",""img/Fire_Up_Distractor.gif"",""img/Fire_Up_Distractor.gif""]","targetDown_distractorsUp"
"","","","","","html-keyboard-response","196","278375","0.0-14.0-0.0-0.91","6063da0f55279e9ff7d38e2c","6186fb1cc52d38b480598eb7","618732e6508dc878b7e50df9","null","","null","","","","","fixation","","","",""
"","","","","","visual-search-circle","197","280424","0.0-14.0-0.0-1.91","6063da0f55279e9ff7d38e2c","6186fb1cc52d38b480598eb7","618732e6508dc878b7e50df9","1034.199999999255","","d","true","[[222,589],[478,541],[599,311],[495,72],[244,5],[34,159],[25,419]]","true","7","","","img/Fire_Up_Target.gif","[""img/Fire_Down_Distractor.gif"",""img/Fire_Down_Distractor.gif"",""img/Fire_Down_Distractor.gif"",""img/Fire_Down_Distractor.gif"",""img/Fire_Down_Distractor.gif"",""img/Fire_Down_Distractor.gif"",""img/Fire_Down_Distractor.gif"",""img/Fire_Down_Distractor.gif"",""img/Fire_Down_Distractor.gif"",""img/Fire_Down_Distractor.gif"",""img/Fire_Down_Distractor.gif"",""img/Fire_Down_Distractor.gif""]","targetUp_distractorsDown"
"","","","","","html-keyboard-response","198","280426","0.0-14.0-0.0-0.92","6063da0f55279e9ff7d38e2c","6186fb1cc52d38b480598eb7","618732e6508dc878b7e50df9","null","","null","","","","","fixation","","","",""
"","","","","","visual-search-circle","199","282437","0.0-14.0-0.0-1.92","6063da0f55279e9ff7d38e2c","6186fb1cc52d38b480598eb7","618732e6508dc878b7e50df9","1003.3000000007451","","d","true","[[581,402],[484,63],[132,51],[11,382],[289,599]]","true","5","","","img/Fire_Up_Target.gif","[""img/Fire_Down_Distractor.gif"",""img/Fire_Down_Distractor.gif"",""img/Fire_Down_Distractor.gif"",""img/Fire_Down_Distractor.gif"",""img/Fire_Down_Distractor.gif"",""img/Fire_Down_Distractor.gif"",""img/Fire_Down_Distractor.gif"",""img/Fire_Down_Distractor.gif"",""img/Fire_Down_Distractor.gif"",""img/Fire_Down_Distractor.gif"",""img/Fire_Down_Distractor.gif"",""img/Fire_Down_Distractor.gif""]","targetUp_distractorsDown"
"","","","","","html-keyboard-response","200","282439","0.0-14.0-0.0-0.93","6063da0f55279e9ff7d38e2c","6186fb1cc52d38b480598eb7","618732e6508dc878b7e50df9","null","","null","","","","","fixation","","","",""
"","","","","","visual-search-circle","201","285005","0.0-14.0-0.0-1.93","6063da0f55279e9ff7d38e2c","6186fb1cc52d38b480598eb7","618732e6508dc878b7e50df9","1552.699999999255","","s","false","[[545,127],[318,0],[77,98],[3,348],[153,561],[413,577],[587,384]]","true","7","","","img/Fire_Up_Target.gif","[""img/Fire_Down_Distractor.gif"",""img/Fire_Down_Distractor.gif"",""img/Fire_Down_Distractor.gif"",""img/Fire_Down_Distractor.gif"",""img/Fire_Down_Distractor.gif"",""img/Fire_Down_Distractor.gif"",""img/Fire_Down_Distractor.gif"",""img/Fire_Down_Distractor.gif"",""img/Fire_Down_Distractor.gif"",""img/Fire_Down_Distractor.gif"",""img/Fire_Down_Distractor.gif"",""img/Fire_Down_Distractor.gif""]","targetUp_distractorsDown"
"","","","","","html-keyboard-response","202","285007","0.0-14.0-0.0-0.94","6063da0f55279e9ff7d38e2c","6186fb1cc52d38b480598eb7","618732e6508dc878b7e50df9","null","","null","","","","","fixation","","","",""
"","","","","","visual-search-circle","203","287041","0.0-14.0-0.0-1.94","6063da0f55279e9ff7d38e2c","6186fb1cc52d38b480598eb7","618732e6508dc878b7e50df9","1024","","d","true","[[11,382],[184,577],[444,562],[595,350],[523,100],[283,0],[55,126]]","true","7","","","img/Fire_Down_Target.gif","[""img/Fire_Up_Distractor.gif"",""img/Fire_Up_Distractor.gif"",""img/Fire_Up_Distractor.gif"",""img/Fire_Up_Distractor.gif"",""img/Fire_Up_Distractor.gif"",""img/Fire_Up_Distractor.gif"",""img/Fire_Up_Distractor.gif"",""img/Fire_Up_Distractor.gif"",""img/Fire_Up_Distractor.gif"",""img/Fire_Up_Distractor.gif"",""img/Fire_Up_Distractor.gif"",""img/Fire_Up_Distractor.gif""]","targetDown_distractorsUp"
"","","","","","html-keyboard-response","204","287043","0.0-14.0-0.0-0.95","6063da0f55279e9ff7d38e2c","6186fb1cc52d38b480598eb7","618732e6508dc878b7e50df9","null","","null","","","","","fixation","","","",""
"","","","","","visual-search-circle","205","289199","0.0-14.0-0.0-1.95","6063da0f55279e9ff7d38e2c","6186fb1cc52d38b480598eb7","618732e6508dc878b7e50df9","1148.699999999255","","s","true","[[589,377],[377,10],[10,222],[222,589]]","false","4","","","img/Fire_Down_Target.gif","[""img/Fire_Up_Distractor.gif"",""img/Fire_Up_Distractor.gif"",""img/Fire_Up_Distractor.gif"",""img/Fire_Up_Distractor.gif"",""img/Fire_Up_Distractor.gif"",""img/Fire_Up_Distractor.gif"",""img/Fire_Up_Distractor.gif"",""img/Fire_Up_Distractor.gif"",""img/Fire_Up_Distractor.gif"",""img/Fire_Up_Distractor.gif"",""img/Fire_Up_Distractor.gif"",""img/Fire_Up_Distractor.gif""]","targetDown_distractorsUp"
"","","","","","html-keyboard-response","206","289201","0.0-14.0-0.0-0.96","6063da0f55279e9ff7d38e2c","6186fb1cc52d38b480598eb7","618732e6508dc878b7e50df9","null","","null","","","","","fixation","","","",""
"","","","","","visual-search-circle","207","291080","0.0-14.0-0.0-1.96","6063da0f55279e9ff7d38e2c","6186fb1cc52d38b480598eb7","618732e6508dc878b7e50df9","868.5","","d","true","[[598,273],[273,1],[1,326],[326,598]]","true","4","","","img/Fire_Down_Target.gif","[""img/Fire_Up_Distractor.gif"",""img/Fire_Up_Distractor.gif"",""img/Fire_Up_Distractor.gif"",""img/Fire_Up_Distractor.gif"",""img/Fire_Up_Distractor.gif"",""img/Fire_Up_Distractor.gif"",""img/Fire_Up_Distractor.gif"",""img/Fire_Up_Distractor.gif"",""img/Fire_Up_Distractor.gif"",""img/Fire_Up_Distractor.gif"",""img/Fire_Up_Distractor.gif"",""img/Fire_Up_Distractor.gif""]","targetDown_distractorsUp"
"","","","","","html-keyboard-response","208","291082","0.0-14.0-0.0-0.97","6063da0f55279e9ff7d38e2c","6186fb1cc52d38b480598eb7","618732e6508dc878b7e50df9","null","","null","","","","","fixation","","","",""
"","","","","","visual-search-circle","209","293019","0.0-14.0-0.0-1.97","6063da0f55279e9ff7d38e2c","6186fb1cc52d38b480598eb7","618732e6508dc878b7e50df9","924.1999999992549","","s","true","[[500,522],[593,237],[392,14],[99,77],[6,362],[207,585]]","false","6","","","img/Fire_Down_Target.gif","[""img/Fire_Up_Distractor.gif"",""img/Fire_Up_Distractor.gif"",""img/Fire_Up_Distractor.gif"",""img/Fire_Up_Distractor.gif"",""img/Fire_Up_Distractor.gif"",""img/Fire_Up_Distractor.gif"",""img/Fire_Up_Distractor.gif"",""img/Fire_Up_Distractor.gif"",""img/Fire_Up_Distractor.gif"",""img/Fire_Up_Distractor.gif"",""img/Fire_Up_Distractor.gif"",""img/Fire_Up_Distractor.gif""]","targetDown_distractorsUp"
"","","","","","html-keyboard-response","210","293022","0.0-14.0-0.0-0.98","6063da0f55279e9ff7d38e2c","6186fb1cc52d38b480598eb7","618732e6508dc878b7e50df9","null","","null","","","","","fixation","","","",""
"","","","","","visual-search-circle","211","295400","0.0-14.0-0.0-1.98","6063da0f55279e9ff7d38e2c","6186fb1cc52d38b480598eb7","618732e6508dc878b7e50df9","1363","","s","true","[[258,2],[21,187],[63,484],[341,597],[578,412],[536,115]]","false","6","","","img/Fire_Up_Target.gif","[""img/Fire_Down_Distractor.gif"",""img/Fire_Down_Distractor.gif"",""img/Fire_Down_Distractor.gif"",""img/Fire_Down_Distractor.gif"",""img/Fire_Down_Distractor.gif"",""img/Fire_Down_Distractor.gif"",""img/Fire_Down_Distractor.gif"",""img/Fire_Down_Distractor.gif"",""img/Fire_Down_Distractor.gif"",""img/Fire_Down_Distractor.gif"",""img/Fire_Down_Distractor.gif"",""img/Fire_Down_Distractor.gif""]","targetUp_distractorsDown"
"","","","","","html-keyboard-response","212","297148","0.0-14.0-0.0-0.99","6063da0f55279e9ff7d38e2c","6186fb1cc52d38b480598eb7","618732e6508dc878b7e50df9","1747.800000000745","Wow! You've completed 100 out of 120 trials! </p> <p>  </p><p> Take a quick break, then press any key when you're ready to continue."," ","","","","","fixation","","","",""
"","","","","","visual-search-circle","213","299020","0.0-14.0-0.0-1.99","6063da0f55279e9ff7d38e2c","6186fb1cc52d38b480598eb7","618732e6508dc878b7e50df9","856.4000000022352","","d","true","[[377,589],[574,419],[565,159],[355,5],[104,72],[0,311],[121,541]]","true","7","","","img/Fire_Down_Target.gif","[""img/Fire_Up_Distractor.gif"",""img/Fire_Up_Distractor.gif"",""img/Fire_Up_Distractor.gif"",""img/Fire_Up_Distractor.gif"",""img/Fire_Up_Distractor.gif"",""img/Fire_Up_Distractor.gif"",""img/Fire_Up_Distractor.gif"",""img/Fire_Up_Distractor.gif"",""img/Fire_Up_Distractor.gif"",""img/Fire_Up_Distractor.gif"",""img/Fire_Up_Distractor.gif"",""img/Fire_Up_Distractor.gif""]","targetDown_distractorsUp"
"","","","","","html-keyboard-response","214","299023","0.0-14.0-0.0-0.100","6063da0f55279e9ff7d38e2c","6186fb1cc52d38b480598eb7","618732e6508dc878b7e50df9","null","","null","","","","","fixation","","","",""
"","","","","","visual-search-circle","215","301252","0.0-14.0-0.0-1.100","6063da0f55279e9ff7d38e2c","6186fb1cc52d38b480598eb7","618732e6508dc878b7e50df9","1219.699999999255","","s","true","[[458,554],[554,141],[141,45],[45,458]]","false","4","","","img/Fire_Up_Target.gif","[""img/Fire_Down_Distractor.gif"",""img/Fire_Down_Distractor.gif"",""img/Fire_Down_Distractor.gif"",""img/Fire_Down_Distractor.gif"",""img/Fire_Down_Distractor.gif"",""img/Fire_Down_Distractor.gif"",""img/Fire_Down_Distractor.gif"",""img/Fire_Down_Distractor.gif"",""img/Fire_Down_Distractor.gif"",""img/Fire_Down_Distractor.gif"",""img/Fire_Down_Distractor.gif"",""img/Fire_Down_Distractor.gif""]","targetUp_distractorsDown"
"","","","","","html-keyboard-response","216","301255","0.0-14.0-0.0-0.101","6063da0f55279e9ff7d38e2c","6186fb1cc52d38b480598eb7","618732e6508dc878b7e50df9","null","","null","","","","","fixation","","","",""
"","","","","","visual-search-circle","217","303135","0.0-14.0-0.0-1.101","6063da0f55279e9ff7d38e2c","6186fb1cc52d38b480598eb7","618732e6508dc878b7e50df9","869.5","","d","true","[[508,515],[598,271],[464,48],[205,15],[18,195],[43,455],[261,597]]","true","7","","","img/Fire_Down_Target.gif","[""img/Fire_Up_Distractor.gif"",""img/Fire_Up_Distractor.gif"",""img/Fire_Up_Distractor.gif"",""img/Fire_Up_Distractor.gif"",""img/Fire_Up_Distractor.gif"",""img/Fire_Up_Distractor.gif"",""img/Fire_Up_Distractor.gif"",""img/Fire_Up_Distractor.gif"",""img/Fire_Up_Distractor.gif"",""img/Fire_Up_Distractor.gif"",""img/Fire_Up_Distractor.gif"",""img/Fire_Up_Distractor.gif""]","targetDown_distractorsUp"
"","","","","","html-keyboard-response","218","303137","0.0-14.0-0.0-0.102","6063da0f55279e9ff7d38e2c","6186fb1cc52d38b480598eb7","618732e6508dc878b7e50df9","null","","null","","","","","fixation","","","",""
"","","","","","visual-search-circle","219","305200","0.0-14.0-0.0-1.102","6063da0f55279e9ff7d38e2c","6186fb1cc52d38b480598eb7","618732e6508dc878b7e50df9","1048.3999999985099","","s","true","[[357,594],[583,397],[526,103],[242,5],[16,202],[73,496]]","false","6","","","img/Fire_Up_Target.gif","[""img/Fire_Down_Distractor.gif"",""img/Fire_Down_Distractor.gif"",""img/Fire_Down_Distractor.gif"",""img/Fire_Down_Distractor.gif"",""img/Fire_Down_Distractor.gif"",""img/Fire_Down_Distractor.gif"",""img/Fire_Down_Distractor.gif"",""img/Fire_Down_Distractor.gif"",""img/Fire_Down_Distractor.gif"",""img/Fire_Down_Distractor.gif"",""img/Fire_Down_Distractor.gif"",""img/Fire_Down_Distractor.gif""]","targetUp_distractorsDown"
"","","","","","html-keyboard-response","220","305203","0.0-14.0-0.0-0.103","6063da0f55279e9ff7d38e2c","6186fb1cc52d38b480598eb7","618732e6508dc878b7e50df9","null","","null","","","","","fixation","","","",""
"","","","","","visual-search-circle","221","307344","0.0-14.0-0.0-1.103","6063da0f55279e9ff7d38e2c","6186fb1cc52d38b480598eb7","618732e6508dc878b7e50df9","1130.4000000022352","","d","true","[[458,554],[599,289],[440,35],[141,45],[0,310],[159,564]]","true","6","","","img/Fire_Up_Target.gif","[""img/Fire_Down_Distractor.gif"",""img/Fire_Down_Distractor.gif"",""img/Fire_Down_Distractor.gif"",""img/Fire_Down_Distractor.gif"",""img/Fire_Down_Distractor.gif"",""img/Fire_Down_Distractor.gif"",""img/Fire_Down_Distractor.gif"",""img/Fire_Down_Distractor.gif"",""img/Fire_Down_Distractor.gif"",""img/Fire_Down_Distractor.gif"",""img/Fire_Down_Distractor.gif"",""img/Fire_Down_Distractor.gif""]","targetUp_distractorsDown"
