"success","timeout","failed_images","failed_audio","failed_video","trial_type","trial_index","time_elapsed","internal_node_id","subject_id","study_id","session_id","rt","stimulus","response","correct","locations","target_present","set_size","task","correct_response","target","foilCM","searchCondition"
"true","false","[]","[]","[]","preload","0","29572","0.0-0.0","60f36509e33b5a8da6a56bd7","6186fb1cc52d38b480598eb7","6187349fb60f23d79ed08ff8","","","","","","","","","","","",""
"true","","","","","fullscreen","1","65731","0.0-1.0","60f36509e33b5a8da6a56bd7","6186fb1cc52d38b480598eb7","6187349fb60f23d79ed08ff8","","","","","","","","","","","",""
"","","","","","html-keyboard-response","2","69942","0.0-2.0","60f36509e33b5a8da6a56bd7","6186fb1cc52d38b480598eb7","6187349fb60f23d79ed08ff8","4209.800000071526","What a beautiful Saturday to do some awesome science! </p> <p>  </p><p> </p>
    By completing this survey or questionnaire, you are consenting to be in this research study. </p>
    Your participation is voluntary and you can stop at any time.
    <p> [Press any key to continue.] </p>
    
    "," ","","","","","","","","",""
"","","","","","video-keyboard-response","3","171396","0.0-3.0","60f36509e33b5a8da6a56bd7","6186fb1cc52d38b480598eb7","6187349fb60f23d79ed08ff8","101444.80000007153","[""video/TaskInstructions.mp4""]","enter","","","","","","","","",""
"","","","","","html-keyboard-response","4","175587","0.0-4.0","60f36509e33b5a8da6a56bd7","6186fb1cc52d38b480598eb7","6187349fb60f23d79ed08ff8","4189.399999976158","
    <p>First, we're going to do a few practice trials to make sure you understand the task. You will recieve feedback on each trial. </p>

    <p>[Press any key to begin the familiarization phase.]</p>
    ","d","","","","","","","","",""
"","","","","","visual-search-circle","5","218123","0.0-5.0-0.0","60f36509e33b5a8da6a56bd7","6186fb1cc52d38b480598eb7","6187349fb60f23d79ed08ff8","41461.300000071526","","d","true","[[268,1],[1,331],[331,598],[598,268]]","true","4","training","d","","",""
"","","","","","html-keyboard-response","6","223007","0.0-6.0","60f36509e33b5a8da6a56bd7","6186fb1cc52d38b480598eb7","6187349fb60f23d79ed08ff8","4882.699999928474"," <div style='float: center; '><img src='img/feedbackRight.png'></img> </div> "," ","","","","","","","","",""
"","","","","","visual-search-circle","7","225983","0.0-7.0-0.0","60f36509e33b5a8da6a56bd7","6186fb1cc52d38b480598eb7","6187349fb60f23d79ed08ff8","1961.1000000238419","","s","true","[[227,591],[591,372],[372,8],[8,227]]","false","4","training","s","","",""
"","","","","","html-keyboard-response","8","232655","0.0-8.0","60f36509e33b5a8da6a56bd7","6186fb1cc52d38b480598eb7","6187349fb60f23d79ed08ff8","6670.200000047684"," <div style='float: center; '><img src='img/feedbackRight.png'></img> </div> "," ","","","","","","","","",""
"","","","","","visual-search-circle","9","235110","0.0-9.0-0.0","60f36509e33b5a8da6a56bd7","6186fb1cc52d38b480598eb7","6187349fb60f23d79ed08ff8","1435.1999999284744","","s","true","[[123,57],[1,331],[177,574],[476,542],[598,268],[422,25]]","false","6","training","s","","",""
"","","","","","html-keyboard-response","10","240491","0.0-10.0","60f36509e33b5a8da6a56bd7","6186fb1cc52d38b480598eb7","6187349fb60f23d79ed08ff8","5380"," <div style='float: center; '><img src='img/feedbackRight.png'></img> </div> "," ","","","","","","","","",""
"","","","","","visual-search-circle","11","242928","0.0-11.0-0.0","60f36509e33b5a8da6a56bd7","6186fb1cc52d38b480598eb7","6187349fb60f23d79ed08ff8","1419.3999999761581","","d","true","[[392,585],[567,436],[585,207],[436,32],[207,14],[32,163],[14,392],[163,567]]","true","8","training","d","","",""
"","","","","","html-keyboard-response","12","249033","0.0-12.0","60f36509e33b5a8da6a56bd7","6186fb1cc52d38b480598eb7","6187349fb60f23d79ed08ff8","6104.100000023842"," <div style='float: center; '><img src='img/feedbackRight.png'></img> </div> "," ","","","","","","","","",""
"","","","","","video-keyboard-response","13","253617","0.0-13.0","60f36509e33b5a8da6a56bd7","6186fb1cc52d38b480598eb7","6187349fb60f23d79ed08ff8","4582.400000095367","[""video/endTraining.mp4""]"," ","","","","","","","","",""
"","","","","","html-keyboard-response","14","253621","0.0-14.0-0.0-0.0","60f36509e33b5a8da6a56bd7","6186fb1cc52d38b480598eb7","6187349fb60f23d79ed08ff8","null","","null","","","","","fixation","","","",""
"","","","","","visual-search-circle","15","257297","0.0-14.0-0.0-1.0","60f36509e33b5a8da6a56bd7","6186fb1cc52d38b480598eb7","6187349fb60f23d79ed08ff8","2658.2999999523163","","s","true","[[387,586],[578,410],[560,150],[345,3],[96,79],[0,321],[130,547]]","false","7","","","img/Fire_Up_Target.gif","[""img/Fire_Down_Distractor.gif"",""img/Fire_Down_Distractor.gif"",""img/Fire_Down_Distractor.gif"",""img/Fire_Down_Distractor.gif"",""img/Fire_Down_Distractor.gif"",""img/Fire_Down_Distractor.gif"",""img/Fire_Down_Distractor.gif"",""img/Fire_Down_Distractor.gif"",""img/Fire_Down_Distractor.gif"",""img/Fire_Down_Distractor.gif"",""img/Fire_Down_Distractor.gif"",""img/Fire_Down_Distractor.gif""]","targetUp_distractorsDown"
"","","","","","html-keyboard-response","16","257300","0.0-14.0-0.0-0.1","60f36509e33b5a8da6a56bd7","6186fb1cc52d38b480598eb7","6187349fb60f23d79ed08ff8","null","","null","","","","","fixation","","","",""
"","","","","","visual-search-circle","17","260001","0.0-14.0-0.0-1.1","60f36509e33b5a8da6a56bd7","6186fb1cc52d38b480598eb7","6187349fb60f23d79ed08ff8","1681.8000000715256","","s","false","[[5,242],[154,562],[504,519],[571,173],[263,2]]","true","5","","","img/Fire_Down_Target.gif","[""img/Fire_Up_Distractor.gif"",""img/Fire_Up_Distractor.gif"",""img/Fire_Up_Distractor.gif"",""img/Fire_Up_Distractor.gif"",""img/Fire_Up_Distractor.gif"",""img/Fire_Up_Distractor.gif"",""img/Fire_Up_Distractor.gif"",""img/Fire_Up_Distractor.gif"",""img/Fire_Up_Distractor.gif"",""img/Fire_Up_Distractor.gif"",""img/Fire_Up_Distractor.gif"",""img/Fire_Up_Distractor.gif""]","targetDown_distractorsUp"
"","","","","","html-keyboard-response","18","260005","0.0-14.0-0.0-0.2","60f36509e33b5a8da6a56bd7","6186fb1cc52d38b480598eb7","6187349fb60f23d79ed08ff8","null","","null","","","","","fixation","","","",""
"","","","","","visual-search-circle","19","262167","0.0-14.0-0.0-1.2","60f36509e33b5a8da6a56bd7","6186fb1cc52d38b480598eb7","6187349fb60f23d79ed08ff8","1150.8999999761581","","d","true","[[500,77],[150,40],[6,362],[268,598],[574,422]]","true","5","","","img/Fire_Down_Target.gif","[""img/Fire_Up_Distractor.gif"",""img/Fire_Up_Distractor.gif"",""img/Fire_Up_Distractor.gif"",""img/Fire_Up_Distractor.gif"",""img/Fire_Up_Distractor.gif"",""img/Fire_Up_Distractor.gif"",""img/Fire_Up_Distractor.gif"",""img/Fire_Up_Distractor.gif"",""img/Fire_Up_Distractor.gif"",""img/Fire_Up_Distractor.gif"",""img/Fire_Up_Distractor.gif"",""img/Fire_Up_Distractor.gif""]","targetDown_distractorsUp"
"","","","","","html-keyboard-response","20","262172","0.0-14.0-0.0-0.3","60f36509e33b5a8da6a56bd7","6186fb1cc52d38b480598eb7","6187349fb60f23d79ed08ff8","null","","null","","","","","fixation","","","",""
"","","","","","visual-search-circle","21","264663","0.0-14.0-0.0-1.3","60f36509e33b5a8da6a56bd7","6186fb1cc52d38b480598eb7","6187349fb60f23d79ed08ff8","1483.2999999523163","","d","true","[[0,320],[320,599],[599,279],[279,0]]","true","4","","","img/Fire_Down_Target.gif","[""img/Fire_Up_Distractor.gif"",""img/Fire_Up_Distractor.gif"",""img/Fire_Up_Distractor.gif"",""img/Fire_Up_Distractor.gif"",""img/Fire_Up_Distractor.gif"",""img/Fire_Up_Distractor.gif"",""img/Fire_Up_Distractor.gif"",""img/Fire_Up_Distractor.gif"",""img/Fire_Up_Distractor.gif"",""img/Fire_Up_Distractor.gif"",""img/Fire_Up_Distractor.gif"",""img/Fire_Up_Distractor.gif""]","targetDown_distractorsUp"
"","","","","","html-keyboard-response","22","264671","0.0-14.0-0.0-0.4","60f36509e33b5a8da6a56bd7","6186fb1cc52d38b480598eb7","6187349fb60f23d79ed08ff8","null","","null","","","","","fixation","","","",""
"","","","","","visual-search-circle","23","268628","0.0-14.0-0.0-1.4","60f36509e33b5a8da6a56bd7","6186fb1cc52d38b480598eb7","6187349fb60f23d79ed08ff8","2936.100000023842","","s","true","[[397,16],[139,46],[1,267],[88,513],[335,597],[554,458],[582,199]]","false","7","","","img/Fire_Down_Target.gif","[""img/Fire_Up_Distractor.gif"",""img/Fire_Up_Distractor.gif"",""img/Fire_Up_Distractor.gif"",""img/Fire_Up_Distractor.gif"",""img/Fire_Up_Distractor.gif"",""img/Fire_Up_Distractor.gif"",""img/Fire_Up_Distractor.gif"",""img/Fire_Up_Distractor.gif"",""img/Fire_Up_Distractor.gif"",""img/Fire_Up_Distractor.gif"",""img/Fire_Up_Distractor.gif"",""img/Fire_Up_Distractor.gif""]","targetDown_distractorsUp"
"","","","","","html-keyboard-response","24","268635","0.0-14.0-0.0-0.5","60f36509e33b5a8da6a56bd7","6186fb1cc52d38b480598eb7","6187349fb60f23d79ed08ff8","null","","null","","","","","fixation","","","",""
"","","","","","visual-search-circle","25","270883","0.0-14.0-0.0-1.5","60f36509e33b5a8da6a56bd7","6186fb1cc52d38b480598eb7","6187349fb60f23d79ed08ff8","1233.5","","d","true","[[187,578],[529,492],[554,141],[227,8],[0,279]]","true","5","","","img/Fire_Down_Target.gif","[""img/Fire_Up_Distractor.gif"",""img/Fire_Up_Distractor.gif"",""img/Fire_Up_Distractor.gif"",""img/Fire_Up_Distractor.gif"",""img/Fire_Up_Distractor.gif"",""img/Fire_Up_Distractor.gif"",""img/Fire_Up_Distractor.gif"",""img/Fire_Up_Distractor.gif"",""img/Fire_Up_Distractor.gif"",""img/Fire_Up_Distractor.gif"",""img/Fire_Up_Distractor.gif"",""img/Fire_Up_Distractor.gif""]","targetDown_distractorsUp"
"","","","","","html-keyboard-response","26","270886","0.0-14.0-0.0-0.6","60f36509e33b5a8da6a56bd7","6186fb1cc52d38b480598eb7","6187349fb60f23d79ed08ff8","null","","null","","","","","fixation","","","",""
"","","","","","visual-search-circle","27","273283","0.0-14.0-0.0-1.6","60f36509e33b5a8da6a56bd7","6186fb1cc52d38b480598eb7","6187349fb60f23d79ed08ff8","1375.5","","s","true","[[7,367],[141,554],[367,592],[554,458],[592,232],[458,45],[232,7],[45,141]]","false","8","","","img/Fire_Down_Target.gif","[""img/Fire_Up_Distractor.gif"",""img/Fire_Up_Distractor.gif"",""img/Fire_Up_Distractor.gif"",""img/Fire_Up_Distractor.gif"",""img/Fire_Up_Distractor.gif"",""img/Fire_Up_Distractor.gif"",""img/Fire_Up_Distractor.gif"",""img/Fire_Up_Distractor.gif"",""img/Fire_Up_Distractor.gif"",""img/Fire_Up_Distractor.gif"",""img/Fire_Up_Distractor.gif"",""img/Fire_Up_Distractor.gif""]","targetDown_distractorsUp"
"","","","","","html-keyboard-response","28","273285","0.0-14.0-0.0-0.7","60f36509e33b5a8da6a56bd7","6186fb1cc52d38b480598eb7","6187349fb60f23d79ed08ff8","null","","null","","","","","fixation","","","",""
"","","","","","visual-search-circle","29","275454","0.0-14.0-0.0-1.7","60f36509e33b5a8da6a56bd7","6186fb1cc52d38b480598eb7","6187349fb60f23d79ed08ff8","1153.2000000476837","","d","true","[[372,591],[557,454],[591,227],[454,42],[227,8],[42,145],[8,372],[145,557]]","true","8","","","img/Fire_Down_Target.gif","[""img/Fire_Up_Distractor.gif"",""img/Fire_Up_Distractor.gif"",""img/Fire_Up_Distractor.gif"",""img/Fire_Up_Distractor.gif"",""img/Fire_Up_Distractor.gif"",""img/Fire_Up_Distractor.gif"",""img/Fire_Up_Distractor.gif"",""img/Fire_Up_Distractor.gif"",""img/Fire_Up_Distractor.gif"",""img/Fire_Up_Distractor.gif"",""img/Fire_Up_Distractor.gif"",""img/Fire_Up_Distractor.gif""]","targetDown_distractorsUp"
"","","","","","html-keyboard-response","30","275457","0.0-14.0-0.0-0.8","60f36509e33b5a8da6a56bd7","6186fb1cc52d38b480598eb7","6187349fb60f23d79ed08ff8","null","","null","","","","","fixation","","","",""
"","","","","","visual-search-circle","31","278036","0.0-14.0-0.0-1.8","60f36509e33b5a8da6a56bd7","6186fb1cc52d38b480598eb7","6187349fb60f23d79ed08ff8","1570.5","","d","true","[[331,598],[593,362],[449,40],[99,77],[25,422]]","true","5","","","img/Fire_Down_Target.gif","[""img/Fire_Up_Distractor.gif"",""img/Fire_Up_Distractor.gif"",""img/Fire_Up_Distractor.gif"",""img/Fire_Up_Distractor.gif"",""img/Fire_Up_Distractor.gif"",""img/Fire_Up_Distractor.gif"",""img/Fire_Up_Distractor.gif"",""img/Fire_Up_Distractor.gif"",""img/Fire_Up_Distractor.gif"",""img/Fire_Up_Distractor.gif"",""img/Fire_Up_Distractor.gif"",""img/Fire_Up_Distractor.gif""]","targetDown_distractorsUp"
"","","","","","html-keyboard-response","32","278044","0.0-14.0-0.0-0.9","60f36509e33b5a8da6a56bd7","6186fb1cc52d38b480598eb7","6187349fb60f23d79ed08ff8","null","","null","","","","","fixation","","","",""
"","","","","","visual-search-circle","33","280370","0.0-14.0-0.0-1.9","60f36509e33b5a8da6a56bd7","6186fb1cc52d38b480598eb7","6187349fb60f23d79ed08ff8","1304.2000000476837","","s","true","[[197,581],[426,571],[581,402],[571,173],[402,18],[173,28],[18,197],[28,426]]","false","8","","","img/Fire_Down_Target.gif","[""img/Fire_Up_Distractor.gif"",""img/Fire_Up_Distractor.gif"",""img/Fire_Up_Distractor.gif"",""img/Fire_Up_Distractor.gif"",""img/Fire_Up_Distractor.gif"",""img/Fire_Up_Distractor.gif"",""img/Fire_Up_Distractor.gif"",""img/Fire_Up_Distractor.gif"",""img/Fire_Up_Distractor.gif"",""img/Fire_Up_Distractor.gif"",""img/Fire_Up_Distractor.gif"",""img/Fire_Up_Distractor.gif""]","targetDown_distractorsUp"
"","","","","","html-keyboard-response","34","280372","0.0-14.0-0.0-0.10","60f36509e33b5a8da6a56bd7","6186fb1cc52d38b480598eb7","6187349fb60f23d79ed08ff8","null","","null","","","","","fixation","","","",""
"","","","","","visual-search-circle","35","284880","0.0-14.0-0.0-1.10","60f36509e33b5a8da6a56bd7","6186fb1cc52d38b480598eb7","6187349fb60f23d79ed08ff8","3492.899999976158","","s","true","[[346,3],[3,253],[253,596],[596,346]]","false","4","","","img/Fire_Up_Target.gif","[""img/Fire_Down_Distractor.gif"",""img/Fire_Down_Distractor.gif"",""img/Fire_Down_Distractor.gif"",""img/Fire_Down_Distractor.gif"",""img/Fire_Down_Distractor.gif"",""img/Fire_Down_Distractor.gif"",""img/Fire_Down_Distractor.gif"",""img/Fire_Down_Distractor.gif"",""img/Fire_Down_Distractor.gif"",""img/Fire_Down_Distractor.gif"",""img/Fire_Down_Distractor.gif"",""img/Fire_Down_Distractor.gif""]","targetUp_distractorsDown"
"","","","","","html-keyboard-response","36","284883","0.0-14.0-0.0-0.11","60f36509e33b5a8da6a56bd7","6186fb1cc52d38b480598eb7","6187349fb60f23d79ed08ff8","null","","null","","","","","fixation","","","",""
"","","","","","visual-search-circle","37","287561","0.0-14.0-0.0-1.11","60f36509e33b5a8da6a56bd7","6186fb1cc52d38b480598eb7","6187349fb60f23d79ed08ff8","1663","","d","true","[[299,600],[512,512],[600,300],[512,87],[300,0],[87,87],[0,299],[87,512]]","true","8","","","img/Fire_Up_Target.gif","[""img/Fire_Down_Distractor.gif"",""img/Fire_Down_Distractor.gif"",""img/Fire_Down_Distractor.gif"",""img/Fire_Down_Distractor.gif"",""img/Fire_Down_Distractor.gif"",""img/Fire_Down_Distractor.gif"",""img/Fire_Down_Distractor.gif"",""img/Fire_Down_Distractor.gif"",""img/Fire_Down_Distractor.gif"",""img/Fire_Down_Distractor.gif"",""img/Fire_Down_Distractor.gif"",""img/Fire_Down_Distractor.gif""]","targetUp_distractorsDown"
"","","","","","html-keyboard-response","38","287577","0.0-14.0-0.0-0.12","60f36509e33b5a8da6a56bd7","6186fb1cc52d38b480598eb7","6187349fb60f23d79ed08ff8","null","","null","","","","","fixation","","","",""
"","","","","","visual-search-circle","39","292898","0.0-14.0-0.0-1.12","60f36509e33b5a8da6a56bd7","6186fb1cc52d38b480598eb7","6187349fb60f23d79ed08ff8","4312.5","","d","false","[[149,559],[377,589],[559,450],[589,222],[449,40],[222,10],[40,150],[10,377]]","false","8","","","img/Fire_Down_Target.gif","[""img/Fire_Up_Distractor.gif"",""img/Fire_Up_Distractor.gif"",""img/Fire_Up_Distractor.gif"",""img/Fire_Up_Distractor.gif"",""img/Fire_Up_Distractor.gif"",""img/Fire_Up_Distractor.gif"",""img/Fire_Up_Distractor.gif"",""img/Fire_Up_Distractor.gif"",""img/Fire_Up_Distractor.gif"",""img/Fire_Up_Distractor.gif"",""img/Fire_Up_Distractor.gif"",""img/Fire_Up_Distractor.gif""]","targetDown_distractorsUp"
"","","","","","html-keyboard-response","40","292899","0.0-14.0-0.0-0.13","60f36509e33b5a8da6a56bd7","6186fb1cc52d38b480598eb7","6187349fb60f23d79ed08ff8","null","","null","","","","","fixation","","","",""
"","","","","","visual-search-circle","41","295073","0.0-14.0-0.0-1.13","60f36509e33b5a8da6a56bd7","6186fb1cc52d38b480598eb7","6187349fb60f23d79ed08ff8","1154","","d","true","[[222,589],[512,512],[589,222],[377,10],[87,87],[10,377]]","true","6","","","img/Fire_Down_Target.gif","[""img/Fire_Up_Distractor.gif"",""img/Fire_Up_Distractor.gif"",""img/Fire_Up_Distractor.gif"",""img/Fire_Up_Distractor.gif"",""img/Fire_Up_Distractor.gif"",""img/Fire_Up_Distractor.gif"",""img/Fire_Up_Distractor.gif"",""img/Fire_Up_Distractor.gif"",""img/Fire_Up_Distractor.gif"",""img/Fire_Up_Distractor.gif"",""img/Fire_Up_Distractor.gif"",""img/Fire_Up_Distractor.gif""]","targetDown_distractorsUp"
"","","","","","html-keyboard-response","42","295076","0.0-14.0-0.0-0.14","60f36509e33b5a8da6a56bd7","6186fb1cc52d38b480598eb7","6187349fb60f23d79ed08ff8","null","","null","","","","","fixation","","","",""
"","","","","","visual-search-circle","43","299278","0.0-14.0-0.0-1.14","60f36509e33b5a8da6a56bd7","6186fb1cc52d38b480598eb7","6187349fb60f23d79ed08ff8","3192.2999999523163","","s","true","[[407,580],[599,284],[377,10],[48,136],[66,488]]","false","5","","","img/Fire_Down_Target.gif","[""img/Fire_Up_Distractor.gif"",""img/Fire_Up_Distractor.gif"",""img/Fire_Up_Distractor.gif"",""img/Fire_Up_Distractor.gif"",""img/Fire_Up_Distractor.gif"",""img/Fire_Up_Distractor.gif"",""img/Fire_Up_Distractor.gif"",""img/Fire_Up_Distractor.gif"",""img/Fire_Up_Distractor.gif"",""img/Fire_Up_Distractor.gif"",""img/Fire_Up_Distractor.gif"",""img/Fire_Up_Distractor.gif""]","targetDown_distractorsUp"
"","","","","","html-keyboard-response","44","299279","0.0-14.0-0.0-0.15","60f36509e33b5a8da6a56bd7","6186fb1cc52d38b480598eb7","6187349fb60f23d79ed08ff8","null","","null","","","","","fixation","","","",""
"","","","","","visual-search-circle","45","301413","0.0-14.0-0.0-1.15","60f36509e33b5a8da6a56bd7","6186fb1cc52d38b480598eb7","6187349fb60f23d79ed08ff8","1119","","d","true","[[14,392],[163,567],[392,585],[567,436],[585,207],[436,32],[207,14],[32,163]]","true","8","","","img/Fire_Down_Target.gif","[""img/Fire_Up_Distractor.gif"",""img/Fire_Up_Distractor.gif"",""img/Fire_Up_Distractor.gif"",""img/Fire_Up_Distractor.gif"",""img/Fire_Up_Distractor.gif"",""img/Fire_Up_Distractor.gif"",""img/Fire_Up_Distractor.gif"",""img/Fire_Up_Distractor.gif"",""img/Fire_Up_Distractor.gif"",""img/Fire_Up_Distractor.gif"",""img/Fire_Up_Distractor.gif"",""img/Fire_Up_Distractor.gif""]","targetDown_distractorsUp"
"","","","","","html-keyboard-response","46","301416","0.0-14.0-0.0-0.16","60f36509e33b5a8da6a56bd7","6186fb1cc52d38b480598eb7","6187349fb60f23d79ed08ff8","null","","null","","","","","fixation","","","",""
"","","","","","visual-search-circle","47","304664","0.0-14.0-0.0-1.16","60f36509e33b5a8da6a56bd7","6186fb1cc52d38b480598eb7","6187349fb60f23d79ed08ff8","2235.2999999523163","","d","true","[[586,387],[519,95],[232,7],[13,212],[80,504],[367,592]]","true","6","","","img/Fire_Up_Target.gif","[""img/Fire_Down_Distractor.gif"",""img/Fire_Down_Distractor.gif"",""img/Fire_Down_Distractor.gif"",""img/Fire_Down_Distractor.gif"",""img/Fire_Down_Distractor.gif"",""img/Fire_Down_Distractor.gif"",""img/Fire_Down_Distractor.gif"",""img/Fire_Down_Distractor.gif"",""img/Fire_Down_Distractor.gif"",""img/Fire_Down_Distractor.gif"",""img/Fire_Down_Distractor.gif"",""img/Fire_Down_Distractor.gif""]","targetUp_distractorsDown"
"","","","","","html-keyboard-response","48","304677","0.0-14.0-0.0-0.17","60f36509e33b5a8da6a56bd7","6186fb1cc52d38b480598eb7","6187349fb60f23d79ed08ff8","null","","null","","","","","fixation","","","",""
"","","","","","visual-search-circle","49","306814","0.0-14.0-0.0-1.17","60f36509e33b5a8da6a56bd7","6186fb1cc52d38b480598eb7","6187349fb60f23d79ed08ff8","1129.6000000238419","","d","false","[[426,28],[80,95],[37,445],[357,594],[597,336]]","false","5","","","img/Fire_Down_Target.gif","[""img/Fire_Up_Distractor.gif"",""img/Fire_Up_Distractor.gif"",""img/Fire_Up_Distractor.gif"",""img/Fire_Up_Distractor.gif"",""img/Fire_Up_Distractor.gif"",""img/Fire_Up_Distractor.gif"",""img/Fire_Up_Distractor.gif"",""img/Fire_Up_Distractor.gif"",""img/Fire_Up_Distractor.gif"",""img/Fire_Up_Distractor.gif"",""img/Fire_Up_Distractor.gif"",""img/Fire_Up_Distractor.gif""]","targetDown_distractorsUp"
"","","","","","html-keyboard-response","50","306817","0.0-14.0-0.0-0.18","60f36509e33b5a8da6a56bd7","6186fb1cc52d38b480598eb7","6187349fb60f23d79ed08ff8","null","","null","","","","","fixation","","","",""
"","","","","","visual-search-circle","51","309054","0.0-14.0-0.0-1.18","60f36509e33b5a8da6a56bd7","6186fb1cc52d38b480598eb7","6187349fb60f23d79ed08ff8","1224.3999999761581","","d","true","[[512,87],[222,10],[10,222],[87,512],[377,589],[589,377]]","true","6","","","img/Fire_Up_Target.gif","[""img/Fire_Down_Distractor.gif"",""img/Fire_Down_Distractor.gif"",""img/Fire_Down_Distractor.gif"",""img/Fire_Down_Distractor.gif"",""img/Fire_Down_Distractor.gif"",""img/Fire_Down_Distractor.gif"",""img/Fire_Down_Distractor.gif"",""img/Fire_Down_Distractor.gif"",""img/Fire_Down_Distractor.gif"",""img/Fire_Down_Distractor.gif"",""img/Fire_Down_Distractor.gif"",""img/Fire_Down_Distractor.gif""]","targetUp_distractorsDown"
"","","","","","html-keyboard-response","52","313150","0.0-14.0-0.0-0.19","60f36509e33b5a8da6a56bd7","6186fb1cc52d38b480598eb7","6187349fb60f23d79ed08ff8","4094.2999999523163","Wow! You've completed 20 out of 120 trials! </p> <p>  </p><p> Take a quick break, then press any key when you're ready to continue."," ","","","","","fixation","","","",""
"","","","","","visual-search-circle","53","317241","0.0-14.0-0.0-1.19","60f36509e33b5a8da6a56bd7","6186fb1cc52d38b480598eb7","6187349fb60f23d79ed08ff8","3081.9000000953674","","s","true","[[253,3],[57,123],[3,346],[123,542],[346,596],[542,476],[596,253],[476,57]]","false","8","","","img/Fire_Up_Target.gif","[""img/Fire_Down_Distractor.gif"",""img/Fire_Down_Distractor.gif"",""img/Fire_Down_Distractor.gif"",""img/Fire_Down_Distractor.gif"",""img/Fire_Down_Distractor.gif"",""img/Fire_Down_Distractor.gif"",""img/Fire_Down_Distractor.gif"",""img/Fire_Down_Distractor.gif"",""img/Fire_Down_Distractor.gif"",""img/Fire_Down_Distractor.gif"",""img/Fire_Down_Distractor.gif"",""img/Fire_Down_Distractor.gif""]","targetUp_distractorsDown"
"","","","","","html-keyboard-response","54","317257","0.0-14.0-0.0-0.20","60f36509e33b5a8da6a56bd7","6186fb1cc52d38b480598eb7","6187349fb60f23d79ed08ff8","null","","null","","","","","fixation","","","",""
"","","","","","visual-search-circle","55","321007","0.0-14.0-0.0-1.20","60f36509e33b5a8da6a56bd7","6186fb1cc52d38b480598eb7","6187349fb60f23d79ed08ff8","2738","","d","false","[[431,569],[597,258],[352,4],[35,159],[84,508]]","false","5","","","img/Fire_Down_Target.gif","[""img/Fire_Up_Distractor.gif"",""img/Fire_Up_Distractor.gif"",""img/Fire_Up_Distractor.gif"",""img/Fire_Up_Distractor.gif"",""img/Fire_Up_Distractor.gif"",""img/Fire_Up_Distractor.gif"",""img/Fire_Up_Distractor.gif"",""img/Fire_Up_Distractor.gif"",""img/Fire_Up_Distractor.gif"",""img/Fire_Up_Distractor.gif"",""img/Fire_Up_Distractor.gif"",""img/Fire_Up_Distractor.gif""]","targetDown_distractorsUp"
"","","","","","html-keyboard-response","56","321010","0.0-14.0-0.0-0.21","60f36509e33b5a8da6a56bd7","6186fb1cc52d38b480598eb7","6187349fb60f23d79ed08ff8","null","","null","","","","","fixation","","","",""
"","","","","","visual-search-circle","57","323143","0.0-14.0-0.0-1.21","60f36509e33b5a8da6a56bd7","6186fb1cc52d38b480598eb7","6187349fb60f23d79ed08ff8","1118.6999999284744","","d","false","[[227,591],[515,508],[588,217],[372,8],[84,91],[11,382]]","false","6","","","img/Fire_Up_Target.gif","[""img/Fire_Down_Distractor.gif"",""img/Fire_Down_Distractor.gif"",""img/Fire_Down_Distractor.gif"",""img/Fire_Down_Distractor.gif"",""img/Fire_Down_Distractor.gif"",""img/Fire_Down_Distractor.gif"",""img/Fire_Down_Distractor.gif"",""img/Fire_Down_Distractor.gif"",""img/Fire_Down_Distractor.gif"",""img/Fire_Down_Distractor.gif"",""img/Fire_Down_Distractor.gif"",""img/Fire_Down_Distractor.gif""]","targetUp_distractorsDown"
"","","","","","html-keyboard-response","58","323145","0.0-14.0-0.0-0.22","60f36509e33b5a8da6a56bd7","6186fb1cc52d38b480598eb7","6187349fb60f23d79ed08ff8","null","","null","","","","","fixation","","","",""
"","","","","","visual-search-circle","59","326698","0.0-14.0-0.0-1.22","60f36509e33b5a8da6a56bd7","6186fb1cc52d38b480598eb7","6187349fb60f23d79ed08ff8","2548.2999999523163","","d","false","[[599,279],[279,0],[0,320],[320,599]]","false","4","","","img/Fire_Up_Target.gif","[""img/Fire_Down_Distractor.gif"",""img/Fire_Down_Distractor.gif"",""img/Fire_Down_Distractor.gif"",""img/Fire_Down_Distractor.gif"",""img/Fire_Down_Distractor.gif"",""img/Fire_Down_Distractor.gif"",""img/Fire_Down_Distractor.gif"",""img/Fire_Down_Distractor.gif"",""img/Fire_Down_Distractor.gif"",""img/Fire_Down_Distractor.gif"",""img/Fire_Down_Distractor.gif"",""img/Fire_Down_Distractor.gif""]","targetUp_distractorsDown"
"","","","","","html-keyboard-response","60","326701","0.0-14.0-0.0-0.23","60f36509e33b5a8da6a56bd7","6186fb1cc52d38b480598eb7","6187349fb60f23d79ed08ff8","null","","null","","","","","fixation","","","",""
"","","","","","visual-search-circle","61","329004","0.0-14.0-0.0-1.23","60f36509e33b5a8da6a56bd7","6186fb1cc52d38b480598eb7","6187349fb60f23d79ed08ff8","1295.1000000238419","","d","true","[[1,326],[107,529],[326,598],[529,492],[598,273],[492,70],[273,1],[70,107]]","true","8","","","img/Fire_Up_Target.gif","[""img/Fire_Down_Distractor.gif"",""img/Fire_Down_Distractor.gif"",""img/Fire_Down_Distractor.gif"",""img/Fire_Down_Distractor.gif"",""img/Fire_Down_Distractor.gif"",""img/Fire_Down_Distractor.gif"",""img/Fire_Down_Distractor.gif"",""img/Fire_Down_Distractor.gif"",""img/Fire_Down_Distractor.gif"",""img/Fire_Down_Distractor.gif"",""img/Fire_Down_Distractor.gif"",""img/Fire_Down_Distractor.gif""]","targetUp_distractorsDown"
"","","","","","html-keyboard-response","62","329005","0.0-14.0-0.0-0.24","60f36509e33b5a8da6a56bd7","6186fb1cc52d38b480598eb7","6187349fb60f23d79ed08ff8","null","","null","","","","","fixation","","","",""
"","","","","","visual-search-circle","63","333096","0.0-14.0-0.0-1.24","60f36509e33b5a8da6a56bd7","6186fb1cc52d38b480598eb7","6187349fb60f23d79ed08ff8","3072.5999999046326","","d","false","[[362,593],[568,434],[572,173],[371,8],[116,62],[0,295],[109,531]]","false","7","","","img/Fire_Down_Target.gif","[""img/Fire_Up_Distractor.gif"",""img/Fire_Up_Distractor.gif"",""img/Fire_Up_Distractor.gif"",""img/Fire_Up_Distractor.gif"",""img/Fire_Up_Distractor.gif"",""img/Fire_Up_Distractor.gif"",""img/Fire_Up_Distractor.gif"",""img/Fire_Up_Distractor.gif"",""img/Fire_Up_Distractor.gif"",""img/Fire_Up_Distractor.gif"",""img/Fire_Up_Distractor.gif"",""img/Fire_Up_Distractor.gif""]","targetDown_distractorsUp"
"","","","","","html-keyboard-response","64","333100","0.0-14.0-0.0-0.25","60f36509e33b5a8da6a56bd7","6186fb1cc52d38b480598eb7","6187349fb60f23d79ed08ff8","null","","null","","","","","fixation","","","",""
"","","","","","visual-search-circle","65","337007","0.0-14.0-0.0-1.25","60f36509e33b5a8da6a56bd7","6186fb1cc52d38b480598eb7","6187349fb60f23d79ed08ff8","2895","","d","true","[[299,600],[534,487],[592,233],[430,29],[169,29],[7,233],[65,487]]","true","7","","","img/Fire_Up_Target.gif","[""img/Fire_Down_Distractor.gif"",""img/Fire_Down_Distractor.gif"",""img/Fire_Down_Distractor.gif"",""img/Fire_Down_Distractor.gif"",""img/Fire_Down_Distractor.gif"",""img/Fire_Down_Distractor.gif"",""img/Fire_Down_Distractor.gif"",""img/Fire_Down_Distractor.gif"",""img/Fire_Down_Distractor.gif"",""img/Fire_Down_Distractor.gif"",""img/Fire_Down_Distractor.gif"",""img/Fire_Down_Distractor.gif""]","targetUp_distractorsDown"
"","","","","","html-keyboard-response","66","337011","0.0-14.0-0.0-0.26","60f36509e33b5a8da6a56bd7","6186fb1cc52d38b480598eb7","6187349fb60f23d79ed08ff8","null","","null","","","","","fixation","","","",""
"","","","","","visual-search-circle","67","340072","0.0-14.0-0.0-1.26","60f36509e33b5a8da6a56bd7","6186fb1cc52d38b480598eb7","6187349fb60f23d79ed08ff8","2047.1000000238419","","d","false","[[599,284],[436,32],[136,48],[0,315],[163,567],[463,551]]","false","6","","","img/Fire_Down_Target.gif","[""img/Fire_Up_Distractor.gif"",""img/Fire_Up_Distractor.gif"",""img/Fire_Up_Distractor.gif"",""img/Fire_Up_Distractor.gif"",""img/Fire_Up_Distractor.gif"",""img/Fire_Up_Distractor.gif"",""img/Fire_Up_Distractor.gif"",""img/Fire_Up_Distractor.gif"",""img/Fire_Up_Distractor.gif"",""img/Fire_Up_Distractor.gif"",""img/Fire_Up_Distractor.gif"",""img/Fire_Up_Distractor.gif""]","targetDown_distractorsUp"
"","","","","","html-keyboard-response","68","340079","0.0-14.0-0.0-0.27","60f36509e33b5a8da6a56bd7","6186fb1cc52d38b480598eb7","6187349fb60f23d79ed08ff8","null","","null","","","","","fixation","","","",""
"","","","","","visual-search-circle","69","341967","0.0-14.0-0.0-1.27","60f36509e33b5a8da6a56bd7","6186fb1cc52d38b480598eb7","6187349fb60f23d79ed08ff8","880.5","","d","true","[[207,585],[465,550],[598,326],[507,83],[259,2],[42,146],[19,405]]","true","7","","","img/Fire_Down_Target.gif","[""img/Fire_Up_Distractor.gif"",""img/Fire_Up_Distractor.gif"",""img/Fire_Up_Distractor.gif"",""img/Fire_Up_Distractor.gif"",""img/Fire_Up_Distractor.gif"",""img/Fire_Up_Distractor.gif"",""img/Fire_Up_Distractor.gif"",""img/Fire_Up_Distractor.gif"",""img/Fire_Up_Distractor.gif"",""img/Fire_Up_Distractor.gif"",""img/Fire_Up_Distractor.gif"",""img/Fire_Up_Distractor.gif""]","targetDown_distractorsUp"
"","","","","","html-keyboard-response","70","341971","0.0-14.0-0.0-0.28","60f36509e33b5a8da6a56bd7","6186fb1cc52d38b480598eb7","6187349fb60f23d79ed08ff8","null","","null","","","","","fixation","","","",""
"","","","","","visual-search-circle","71","343888","0.0-14.0-0.0-1.28","60f36509e33b5a8da6a56bd7","6186fb1cc52d38b480598eb7","6187349fb60f23d79ed08ff8","908.7999999523163","","d","true","[[488,533],[533,111],[111,66],[66,488]]","true","4","","","img/Fire_Down_Target.gif","[""img/Fire_Up_Distractor.gif"",""img/Fire_Up_Distractor.gif"",""img/Fire_Up_Distractor.gif"",""img/Fire_Up_Distractor.gif"",""img/Fire_Up_Distractor.gif"",""img/Fire_Up_Distractor.gif"",""img/Fire_Up_Distractor.gif"",""img/Fire_Up_Distractor.gif"",""img/Fire_Up_Distractor.gif"",""img/Fire_Up_Distractor.gif"",""img/Fire_Up_Distractor.gif"",""img/Fire_Up_Distractor.gif""]","targetDown_distractorsUp"
"","","","","","html-keyboard-response","72","343893","0.0-14.0-0.0-0.29","60f36509e33b5a8da6a56bd7","6186fb1cc52d38b480598eb7","6187349fb60f23d79ed08ff8","null","","null","","","","","fixation","","","",""
"","","","","","visual-search-circle","73","345944","0.0-14.0-0.0-1.29","60f36509e33b5a8da6a56bd7","6186fb1cc52d38b480598eb7","6187349fb60f23d79ed08ff8","1035.1000000238419","","s","false","[[522,500],[559,150],[237,6],[1,268],[177,574]]","true","5","","","img/Fire_Down_Target.gif","[""img/Fire_Up_Distractor.gif"",""img/Fire_Up_Distractor.gif"",""img/Fire_Up_Distractor.gif"",""img/Fire_Up_Distractor.gif"",""img/Fire_Up_Distractor.gif"",""img/Fire_Up_Distractor.gif"",""img/Fire_Up_Distractor.gif"",""img/Fire_Up_Distractor.gif"",""img/Fire_Up_Distractor.gif"",""img/Fire_Up_Distractor.gif"",""img/Fire_Up_Distractor.gif"",""img/Fire_Up_Distractor.gif""]","targetDown_distractorsUp"
"","","","","","html-keyboard-response","74","345946","0.0-14.0-0.0-0.30","60f36509e33b5a8da6a56bd7","6186fb1cc52d38b480598eb7","6187349fb60f23d79ed08ff8","null","","null","","","","","fixation","","","",""
"","","","","","visual-search-circle","75","348565","0.0-14.0-0.0-1.30","60f36509e33b5a8da6a56bd7","6186fb1cc52d38b480598eb7","6187349fb60f23d79ed08ff8","1613.3999999761581","","d","true","[[111,66],[19,407],[315,599],[589,377],[463,48]]","true","5","","","img/Fire_Up_Target.gif","[""img/Fire_Down_Distractor.gif"",""img/Fire_Down_Distractor.gif"",""img/Fire_Down_Distractor.gif"",""img/Fire_Down_Distractor.gif"",""img/Fire_Down_Distractor.gif"",""img/Fire_Down_Distractor.gif"",""img/Fire_Down_Distractor.gif"",""img/Fire_Down_Distractor.gif"",""img/Fire_Down_Distractor.gif"",""img/Fire_Down_Distractor.gif"",""img/Fire_Down_Distractor.gif"",""img/Fire_Down_Distractor.gif""]","targetUp_distractorsDown"
"","","","","","html-keyboard-response","76","348583","0.0-14.0-0.0-0.31","60f36509e33b5a8da6a56bd7","6186fb1cc52d38b480598eb7","6187349fb60f23d79ed08ff8","null","","null","","","","","fixation","","","",""
"","","","","","visual-search-circle","77","350339","0.0-14.0-0.0-1.31","60f36509e33b5a8da6a56bd7","6186fb1cc52d38b480598eb7","6187349fb60f23d79ed08ff8","737.3000000715256","","d","true","[[500,522],[599,282],[472,54],[215,12],[22,186],[37,446],[250,595]]","true","7","","","img/Fire_Up_Target.gif","[""img/Fire_Down_Distractor.gif"",""img/Fire_Down_Distractor.gif"",""img/Fire_Down_Distractor.gif"",""img/Fire_Down_Distractor.gif"",""img/Fire_Down_Distractor.gif"",""img/Fire_Down_Distractor.gif"",""img/Fire_Down_Distractor.gif"",""img/Fire_Down_Distractor.gif"",""img/Fire_Down_Distractor.gif"",""img/Fire_Down_Distractor.gif"",""img/Fire_Down_Distractor.gif"",""img/Fire_Down_Distractor.gif""]","targetUp_distractorsDown"
"","","","","","html-keyboard-response","78","350342","0.0-14.0-0.0-0.32","60f36509e33b5a8da6a56bd7","6186fb1cc52d38b480598eb7","6187349fb60f23d79ed08ff8","null","","null","","","","","fixation","","","",""
"","","","","","visual-search-circle","79","352214","0.0-14.0-0.0-1.32","60f36509e33b5a8da6a56bd7","6186fb1cc52d38b480598eb7","6187349fb60f23d79ed08ff8","861.2000000476837","","d","true","[[5,242],[242,594],[594,357],[357,5]]","true","4","","","img/Fire_Down_Target.gif","[""img/Fire_Up_Distractor.gif"",""img/Fire_Up_Distractor.gif"",""img/Fire_Up_Distractor.gif"",""img/Fire_Up_Distractor.gif"",""img/Fire_Up_Distractor.gif"",""img/Fire_Up_Distractor.gif"",""img/Fire_Up_Distractor.gif"",""img/Fire_Up_Distractor.gif"",""img/Fire_Up_Distractor.gif"",""img/Fire_Up_Distractor.gif"",""img/Fire_Up_Distractor.gif"",""img/Fire_Up_Distractor.gif""]","targetDown_distractorsUp"
"","","","","","html-keyboard-response","80","352217","0.0-14.0-0.0-0.33","60f36509e33b5a8da6a56bd7","6186fb1cc52d38b480598eb7","6187349fb60f23d79ed08ff8","null","","null","","","","","fixation","","","",""
"","","","","","visual-search-circle","81","354000","0.0-14.0-0.0-1.33","60f36509e33b5a8da6a56bd7","6186fb1cc52d38b480598eb7","6187349fb60f23d79ed08ff8","766.1000000238419","","d","true","[[19,407],[253,596],[533,488],[580,192],[346,3],[66,111]]","true","6","","","img/Fire_Down_Target.gif","[""img/Fire_Up_Distractor.gif"",""img/Fire_Up_Distractor.gif"",""img/Fire_Up_Distractor.gif"",""img/Fire_Up_Distractor.gif"",""img/Fire_Up_Distractor.gif"",""img/Fire_Up_Distractor.gif"",""img/Fire_Up_Distractor.gif"",""img/Fire_Up_Distractor.gif"",""img/Fire_Up_Distractor.gif"",""img/Fire_Up_Distractor.gif"",""img/Fire_Up_Distractor.gif"",""img/Fire_Up_Distractor.gif""]","targetDown_distractorsUp"
"","","","","","html-keyboard-response","82","354002","0.0-14.0-0.0-0.34","60f36509e33b5a8da6a56bd7","6186fb1cc52d38b480598eb7","6187349fb60f23d79ed08ff8","null","","null","","","","","fixation","","","",""
"","","","","","visual-search-circle","83","356376","0.0-14.0-0.0-1.34","60f36509e33b5a8da6a56bd7","6186fb1cc52d38b480598eb7","6187349fb60f23d79ed08ff8","1366.8000000715256","","s","true","[[496,526],[599,320],[526,103],[320,0],[103,73],[0,279],[73,496],[279,599]]","false","8","","","img/Fire_Down_Target.gif","[""img/Fire_Up_Distractor.gif"",""img/Fire_Up_Distractor.gif"",""img/Fire_Up_Distractor.gif"",""img/Fire_Up_Distractor.gif"",""img/Fire_Up_Distractor.gif"",""img/Fire_Up_Distractor.gif"",""img/Fire_Up_Distractor.gif"",""img/Fire_Up_Distractor.gif"",""img/Fire_Up_Distractor.gif"",""img/Fire_Up_Distractor.gif"",""img/Fire_Up_Distractor.gif"",""img/Fire_Up_Distractor.gif""]","targetDown_distractorsUp"
"","","","","","html-keyboard-response","84","356378","0.0-14.0-0.0-0.35","60f36509e33b5a8da6a56bd7","6186fb1cc52d38b480598eb7","6187349fb60f23d79ed08ff8","null","","null","","","","","fixation","","","",""
"","","","","","visual-search-circle","85","358561","0.0-14.0-0.0-1.35","60f36509e33b5a8da6a56bd7","6186fb1cc52d38b480598eb7","6187349fb60f23d79ed08ff8","1163.6000000238419","","s","true","[[367,592],[586,387],[519,95],[232,7],[13,212],[80,504]]","false","6","","","img/Fire_Up_Target.gif","[""img/Fire_Down_Distractor.gif"",""img/Fire_Down_Distractor.gif"",""img/Fire_Down_Distractor.gif"",""img/Fire_Down_Distractor.gif"",""img/Fire_Down_Distractor.gif"",""img/Fire_Down_Distractor.gif"",""img/Fire_Down_Distractor.gif"",""img/Fire_Down_Distractor.gif"",""img/Fire_Down_Distractor.gif"",""img/Fire_Down_Distractor.gif"",""img/Fire_Down_Distractor.gif"",""img/Fire_Down_Distractor.gif""]","targetUp_distractorsDown"
"","","","","","html-keyboard-response","86","358563","0.0-14.0-0.0-0.36","60f36509e33b5a8da6a56bd7","6186fb1cc52d38b480598eb7","6187349fb60f23d79ed08ff8","null","","null","","","","","fixation","","","",""
"","","","","","visual-search-circle","87","360338","0.0-14.0-0.0-1.36","60f36509e33b5a8da6a56bd7","6186fb1cc52d38b480598eb7","6187349fb60f23d79ed08ff8","762.8999999761581","","d","true","[[0,310],[121,540],[376,589],[574,420],[565,160],[356,5],[104,72]]","true","7","","","img/Fire_Down_Target.gif","[""img/Fire_Up_Distractor.gif"",""img/Fire_Up_Distractor.gif"",""img/Fire_Up_Distractor.gif"",""img/Fire_Up_Distractor.gif"",""img/Fire_Up_Distractor.gif"",""img/Fire_Up_Distractor.gif"",""img/Fire_Up_Distractor.gif"",""img/Fire_Up_Distractor.gif"",""img/Fire_Up_Distractor.gif"",""img/Fire_Up_Distractor.gif"",""img/Fire_Up_Distractor.gif"",""img/Fire_Up_Distractor.gif""]","targetDown_distractorsUp"
"","","","","","html-keyboard-response","88","360339","0.0-14.0-0.0-0.37","60f36509e33b5a8da6a56bd7","6186fb1cc52d38b480598eb7","6187349fb60f23d79ed08ff8","null","","null","","","","","fixation","","","",""
"","","","","","visual-search-circle","89","362478","0.0-14.0-0.0-1.37","60f36509e33b5a8da6a56bd7","6186fb1cc52d38b480598eb7","6187349fb60f23d79ed08ff8","1134.5","","s","true","[[336,597],[576,417],[539,119],[263,2],[23,182],[60,480]]","false","6","","","img/Fire_Up_Target.gif","[""img/Fire_Down_Distractor.gif"",""img/Fire_Down_Distractor.gif"",""img/Fire_Down_Distractor.gif"",""img/Fire_Down_Distractor.gif"",""img/Fire_Down_Distractor.gif"",""img/Fire_Down_Distractor.gif"",""img/Fire_Down_Distractor.gif"",""img/Fire_Down_Distractor.gif"",""img/Fire_Down_Distractor.gif"",""img/Fire_Down_Distractor.gif"",""img/Fire_Down_Distractor.gif"",""img/Fire_Down_Distractor.gif""]","targetUp_distractorsDown"
"","","","","","html-keyboard-response","90","362480","0.0-14.0-0.0-0.38","60f36509e33b5a8da6a56bd7","6186fb1cc52d38b480598eb7","6187349fb60f23d79ed08ff8","null","","null","","","","","fixation","","","",""
"","","","","","visual-search-circle","91","364823","0.0-14.0-0.0-1.38","60f36509e33b5a8da6a56bd7","6186fb1cc52d38b480598eb7","6187349fb60f23d79ed08ff8","1326.4000000953674","","s","true","[[576,417],[563,157],[352,4],[102,74],[0,314],[124,543],[380,588]]","false","7","","","img/Fire_Up_Target.gif","[""img/Fire_Down_Distractor.gif"",""img/Fire_Down_Distractor.gif"",""img/Fire_Down_Distractor.gif"",""img/Fire_Down_Distractor.gif"",""img/Fire_Down_Distractor.gif"",""img/Fire_Down_Distractor.gif"",""img/Fire_Down_Distractor.gif"",""img/Fire_Down_Distractor.gif"",""img/Fire_Down_Distractor.gif"",""img/Fire_Down_Distractor.gif"",""img/Fire_Down_Distractor.gif"",""img/Fire_Down_Distractor.gif""]","targetUp_distractorsDown"
"","","","","","html-keyboard-response","92","366683","0.0-14.0-0.0-0.39","60f36509e33b5a8da6a56bd7","6186fb1cc52d38b480598eb7","6187349fb60f23d79ed08ff8","1859.5","Wow! You've completed 40 out of 120 trials! </p> <p>  </p><p> Take a quick break, then press any key when you're ready to continue."," ","","","","","fixation","","","",""
"","","","","","visual-search-circle","93","369398","0.0-14.0-0.0-1.39","60f36509e33b5a8da6a56bd7","6186fb1cc52d38b480598eb7","6187349fb60f23d79ed08ff8","1701.2000000476837","","d","true","[[484,536],[536,115],[115,63],[63,484]]","true","4","","","img/Fire_Up_Target.gif","[""img/Fire_Down_Distractor.gif"",""img/Fire_Down_Distractor.gif"",""img/Fire_Down_Distractor.gif"",""img/Fire_Down_Distractor.gif"",""img/Fire_Down_Distractor.gif"",""img/Fire_Down_Distractor.gif"",""img/Fire_Down_Distractor.gif"",""img/Fire_Down_Distractor.gif"",""img/Fire_Down_Distractor.gif"",""img/Fire_Down_Distractor.gif"",""img/Fire_Down_Distractor.gif"",""img/Fire_Down_Distractor.gif""]","targetUp_distractorsDown"
"","","","","","html-keyboard-response","94","369401","0.0-14.0-0.0-0.40","60f36509e33b5a8da6a56bd7","6186fb1cc52d38b480598eb7","6187349fb60f23d79ed08ff8","null","","null","","","","","fixation","","","",""
"","","","","","visual-search-circle","95","372079","0.0-14.0-0.0-1.40","60f36509e33b5a8da6a56bd7","6186fb1cc52d38b480598eb7","6187349fb60f23d79ed08ff8","1670.5","","d","true","[[576,417],[578,187],[417,23],[187,21],[23,182],[21,412],[182,576],[412,578]]","true","8","","","img/Fire_Down_Target.gif","[""img/Fire_Up_Distractor.gif"",""img/Fire_Up_Distractor.gif"",""img/Fire_Up_Distractor.gif"",""img/Fire_Up_Distractor.gif"",""img/Fire_Up_Distractor.gif"",""img/Fire_Up_Distractor.gif"",""img/Fire_Up_Distractor.gif"",""img/Fire_Up_Distractor.gif"",""img/Fire_Up_Distractor.gif"",""img/Fire_Up_Distractor.gif"",""img/Fire_Up_Distractor.gif"",""img/Fire_Up_Distractor.gif""]","targetDown_distractorsUp"
"","","","","","html-keyboard-response","96","372083","0.0-14.0-0.0-0.41","60f36509e33b5a8da6a56bd7","6186fb1cc52d38b480598eb7","6187349fb60f23d79ed08ff8","null","","null","","","","","fixation","","","",""
"","","","","","visual-search-circle","97","374225","0.0-14.0-0.0-1.41","60f36509e33b5a8da6a56bd7","6186fb1cc52d38b480598eb7","6187349fb60f23d79ed08ff8","1127.1000000238419","","d","false","[[23,417],[417,576],[576,182],[182,23]]","false","4","","","img/Fire_Up_Target.gif","[""img/Fire_Down_Distractor.gif"",""img/Fire_Down_Distractor.gif"",""img/Fire_Down_Distractor.gif"",""img/Fire_Down_Distractor.gif"",""img/Fire_Down_Distractor.gif"",""img/Fire_Down_Distractor.gif"",""img/Fire_Down_Distractor.gif"",""img/Fire_Down_Distractor.gif"",""img/Fire_Down_Distractor.gif"",""img/Fire_Down_Distractor.gif"",""img/Fire_Down_Distractor.gif"",""img/Fire_Down_Distractor.gif""]","targetUp_distractorsDown"
"","","","","","html-keyboard-response","98","374226","0.0-14.0-0.0-0.42","60f36509e33b5a8da6a56bd7","6186fb1cc52d38b480598eb7","6187349fb60f23d79ed08ff8","null","","null","","","","","fixation","","","",""
"","","","","","visual-search-circle","99","377371","0.0-14.0-0.0-1.42","60f36509e33b5a8da6a56bd7","6186fb1cc52d38b480598eb7","6187349fb60f23d79ed08ff8","2134.600000023842","","s","true","[[212,586],[586,387],[387,13],[13,212]]","false","4","","","img/Fire_Up_Target.gif","[""img/Fire_Down_Distractor.gif"",""img/Fire_Down_Distractor.gif"",""img/Fire_Down_Distractor.gif"",""img/Fire_Down_Distractor.gif"",""img/Fire_Down_Distractor.gif"",""img/Fire_Down_Distractor.gif"",""img/Fire_Down_Distractor.gif"",""img/Fire_Down_Distractor.gif"",""img/Fire_Down_Distractor.gif"",""img/Fire_Down_Distractor.gif"",""img/Fire_Down_Distractor.gif"",""img/Fire_Down_Distractor.gif""]","targetUp_distractorsDown"
"","","","","","html-keyboard-response","100","377374","0.0-14.0-0.0-0.43","60f36509e33b5a8da6a56bd7","6186fb1cc52d38b480598eb7","6187349fb60f23d79ed08ff8","null","","null","","","","","fixation","","","",""
"","","","","","visual-search-circle","101","379926","0.0-14.0-0.0-1.43","60f36509e33b5a8da6a56bd7","6186fb1cc52d38b480598eb7","6187349fb60f23d79ed08ff8","1531.8999999761581","","s","true","[[508,84],[294,0],[84,91],[0,305],[91,515],[305,599],[515,508],[599,294]]","false","8","","","img/Fire_Up_Target.gif","[""img/Fire_Down_Distractor.gif"",""img/Fire_Down_Distractor.gif"",""img/Fire_Down_Distractor.gif"",""img/Fire_Down_Distractor.gif"",""img/Fire_Down_Distractor.gif"",""img/Fire_Down_Distractor.gif"",""img/Fire_Down_Distractor.gif"",""img/Fire_Down_Distractor.gif"",""img/Fire_Down_Distractor.gif"",""img/Fire_Down_Distractor.gif"",""img/Fire_Down_Distractor.gif"",""img/Fire_Down_Distractor.gif""]","targetUp_distractorsDown"
"","","","","","html-keyboard-response","102","379929","0.0-14.0-0.0-0.44","60f36509e33b5a8da6a56bd7","6186fb1cc52d38b480598eb7","6187349fb60f23d79ed08ff8","null","","null","","","","","fixation","","","",""
"","","","","","visual-search-circle","103","382012","0.0-14.0-0.0-1.44","60f36509e33b5a8da6a56bd7","6186fb1cc52d38b480598eb7","6187349fb60f23d79ed08ff8","1065.2999999523163","","d","true","[[84,91],[11,382],[227,591],[515,508],[588,217],[372,8]]","true","6","","","img/Fire_Down_Target.gif","[""img/Fire_Up_Distractor.gif"",""img/Fire_Up_Distractor.gif"",""img/Fire_Up_Distractor.gif"",""img/Fire_Up_Distractor.gif"",""img/Fire_Up_Distractor.gif"",""img/Fire_Up_Distractor.gif"",""img/Fire_Up_Distractor.gif"",""img/Fire_Up_Distractor.gif"",""img/Fire_Up_Distractor.gif"",""img/Fire_Up_Distractor.gif"",""img/Fire_Up_Distractor.gif"",""img/Fire_Up_Distractor.gif""]","targetDown_distractorsUp"
"","","","","","html-keyboard-response","104","382018","0.0-14.0-0.0-0.45","60f36509e33b5a8da6a56bd7","6186fb1cc52d38b480598eb7","6187349fb60f23d79ed08ff8","null","","null","","","","","fixation","","","",""
"","","","","","visual-search-circle","105","385771","0.0-14.0-0.0-1.45","60f36509e33b5a8da6a56bd7","6186fb1cc52d38b480598eb7","6187349fb60f23d79ed08ff8","2742.600000023842","","d","true","[[580,192],[346,3],[66,111],[19,407],[253,596],[533,488]]","true","6","","","img/Fire_Down_Target.gif","[""img/Fire_Up_Distractor.gif"",""img/Fire_Up_Distractor.gif"",""img/Fire_Up_Distractor.gif"",""img/Fire_Up_Distractor.gif"",""img/Fire_Up_Distractor.gif"",""img/Fire_Up_Distractor.gif"",""img/Fire_Up_Distractor.gif"",""img/Fire_Up_Distractor.gif"",""img/Fire_Up_Distractor.gif"",""img/Fire_Up_Distractor.gif"",""img/Fire_Up_Distractor.gif"",""img/Fire_Up_Distractor.gif""]","targetDown_distractorsUp"
"","","","","","html-keyboard-response","106","385775","0.0-14.0-0.0-0.46","60f36509e33b5a8da6a56bd7","6186fb1cc52d38b480598eb7","6187349fb60f23d79ed08ff8","null","","null","","","","","fixation","","","",""
"","","","","","visual-search-circle","107","388054","0.0-14.0-0.0-1.46","60f36509e33b5a8da6a56bd7","6186fb1cc52d38b480598eb7","6187349fb60f23d79ed08ff8","1273.6999999284744","","s","true","[[5,357],[132,548],[357,594],[548,467],[594,242],[467,51],[242,5],[51,132]]","false","8","","","img/Fire_Up_Target.gif","[""img/Fire_Down_Distractor.gif"",""img/Fire_Down_Distractor.gif"",""img/Fire_Down_Distractor.gif"",""img/Fire_Down_Distractor.gif"",""img/Fire_Down_Distractor.gif"",""img/Fire_Down_Distractor.gif"",""img/Fire_Down_Distractor.gif"",""img/Fire_Down_Distractor.gif"",""img/Fire_Down_Distractor.gif"",""img/Fire_Down_Distractor.gif"",""img/Fire_Down_Distractor.gif"",""img/Fire_Down_Distractor.gif""]","targetUp_distractorsDown"
"","","","","","html-keyboard-response","108","388057","0.0-14.0-0.0-0.47","60f36509e33b5a8da6a56bd7","6186fb1cc52d38b480598eb7","6187349fb60f23d79ed08ff8","null","","null","","","","","fixation","","","",""
"","","","","","visual-search-circle","109","390089","0.0-14.0-0.0-1.47","60f36509e33b5a8da6a56bd7","6186fb1cc52d38b480598eb7","6187349fb60f23d79ed08ff8","1015.5","","s","true","[[87,87],[87,512],[512,512],[512,87]]","false","4","","","img/Fire_Down_Target.gif","[""img/Fire_Up_Distractor.gif"",""img/Fire_Up_Distractor.gif"",""img/Fire_Up_Distractor.gif"",""img/Fire_Up_Distractor.gif"",""img/Fire_Up_Distractor.gif"",""img/Fire_Up_Distractor.gif"",""img/Fire_Up_Distractor.gif"",""img/Fire_Up_Distractor.gif"",""img/Fire_Up_Distractor.gif"",""img/Fire_Up_Distractor.gif"",""img/Fire_Up_Distractor.gif"",""img/Fire_Up_Distractor.gif""]","targetDown_distractorsUp"
"","","","","","html-keyboard-response","110","390092","0.0-14.0-0.0-0.48","60f36509e33b5a8da6a56bd7","6186fb1cc52d38b480598eb7","6187349fb60f23d79ed08ff8","null","","null","","","","","fixation","","","",""
"","","","","","visual-search-circle","111","392745","0.0-14.0-0.0-1.48","60f36509e33b5a8da6a56bd7","6186fb1cc52d38b480598eb7","6187349fb60f23d79ed08ff8","1637.8000000715256","","s","true","[[480,60],[182,23],[2,263],[119,539],[417,576],[597,336]]","false","6","","","img/Fire_Up_Target.gif","[""img/Fire_Down_Distractor.gif"",""img/Fire_Down_Distractor.gif"",""img/Fire_Down_Distractor.gif"",""img/Fire_Down_Distractor.gif"",""img/Fire_Down_Distractor.gif"",""img/Fire_Down_Distractor.gif"",""img/Fire_Down_Distractor.gif"",""img/Fire_Down_Distractor.gif"",""img/Fire_Down_Distractor.gif"",""img/Fire_Down_Distractor.gif"",""img/Fire_Down_Distractor.gif"",""img/Fire_Down_Distractor.gif""]","targetUp_distractorsDown"
"","","","","","html-keyboard-response","112","392748","0.0-14.0-0.0-0.49","60f36509e33b5a8da6a56bd7","6186fb1cc52d38b480598eb7","6187349fb60f23d79ed08ff8","null","","null","","","","","fixation","","","",""
"","","","","","visual-search-circle","113","396142","0.0-14.0-0.0-1.49","60f36509e33b5a8da6a56bd7","6186fb1cc52d38b480598eb7","6187349fb60f23d79ed08ff8","2386.7999999523163","","s","true","[[445,37],[37,154],[154,562],[562,445]]","false","4","","","img/Fire_Up_Target.gif","[""img/Fire_Down_Distractor.gif"",""img/Fire_Down_Distractor.gif"",""img/Fire_Down_Distractor.gif"",""img/Fire_Down_Distractor.gif"",""img/Fire_Down_Distractor.gif"",""img/Fire_Down_Distractor.gif"",""img/Fire_Down_Distractor.gif"",""img/Fire_Down_Distractor.gif"",""img/Fire_Down_Distractor.gif"",""img/Fire_Down_Distractor.gif"",""img/Fire_Down_Distractor.gif"",""img/Fire_Down_Distractor.gif""]","targetUp_distractorsDown"
"","","","","","html-keyboard-response","114","396145","0.0-14.0-0.0-0.50","60f36509e33b5a8da6a56bd7","6186fb1cc52d38b480598eb7","6187349fb60f23d79ed08ff8","null","","null","","","","","fixation","","","",""
"","","","","","visual-search-circle","115","398161","0.0-14.0-0.0-1.50","60f36509e33b5a8da6a56bd7","6186fb1cc52d38b480598eb7","6187349fb60f23d79ed08ff8","1010.1999999284744","","d","true","[[0,320],[168,569],[467,548],[599,279],[431,30],[132,51]]","true","6","","","img/Fire_Up_Target.gif","[""img/Fire_Down_Distractor.gif"",""img/Fire_Down_Distractor.gif"",""img/Fire_Down_Distractor.gif"",""img/Fire_Down_Distractor.gif"",""img/Fire_Down_Distractor.gif"",""img/Fire_Down_Distractor.gif"",""img/Fire_Down_Distractor.gif"",""img/Fire_Down_Distractor.gif"",""img/Fire_Down_Distractor.gif"",""img/Fire_Down_Distractor.gif"",""img/Fire_Down_Distractor.gif"",""img/Fire_Down_Distractor.gif""]","targetUp_distractorsDown"
"","","","","","html-keyboard-response","116","398168","0.0-14.0-0.0-0.51","60f36509e33b5a8da6a56bd7","6186fb1cc52d38b480598eb7","6187349fb60f23d79ed08ff8","null","","null","","","","","fixation","","","",""
"","","","","","visual-search-circle","117","401063","0.0-14.0-0.0-1.51","60f36509e33b5a8da6a56bd7","6186fb1cc52d38b480598eb7","6187349fb60f23d79ed08ff8","1879","","s","false","[[3,253],[111,533],[407,580],[596,346],[488,66],[192,19]]","true","6","","","img/Fire_Up_Target.gif","[""img/Fire_Down_Distractor.gif"",""img/Fire_Down_Distractor.gif"",""img/Fire_Down_Distractor.gif"",""img/Fire_Down_Distractor.gif"",""img/Fire_Down_Distractor.gif"",""img/Fire_Down_Distractor.gif"",""img/Fire_Down_Distractor.gif"",""img/Fire_Down_Distractor.gif"",""img/Fire_Down_Distractor.gif"",""img/Fire_Down_Distractor.gif"",""img/Fire_Down_Distractor.gif"",""img/Fire_Down_Distractor.gif""]","targetUp_distractorsDown"
"","","","","","html-keyboard-response","118","401064","0.0-14.0-0.0-0.52","60f36509e33b5a8da6a56bd7","6186fb1cc52d38b480598eb7","6187349fb60f23d79ed08ff8","null","","null","","","","","fixation","","","",""
"","","","","","visual-search-circle","119","405609","0.0-14.0-0.0-1.52","60f36509e33b5a8da6a56bd7","6186fb1cc52d38b480598eb7","6187349fb60f23d79ed08ff8","3533.5999999046326","","s","false","[[417,576],[576,182],[182,23],[23,417]]","true","4","","","img/Fire_Up_Target.gif","[""img/Fire_Down_Distractor.gif"",""img/Fire_Down_Distractor.gif"",""img/Fire_Down_Distractor.gif"",""img/Fire_Down_Distractor.gif"",""img/Fire_Down_Distractor.gif"",""img/Fire_Down_Distractor.gif"",""img/Fire_Down_Distractor.gif"",""img/Fire_Down_Distractor.gif"",""img/Fire_Down_Distractor.gif"",""img/Fire_Down_Distractor.gif"",""img/Fire_Down_Distractor.gif"",""img/Fire_Down_Distractor.gif""]","targetUp_distractorsDown"
"","","","","","html-keyboard-response","120","405610","0.0-14.0-0.0-0.53","60f36509e33b5a8da6a56bd7","6186fb1cc52d38b480598eb7","6187349fb60f23d79ed08ff8","null","","null","","","","","fixation","","","",""
"","","","","","visual-search-circle","121","407410","0.0-14.0-0.0-1.53","60f36509e33b5a8da6a56bd7","6186fb1cc52d38b480598eb7","6187349fb60f23d79ed08ff8","788.2000000476837","","d","true","[[247,595],[498,524],[599,285],[475,56],[218,11],[23,183],[36,443]]","true","7","","","img/Fire_Up_Target.gif","[""img/Fire_Down_Distractor.gif"",""img/Fire_Down_Distractor.gif"",""img/Fire_Down_Distractor.gif"",""img/Fire_Down_Distractor.gif"",""img/Fire_Down_Distractor.gif"",""img/Fire_Down_Distractor.gif"",""img/Fire_Down_Distractor.gif"",""img/Fire_Down_Distractor.gif"",""img/Fire_Down_Distractor.gif"",""img/Fire_Down_Distractor.gif"",""img/Fire_Down_Distractor.gif"",""img/Fire_Down_Distractor.gif""]","targetUp_distractorsDown"
"","","","","","html-keyboard-response","122","407416","0.0-14.0-0.0-0.54","60f36509e33b5a8da6a56bd7","6186fb1cc52d38b480598eb7","6187349fb60f23d79ed08ff8","null","","null","","","","","fixation","","","",""
"","","","","","visual-search-circle","123","409957","0.0-14.0-0.0-1.54","60f36509e33b5a8da6a56bd7","6186fb1cc52d38b480598eb7","6187349fb60f23d79ed08ff8","1519.2999999523163","","s","true","[[357,5],[105,71],[0,309],[120,540],[376,590],[574,421],[565,161]]","false","7","","","img/Fire_Up_Target.gif","[""img/Fire_Down_Distractor.gif"",""img/Fire_Down_Distractor.gif"",""img/Fire_Down_Distractor.gif"",""img/Fire_Down_Distractor.gif"",""img/Fire_Down_Distractor.gif"",""img/Fire_Down_Distractor.gif"",""img/Fire_Down_Distractor.gif"",""img/Fire_Down_Distractor.gif"",""img/Fire_Down_Distractor.gif"",""img/Fire_Down_Distractor.gif"",""img/Fire_Down_Distractor.gif"",""img/Fire_Down_Distractor.gif""]","targetUp_distractorsDown"
"","","","","","html-keyboard-response","124","409959","0.0-14.0-0.0-0.55","60f36509e33b5a8da6a56bd7","6186fb1cc52d38b480598eb7","6187349fb60f23d79ed08ff8","null","","null","","","","","fixation","","","",""
"","","","","","visual-search-circle","125","412734","0.0-14.0-0.0-1.55","60f36509e33b5a8da6a56bd7","6186fb1cc52d38b480598eb7","6187349fb60f23d79ed08ff8","1762.3999999761581","","s","true","[[182,23],[2,263],[119,539],[417,576],[597,336],[480,60]]","false","6","","","img/Fire_Down_Target.gif","[""img/Fire_Up_Distractor.gif"",""img/Fire_Up_Distractor.gif"",""img/Fire_Up_Distractor.gif"",""img/Fire_Up_Distractor.gif"",""img/Fire_Up_Distractor.gif"",""img/Fire_Up_Distractor.gif"",""img/Fire_Up_Distractor.gif"",""img/Fire_Up_Distractor.gif"",""img/Fire_Up_Distractor.gif"",""img/Fire_Up_Distractor.gif"",""img/Fire_Up_Distractor.gif"",""img/Fire_Up_Distractor.gif""]","targetDown_distractorsUp"
"","","","","","html-keyboard-response","126","412736","0.0-14.0-0.0-0.56","60f36509e33b5a8da6a56bd7","6186fb1cc52d38b480598eb7","6187349fb60f23d79ed08ff8","null","","null","","","","","fixation","","","",""
"","","","","","visual-search-circle","127","414781","0.0-14.0-0.0-1.56","60f36509e33b5a8da6a56bd7","6186fb1cc52d38b480598eb7","6187349fb60f23d79ed08ff8","1037.7999999523163","","s","true","[[554,458],[592,232],[458,45],[232,7],[45,141],[7,367],[141,554],[367,592]]","false","8","","","img/Fire_Up_Target.gif","[""img/Fire_Down_Distractor.gif"",""img/Fire_Down_Distractor.gif"",""img/Fire_Down_Distractor.gif"",""img/Fire_Down_Distractor.gif"",""img/Fire_Down_Distractor.gif"",""img/Fire_Down_Distractor.gif"",""img/Fire_Down_Distractor.gif"",""img/Fire_Down_Distractor.gif"",""img/Fire_Down_Distractor.gif"",""img/Fire_Down_Distractor.gif"",""img/Fire_Down_Distractor.gif"",""img/Fire_Down_Distractor.gif""]","targetUp_distractorsDown"
"","","","","","html-keyboard-response","128","414785","0.0-14.0-0.0-0.57","60f36509e33b5a8da6a56bd7","6186fb1cc52d38b480598eb7","6187349fb60f23d79ed08ff8","null","","null","","","","","fixation","","","",""
"","","","","","visual-search-circle","129","416884","0.0-14.0-0.0-1.57","60f36509e33b5a8da6a56bd7","6186fb1cc52d38b480598eb7","6187349fb60f23d79ed08ff8","1087.2999999523163","","d","false","[[533,111],[253,3],[19,192],[66,488],[346,596],[580,407]]","false","6","","","img/Fire_Down_Target.gif","[""img/Fire_Up_Distractor.gif"",""img/Fire_Up_Distractor.gif"",""img/Fire_Up_Distractor.gif"",""img/Fire_Up_Distractor.gif"",""img/Fire_Up_Distractor.gif"",""img/Fire_Up_Distractor.gif"",""img/Fire_Up_Distractor.gif"",""img/Fire_Up_Distractor.gif"",""img/Fire_Up_Distractor.gif"",""img/Fire_Up_Distractor.gif"",""img/Fire_Up_Distractor.gif"",""img/Fire_Up_Distractor.gif""]","targetDown_distractorsUp"
"","","","","","html-keyboard-response","130","416887","0.0-14.0-0.0-0.58","60f36509e33b5a8da6a56bd7","6186fb1cc52d38b480598eb7","6187349fb60f23d79ed08ff8","null","","null","","","","","fixation","","","",""
"","","","","","visual-search-circle","131","421247","0.0-14.0-0.0-1.58","60f36509e33b5a8da6a56bd7","6186fb1cc52d38b480598eb7","6187349fb60f23d79ed08ff8","3347.5","","s","true","[[341,2],[63,115],[21,412],[258,597],[536,484],[578,187]]","false","6","","","img/Fire_Up_Target.gif","[""img/Fire_Down_Distractor.gif"",""img/Fire_Down_Distractor.gif"",""img/Fire_Down_Distractor.gif"",""img/Fire_Down_Distractor.gif"",""img/Fire_Down_Distractor.gif"",""img/Fire_Down_Distractor.gif"",""img/Fire_Down_Distractor.gif"",""img/Fire_Down_Distractor.gif"",""img/Fire_Down_Distractor.gif"",""img/Fire_Down_Distractor.gif"",""img/Fire_Down_Distractor.gif"",""img/Fire_Down_Distractor.gif""]","targetUp_distractorsDown"
"","","","","","html-keyboard-response","132","422288","0.0-14.0-0.0-0.59","60f36509e33b5a8da6a56bd7","6186fb1cc52d38b480598eb7","6187349fb60f23d79ed08ff8","1040","Wow! You've completed 60 out of 120 trials! </p> <p>  </p><p> Take a quick break, then press any key when you're ready to continue."," ","","","","","fixation","","","",""
"","","","","","visual-search-circle","133","425793","0.0-14.0-0.0-1.59","60f36509e33b5a8da6a56bd7","6186fb1cc52d38b480598eb7","6187349fb60f23d79ed08ff8","2484.7999999523163","","d","true","[[99,77],[0,317],[127,545],[384,587],[577,413],[562,153],[349,4]]","true","7","","","img/Fire_Down_Target.gif","[""img/Fire_Up_Distractor.gif"",""img/Fire_Up_Distractor.gif"",""img/Fire_Up_Distractor.gif"",""img/Fire_Up_Distractor.gif"",""img/Fire_Up_Distractor.gif"",""img/Fire_Up_Distractor.gif"",""img/Fire_Up_Distractor.gif"",""img/Fire_Up_Distractor.gif"",""img/Fire_Up_Distractor.gif"",""img/Fire_Up_Distractor.gif"",""img/Fire_Up_Distractor.gif"",""img/Fire_Up_Distractor.gif""]","targetDown_distractorsUp"
"","","","","","html-keyboard-response","134","425796","0.0-14.0-0.0-0.60","60f36509e33b5a8da6a56bd7","6186fb1cc52d38b480598eb7","6187349fb60f23d79ed08ff8","null","","null","","","","","fixation","","","",""
"","","","","","visual-search-circle","135","431488","0.0-14.0-0.0-1.60","60f36509e33b5a8da6a56bd7","6186fb1cc52d38b480598eb7","6187349fb60f23d79ed08ff8","4679.899999976158","","s","true","[[63,115],[51,467],[382,588],[599,310],[402,18]]","false","5","","","img/Fire_Down_Target.gif","[""img/Fire_Up_Distractor.gif"",""img/Fire_Up_Distractor.gif"",""img/Fire_Up_Distractor.gif"",""img/Fire_Up_Distractor.gif"",""img/Fire_Up_Distractor.gif"",""img/Fire_Up_Distractor.gif"",""img/Fire_Up_Distractor.gif"",""img/Fire_Up_Distractor.gif"",""img/Fire_Up_Distractor.gif"",""img/Fire_Up_Distractor.gif"",""img/Fire_Up_Distractor.gif"",""img/Fire_Up_Distractor.gif""]","targetDown_distractorsUp"
"","","","","","html-keyboard-response","136","431491","0.0-14.0-0.0-0.61","60f36509e33b5a8da6a56bd7","6186fb1cc52d38b480598eb7","6187349fb60f23d79ed08ff8","null","","null","","","","","fixation","","","",""
"","","","","","visual-search-circle","137","433588","0.0-14.0-0.0-1.61","60f36509e33b5a8da6a56bd7","6186fb1cc52d38b480598eb7","6187349fb60f23d79ed08ff8","1085.8999999761581","","d","true","[[341,2],[30,168],[91,515],[440,564],[595,247]]","true","5","","","img/Fire_Up_Target.gif","[""img/Fire_Down_Distractor.gif"",""img/Fire_Down_Distractor.gif"",""img/Fire_Down_Distractor.gif"",""img/Fire_Down_Distractor.gif"",""img/Fire_Down_Distractor.gif"",""img/Fire_Down_Distractor.gif"",""img/Fire_Down_Distractor.gif"",""img/Fire_Down_Distractor.gif"",""img/Fire_Down_Distractor.gif"",""img/Fire_Down_Distractor.gif"",""img/Fire_Down_Distractor.gif"",""img/Fire_Down_Distractor.gif""]","targetUp_distractorsDown"
"","","","","","html-keyboard-response","138","433590","0.0-14.0-0.0-0.62","60f36509e33b5a8da6a56bd7","6186fb1cc52d38b480598eb7","6187349fb60f23d79ed08ff8","null","","null","","","","","fixation","","","",""
"","","","","","visual-search-circle","139","435795","0.0-14.0-0.0-1.62","60f36509e33b5a8da6a56bd7","6186fb1cc52d38b480598eb7","6187349fb60f23d79ed08ff8","1196.7000000476837","","d","true","[[431,30],[171,29],[7,231],[64,485],[298,599],[533,488],[592,234]]","true","7","","","img/Fire_Up_Target.gif","[""img/Fire_Down_Distractor.gif"",""img/Fire_Down_Distractor.gif"",""img/Fire_Down_Distractor.gif"",""img/Fire_Down_Distractor.gif"",""img/Fire_Down_Distractor.gif"",""img/Fire_Down_Distractor.gif"",""img/Fire_Down_Distractor.gif"",""img/Fire_Down_Distractor.gif"",""img/Fire_Down_Distractor.gif"",""img/Fire_Down_Distractor.gif"",""img/Fire_Down_Distractor.gif"",""img/Fire_Down_Distractor.gif""]","targetUp_distractorsDown"
"","","","","","html-keyboard-response","140","435798","0.0-14.0-0.0-0.63","60f36509e33b5a8da6a56bd7","6186fb1cc52d38b480598eb7","6187349fb60f23d79ed08ff8","null","","null","","","","","fixation","","","",""
"","","","","","visual-search-circle","141","438210","0.0-14.0-0.0-1.63","60f36509e33b5a8da6a56bd7","6186fb1cc52d38b480598eb7","6187349fb60f23d79ed08ff8","1407.7000000476837","","d","true","[[299,600],[600,300],[300,0],[0,299]]","true","4","","","img/Fire_Down_Target.gif","[""img/Fire_Up_Distractor.gif"",""img/Fire_Up_Distractor.gif"",""img/Fire_Up_Distractor.gif"",""img/Fire_Up_Distractor.gif"",""img/Fire_Up_Distractor.gif"",""img/Fire_Up_Distractor.gif"",""img/Fire_Up_Distractor.gif"",""img/Fire_Up_Distractor.gif"",""img/Fire_Up_Distractor.gif"",""img/Fire_Up_Distractor.gif"",""img/Fire_Up_Distractor.gif"",""img/Fire_Up_Distractor.gif""]","targetDown_distractorsUp"
"","","","","","html-keyboard-response","142","438212","0.0-14.0-0.0-0.64","60f36509e33b5a8da6a56bd7","6186fb1cc52d38b480598eb7","6187349fb60f23d79ed08ff8","null","","null","","","","","fixation","","","",""
"","","","","","visual-search-circle","143","442856","0.0-14.0-0.0-1.64","60f36509e33b5a8da6a56bd7","6186fb1cc52d38b480598eb7","6187349fb60f23d79ed08ff8","3635.399999976158","","d","false","[[598,268],[488,66],[268,1],[66,111],[1,331],[111,533],[331,598],[533,488]]","false","8","","","img/Fire_Down_Target.gif","[""img/Fire_Up_Distractor.gif"",""img/Fire_Up_Distractor.gif"",""img/Fire_Up_Distractor.gif"",""img/Fire_Up_Distractor.gif"",""img/Fire_Up_Distractor.gif"",""img/Fire_Up_Distractor.gif"",""img/Fire_Up_Distractor.gif"",""img/Fire_Up_Distractor.gif"",""img/Fire_Up_Distractor.gif"",""img/Fire_Up_Distractor.gif"",""img/Fire_Up_Distractor.gif"",""img/Fire_Up_Distractor.gif""]","targetDown_distractorsUp"
"","","","","","html-keyboard-response","144","442858","0.0-14.0-0.0-0.65","60f36509e33b5a8da6a56bd7","6186fb1cc52d38b480598eb7","6187349fb60f23d79ed08ff8","null","","null","","","","","fixation","","","",""
"","","","","","visual-search-circle","145","444842","0.0-14.0-0.0-1.65","60f36509e33b5a8da6a56bd7","6186fb1cc52d38b480598eb7","6187349fb60f23d79ed08ff8","964.8999999761581","","d","true","[[458,554],[592,367],[554,141],[367,7],[141,45],[7,232],[45,458],[232,592]]","true","8","","","img/Fire_Up_Target.gif","[""img/Fire_Down_Distractor.gif"",""img/Fire_Down_Distractor.gif"",""img/Fire_Down_Distractor.gif"",""img/Fire_Down_Distractor.gif"",""img/Fire_Down_Distractor.gif"",""img/Fire_Down_Distractor.gif"",""img/Fire_Down_Distractor.gif"",""img/Fire_Down_Distractor.gif"",""img/Fire_Down_Distractor.gif"",""img/Fire_Down_Distractor.gif"",""img/Fire_Down_Distractor.gif"",""img/Fire_Down_Distractor.gif""]","targetUp_distractorsDown"
"","","","","","html-keyboard-response","146","444860","0.0-14.0-0.0-0.66","60f36509e33b5a8da6a56bd7","6186fb1cc52d38b480598eb7","6187349fb60f23d79ed08ff8","null","","null","","","","","fixation","","","",""
"","","","","","visual-search-circle","147","446733","0.0-14.0-0.0-1.66","60f36509e33b5a8da6a56bd7","6186fb1cc52d38b480598eb7","6187349fb60f23d79ed08ff8","852.1000000238419","","d","true","[[192,19],[25,177],[19,407],[177,574],[407,580],[574,422],[580,192],[422,25]]","true","8","","","img/Fire_Up_Target.gif","[""img/Fire_Down_Distractor.gif"",""img/Fire_Down_Distractor.gif"",""img/Fire_Down_Distractor.gif"",""img/Fire_Down_Distractor.gif"",""img/Fire_Down_Distractor.gif"",""img/Fire_Down_Distractor.gif"",""img/Fire_Down_Distractor.gif"",""img/Fire_Down_Distractor.gif"",""img/Fire_Down_Distractor.gif"",""img/Fire_Down_Distractor.gif"",""img/Fire_Down_Distractor.gif"",""img/Fire_Down_Distractor.gif""]","targetUp_distractorsDown"
"","","","","","html-keyboard-response","148","446736","0.0-14.0-0.0-0.67","60f36509e33b5a8da6a56bd7","6186fb1cc52d38b480598eb7","6187349fb60f23d79ed08ff8","null","","null","","","","","fixation","","","",""
"","","","","","visual-search-circle","149","448863","0.0-14.0-0.0-1.67","60f36509e33b5a8da6a56bd7","6186fb1cc52d38b480598eb7","6187349fb60f23d79ed08ff8","1112","","s","false","[[539,480],[545,127],[212,13],[0,294],[202,583]]","true","5","","","img/Fire_Up_Target.gif","[""img/Fire_Down_Distractor.gif"",""img/Fire_Down_Distractor.gif"",""img/Fire_Down_Distractor.gif"",""img/Fire_Down_Distractor.gif"",""img/Fire_Down_Distractor.gif"",""img/Fire_Down_Distractor.gif"",""img/Fire_Down_Distractor.gif"",""img/Fire_Down_Distractor.gif"",""img/Fire_Down_Distractor.gif"",""img/Fire_Down_Distractor.gif"",""img/Fire_Down_Distractor.gif"",""img/Fire_Down_Distractor.gif""]","targetUp_distractorsDown"
"","","","","","html-keyboard-response","150","448875","0.0-14.0-0.0-0.68","60f36509e33b5a8da6a56bd7","6186fb1cc52d38b480598eb7","6187349fb60f23d79ed08ff8","null","","null","","","","","fixation","","","",""
"","","","","","visual-search-circle","151","450758","0.0-14.0-0.0-1.68","60f36509e33b5a8da6a56bd7","6186fb1cc52d38b480598eb7","6187349fb60f23d79ed08ff8","871.7000000476837","","s","true","[[454,42],[195,18],[14,206],[49,464],[272,598],[516,507],[597,260]]","false","7","","","img/Fire_Up_Target.gif","[""img/Fire_Down_Distractor.gif"",""img/Fire_Down_Distractor.gif"",""img/Fire_Down_Distractor.gif"",""img/Fire_Down_Distractor.gif"",""img/Fire_Down_Distractor.gif"",""img/Fire_Down_Distractor.gif"",""img/Fire_Down_Distractor.gif"",""img/Fire_Down_Distractor.gif"",""img/Fire_Down_Distractor.gif"",""img/Fire_Down_Distractor.gif"",""img/Fire_Down_Distractor.gif"",""img/Fire_Down_Distractor.gif""]","targetUp_distractorsDown"
"","","","","","html-keyboard-response","152","450765","0.0-14.0-0.0-0.69","60f36509e33b5a8da6a56bd7","6186fb1cc52d38b480598eb7","6187349fb60f23d79ed08ff8","null","","null","","","","","fixation","","","",""
"","","","","","visual-search-circle","153","452192","0.0-14.0-0.0-1.69","60f36509e33b5a8da6a56bd7","6186fb1cc52d38b480598eb7","6187349fb60f23d79ed08ff8","412.2000000476837","","s","true","[[2,341],[147,558],[406,580],[585,391],[549,133],[325,1],[82,93]]","false","7","","","img/Fire_Up_Target.gif","[""img/Fire_Down_Distractor.gif"",""img/Fire_Down_Distractor.gif"",""img/Fire_Down_Distractor.gif"",""img/Fire_Down_Distractor.gif"",""img/Fire_Down_Distractor.gif"",""img/Fire_Down_Distractor.gif"",""img/Fire_Down_Distractor.gif"",""img/Fire_Down_Distractor.gif"",""img/Fire_Down_Distractor.gif"",""img/Fire_Down_Distractor.gif"",""img/Fire_Down_Distractor.gif"",""img/Fire_Down_Distractor.gif""]","targetUp_distractorsDown"
"","","","","","html-keyboard-response","154","452201","0.0-14.0-0.0-0.70","60f36509e33b5a8da6a56bd7","6186fb1cc52d38b480598eb7","6187349fb60f23d79ed08ff8","null","","null","","","","","fixation","","","",""
"","","","","","visual-search-circle","155","454208","0.0-14.0-0.0-1.70","60f36509e33b5a8da6a56bd7","6186fb1cc52d38b480598eb7","6187349fb60f23d79ed08ff8","994.1999999284744","","s","true","[[585,207],[300,0],[14,207],[123,542],[476,542]]","false","5","","","img/Fire_Up_Target.gif","[""img/Fire_Down_Distractor.gif"",""img/Fire_Down_Distractor.gif"",""img/Fire_Down_Distractor.gif"",""img/Fire_Down_Distractor.gif"",""img/Fire_Down_Distractor.gif"",""img/Fire_Down_Distractor.gif"",""img/Fire_Down_Distractor.gif"",""img/Fire_Down_Distractor.gif"",""img/Fire_Down_Distractor.gif"",""img/Fire_Down_Distractor.gif"",""img/Fire_Down_Distractor.gif"",""img/Fire_Down_Distractor.gif""]","targetUp_distractorsDown"
"","","","","","html-keyboard-response","156","454211","0.0-14.0-0.0-0.71","60f36509e33b5a8da6a56bd7","6186fb1cc52d38b480598eb7","6187349fb60f23d79ed08ff8","null","","null","","","","","fixation","","","",""
"","","","","","visual-search-circle","157","456419","0.0-14.0-0.0-1.71","60f36509e33b5a8da6a56bd7","6186fb1cc52d38b480598eb7","6187349fb60f23d79ed08ff8","1198.3999999761581","","d","true","[[320,0],[0,279],[279,599],[599,320]]","true","4","","","img/Fire_Up_Target.gif","[""img/Fire_Down_Distractor.gif"",""img/Fire_Down_Distractor.gif"",""img/Fire_Down_Distractor.gif"",""img/Fire_Down_Distractor.gif"",""img/Fire_Down_Distractor.gif"",""img/Fire_Down_Distractor.gif"",""img/Fire_Down_Distractor.gif"",""img/Fire_Down_Distractor.gif"",""img/Fire_Down_Distractor.gif"",""img/Fire_Down_Distractor.gif"",""img/Fire_Down_Distractor.gif"",""img/Fire_Down_Distractor.gif""]","targetUp_distractorsDown"
"","","","","","html-keyboard-response","158","456423","0.0-14.0-0.0-0.72","60f36509e33b5a8da6a56bd7","6186fb1cc52d38b480598eb7","6187349fb60f23d79ed08ff8","null","","null","","","","","fixation","","","",""
"","","","","","visual-search-circle","159","459575","0.0-14.0-0.0-1.72","60f36509e33b5a8da6a56bd7","6186fb1cc52d38b480598eb7","6187349fb60f23d79ed08ff8","2132.399999976158","","s","true","[[591,372],[538,117],[305,0],[69,108],[6,360],[164,567],[424,572]]","false","7","","","img/Fire_Down_Target.gif","[""img/Fire_Up_Distractor.gif"",""img/Fire_Up_Distractor.gif"",""img/Fire_Up_Distractor.gif"",""img/Fire_Up_Distractor.gif"",""img/Fire_Up_Distractor.gif"",""img/Fire_Up_Distractor.gif"",""img/Fire_Up_Distractor.gif"",""img/Fire_Up_Distractor.gif"",""img/Fire_Up_Distractor.gif"",""img/Fire_Up_Distractor.gif"",""img/Fire_Up_Distractor.gif"",""img/Fire_Up_Distractor.gif""]","targetDown_distractorsUp"
"","","","","","html-keyboard-response","160","459576","0.0-14.0-0.0-0.73","60f36509e33b5a8da6a56bd7","6186fb1cc52d38b480598eb7","6187349fb60f23d79ed08ff8","null","","null","","","","","fixation","","","",""
"","","","","","visual-search-circle","161","461675","0.0-14.0-0.0-1.73","60f36509e33b5a8da6a56bd7","6186fb1cc52d38b480598eb7","6187349fb60f23d79ed08ff8","1079.6000000238419","","d","true","[[263,2],[44,142],[17,401],[203,584],[462,552],[598,330],[510,85]]","true","7","","","img/Fire_Down_Target.gif","[""img/Fire_Up_Distractor.gif"",""img/Fire_Up_Distractor.gif"",""img/Fire_Up_Distractor.gif"",""img/Fire_Up_Distractor.gif"",""img/Fire_Up_Distractor.gif"",""img/Fire_Up_Distractor.gif"",""img/Fire_Up_Distractor.gif"",""img/Fire_Up_Distractor.gif"",""img/Fire_Up_Distractor.gif"",""img/Fire_Up_Distractor.gif"",""img/Fire_Up_Distractor.gif"",""img/Fire_Up_Distractor.gif""]","targetDown_distractorsUp"
"","","","","","html-keyboard-response","162","461678","0.0-14.0-0.0-0.74","60f36509e33b5a8da6a56bd7","6186fb1cc52d38b480598eb7","6187349fb60f23d79ed08ff8","null","","null","","","","","fixation","","","",""
"","","","","","visual-search-circle","163","465957","0.0-14.0-0.0-1.74","60f36509e33b5a8da6a56bd7","6186fb1cc52d38b480598eb7","6187349fb60f23d79ed08ff8","3273.2000000476837","","s","false","[[84,91],[35,440],[352,595],[597,341],[431,30]]","true","5","","","img/Fire_Up_Target.gif","[""img/Fire_Down_Distractor.gif"",""img/Fire_Down_Distractor.gif"",""img/Fire_Down_Distractor.gif"",""img/Fire_Down_Distractor.gif"",""img/Fire_Down_Distractor.gif"",""img/Fire_Down_Distractor.gif"",""img/Fire_Down_Distractor.gif"",""img/Fire_Down_Distractor.gif"",""img/Fire_Down_Distractor.gif"",""img/Fire_Down_Distractor.gif"",""img/Fire_Down_Distractor.gif"",""img/Fire_Down_Distractor.gif""]","targetUp_distractorsDown"
"","","","","","html-keyboard-response","164","465961","0.0-14.0-0.0-0.75","60f36509e33b5a8da6a56bd7","6186fb1cc52d38b480598eb7","6187349fb60f23d79ed08ff8","null","","null","","","","","fixation","","","",""
"","","","","","visual-search-circle","165","471605","0.0-14.0-0.0-1.75","60f36509e33b5a8da6a56bd7","6186fb1cc52d38b480598eb7","6187349fb60f23d79ed08ff8","4634.200000047684","","s","true","[[273,1],[7,232],[145,557],[496,526],[576,182]]","false","5","","","img/Fire_Up_Target.gif","[""img/Fire_Down_Distractor.gif"",""img/Fire_Down_Distractor.gif"",""img/Fire_Down_Distractor.gif"",""img/Fire_Down_Distractor.gif"",""img/Fire_Down_Distractor.gif"",""img/Fire_Down_Distractor.gif"",""img/Fire_Down_Distractor.gif"",""img/Fire_Down_Distractor.gif"",""img/Fire_Down_Distractor.gif"",""img/Fire_Down_Distractor.gif"",""img/Fire_Down_Distractor.gif"",""img/Fire_Down_Distractor.gif""]","targetUp_distractorsDown"
"","","","","","html-keyboard-response","166","471609","0.0-14.0-0.0-0.76","60f36509e33b5a8da6a56bd7","6186fb1cc52d38b480598eb7","6187349fb60f23d79ed08ff8","null","","null","","","","","fixation","","","",""
"","","","","","visual-search-circle","167","474089","0.0-14.0-0.0-1.76","60f36509e33b5a8da6a56bd7","6186fb1cc52d38b480598eb7","6187349fb60f23d79ed08ff8","1471.8999999761581","","s","true","[[103,73],[0,312],[123,542],[379,589],[575,418],[564,158],[354,4]]","false","7","","","img/Fire_Up_Target.gif","[""img/Fire_Down_Distractor.gif"",""img/Fire_Down_Distractor.gif"",""img/Fire_Down_Distractor.gif"",""img/Fire_Down_Distractor.gif"",""img/Fire_Down_Distractor.gif"",""img/Fire_Down_Distractor.gif"",""img/Fire_Down_Distractor.gif"",""img/Fire_Down_Distractor.gif"",""img/Fire_Down_Distractor.gif"",""img/Fire_Down_Distractor.gif"",""img/Fire_Down_Distractor.gif"",""img/Fire_Down_Distractor.gif""]","targetUp_distractorsDown"
"","","","","","html-keyboard-response","168","474090","0.0-14.0-0.0-0.77","60f36509e33b5a8da6a56bd7","6186fb1cc52d38b480598eb7","6187349fb60f23d79ed08ff8","null","","null","","","","","fixation","","","",""
"","","","","","visual-search-circle","169","476135","0.0-14.0-0.0-1.77","60f36509e33b5a8da6a56bd7","6186fb1cc52d38b480598eb7","6187349fb60f23d79ed08ff8","1030.3999999761581","","s","true","[[0,294],[108,531],[361,593],[567,434],[572,174],[371,8],[117,62]]","false","7","","","img/Fire_Down_Target.gif","[""img/Fire_Up_Distractor.gif"",""img/Fire_Up_Distractor.gif"",""img/Fire_Up_Distractor.gif"",""img/Fire_Up_Distractor.gif"",""img/Fire_Up_Distractor.gif"",""img/Fire_Up_Distractor.gif"",""img/Fire_Up_Distractor.gif"",""img/Fire_Up_Distractor.gif"",""img/Fire_Up_Distractor.gif"",""img/Fire_Up_Distractor.gif"",""img/Fire_Up_Distractor.gif"",""img/Fire_Up_Distractor.gif""]","targetDown_distractorsUp"
"","","","","","html-keyboard-response","170","476146","0.0-14.0-0.0-0.78","60f36509e33b5a8da6a56bd7","6186fb1cc52d38b480598eb7","6187349fb60f23d79ed08ff8","null","","null","","","","","fixation","","","",""
"","","","","","visual-search-circle","171","478409","0.0-14.0-0.0-1.78","60f36509e33b5a8da6a56bd7","6186fb1cc52d38b480598eb7","6187349fb60f23d79ed08ff8","1250","","d","true","[[0,320],[103,526],[320,599],[526,496],[599,279],[496,73],[279,0],[73,103]]","true","8","","","img/Fire_Down_Target.gif","[""img/Fire_Up_Distractor.gif"",""img/Fire_Up_Distractor.gif"",""img/Fire_Up_Distractor.gif"",""img/Fire_Up_Distractor.gif"",""img/Fire_Up_Distractor.gif"",""img/Fire_Up_Distractor.gif"",""img/Fire_Up_Distractor.gif"",""img/Fire_Up_Distractor.gif"",""img/Fire_Up_Distractor.gif"",""img/Fire_Up_Distractor.gif"",""img/Fire_Up_Distractor.gif"",""img/Fire_Up_Distractor.gif""]","targetDown_distractorsUp"
"","","","","","html-keyboard-response","172","480274","0.0-14.0-0.0-0.79","60f36509e33b5a8da6a56bd7","6186fb1cc52d38b480598eb7","6187349fb60f23d79ed08ff8","1864.5","Wow! You've completed 80 out of 120 trials! </p> <p>  </p><p> Take a quick break, then press any key when you're ready to continue."," ","","","","","fixation","","","",""
"","","","","","visual-search-circle","173","485190","0.0-14.0-0.0-1.79","60f36509e33b5a8da6a56bd7","6186fb1cc52d38b480598eb7","6187349fb60f23d79ed08ff8","3909.7999999523163","","s","true","[[367,592],[592,232],[232,7],[7,367]]","false","4","","","img/Fire_Down_Target.gif","[""img/Fire_Up_Distractor.gif"",""img/Fire_Up_Distractor.gif"",""img/Fire_Up_Distractor.gif"",""img/Fire_Up_Distractor.gif"",""img/Fire_Up_Distractor.gif"",""img/Fire_Up_Distractor.gif"",""img/Fire_Up_Distractor.gif"",""img/Fire_Up_Distractor.gif"",""img/Fire_Up_Distractor.gif"",""img/Fire_Up_Distractor.gif"",""img/Fire_Up_Distractor.gif"",""img/Fire_Up_Distractor.gif""]","targetDown_distractorsUp"
"","","","","","html-keyboard-response","174","485192","0.0-14.0-0.0-0.80","60f36509e33b5a8da6a56bd7","6186fb1cc52d38b480598eb7","6187349fb60f23d79ed08ff8","null","","null","","","","","fixation","","","",""
"","","","","","visual-search-circle","175","487527","0.0-14.0-0.0-1.80","60f36509e33b5a8da6a56bd7","6186fb1cc52d38b480598eb7","6187349fb60f23d79ed08ff8","1314.1000000238419","","s","true","[[1,273],[127,545],[426,571],[598,326],[472,54],[173,28]]","false","6","","","img/Fire_Down_Target.gif","[""img/Fire_Up_Distractor.gif"",""img/Fire_Up_Distractor.gif"",""img/Fire_Up_Distractor.gif"",""img/Fire_Up_Distractor.gif"",""img/Fire_Up_Distractor.gif"",""img/Fire_Up_Distractor.gif"",""img/Fire_Up_Distractor.gif"",""img/Fire_Up_Distractor.gif"",""img/Fire_Up_Distractor.gif"",""img/Fire_Up_Distractor.gif"",""img/Fire_Up_Distractor.gif"",""img/Fire_Up_Distractor.gif""]","targetDown_distractorsUp"
"","","","","","html-keyboard-response","176","487529","0.0-14.0-0.0-0.81","60f36509e33b5a8da6a56bd7","6186fb1cc52d38b480598eb7","6187349fb60f23d79ed08ff8","null","","null","","","","","fixation","","","",""
"","","","","","visual-search-circle","177","490008","0.0-14.0-0.0-1.81","60f36509e33b5a8da6a56bd7","6186fb1cc52d38b480598eb7","6187349fb60f23d79ed08ff8","1469.2000000476837","","s","true","[[32,436],[346,596],[596,346],[436,32],[87,87]]","false","5","","","img/Fire_Up_Target.gif","[""img/Fire_Down_Distractor.gif"",""img/Fire_Down_Distractor.gif"",""img/Fire_Down_Distractor.gif"",""img/Fire_Down_Distractor.gif"",""img/Fire_Down_Distractor.gif"",""img/Fire_Down_Distractor.gif"",""img/Fire_Down_Distractor.gif"",""img/Fire_Down_Distractor.gif"",""img/Fire_Down_Distractor.gif"",""img/Fire_Down_Distractor.gif"",""img/Fire_Down_Distractor.gif"",""img/Fire_Down_Distractor.gif""]","targetUp_distractorsDown"
"","","","","","html-keyboard-response","178","490011","0.0-14.0-0.0-0.82","60f36509e33b5a8da6a56bd7","6186fb1cc52d38b480598eb7","6187349fb60f23d79ed08ff8","null","","null","","","","","fixation","","","",""
"","","","","","visual-search-circle","179","495777","0.0-14.0-0.0-1.82","60f36509e33b5a8da6a56bd7","6186fb1cc52d38b480598eb7","6187349fb60f23d79ed08ff8","4760.099999904633","","s","true","[[159,564],[564,440],[440,35],[35,159]]","false","4","","","img/Fire_Down_Target.gif","[""img/Fire_Up_Distractor.gif"",""img/Fire_Up_Distractor.gif"",""img/Fire_Up_Distractor.gif"",""img/Fire_Up_Distractor.gif"",""img/Fire_Up_Distractor.gif"",""img/Fire_Up_Distractor.gif"",""img/Fire_Up_Distractor.gif"",""img/Fire_Up_Distractor.gif"",""img/Fire_Up_Distractor.gif"",""img/Fire_Up_Distractor.gif"",""img/Fire_Up_Distractor.gif"",""img/Fire_Up_Distractor.gif""]","targetDown_distractorsUp"
"","","","","","html-keyboard-response","180","495779","0.0-14.0-0.0-0.83","60f36509e33b5a8da6a56bd7","6186fb1cc52d38b480598eb7","6187349fb60f23d79ed08ff8","null","","null","","","","","fixation","","","",""
"","","","","","visual-search-circle","181","497986","0.0-14.0-0.0-1.83","60f36509e33b5a8da6a56bd7","6186fb1cc52d38b480598eb7","6187349fb60f23d79ed08ff8","1194.8999999761581","","d","true","[[154,562],[562,445],[445,37],[37,154]]","true","4","","","img/Fire_Up_Target.gif","[""img/Fire_Down_Distractor.gif"",""img/Fire_Down_Distractor.gif"",""img/Fire_Down_Distractor.gif"",""img/Fire_Down_Distractor.gif"",""img/Fire_Down_Distractor.gif"",""img/Fire_Down_Distractor.gif"",""img/Fire_Down_Distractor.gif"",""img/Fire_Down_Distractor.gif"",""img/Fire_Down_Distractor.gif"",""img/Fire_Down_Distractor.gif"",""img/Fire_Down_Distractor.gif"",""img/Fire_Down_Distractor.gif""]","targetUp_distractorsDown"
"","","","","","html-keyboard-response","182","497999","0.0-14.0-0.0-0.84","60f36509e33b5a8da6a56bd7","6186fb1cc52d38b480598eb7","6187349fb60f23d79ed08ff8","null","","null","","","","","fixation","","","",""
"","","","","","visual-search-circle","183","502385","0.0-14.0-0.0-1.84","60f36509e33b5a8da6a56bd7","6186fb1cc52d38b480598eb7","6187349fb60f23d79ed08ff8","3378.600000023842","","s","true","[[173,571],[433,568],[593,363],[532,110],[296,0],[63,115],[8,370]]","false","7","","","img/Fire_Down_Target.gif","[""img/Fire_Up_Distractor.gif"",""img/Fire_Up_Distractor.gif"",""img/Fire_Up_Distractor.gif"",""img/Fire_Up_Distractor.gif"",""img/Fire_Up_Distractor.gif"",""img/Fire_Up_Distractor.gif"",""img/Fire_Up_Distractor.gif"",""img/Fire_Up_Distractor.gif"",""img/Fire_Up_Distractor.gif"",""img/Fire_Up_Distractor.gif"",""img/Fire_Up_Distractor.gif"",""img/Fire_Up_Distractor.gif""]","targetDown_distractorsUp"
"","","","","","html-keyboard-response","184","502388","0.0-14.0-0.0-0.85","60f36509e33b5a8da6a56bd7","6186fb1cc52d38b480598eb7","6187349fb60f23d79ed08ff8","null","","null","","","","","fixation","","","",""
"","","","","","visual-search-circle","185","504390","0.0-14.0-0.0-1.85","60f36509e33b5a8da6a56bd7","6186fb1cc52d38b480598eb7","6187349fb60f23d79ed08ff8","997.2000000476837","","s","true","[[273,598],[576,417],[496,73],[145,42],[7,367]]","false","5","","","img/Fire_Up_Target.gif","[""img/Fire_Down_Distractor.gif"",""img/Fire_Down_Distractor.gif"",""img/Fire_Down_Distractor.gif"",""img/Fire_Down_Distractor.gif"",""img/Fire_Down_Distractor.gif"",""img/Fire_Down_Distractor.gif"",""img/Fire_Down_Distractor.gif"",""img/Fire_Down_Distractor.gif"",""img/Fire_Down_Distractor.gif"",""img/Fire_Down_Distractor.gif"",""img/Fire_Down_Distractor.gif"",""img/Fire_Down_Distractor.gif""]","targetUp_distractorsDown"
"","","","","","html-keyboard-response","186","504393","0.0-14.0-0.0-0.86","60f36509e33b5a8da6a56bd7","6186fb1cc52d38b480598eb7","6187349fb60f23d79ed08ff8","null","","null","","","","","fixation","","","",""
"","","","","","visual-search-circle","187","506295","0.0-14.0-0.0-1.86","60f36509e33b5a8da6a56bd7","6186fb1cc52d38b480598eb7","6187349fb60f23d79ed08ff8","883.6000000238419","","d","true","[[593,362],[551,136],[362,6],[136,48],[6,237],[48,463],[237,593],[463,551]]","true","8","","","img/Fire_Down_Target.gif","[""img/Fire_Up_Distractor.gif"",""img/Fire_Up_Distractor.gif"",""img/Fire_Up_Distractor.gif"",""img/Fire_Up_Distractor.gif"",""img/Fire_Up_Distractor.gif"",""img/Fire_Up_Distractor.gif"",""img/Fire_Up_Distractor.gif"",""img/Fire_Up_Distractor.gif"",""img/Fire_Up_Distractor.gif"",""img/Fire_Up_Distractor.gif"",""img/Fire_Up_Distractor.gif"",""img/Fire_Up_Distractor.gif""]","targetDown_distractorsUp"
"","","","","","html-keyboard-response","188","506307","0.0-14.0-0.0-0.87","60f36509e33b5a8da6a56bd7","6186fb1cc52d38b480598eb7","6187349fb60f23d79ed08ff8","null","","null","","","","","fixation","","","",""
"","","","","","visual-search-circle","189","508792","0.0-14.0-0.0-1.87","60f36509e33b5a8da6a56bd7","6186fb1cc52d38b480598eb7","6187349fb60f23d79ed08ff8","1471.3000000715256","","s","true","[[576,417],[539,119],[263,2],[23,182],[60,480],[336,597]]","false","6","","","img/Fire_Down_Target.gif","[""img/Fire_Up_Distractor.gif"",""img/Fire_Up_Distractor.gif"",""img/Fire_Up_Distractor.gif"",""img/Fire_Up_Distractor.gif"",""img/Fire_Up_Distractor.gif"",""img/Fire_Up_Distractor.gif"",""img/Fire_Up_Distractor.gif"",""img/Fire_Up_Distractor.gif"",""img/Fire_Up_Distractor.gif"",""img/Fire_Up_Distractor.gif"",""img/Fire_Up_Distractor.gif"",""img/Fire_Up_Distractor.gif""]","targetDown_distractorsUp"
"","","","","","html-keyboard-response","190","508795","0.0-14.0-0.0-0.88","60f36509e33b5a8da6a56bd7","6186fb1cc52d38b480598eb7","6187349fb60f23d79ed08ff8","null","","null","","","","","fixation","","","",""
"","","","","","visual-search-circle","191","511443","0.0-14.0-0.0-1.88","60f36509e33b5a8da6a56bd7","6186fb1cc52d38b480598eb7","6187349fb60f23d79ed08ff8","1633.8999999761581","","s","true","[[599,320],[320,0],[0,279],[279,599]]","false","4","","","img/Fire_Down_Target.gif","[""img/Fire_Up_Distractor.gif"",""img/Fire_Up_Distractor.gif"",""img/Fire_Up_Distractor.gif"",""img/Fire_Up_Distractor.gif"",""img/Fire_Up_Distractor.gif"",""img/Fire_Up_Distractor.gif"",""img/Fire_Up_Distractor.gif"",""img/Fire_Up_Distractor.gif"",""img/Fire_Up_Distractor.gif"",""img/Fire_Up_Distractor.gif"",""img/Fire_Up_Distractor.gif"",""img/Fire_Up_Distractor.gif""]","targetDown_distractorsUp"
"","","","","","html-keyboard-response","192","511446","0.0-14.0-0.0-0.89","60f36509e33b5a8da6a56bd7","6186fb1cc52d38b480598eb7","6187349fb60f23d79ed08ff8","null","","null","","","","","fixation","","","",""
"","","","","","visual-search-circle","193","514317","0.0-14.0-0.0-1.89","60f36509e33b5a8da6a56bd7","6186fb1cc52d38b480598eb7","6187349fb60f23d79ed08ff8","1857.3000000715256","","d","true","[[407,580],[586,390],[549,132],[324,1],[81,94],[3,342],[148,558]]","true","7","","","img/Fire_Up_Target.gif","[""img/Fire_Down_Distractor.gif"",""img/Fire_Down_Distractor.gif"",""img/Fire_Down_Distractor.gif"",""img/Fire_Down_Distractor.gif"",""img/Fire_Down_Distractor.gif"",""img/Fire_Down_Distractor.gif"",""img/Fire_Down_Distractor.gif"",""img/Fire_Down_Distractor.gif"",""img/Fire_Down_Distractor.gif"",""img/Fire_Down_Distractor.gif"",""img/Fire_Down_Distractor.gif"",""img/Fire_Down_Distractor.gif""]","targetUp_distractorsDown"
"","","","","","html-keyboard-response","194","514320","0.0-14.0-0.0-0.90","60f36509e33b5a8da6a56bd7","6186fb1cc52d38b480598eb7","6187349fb60f23d79ed08ff8","null","","null","","","","","fixation","","","",""
"","","","","","visual-search-circle","195","518468","0.0-14.0-0.0-1.90","60f36509e33b5a8da6a56bd7","6186fb1cc52d38b480598eb7","6187349fb60f23d79ed08ff8","3139.600000023842","","d","true","[[539,119],[202,16],[0,305],[212,586],[545,472]]","true","5","","","img/Fire_Up_Target.gif","[""img/Fire_Down_Distractor.gif"",""img/Fire_Down_Distractor.gif"",""img/Fire_Down_Distractor.gif"",""img/Fire_Down_Distractor.gif"",""img/Fire_Down_Distractor.gif"",""img/Fire_Down_Distractor.gif"",""img/Fire_Down_Distractor.gif"",""img/Fire_Down_Distractor.gif"",""img/Fire_Down_Distractor.gif"",""img/Fire_Down_Distractor.gif"",""img/Fire_Down_Distractor.gif"",""img/Fire_Down_Distractor.gif""]","targetUp_distractorsDown"
"","","","","","html-keyboard-response","196","518472","0.0-14.0-0.0-0.91","60f36509e33b5a8da6a56bd7","6186fb1cc52d38b480598eb7","6187349fb60f23d79ed08ff8","null","","null","","","","","fixation","","","",""
"","","","","","visual-search-circle","197","521674","0.0-14.0-0.0-1.91","60f36509e33b5a8da6a56bd7","6186fb1cc52d38b480598eb7","6187349fb60f23d79ed08ff8","2187.0999999046326","","s","true","[[346,596],[560,448],[578,188],[386,12],[129,53],[0,279],[97,521]]","false","7","","","img/Fire_Down_Target.gif","[""img/Fire_Up_Distractor.gif"",""img/Fire_Up_Distractor.gif"",""img/Fire_Up_Distractor.gif"",""img/Fire_Up_Distractor.gif"",""img/Fire_Up_Distractor.gif"",""img/Fire_Up_Distractor.gif"",""img/Fire_Up_Distractor.gif"",""img/Fire_Up_Distractor.gif"",""img/Fire_Up_Distractor.gif"",""img/Fire_Up_Distractor.gif"",""img/Fire_Up_Distractor.gif"",""img/Fire_Up_Distractor.gif""]","targetDown_distractorsUp"
"","","","","","html-keyboard-response","198","521677","0.0-14.0-0.0-0.92","60f36509e33b5a8da6a56bd7","6186fb1cc52d38b480598eb7","6187349fb60f23d79ed08ff8","null","","null","","","","","fixation","","","",""
"","","","","","visual-search-circle","199","525784","0.0-14.0-0.0-1.92","60f36509e33b5a8da6a56bd7","6186fb1cc52d38b480598eb7","6187349fb60f23d79ed08ff8","3088.7000000476837","","d","false","[[23,417],[263,597],[539,480],[576,182],[336,2],[60,119]]","false","6","","","img/Fire_Down_Target.gif","[""img/Fire_Up_Distractor.gif"",""img/Fire_Up_Distractor.gif"",""img/Fire_Up_Distractor.gif"",""img/Fire_Up_Distractor.gif"",""img/Fire_Up_Distractor.gif"",""img/Fire_Up_Distractor.gif"",""img/Fire_Up_Distractor.gif"",""img/Fire_Up_Distractor.gif"",""img/Fire_Up_Distractor.gif"",""img/Fire_Up_Distractor.gif"",""img/Fire_Up_Distractor.gif"",""img/Fire_Up_Distractor.gif""]","targetDown_distractorsUp"
"","","","","","html-keyboard-response","200","525786","0.0-14.0-0.0-0.93","60f36509e33b5a8da6a56bd7","6186fb1cc52d38b480598eb7","6187349fb60f23d79ed08ff8","null","","null","","","","","fixation","","","",""
"","","","","","visual-search-circle","201","530630","0.0-14.0-0.0-1.93","60f36509e33b5a8da6a56bd7","6186fb1cc52d38b480598eb7","6187349fb60f23d79ed08ff8","3834.399999976158","","s","true","[[436,567],[585,392],[567,163],[392,14],[163,32],[14,207],[32,436],[207,585]]","false","8","","","img/Fire_Down_Target.gif","[""img/Fire_Up_Distractor.gif"",""img/Fire_Up_Distractor.gif"",""img/Fire_Up_Distractor.gif"",""img/Fire_Up_Distractor.gif"",""img/Fire_Up_Distractor.gif"",""img/Fire_Up_Distractor.gif"",""img/Fire_Up_Distractor.gif"",""img/Fire_Up_Distractor.gif"",""img/Fire_Up_Distractor.gif"",""img/Fire_Up_Distractor.gif"",""img/Fire_Up_Distractor.gif"",""img/Fire_Up_Distractor.gif""]","targetDown_distractorsUp"
"","","","","","html-keyboard-response","202","530633","0.0-14.0-0.0-0.94","60f36509e33b5a8da6a56bd7","6186fb1cc52d38b480598eb7","6187349fb60f23d79ed08ff8","null","","null","","","","","fixation","","","",""
"","","","","","visual-search-circle","203","532732","0.0-14.0-0.0-1.94","60f36509e33b5a8da6a56bd7","6186fb1cc52d38b480598eb7","6187349fb60f23d79ed08ff8","1092.5","","s","false","[[526,103],[320,0],[103,73],[0,279],[73,496],[279,599],[496,526],[599,320]]","true","8","","","img/Fire_Down_Target.gif","[""img/Fire_Up_Distractor.gif"",""img/Fire_Up_Distractor.gif"",""img/Fire_Up_Distractor.gif"",""img/Fire_Up_Distractor.gif"",""img/Fire_Up_Distractor.gif"",""img/Fire_Up_Distractor.gif"",""img/Fire_Up_Distractor.gif"",""img/Fire_Up_Distractor.gif"",""img/Fire_Up_Distractor.gif"",""img/Fire_Up_Distractor.gif"",""img/Fire_Up_Distractor.gif"",""img/Fire_Up_Distractor.gif""]","targetDown_distractorsUp"
"","","","","","html-keyboard-response","204","532737","0.0-14.0-0.0-0.95","60f36509e33b5a8da6a56bd7","6186fb1cc52d38b480598eb7","6187349fb60f23d79ed08ff8","null","","null","","","","","fixation","","","",""
"","","","","","visual-search-circle","205","535317","0.0-14.0-0.0-1.95","60f36509e33b5a8da6a56bd7","6186fb1cc52d38b480598eb7","6187349fb60f23d79ed08ff8","1576.1000000238419","","d","true","[[554,458],[529,107],[187,21],[0,320],[227,591]]","true","5","","","img/Fire_Down_Target.gif","[""img/Fire_Up_Distractor.gif"",""img/Fire_Up_Distractor.gif"",""img/Fire_Up_Distractor.gif"",""img/Fire_Up_Distractor.gif"",""img/Fire_Up_Distractor.gif"",""img/Fire_Up_Distractor.gif"",""img/Fire_Up_Distractor.gif"",""img/Fire_Up_Distractor.gif"",""img/Fire_Up_Distractor.gif"",""img/Fire_Up_Distractor.gif"",""img/Fire_Up_Distractor.gif"",""img/Fire_Up_Distractor.gif""]","targetDown_distractorsUp"
"","","","","","html-keyboard-response","206","535319","0.0-14.0-0.0-0.96","60f36509e33b5a8da6a56bd7","6186fb1cc52d38b480598eb7","6187349fb60f23d79ed08ff8","null","","null","","","","","fixation","","","",""
"","","","","","visual-search-circle","207","537822","0.0-14.0-0.0-1.96","60f36509e33b5a8da6a56bd7","6186fb1cc52d38b480598eb7","6187349fb60f23d79ed08ff8","1500.2999999523163","","d","false","[[508,84],[84,91],[91,515],[515,508]]","false","4","","","img/Fire_Up_Target.gif","[""img/Fire_Down_Distractor.gif"",""img/Fire_Down_Distractor.gif"",""img/Fire_Down_Distractor.gif"",""img/Fire_Down_Distractor.gif"",""img/Fire_Down_Distractor.gif"",""img/Fire_Down_Distractor.gif"",""img/Fire_Down_Distractor.gif"",""img/Fire_Down_Distractor.gif"",""img/Fire_Down_Distractor.gif"",""img/Fire_Down_Distractor.gif"",""img/Fire_Down_Distractor.gif"",""img/Fire_Down_Distractor.gif""]","targetUp_distractorsDown"
"","","","","","html-keyboard-response","208","537832","0.0-14.0-0.0-0.97","60f36509e33b5a8da6a56bd7","6186fb1cc52d38b480598eb7","6187349fb60f23d79ed08ff8","null","","null","","","","","fixation","","","",""
"","","","","","visual-search-circle","209","539813","0.0-14.0-0.0-1.97","60f36509e33b5a8da6a56bd7","6186fb1cc52d38b480598eb7","6187349fb60f23d79ed08ff8","961.3999999761581","","d","true","[[500,77],[284,0],[77,99],[0,315],[99,522],[315,599],[522,500],[599,284]]","true","8","","","img/Fire_Up_Target.gif","[""img/Fire_Down_Distractor.gif"",""img/Fire_Down_Distractor.gif"",""img/Fire_Down_Distractor.gif"",""img/Fire_Down_Distractor.gif"",""img/Fire_Down_Distractor.gif"",""img/Fire_Down_Distractor.gif"",""img/Fire_Down_Distractor.gif"",""img/Fire_Down_Distractor.gif"",""img/Fire_Down_Distractor.gif"",""img/Fire_Down_Distractor.gif"",""img/Fire_Down_Distractor.gif"",""img/Fire_Down_Distractor.gif""]","targetUp_distractorsDown"
"","","","","","html-keyboard-response","210","539816","0.0-14.0-0.0-0.98","60f36509e33b5a8da6a56bd7","6186fb1cc52d38b480598eb7","6187349fb60f23d79ed08ff8","null","","null","","","","","fixation","","","",""
"","","","","","visual-search-circle","211","545469","0.0-14.0-0.0-1.98","60f36509e33b5a8da6a56bd7","6186fb1cc52d38b480598eb7","6187349fb60f23d79ed08ff8","4641.100000023842","","s","true","[[25,177],[99,522],[450,559],[593,237],[331,1]]","false","5","","","img/Fire_Up_Target.gif","[""img/Fire_Down_Distractor.gif"",""img/Fire_Down_Distractor.gif"",""img/Fire_Down_Distractor.gif"",""img/Fire_Down_Distractor.gif"",""img/Fire_Down_Distractor.gif"",""img/Fire_Down_Distractor.gif"",""img/Fire_Down_Distractor.gif"",""img/Fire_Down_Distractor.gif"",""img/Fire_Down_Distractor.gif"",""img/Fire_Down_Distractor.gif"",""img/Fire_Down_Distractor.gif"",""img/Fire_Down_Distractor.gif""]","targetUp_distractorsDown"
"","","","","","html-keyboard-response","212","548053","0.0-14.0-0.0-0.99","60f36509e33b5a8da6a56bd7","6186fb1cc52d38b480598eb7","6187349fb60f23d79ed08ff8","2584.100000023842","Wow! You've completed 100 out of 120 trials! </p> <p>  </p><p> Take a quick break, then press any key when you're ready to continue."," ","","","","","fixation","","","",""
"","","","","","visual-search-circle","213","552076","0.0-14.0-0.0-1.99","60f36509e33b5a8da6a56bd7","6186fb1cc52d38b480598eb7","6187349fb60f23d79ed08ff8","3005.0999999046326","","d","true","[[28,173],[31,433],[236,593],[489,532],[599,296],[484,63],[229,8]]","true","7","","","img/Fire_Up_Target.gif","[""img/Fire_Down_Distractor.gif"",""img/Fire_Down_Distractor.gif"",""img/Fire_Down_Distractor.gif"",""img/Fire_Down_Distractor.gif"",""img/Fire_Down_Distractor.gif"",""img/Fire_Down_Distractor.gif"",""img/Fire_Down_Distractor.gif"",""img/Fire_Down_Distractor.gif"",""img/Fire_Down_Distractor.gif"",""img/Fire_Down_Distractor.gif"",""img/Fire_Down_Distractor.gif"",""img/Fire_Down_Distractor.gif""]","targetUp_distractorsDown"
"","","","","","html-keyboard-response","214","552078","0.0-14.0-0.0-0.100","60f36509e33b5a8da6a56bd7","6186fb1cc52d38b480598eb7","6187349fb60f23d79ed08ff8","null","","null","","","","","fixation","","","",""
"","","","","","visual-search-circle","215","555216","0.0-14.0-0.0-1.100","60f36509e33b5a8da6a56bd7","6186fb1cc52d38b480598eb7","6187349fb60f23d79ed08ff8","2128.3000000715256","","d","true","[[567,436],[436,32],[32,163],[163,567]]","true","4","","","img/Fire_Up_Target.gif","[""img/Fire_Down_Distractor.gif"",""img/Fire_Down_Distractor.gif"",""img/Fire_Down_Distractor.gif"",""img/Fire_Down_Distractor.gif"",""img/Fire_Down_Distractor.gif"",""img/Fire_Down_Distractor.gif"",""img/Fire_Down_Distractor.gif"",""img/Fire_Down_Distractor.gif"",""img/Fire_Down_Distractor.gif"",""img/Fire_Down_Distractor.gif"",""img/Fire_Down_Distractor.gif"",""img/Fire_Down_Distractor.gif""]","targetUp_distractorsDown"
"","","","","","html-keyboard-response","216","555219","0.0-14.0-0.0-0.101","60f36509e33b5a8da6a56bd7","6186fb1cc52d38b480598eb7","6187349fb60f23d79ed08ff8","null","","null","","","","","fixation","","","",""
"","","","","","visual-search-circle","217","557866","0.0-14.0-0.0-1.101","60f36509e33b5a8da6a56bd7","6186fb1cc52d38b480598eb7","6187349fb60f23d79ed08ff8","1638.2999999523163","","d","true","[[16,202],[46,460],[267,598],[513,511],[597,264],[458,45],[199,17]]","true","7","","","img/Fire_Down_Target.gif","[""img/Fire_Up_Distractor.gif"",""img/Fire_Up_Distractor.gif"",""img/Fire_Up_Distractor.gif"",""img/Fire_Up_Distractor.gif"",""img/Fire_Up_Distractor.gif"",""img/Fire_Up_Distractor.gif"",""img/Fire_Up_Distractor.gif"",""img/Fire_Up_Distractor.gif"",""img/Fire_Up_Distractor.gif"",""img/Fire_Up_Distractor.gif"",""img/Fire_Up_Distractor.gif"",""img/Fire_Up_Distractor.gif""]","targetDown_distractorsUp"
"","","","","","html-keyboard-response","218","557869","0.0-14.0-0.0-0.102","60f36509e33b5a8da6a56bd7","6186fb1cc52d38b480598eb7","6187349fb60f23d79ed08ff8","null","","null","","","","","fixation","","","",""
"","","","","","visual-search-circle","219","562552","0.0-14.0-0.0-1.102","60f36509e33b5a8da6a56bd7","6186fb1cc52d38b480598eb7","6187349fb60f23d79ed08ff8","3667.399999976158","","s","false","[[23,417],[187,578],[417,576],[578,412],[576,182],[412,21],[182,23],[21,187]]","true","8","","","img/Fire_Up_Target.gif","[""img/Fire_Down_Distractor.gif"",""img/Fire_Down_Distractor.gif"",""img/Fire_Down_Distractor.gif"",""img/Fire_Down_Distractor.gif"",""img/Fire_Down_Distractor.gif"",""img/Fire_Down_Distractor.gif"",""img/Fire_Down_Distractor.gif"",""img/Fire_Down_Distractor.gif"",""img/Fire_Down_Distractor.gif"",""img/Fire_Down_Distractor.gif"",""img/Fire_Down_Distractor.gif"",""img/Fire_Down_Distractor.gif""]","targetUp_distractorsDown"
"","","","","","html-keyboard-response","220","562554","0.0-14.0-0.0-0.103","60f36509e33b5a8da6a56bd7","6186fb1cc52d38b480598eb7","6187349fb60f23d79ed08ff8","null","","null","","","","","fixation","","","",""
"","","","","","visual-search-circle","221","569584","0.0-14.0-0.0-1.103","60f36509e33b5a8da6a56bd7","6186fb1cc52d38b480598eb7","6187349fb60f23d79ed08ff8","6009.5","","d","true","[[567,163],[163,32],[32,436],[436,567]]","true","4","","","img/Fire_Down_Target.gif","[""img/Fire_Up_Distractor.gif"",""img/Fire_Up_Distractor.gif"",""img/Fire_Up_Distractor.gif"",""img/Fire_Up_Distractor.gif"",""img/Fire_Up_Distractor.gif"",""img/Fire_Up_Distractor.gif"",""img/Fire_Up_Distractor.gif"",""img/Fire_Up_Distractor.gif"",""img/Fire_Up_Distractor.gif"",""img/Fire_Up_Distractor.gif"",""img/Fire_Up_Distractor.gif"",""img/Fire_Up_Distractor.gif""]","targetDown_distractorsUp"
