"success","timeout","failed_images","failed_audio","failed_video","trial_type","trial_index","time_elapsed","internal_node_id","subject_id","study_id","session_id","rt","stimulus","response","correct","locations","target_present","set_size","task","correct_response","target","foilCM","searchCondition"
"true","false","[]","[]","[]","preload","0","27779","0.0-0.0","60fcce101117fe454e42be6b","6186fb1cc52d38b480598eb7","618731f51ea130388fd77019","","","","","","","","","","","",""
"true","","","","","fullscreen","1","38704","0.0-1.0","60fcce101117fe454e42be6b","6186fb1cc52d38b480598eb7","618731f51ea130388fd77019","","","","","","","","","","","",""
"","","","","","html-keyboard-response","2","48415","0.0-2.0","60fcce101117fe454e42be6b","6186fb1cc52d38b480598eb7","618731f51ea130388fd77019","9709.600000000559","What a beautiful Saturday to do some awesome science! </p> <p>  </p><p> </p>
    By completing this survey or questionnaire, you are consenting to be in this research study. </p>
    Your participation is voluntary and you can stop at any time.
    <p> [Press any key to continue.] </p>
    
    "," ","","","","","","","","",""
"","","","","","video-keyboard-response","3","78373","0.0-3.0","60fcce101117fe454e42be6b","6186fb1cc52d38b480598eb7","618731f51ea130388fd77019","29952.200000000186","[""video/TaskInstructions.mp4""]"," ","","","","","","","","",""
"","","","","","html-keyboard-response","4","81611","0.0-4.0","60fcce101117fe454e42be6b","6186fb1cc52d38b480598eb7","618731f51ea130388fd77019","3237","
    <p>First, we're going to do a few practice trials to make sure you understand the task. You will recieve feedback on each trial. </p>

    <p>[Press any key to begin the familiarization phase.]</p>
    "," ","","","","","","","","",""
"","","","","","visual-search-circle","5","89049","0.0-5.0-0.0","60fcce101117fe454e42be6b","6186fb1cc52d38b480598eb7","618731f51ea130388fd77019","6371.9000000003725","","s","false","[[320,599],[599,279],[279,0],[0,320]]","true","4","training","d","","",""
"","","","","","html-keyboard-response","6","90102","0.0-6.0","60fcce101117fe454e42be6b","6186fb1cc52d38b480598eb7","618731f51ea130388fd77019","1051.0999999996275"," <div style='float: center;'><img src='img/feedbackWrong.png'></img> </div> "," ","","","","","","","","",""
"","","","","","visual-search-circle","7","93934","0.0-7.0-0.0","60fcce101117fe454e42be6b","6186fb1cc52d38b480598eb7","618731f51ea130388fd77019","2820.0999999996275","","s","true","[[598,331],[331,1],[1,268],[268,598]]","false","4","training","s","","",""
"","","","","","html-keyboard-response","8","94715","0.0-8.0","60fcce101117fe454e42be6b","6186fb1cc52d38b480598eb7","618731f51ea130388fd77019","779.3999999994412"," <div style='float: center; '><img src='img/feedbackRight.png'></img> </div> "," ","","","","","","","","",""
"","","","","","visual-search-circle","9","97755","0.0-9.0-0.0","60fcce101117fe454e42be6b","6186fb1cc52d38b480598eb7","618731f51ea130388fd77019","2030.199999999255","","d","false","[[480,60],[182,23],[2,263],[119,539],[417,576],[597,336]]","false","6","training","s","","",""
"","","","","","html-keyboard-response","10","98405","0.0-10.0","60fcce101117fe454e42be6b","6186fb1cc52d38b480598eb7","618731f51ea130388fd77019","648"," <div style='float: center;'><img src='img/feedbackWrong.png'></img> </div> "," ","","","","","","","","",""
"","","","","","visual-search-circle","11","100874","0.0-11.0-0.0","60fcce101117fe454e42be6b","6186fb1cc52d38b480598eb7","618731f51ea130388fd77019","1451.0999999996275","","d","true","[[45,141],[7,367],[141,554],[367,592],[554,458],[592,232],[458,45],[232,7]]","true","8","training","d","","",""
"","","","","","html-keyboard-response","12","101733","0.0-12.0","60fcce101117fe454e42be6b","6186fb1cc52d38b480598eb7","618731f51ea130388fd77019","858.2000000001863"," <div style='float: center; '><img src='img/feedbackRight.png'></img> </div> "," ","","","","","","","","",""
"","","","","","video-keyboard-response","13","103185","0.0-13.0","60fcce101117fe454e42be6b","6186fb1cc52d38b480598eb7","618731f51ea130388fd77019","1447.7000000001863","[""video/endTraining.mp4""]"," ","","","","","","","","",""
"","","","","","html-keyboard-response","14","103189","0.0-14.0-0.0-0.0","60fcce101117fe454e42be6b","6186fb1cc52d38b480598eb7","618731f51ea130388fd77019","null","","null","","","","","fixation","","","",""
"","","","","","visual-search-circle","15","106093","0.0-14.0-0.0-1.0","60fcce101117fe454e42be6b","6186fb1cc52d38b480598eb7","618731f51ea130388fd77019","1889.2999999998137","","d","true","[[458,554],[591,227],[320,0],[21,187],[107,529]]","true","5","","","img/Fire_Down_Target.gif","[""img/Fire_Up_Distractor.gif"",""img/Fire_Up_Distractor.gif"",""img/Fire_Up_Distractor.gif"",""img/Fire_Up_Distractor.gif"",""img/Fire_Up_Distractor.gif"",""img/Fire_Up_Distractor.gif"",""img/Fire_Up_Distractor.gif"",""img/Fire_Up_Distractor.gif"",""img/Fire_Up_Distractor.gif"",""img/Fire_Up_Distractor.gif"",""img/Fire_Up_Distractor.gif"",""img/Fire_Up_Distractor.gif""]","targetDown_distractorsUp"
"","","","","","html-keyboard-response","16","106096","0.0-14.0-0.0-0.1","60fcce101117fe454e42be6b","6186fb1cc52d38b480598eb7","618731f51ea130388fd77019","null","","null","","","","","fixation","","","",""
"","","","","","visual-search-circle","17","108194","0.0-14.0-0.0-1.1","60fcce101117fe454e42be6b","6186fb1cc52d38b480598eb7","618731f51ea130388fd77019","1085.5","","s","true","[[145,557],[445,562],[599,305],[454,42],[154,37],[0,294]]","false","6","","","img/Fire_Down_Target.gif","[""img/Fire_Up_Distractor.gif"",""img/Fire_Up_Distractor.gif"",""img/Fire_Up_Distractor.gif"",""img/Fire_Up_Distractor.gif"",""img/Fire_Up_Distractor.gif"",""img/Fire_Up_Distractor.gif"",""img/Fire_Up_Distractor.gif"",""img/Fire_Up_Distractor.gif"",""img/Fire_Up_Distractor.gif"",""img/Fire_Up_Distractor.gif"",""img/Fire_Up_Distractor.gif"",""img/Fire_Up_Distractor.gif""]","targetDown_distractorsUp"
"","","","","","html-keyboard-response","18","108196","0.0-14.0-0.0-0.2","60fcce101117fe454e42be6b","6186fb1cc52d38b480598eb7","618731f51ea130388fd77019","null","","null","","","","","fixation","","","",""
"","","","","","visual-search-circle","19","111055","0.0-14.0-0.0-1.2","60fcce101117fe454e42be6b","6186fb1cc52d38b480598eb7","618731f51ea130388fd77019","1847.3999999994412","","s","true","[[480,539],[599,308],[493,70],[241,5],[33,162],[26,422],[225,590]]","false","7","","","img/Fire_Up_Target.gif","[""img/Fire_Down_Distractor.gif"",""img/Fire_Down_Distractor.gif"",""img/Fire_Down_Distractor.gif"",""img/Fire_Down_Distractor.gif"",""img/Fire_Down_Distractor.gif"",""img/Fire_Down_Distractor.gif"",""img/Fire_Down_Distractor.gif"",""img/Fire_Down_Distractor.gif"",""img/Fire_Down_Distractor.gif"",""img/Fire_Down_Distractor.gif"",""img/Fire_Down_Distractor.gif"",""img/Fire_Down_Distractor.gif""]","targetUp_distractorsDown"
"","","","","","html-keyboard-response","20","111058","0.0-14.0-0.0-0.3","60fcce101117fe454e42be6b","6186fb1cc52d38b480598eb7","618731f51ea130388fd77019","null","","null","","","","","fixation","","","",""
"","","","","","visual-search-circle","21","116956","0.0-14.0-0.0-1.3","60fcce101117fe454e42be6b","6186fb1cc52d38b480598eb7","618731f51ea130388fd77019","4887.5999999996275","","d","false","[[16,397],[199,582],[458,554],[597,335],[513,88],[267,1],[46,139]]","false","7","","","img/Fire_Down_Target.gif","[""img/Fire_Up_Distractor.gif"",""img/Fire_Up_Distractor.gif"",""img/Fire_Up_Distractor.gif"",""img/Fire_Up_Distractor.gif"",""img/Fire_Up_Distractor.gif"",""img/Fire_Up_Distractor.gif"",""img/Fire_Up_Distractor.gif"",""img/Fire_Up_Distractor.gif"",""img/Fire_Up_Distractor.gif"",""img/Fire_Up_Distractor.gif"",""img/Fire_Up_Distractor.gif"",""img/Fire_Up_Distractor.gif""]","targetDown_distractorsUp"
"","","","","","html-keyboard-response","22","116959","0.0-14.0-0.0-0.4","60fcce101117fe454e42be6b","6186fb1cc52d38b480598eb7","618731f51ea130388fd77019","null","","null","","","","","fixation","","","",""
"","","","","","visual-search-circle","23","119801","0.0-14.0-0.0-1.4","60fcce101117fe454e42be6b","6186fb1cc52d38b480598eb7","618731f51ea130388fd77019","1829.7000000001863","","d","true","[[163,32],[32,436],[436,567],[567,163]]","true","4","","","img/Fire_Down_Target.gif","[""img/Fire_Up_Distractor.gif"",""img/Fire_Up_Distractor.gif"",""img/Fire_Up_Distractor.gif"",""img/Fire_Up_Distractor.gif"",""img/Fire_Up_Distractor.gif"",""img/Fire_Up_Distractor.gif"",""img/Fire_Up_Distractor.gif"",""img/Fire_Up_Distractor.gif"",""img/Fire_Up_Distractor.gif"",""img/Fire_Up_Distractor.gif"",""img/Fire_Up_Distractor.gif"",""img/Fire_Up_Distractor.gif""]","targetDown_distractorsUp"
"","","","","","html-keyboard-response","24","119802","0.0-14.0-0.0-0.5","60fcce101117fe454e42be6b","6186fb1cc52d38b480598eb7","618731f51ea130388fd77019","null","","null","","","","","fixation","","","",""
"","","","","","visual-search-circle","25","125043","0.0-14.0-0.0-1.5","60fcce101117fe454e42be6b","6186fb1cc52d38b480598eb7","618731f51ea130388fd77019","4227.799999999814","","d","true","[[0,279],[279,599],[599,320],[320,0]]","true","4","","","img/Fire_Up_Target.gif","[""img/Fire_Down_Distractor.gif"",""img/Fire_Down_Distractor.gif"",""img/Fire_Down_Distractor.gif"",""img/Fire_Down_Distractor.gif"",""img/Fire_Down_Distractor.gif"",""img/Fire_Down_Distractor.gif"",""img/Fire_Down_Distractor.gif"",""img/Fire_Down_Distractor.gif"",""img/Fire_Down_Distractor.gif"",""img/Fire_Down_Distractor.gif"",""img/Fire_Down_Distractor.gif"",""img/Fire_Down_Distractor.gif""]","targetUp_distractorsDown"
"","","","","","html-keyboard-response","26","125046","0.0-14.0-0.0-0.6","60fcce101117fe454e42be6b","6186fb1cc52d38b480598eb7","618731f51ea130388fd77019","null","","null","","","","","fixation","","","",""
"","","","","","visual-search-circle","27","127815","0.0-14.0-0.0-1.6","60fcce101117fe454e42be6b","6186fb1cc52d38b480598eb7","618731f51ea130388fd77019","1752.5","","s","true","[[500,77],[207,14],[6,237],[99,522],[392,585],[593,362]]","false","6","","","img/Fire_Down_Target.gif","[""img/Fire_Up_Distractor.gif"",""img/Fire_Up_Distractor.gif"",""img/Fire_Up_Distractor.gif"",""img/Fire_Up_Distractor.gif"",""img/Fire_Up_Distractor.gif"",""img/Fire_Up_Distractor.gif"",""img/Fire_Up_Distractor.gif"",""img/Fire_Up_Distractor.gif"",""img/Fire_Up_Distractor.gif"",""img/Fire_Up_Distractor.gif"",""img/Fire_Up_Distractor.gif"",""img/Fire_Up_Distractor.gif""]","targetDown_distractorsUp"
"","","","","","html-keyboard-response","28","127817","0.0-14.0-0.0-0.7","60fcce101117fe454e42be6b","6186fb1cc52d38b480598eb7","618731f51ea130388fd77019","null","","null","","","","","fixation","","","",""
"","","","","","visual-search-circle","29","131127","0.0-14.0-0.0-1.7","60fcce101117fe454e42be6b","6186fb1cc52d38b480598eb7","618731f51ea130388fd77019","2295","","d","true","[[440,564],[595,247],[341,2],[30,168],[91,515]]","true","5","","","img/Fire_Up_Target.gif","[""img/Fire_Down_Distractor.gif"",""img/Fire_Down_Distractor.gif"",""img/Fire_Down_Distractor.gif"",""img/Fire_Down_Distractor.gif"",""img/Fire_Down_Distractor.gif"",""img/Fire_Down_Distractor.gif"",""img/Fire_Down_Distractor.gif"",""img/Fire_Down_Distractor.gif"",""img/Fire_Down_Distractor.gif"",""img/Fire_Down_Distractor.gif"",""img/Fire_Down_Distractor.gif"",""img/Fire_Down_Distractor.gif""]","targetUp_distractorsDown"
"","","","","","html-keyboard-response","30","131129","0.0-14.0-0.0-0.8","60fcce101117fe454e42be6b","6186fb1cc52d38b480598eb7","618731f51ea130388fd77019","null","","null","","","","","fixation","","","",""
"","","","","","visual-search-circle","31","135483","0.0-14.0-0.0-1.8","60fcce101117fe454e42be6b","6186fb1cc52d38b480598eb7","618731f51ea130388fd77019","3343.100000000559","","s","false","[[599,305],[454,42],[154,37],[0,294],[145,557],[445,562]]","true","6","","","img/Fire_Up_Target.gif","[""img/Fire_Down_Distractor.gif"",""img/Fire_Down_Distractor.gif"",""img/Fire_Down_Distractor.gif"",""img/Fire_Down_Distractor.gif"",""img/Fire_Down_Distractor.gif"",""img/Fire_Down_Distractor.gif"",""img/Fire_Down_Distractor.gif"",""img/Fire_Down_Distractor.gif"",""img/Fire_Down_Distractor.gif"",""img/Fire_Down_Distractor.gif"",""img/Fire_Down_Distractor.gif"",""img/Fire_Down_Distractor.gif""]","targetUp_distractorsDown"
"","","","","","html-keyboard-response","32","135485","0.0-14.0-0.0-0.9","60fcce101117fe454e42be6b","6186fb1cc52d38b480598eb7","618731f51ea130388fd77019","null","","null","","","","","fixation","","","",""
"","","","","","visual-search-circle","33","138986","0.0-14.0-0.0-1.9","60fcce101117fe454e42be6b","6186fb1cc52d38b480598eb7","618731f51ea130388fd77019","2485.5999999996275","","s","true","[[57,123],[25,422],[268,598],[542,476],[574,177],[331,1]]","false","6","","","img/Fire_Down_Target.gif","[""img/Fire_Up_Distractor.gif"",""img/Fire_Up_Distractor.gif"",""img/Fire_Up_Distractor.gif"",""img/Fire_Up_Distractor.gif"",""img/Fire_Up_Distractor.gif"",""img/Fire_Up_Distractor.gif"",""img/Fire_Up_Distractor.gif"",""img/Fire_Up_Distractor.gif"",""img/Fire_Up_Distractor.gif"",""img/Fire_Up_Distractor.gif"",""img/Fire_Up_Distractor.gif"",""img/Fire_Up_Distractor.gif""]","targetDown_distractorsUp"
"","","","","","html-keyboard-response","34","138990","0.0-14.0-0.0-0.10","60fcce101117fe454e42be6b","6186fb1cc52d38b480598eb7","618731f51ea130388fd77019","null","","null","","","","","fixation","","","",""
"","","","","","visual-search-circle","35","142320","0.0-14.0-0.0-1.10","60fcce101117fe454e42be6b","6186fb1cc52d38b480598eb7","618731f51ea130388fd77019","2315.5","","s","true","[[0,310],[217,588],[548,467],[536,115],[197,18]]","false","5","","","img/Fire_Down_Target.gif","[""img/Fire_Up_Distractor.gif"",""img/Fire_Up_Distractor.gif"",""img/Fire_Up_Distractor.gif"",""img/Fire_Up_Distractor.gif"",""img/Fire_Up_Distractor.gif"",""img/Fire_Up_Distractor.gif"",""img/Fire_Up_Distractor.gif"",""img/Fire_Up_Distractor.gif"",""img/Fire_Up_Distractor.gif"",""img/Fire_Up_Distractor.gif"",""img/Fire_Up_Distractor.gif"",""img/Fire_Up_Distractor.gif""]","targetDown_distractorsUp"
"","","","","","html-keyboard-response","36","142323","0.0-14.0-0.0-0.11","60fcce101117fe454e42be6b","6186fb1cc52d38b480598eb7","618731f51ea130388fd77019","null","","null","","","","","fixation","","","",""
"","","","","","visual-search-circle","37","144748","0.0-14.0-0.0-1.11","60fcce101117fe454e42be6b","6186fb1cc52d38b480598eb7","618731f51ea130388fd77019","1410","","d","true","[[132,51],[0,276],[94,518],[343,596],[559,451],[579,191],[389,13]]","true","7","","","img/Fire_Up_Target.gif","[""img/Fire_Down_Distractor.gif"",""img/Fire_Down_Distractor.gif"",""img/Fire_Down_Distractor.gif"",""img/Fire_Down_Distractor.gif"",""img/Fire_Down_Distractor.gif"",""img/Fire_Down_Distractor.gif"",""img/Fire_Down_Distractor.gif"",""img/Fire_Down_Distractor.gif"",""img/Fire_Down_Distractor.gif"",""img/Fire_Down_Distractor.gif"",""img/Fire_Down_Distractor.gif"",""img/Fire_Down_Distractor.gif""]","targetUp_distractorsDown"
"","","","","","html-keyboard-response","38","144751","0.0-14.0-0.0-0.12","60fcce101117fe454e42be6b","6186fb1cc52d38b480598eb7","618731f51ea130388fd77019","null","","null","","","","","fixation","","","",""
"","","","","","visual-search-circle","39","147701","0.0-14.0-0.0-1.12","60fcce101117fe454e42be6b","6186fb1cc52d38b480598eb7","618731f51ea130388fd77019","1934.3999999994412","","d","true","[[119,60],[16,397],[305,599],[586,387],[472,54]]","true","5","","","img/Fire_Down_Target.gif","[""img/Fire_Up_Distractor.gif"",""img/Fire_Up_Distractor.gif"",""img/Fire_Up_Distractor.gif"",""img/Fire_Up_Distractor.gif"",""img/Fire_Up_Distractor.gif"",""img/Fire_Up_Distractor.gif"",""img/Fire_Up_Distractor.gif"",""img/Fire_Up_Distractor.gif"",""img/Fire_Up_Distractor.gif"",""img/Fire_Up_Distractor.gif"",""img/Fire_Up_Distractor.gif"",""img/Fire_Up_Distractor.gif""]","targetDown_distractorsUp"
"","","","","","html-keyboard-response","40","147703","0.0-14.0-0.0-0.13","60fcce101117fe454e42be6b","6186fb1cc52d38b480598eb7","618731f51ea130388fd77019","null","","null","","","","","fixation","","","",""
"","","","","","visual-search-circle","41","152729","0.0-14.0-0.0-1.13","60fcce101117fe454e42be6b","6186fb1cc52d38b480598eb7","618731f51ea130388fd77019","4014","","s","false","[[23,417],[326,598],[592,367],[454,42],[103,73]]","true","5","","","img/Fire_Up_Target.gif","[""img/Fire_Down_Distractor.gif"",""img/Fire_Down_Distractor.gif"",""img/Fire_Down_Distractor.gif"",""img/Fire_Down_Distractor.gif"",""img/Fire_Down_Distractor.gif"",""img/Fire_Down_Distractor.gif"",""img/Fire_Down_Distractor.gif"",""img/Fire_Down_Distractor.gif"",""img/Fire_Down_Distractor.gif"",""img/Fire_Down_Distractor.gif"",""img/Fire_Down_Distractor.gif"",""img/Fire_Down_Distractor.gif""]","targetUp_distractorsDown"
"","","","","","html-keyboard-response","42","152732","0.0-14.0-0.0-0.14","60fcce101117fe454e42be6b","6186fb1cc52d38b480598eb7","618731f51ea130388fd77019","null","","null","","","","","fixation","","","",""
"","","","","","visual-search-circle","43","155270","0.0-14.0-0.0-1.14","60fcce101117fe454e42be6b","6186fb1cc52d38b480598eb7","618731f51ea130388fd77019","1520.2000000001863","","s","true","[[273,1],[70,107],[1,326],[107,529],[326,598],[529,492],[598,273],[492,70]]","false","8","","","img/Fire_Up_Target.gif","[""img/Fire_Down_Distractor.gif"",""img/Fire_Down_Distractor.gif"",""img/Fire_Down_Distractor.gif"",""img/Fire_Down_Distractor.gif"",""img/Fire_Down_Distractor.gif"",""img/Fire_Down_Distractor.gif"",""img/Fire_Down_Distractor.gif"",""img/Fire_Down_Distractor.gif"",""img/Fire_Down_Distractor.gif"",""img/Fire_Down_Distractor.gif"",""img/Fire_Down_Distractor.gif"",""img/Fire_Down_Distractor.gif""]","targetUp_distractorsDown"
"","","","","","html-keyboard-response","44","155271","0.0-14.0-0.0-0.15","60fcce101117fe454e42be6b","6186fb1cc52d38b480598eb7","618731f51ea130388fd77019","null","","null","","","","","fixation","","","",""
"","","","","","visual-search-circle","45","157654","0.0-14.0-0.0-1.15","60fcce101117fe454e42be6b","6186fb1cc52d38b480598eb7","618731f51ea130388fd77019","1365.8999999994412","","s","true","[[591,372],[557,145],[372,8],[145,42],[8,227],[42,454],[227,591],[454,557]]","false","8","","","img/Fire_Down_Target.gif","[""img/Fire_Up_Distractor.gif"",""img/Fire_Up_Distractor.gif"",""img/Fire_Up_Distractor.gif"",""img/Fire_Up_Distractor.gif"",""img/Fire_Up_Distractor.gif"",""img/Fire_Up_Distractor.gif"",""img/Fire_Up_Distractor.gif"",""img/Fire_Up_Distractor.gif"",""img/Fire_Up_Distractor.gif"",""img/Fire_Up_Distractor.gif"",""img/Fire_Up_Distractor.gif"",""img/Fire_Up_Distractor.gif""]","targetDown_distractorsUp"
"","","","","","html-keyboard-response","46","157656","0.0-14.0-0.0-0.16","60fcce101117fe454e42be6b","6186fb1cc52d38b480598eb7","618731f51ea130388fd77019","null","","null","","","","","fixation","","","",""
"","","","","","visual-search-circle","47","160308","0.0-14.0-0.0-1.16","60fcce101117fe454e42be6b","6186fb1cc52d38b480598eb7","618731f51ea130388fd77019","1640.0999999996275","","s","true","[[362,593],[585,392],[522,99],[237,6],[14,207],[77,500]]","false","6","","","img/Fire_Up_Target.gif","[""img/Fire_Down_Distractor.gif"",""img/Fire_Down_Distractor.gif"",""img/Fire_Down_Distractor.gif"",""img/Fire_Down_Distractor.gif"",""img/Fire_Down_Distractor.gif"",""img/Fire_Down_Distractor.gif"",""img/Fire_Down_Distractor.gif"",""img/Fire_Down_Distractor.gif"",""img/Fire_Down_Distractor.gif"",""img/Fire_Down_Distractor.gif"",""img/Fire_Down_Distractor.gif"",""img/Fire_Down_Distractor.gif""]","targetUp_distractorsDown"
"","","","","","html-keyboard-response","48","160310","0.0-14.0-0.0-0.17","60fcce101117fe454e42be6b","6186fb1cc52d38b480598eb7","618731f51ea130388fd77019","null","","null","","","","","fixation","","","",""
"","","","","","visual-search-circle","49","165818","0.0-14.0-0.0-1.17","60fcce101117fe454e42be6b","6186fb1cc52d38b480598eb7","618731f51ea130388fd77019","4498.5999999996275","","d","true","[[581,197],[197,18],[18,402],[402,581]]","true","4","","","img/Fire_Up_Target.gif","[""img/Fire_Down_Distractor.gif"",""img/Fire_Down_Distractor.gif"",""img/Fire_Down_Distractor.gif"",""img/Fire_Down_Distractor.gif"",""img/Fire_Down_Distractor.gif"",""img/Fire_Down_Distractor.gif"",""img/Fire_Down_Distractor.gif"",""img/Fire_Down_Distractor.gif"",""img/Fire_Down_Distractor.gif"",""img/Fire_Down_Distractor.gif"",""img/Fire_Down_Distractor.gif"",""img/Fire_Down_Distractor.gif""]","targetUp_distractorsDown"
"","","","","","html-keyboard-response","50","165821","0.0-14.0-0.0-0.18","60fcce101117fe454e42be6b","6186fb1cc52d38b480598eb7","618731f51ea130388fd77019","null","","null","","","","","fixation","","","",""
"","","","","","visual-search-circle","51","168311","0.0-14.0-0.0-1.18","60fcce101117fe454e42be6b","6186fb1cc52d38b480598eb7","618731f51ea130388fd77019","1476.0999999996275","","d","true","[[8,372],[279,599],[578,412],[492,70],[141,45]]","true","5","","","img/Fire_Down_Target.gif","[""img/Fire_Up_Distractor.gif"",""img/Fire_Up_Distractor.gif"",""img/Fire_Up_Distractor.gif"",""img/Fire_Up_Distractor.gif"",""img/Fire_Up_Distractor.gif"",""img/Fire_Up_Distractor.gif"",""img/Fire_Up_Distractor.gif"",""img/Fire_Up_Distractor.gif"",""img/Fire_Up_Distractor.gif"",""img/Fire_Up_Distractor.gif"",""img/Fire_Up_Distractor.gif"",""img/Fire_Up_Distractor.gif""]","targetDown_distractorsUp"
"","","","","","html-keyboard-response","52","175290","0.0-14.0-0.0-0.19","60fcce101117fe454e42be6b","6186fb1cc52d38b480598eb7","618731f51ea130388fd77019","6977.299999999814","Wow! You've completed 20 out of 120 trials! </p> <p>  </p><p> Take a quick break, then press any key when you're ready to continue."," ","","","","","fixation","","","",""
"","","","","","visual-search-circle","53","179510","0.0-14.0-0.0-1.19","60fcce101117fe454e42be6b","6186fb1cc52d38b480598eb7","618731f51ea130388fd77019","3200.7999999998137","","s","true","[[467,548],[594,357],[548,132],[357,5],[132,51],[5,242],[51,467],[242,594]]","false","8","","","img/Fire_Up_Target.gif","[""img/Fire_Down_Distractor.gif"",""img/Fire_Down_Distractor.gif"",""img/Fire_Down_Distractor.gif"",""img/Fire_Down_Distractor.gif"",""img/Fire_Down_Distractor.gif"",""img/Fire_Down_Distractor.gif"",""img/Fire_Down_Distractor.gif"",""img/Fire_Down_Distractor.gif"",""img/Fire_Down_Distractor.gif"",""img/Fire_Down_Distractor.gif"",""img/Fire_Down_Distractor.gif"",""img/Fire_Down_Distractor.gif""]","targetUp_distractorsDown"
"","","","","","html-keyboard-response","54","179512","0.0-14.0-0.0-0.20","60fcce101117fe454e42be6b","6186fb1cc52d38b480598eb7","618731f51ea130388fd77019","null","","null","","","","","fixation","","","",""
"","","","","","visual-search-circle","55","181921","0.0-14.0-0.0-1.20","60fcce101117fe454e42be6b","6186fb1cc52d38b480598eb7","618731f51ea130388fd77019","1393.1000000005588","","d","true","[[436,567],[585,392],[567,163],[392,14],[163,32],[14,207],[32,436],[207,585]]","true","8","","","img/Fire_Up_Target.gif","[""img/Fire_Down_Distractor.gif"",""img/Fire_Down_Distractor.gif"",""img/Fire_Down_Distractor.gif"",""img/Fire_Down_Distractor.gif"",""img/Fire_Down_Distractor.gif"",""img/Fire_Down_Distractor.gif"",""img/Fire_Down_Distractor.gif"",""img/Fire_Down_Distractor.gif"",""img/Fire_Down_Distractor.gif"",""img/Fire_Down_Distractor.gif"",""img/Fire_Down_Distractor.gif"",""img/Fire_Down_Distractor.gif""]","targetUp_distractorsDown"
"","","","","","html-keyboard-response","56","181923","0.0-14.0-0.0-0.21","60fcce101117fe454e42be6b","6186fb1cc52d38b480598eb7","618731f51ea130388fd77019","null","","null","","","","","fixation","","","",""
"","","","","","visual-search-circle","57","184377","0.0-14.0-0.0-1.21","60fcce101117fe454e42be6b","6186fb1cc52d38b480598eb7","618731f51ea130388fd77019","1445.8999999994412","","d","true","[[595,247],[341,2],[30,168],[91,515],[440,564]]","true","5","","","img/Fire_Down_Target.gif","[""img/Fire_Up_Distractor.gif"",""img/Fire_Up_Distractor.gif"",""img/Fire_Up_Distractor.gif"",""img/Fire_Up_Distractor.gif"",""img/Fire_Up_Distractor.gif"",""img/Fire_Up_Distractor.gif"",""img/Fire_Up_Distractor.gif"",""img/Fire_Up_Distractor.gif"",""img/Fire_Up_Distractor.gif"",""img/Fire_Up_Distractor.gif"",""img/Fire_Up_Distractor.gif"",""img/Fire_Up_Distractor.gif""]","targetDown_distractorsUp"
"","","","","","html-keyboard-response","58","184379","0.0-14.0-0.0-0.22","60fcce101117fe454e42be6b","6186fb1cc52d38b480598eb7","618731f51ea130388fd77019","null","","null","","","","","fixation","","","",""
"","","","","","visual-search-circle","59","188971","0.0-14.0-0.0-1.22","60fcce101117fe454e42be6b","6186fb1cc52d38b480598eb7","618731f51ea130388fd77019","3581.0999999996275","","s","false","[[320,599],[547,470],[587,213],[410,21],[151,39],[3,253],[79,502]]","true","7","","","img/Fire_Down_Target.gif","[""img/Fire_Up_Distractor.gif"",""img/Fire_Up_Distractor.gif"",""img/Fire_Up_Distractor.gif"",""img/Fire_Up_Distractor.gif"",""img/Fire_Up_Distractor.gif"",""img/Fire_Up_Distractor.gif"",""img/Fire_Up_Distractor.gif"",""img/Fire_Up_Distractor.gif"",""img/Fire_Up_Distractor.gif"",""img/Fire_Up_Distractor.gif"",""img/Fire_Up_Distractor.gif"",""img/Fire_Up_Distractor.gif""]","targetDown_distractorsUp"
"","","","","","html-keyboard-response","60","188974","0.0-14.0-0.0-0.23","60fcce101117fe454e42be6b","6186fb1cc52d38b480598eb7","618731f51ea130388fd77019","null","","null","","","","","fixation","","","",""
"","","","","","visual-search-circle","61","192792","0.0-14.0-0.0-1.23","60fcce101117fe454e42be6b","6186fb1cc52d38b480598eb7","618731f51ea130388fd77019","2807.2000000001863","","s","true","[[576,182],[182,23],[23,417],[417,576]]","false","4","","","img/Fire_Up_Target.gif","[""img/Fire_Down_Distractor.gif"",""img/Fire_Down_Distractor.gif"",""img/Fire_Down_Distractor.gif"",""img/Fire_Down_Distractor.gif"",""img/Fire_Down_Distractor.gif"",""img/Fire_Down_Distractor.gif"",""img/Fire_Down_Distractor.gif"",""img/Fire_Down_Distractor.gif"",""img/Fire_Down_Distractor.gif"",""img/Fire_Down_Distractor.gif"",""img/Fire_Down_Distractor.gif"",""img/Fire_Down_Distractor.gif""]","targetUp_distractorsDown"
"","","","","","html-keyboard-response","62","192794","0.0-14.0-0.0-0.24","60fcce101117fe454e42be6b","6186fb1cc52d38b480598eb7","618731f51ea130388fd77019","null","","null","","","","","fixation","","","",""
"","","","","","visual-search-circle","63","194876","0.0-14.0-0.0-1.24","60fcce101117fe454e42be6b","6186fb1cc52d38b480598eb7","618731f51ea130388fd77019","1071.2000000001863","","d","true","[[177,574],[438,566],[594,357],[528,106],[291,0],[59,120],[9,375]]","true","7","","","img/Fire_Down_Target.gif","[""img/Fire_Up_Distractor.gif"",""img/Fire_Up_Distractor.gif"",""img/Fire_Up_Distractor.gif"",""img/Fire_Up_Distractor.gif"",""img/Fire_Up_Distractor.gif"",""img/Fire_Up_Distractor.gif"",""img/Fire_Up_Distractor.gif"",""img/Fire_Up_Distractor.gif"",""img/Fire_Up_Distractor.gif"",""img/Fire_Up_Distractor.gif"",""img/Fire_Up_Distractor.gif"",""img/Fire_Up_Distractor.gif""]","targetDown_distractorsUp"
"","","","","","html-keyboard-response","64","194878","0.0-14.0-0.0-0.25","60fcce101117fe454e42be6b","6186fb1cc52d38b480598eb7","618731f51ea130388fd77019","null","","null","","","","","fixation","","","",""
"","","","","","visual-search-circle","65","197083","0.0-14.0-0.0-1.25","60fcce101117fe454e42be6b","6186fb1cc52d38b480598eb7","618731f51ea130388fd77019","1188.7999999998137","","d","true","[[6,237],[68,490],[304,599],[537,483],[591,228],[426,27],[165,31]]","true","7","","","img/Fire_Down_Target.gif","[""img/Fire_Up_Distractor.gif"",""img/Fire_Up_Distractor.gif"",""img/Fire_Up_Distractor.gif"",""img/Fire_Up_Distractor.gif"",""img/Fire_Up_Distractor.gif"",""img/Fire_Up_Distractor.gif"",""img/Fire_Up_Distractor.gif"",""img/Fire_Up_Distractor.gif"",""img/Fire_Up_Distractor.gif"",""img/Fire_Up_Distractor.gif"",""img/Fire_Up_Distractor.gif"",""img/Fire_Up_Distractor.gif""]","targetDown_distractorsUp"
"","","","","","html-keyboard-response","66","197086","0.0-14.0-0.0-0.26","60fcce101117fe454e42be6b","6186fb1cc52d38b480598eb7","618731f51ea130388fd77019","null","","null","","","","","fixation","","","",""
"","","","","","visual-search-circle","67","199169","0.0-14.0-0.0-1.26","60fcce101117fe454e42be6b","6186fb1cc52d38b480598eb7","618731f51ea130388fd77019","1064.2999999998137","","d","true","[[57,123],[3,346],[123,542],[346,596],[542,476],[596,253],[476,57],[253,3]]","true","8","","","img/Fire_Down_Target.gif","[""img/Fire_Up_Distractor.gif"",""img/Fire_Up_Distractor.gif"",""img/Fire_Up_Distractor.gif"",""img/Fire_Up_Distractor.gif"",""img/Fire_Up_Distractor.gif"",""img/Fire_Up_Distractor.gif"",""img/Fire_Up_Distractor.gif"",""img/Fire_Up_Distractor.gif"",""img/Fire_Up_Distractor.gif"",""img/Fire_Up_Distractor.gif"",""img/Fire_Up_Distractor.gif"",""img/Fire_Up_Distractor.gif""]","targetDown_distractorsUp"
"","","","","","html-keyboard-response","68","199172","0.0-14.0-0.0-0.27","60fcce101117fe454e42be6b","6186fb1cc52d38b480598eb7","618731f51ea130388fd77019","null","","null","","","","","fixation","","","",""
"","","","","","visual-search-circle","69","201402","0.0-14.0-0.0-1.27","60fcce101117fe454e42be6b","6186fb1cc52d38b480598eb7","618731f51ea130388fd77019","1221.5999999996275","","s","true","[[222,10],[10,377],[377,589],[589,222]]","false","4","","","img/Fire_Up_Target.gif","[""img/Fire_Down_Distractor.gif"",""img/Fire_Down_Distractor.gif"",""img/Fire_Down_Distractor.gif"",""img/Fire_Down_Distractor.gif"",""img/Fire_Down_Distractor.gif"",""img/Fire_Down_Distractor.gif"",""img/Fire_Down_Distractor.gif"",""img/Fire_Down_Distractor.gif"",""img/Fire_Down_Distractor.gif"",""img/Fire_Down_Distractor.gif"",""img/Fire_Down_Distractor.gif"",""img/Fire_Down_Distractor.gif""]","targetUp_distractorsDown"
"","","","","","html-keyboard-response","70","201406","0.0-14.0-0.0-0.28","60fcce101117fe454e42be6b","6186fb1cc52d38b480598eb7","618731f51ea130388fd77019","null","","null","","","","","fixation","","","",""
"","","","","","visual-search-circle","71","203418","0.0-14.0-0.0-1.28","60fcce101117fe454e42be6b","6186fb1cc52d38b480598eb7","618731f51ea130388fd77019","1001.5","","s","true","[[1,268],[123,542],[422,574],[598,331],[476,57],[177,25]]","false","6","","","img/Fire_Up_Target.gif","[""img/Fire_Down_Distractor.gif"",""img/Fire_Down_Distractor.gif"",""img/Fire_Down_Distractor.gif"",""img/Fire_Down_Distractor.gif"",""img/Fire_Down_Distractor.gif"",""img/Fire_Down_Distractor.gif"",""img/Fire_Down_Distractor.gif"",""img/Fire_Down_Distractor.gif"",""img/Fire_Down_Distractor.gif"",""img/Fire_Down_Distractor.gif"",""img/Fire_Down_Distractor.gif"",""img/Fire_Down_Distractor.gif""]","targetUp_distractorsDown"
"","","","","","html-keyboard-response","72","203422","0.0-14.0-0.0-0.29","60fcce101117fe454e42be6b","6186fb1cc52d38b480598eb7","618731f51ea130388fd77019","null","","null","","","","","fixation","","","",""
"","","","","","visual-search-circle","73","205683","0.0-14.0-0.0-1.29","60fcce101117fe454e42be6b","6186fb1cc52d38b480598eb7","618731f51ea130388fd77019","1245.0999999996275","","s","true","[[529,107],[326,1],[107,70],[1,273],[70,492],[273,598],[492,529],[598,326]]","false","8","","","img/Fire_Down_Target.gif","[""img/Fire_Up_Distractor.gif"",""img/Fire_Up_Distractor.gif"",""img/Fire_Up_Distractor.gif"",""img/Fire_Up_Distractor.gif"",""img/Fire_Up_Distractor.gif"",""img/Fire_Up_Distractor.gif"",""img/Fire_Up_Distractor.gif"",""img/Fire_Up_Distractor.gif"",""img/Fire_Up_Distractor.gif"",""img/Fire_Up_Distractor.gif"",""img/Fire_Up_Distractor.gif"",""img/Fire_Up_Distractor.gif""]","targetDown_distractorsUp"
"","","","","","html-keyboard-response","74","205685","0.0-14.0-0.0-0.30","60fcce101117fe454e42be6b","6186fb1cc52d38b480598eb7","618731f51ea130388fd77019","null","","null","","","","","fixation","","","",""
"","","","","","visual-search-circle","75","212993","0.0-14.0-0.0-1.30","60fcce101117fe454e42be6b","6186fb1cc52d38b480598eb7","618731f51ea130388fd77019","6294.5999999996275","","s","false","[[263,2],[23,182],[60,480],[336,597],[576,417],[539,119]]","true","6","","","img/Fire_Down_Target.gif","[""img/Fire_Up_Distractor.gif"",""img/Fire_Up_Distractor.gif"",""img/Fire_Up_Distractor.gif"",""img/Fire_Up_Distractor.gif"",""img/Fire_Up_Distractor.gif"",""img/Fire_Up_Distractor.gif"",""img/Fire_Up_Distractor.gif"",""img/Fire_Up_Distractor.gif"",""img/Fire_Up_Distractor.gif"",""img/Fire_Up_Distractor.gif"",""img/Fire_Up_Distractor.gif"",""img/Fire_Up_Distractor.gif""]","targetDown_distractorsUp"
"","","","","","html-keyboard-response","76","212996","0.0-14.0-0.0-0.31","60fcce101117fe454e42be6b","6186fb1cc52d38b480598eb7","618731f51ea130388fd77019","null","","null","","","","","fixation","","","",""
"","","","","","visual-search-circle","77","214572","0.0-14.0-0.0-1.31","60fcce101117fe454e42be6b","6186fb1cc52d38b480598eb7","618731f51ea130388fd77019","559.2999999998137","","s","true","[[11,382],[227,591],[515,508],[588,217],[372,8],[84,91]]","false","6","","","img/Fire_Down_Target.gif","[""img/Fire_Up_Distractor.gif"",""img/Fire_Up_Distractor.gif"",""img/Fire_Up_Distractor.gif"",""img/Fire_Up_Distractor.gif"",""img/Fire_Up_Distractor.gif"",""img/Fire_Up_Distractor.gif"",""img/Fire_Up_Distractor.gif"",""img/Fire_Up_Distractor.gif"",""img/Fire_Up_Distractor.gif"",""img/Fire_Up_Distractor.gif"",""img/Fire_Up_Distractor.gif"",""img/Fire_Up_Distractor.gif""]","targetDown_distractorsUp"
"","","","","","html-keyboard-response","78","214574","0.0-14.0-0.0-0.32","60fcce101117fe454e42be6b","6186fb1cc52d38b480598eb7","618731f51ea130388fd77019","null","","null","","","","","fixation","","","",""
"","","","","","visual-search-circle","79","215998","0.0-14.0-0.0-1.32","60fcce101117fe454e42be6b","6186fb1cc52d38b480598eb7","618731f51ea130388fd77019","412.70000000018626","","d","false","[[508,84],[261,2],[43,144],[18,404],[205,584],[464,551],[598,328]]","false","7","","","img/Fire_Up_Target.gif","[""img/Fire_Down_Distractor.gif"",""img/Fire_Down_Distractor.gif"",""img/Fire_Down_Distractor.gif"",""img/Fire_Down_Distractor.gif"",""img/Fire_Down_Distractor.gif"",""img/Fire_Down_Distractor.gif"",""img/Fire_Down_Distractor.gif"",""img/Fire_Down_Distractor.gif"",""img/Fire_Down_Distractor.gif"",""img/Fire_Down_Distractor.gif"",""img/Fire_Down_Distractor.gif"",""img/Fire_Down_Distractor.gif""]","targetUp_distractorsDown"
"","","","","","html-keyboard-response","80","216000","0.0-14.0-0.0-0.33","60fcce101117fe454e42be6b","6186fb1cc52d38b480598eb7","618731f51ea130388fd77019","null","","null","","","","","fixation","","","",""
"","","","","","visual-search-circle","81","217665","0.0-14.0-0.0-1.33","60fcce101117fe454e42be6b","6186fb1cc52d38b480598eb7","618731f51ea130388fd77019","654.8000000007451","","s","true","[[91,84],[1,328],[135,551],[394,584],[581,404],[556,144],[338,2]]","false","7","","","img/Fire_Up_Target.gif","[""img/Fire_Down_Distractor.gif"",""img/Fire_Down_Distractor.gif"",""img/Fire_Down_Distractor.gif"",""img/Fire_Down_Distractor.gif"",""img/Fire_Down_Distractor.gif"",""img/Fire_Down_Distractor.gif"",""img/Fire_Down_Distractor.gif"",""img/Fire_Down_Distractor.gif"",""img/Fire_Down_Distractor.gif"",""img/Fire_Down_Distractor.gif"",""img/Fire_Down_Distractor.gif"",""img/Fire_Down_Distractor.gif""]","targetUp_distractorsDown"
"","","","","","html-keyboard-response","82","217669","0.0-14.0-0.0-0.34","60fcce101117fe454e42be6b","6186fb1cc52d38b480598eb7","618731f51ea130388fd77019","null","","null","","","","","fixation","","","",""
"","","","","","visual-search-circle","83","219338","0.0-14.0-0.0-1.34","60fcce101117fe454e42be6b","6186fb1cc52d38b480598eb7","618731f51ea130388fd77019","653.5999999996275","","d","true","[[279,599],[520,502],[596,253],[448,39],[189,21],[12,213],[52,470]]","true","7","","","img/Fire_Up_Target.gif","[""img/Fire_Down_Distractor.gif"",""img/Fire_Down_Distractor.gif"",""img/Fire_Down_Distractor.gif"",""img/Fire_Down_Distractor.gif"",""img/Fire_Down_Distractor.gif"",""img/Fire_Down_Distractor.gif"",""img/Fire_Down_Distractor.gif"",""img/Fire_Down_Distractor.gif"",""img/Fire_Down_Distractor.gif"",""img/Fire_Down_Distractor.gif"",""img/Fire_Down_Distractor.gif"",""img/Fire_Down_Distractor.gif""]","targetUp_distractorsDown"
"","","","","","html-keyboard-response","84","219340","0.0-14.0-0.0-0.35","60fcce101117fe454e42be6b","6186fb1cc52d38b480598eb7","618731f51ea130388fd77019","null","","null","","","","","fixation","","","",""
"","","","","","visual-search-circle","85","220960","0.0-14.0-0.0-1.35","60fcce101117fe454e42be6b","6186fb1cc52d38b480598eb7","618731f51ea130388fd77019","606.4000000003725","","d","false","[[73,103],[42,454],[367,592],[598,326],[417,23]]","false","5","","","img/Fire_Up_Target.gif","[""img/Fire_Down_Distractor.gif"",""img/Fire_Down_Distractor.gif"",""img/Fire_Down_Distractor.gif"",""img/Fire_Down_Distractor.gif"",""img/Fire_Down_Distractor.gif"",""img/Fire_Down_Distractor.gif"",""img/Fire_Down_Distractor.gif"",""img/Fire_Down_Distractor.gif"",""img/Fire_Down_Distractor.gif"",""img/Fire_Down_Distractor.gif"",""img/Fire_Down_Distractor.gif"",""img/Fire_Down_Distractor.gif""]","targetUp_distractorsDown"
"","","","","","html-keyboard-response","86","220962","0.0-14.0-0.0-0.36","60fcce101117fe454e42be6b","6186fb1cc52d38b480598eb7","618731f51ea130388fd77019","null","","null","","","","","fixation","","","",""
"","","","","","visual-search-circle","87","222464","0.0-14.0-0.0-1.36","60fcce101117fe454e42be6b","6186fb1cc52d38b480598eb7","618731f51ea130388fd77019","495.20000000018626","","d","true","[[580,192],[284,0],[10,222],[136,551],[488,533]]","true","5","","","img/Fire_Up_Target.gif","[""img/Fire_Down_Distractor.gif"",""img/Fire_Down_Distractor.gif"",""img/Fire_Down_Distractor.gif"",""img/Fire_Down_Distractor.gif"",""img/Fire_Down_Distractor.gif"",""img/Fire_Down_Distractor.gif"",""img/Fire_Down_Distractor.gif"",""img/Fire_Down_Distractor.gif"",""img/Fire_Down_Distractor.gif"",""img/Fire_Down_Distractor.gif"",""img/Fire_Down_Distractor.gif"",""img/Fire_Down_Distractor.gif""]","targetUp_distractorsDown"
"","","","","","html-keyboard-response","88","222466","0.0-14.0-0.0-0.37","60fcce101117fe454e42be6b","6186fb1cc52d38b480598eb7","618731f51ea130388fd77019","null","","null","","","","","fixation","","","",""
"","","","","","visual-search-circle","89","224699","0.0-14.0-0.0-1.37","60fcce101117fe454e42be6b","6186fb1cc52d38b480598eb7","618731f51ea130388fd77019","1220.699999999255","","d","true","[[341,2],[2,258],[258,597],[597,341]]","true","4","","","img/Fire_Up_Target.gif","[""img/Fire_Down_Distractor.gif"",""img/Fire_Down_Distractor.gif"",""img/Fire_Down_Distractor.gif"",""img/Fire_Down_Distractor.gif"",""img/Fire_Down_Distractor.gif"",""img/Fire_Down_Distractor.gif"",""img/Fire_Down_Distractor.gif"",""img/Fire_Down_Distractor.gif"",""img/Fire_Down_Distractor.gif"",""img/Fire_Down_Distractor.gif"",""img/Fire_Down_Distractor.gif"",""img/Fire_Down_Distractor.gif""]","targetUp_distractorsDown"
"","","","","","html-keyboard-response","90","224701","0.0-14.0-0.0-0.38","60fcce101117fe454e42be6b","6186fb1cc52d38b480598eb7","618731f51ea130388fd77019","null","","null","","","","","fixation","","","",""
"","","","","","visual-search-circle","91","227336","0.0-14.0-0.0-1.38","60fcce101117fe454e42be6b","6186fb1cc52d38b480598eb7","618731f51ea130388fd77019","1622.1000000005588","","d","true","[[42,454],[305,599],[562,445],[557,145],[294,0],[37,154]]","true","6","","","img/Fire_Down_Target.gif","[""img/Fire_Up_Distractor.gif"",""img/Fire_Up_Distractor.gif"",""img/Fire_Up_Distractor.gif"",""img/Fire_Up_Distractor.gif"",""img/Fire_Up_Distractor.gif"",""img/Fire_Up_Distractor.gif"",""img/Fire_Up_Distractor.gif"",""img/Fire_Up_Distractor.gif"",""img/Fire_Up_Distractor.gif"",""img/Fire_Up_Distractor.gif"",""img/Fire_Up_Distractor.gif"",""img/Fire_Up_Distractor.gif""]","targetDown_distractorsUp"
"","","","","","html-keyboard-response","92","238468","0.0-14.0-0.0-0.39","60fcce101117fe454e42be6b","6186fb1cc52d38b480598eb7","618731f51ea130388fd77019","11131.900000000373","Wow! You've completed 40 out of 120 trials! </p> <p>  </p><p> Take a quick break, then press any key when you're ready to continue."," ","","","","","fixation","","","",""
"","","","","","visual-search-circle","93","241219","0.0-14.0-0.0-1.39","60fcce101117fe454e42be6b","6186fb1cc52d38b480598eb7","618731f51ea130388fd77019","1737","","s","true","[[426,28],[166,31],[6,236],[67,489],[303,599],[536,484],[591,229]]","false","7","","","img/Fire_Down_Target.gif","[""img/Fire_Up_Distractor.gif"",""img/Fire_Up_Distractor.gif"",""img/Fire_Up_Distractor.gif"",""img/Fire_Up_Distractor.gif"",""img/Fire_Up_Distractor.gif"",""img/Fire_Up_Distractor.gif"",""img/Fire_Up_Distractor.gif"",""img/Fire_Up_Distractor.gif"",""img/Fire_Up_Distractor.gif"",""img/Fire_Up_Distractor.gif"",""img/Fire_Up_Distractor.gif"",""img/Fire_Up_Distractor.gif""]","targetDown_distractorsUp"
"","","","","","html-keyboard-response","94","241221","0.0-14.0-0.0-0.40","60fcce101117fe454e42be6b","6186fb1cc52d38b480598eb7","618731f51ea130388fd77019","null","","null","","","","","fixation","","","",""
"","","","","","visual-search-circle","95","243352","0.0-14.0-0.0-1.40","60fcce101117fe454e42be6b","6186fb1cc52d38b480598eb7","618731f51ea130388fd77019","1116.8999999994412","","s","true","[[77,99],[4,349],[153,562],[413,577],[587,384],[545,127],[317,0]]","false","7","","","img/Fire_Up_Target.gif","[""img/Fire_Down_Distractor.gif"",""img/Fire_Down_Distractor.gif"",""img/Fire_Down_Distractor.gif"",""img/Fire_Down_Distractor.gif"",""img/Fire_Down_Distractor.gif"",""img/Fire_Down_Distractor.gif"",""img/Fire_Down_Distractor.gif"",""img/Fire_Down_Distractor.gif"",""img/Fire_Down_Distractor.gif"",""img/Fire_Down_Distractor.gif"",""img/Fire_Down_Distractor.gif"",""img/Fire_Down_Distractor.gif""]","targetUp_distractorsDown"
"","","","","","html-keyboard-response","96","243354","0.0-14.0-0.0-0.41","60fcce101117fe454e42be6b","6186fb1cc52d38b480598eb7","618731f51ea130388fd77019","null","","null","","","","","fixation","","","",""
"","","","","","visual-search-circle","97","245185","0.0-14.0-0.0-1.41","60fcce101117fe454e42be6b","6186fb1cc52d38b480598eb7","618731f51ea130388fd77019","819.5999999996275","","d","true","[[28,173],[173,571],[571,426],[426,28]]","true","4","","","img/Fire_Down_Target.gif","[""img/Fire_Up_Distractor.gif"",""img/Fire_Up_Distractor.gif"",""img/Fire_Up_Distractor.gif"",""img/Fire_Up_Distractor.gif"",""img/Fire_Up_Distractor.gif"",""img/Fire_Up_Distractor.gif"",""img/Fire_Up_Distractor.gif"",""img/Fire_Up_Distractor.gif"",""img/Fire_Up_Distractor.gif"",""img/Fire_Up_Distractor.gif"",""img/Fire_Up_Distractor.gif"",""img/Fire_Up_Distractor.gif""]","targetDown_distractorsUp"
"","","","","","html-keyboard-response","98","245187","0.0-14.0-0.0-0.42","60fcce101117fe454e42be6b","6186fb1cc52d38b480598eb7","618731f51ea130388fd77019","null","","null","","","","","fixation","","","",""
"","","","","","visual-search-circle","99","255698","0.0-14.0-0.0-1.42","60fcce101117fe454e42be6b","6186fb1cc52d38b480598eb7","618731f51ea130388fd77019","9498.800000000745","","s","true","[[362,6],[40,150],[77,500],[422,574],[598,268]]","false","5","","","img/Fire_Down_Target.gif","[""img/Fire_Up_Distractor.gif"",""img/Fire_Up_Distractor.gif"",""img/Fire_Up_Distractor.gif"",""img/Fire_Up_Distractor.gif"",""img/Fire_Up_Distractor.gif"",""img/Fire_Up_Distractor.gif"",""img/Fire_Up_Distractor.gif"",""img/Fire_Up_Distractor.gif"",""img/Fire_Up_Distractor.gif"",""img/Fire_Up_Distractor.gif"",""img/Fire_Up_Distractor.gif"",""img/Fire_Up_Distractor.gif""]","targetDown_distractorsUp"
"","","","","","html-keyboard-response","100","255700","0.0-14.0-0.0-0.43","60fcce101117fe454e42be6b","6186fb1cc52d38b480598eb7","618731f51ea130388fd77019","null","","null","","","","","fixation","","","",""
"","","","","","visual-search-circle","101","258618","0.0-14.0-0.0-1.43","60fcce101117fe454e42be6b","6186fb1cc52d38b480598eb7","618731f51ea130388fd77019","1910.7000000001863","","s","false","[[222,10],[10,377],[377,589],[589,222]]","true","4","","","img/Fire_Down_Target.gif","[""img/Fire_Up_Distractor.gif"",""img/Fire_Up_Distractor.gif"",""img/Fire_Up_Distractor.gif"",""img/Fire_Up_Distractor.gif"",""img/Fire_Up_Distractor.gif"",""img/Fire_Up_Distractor.gif"",""img/Fire_Up_Distractor.gif"",""img/Fire_Up_Distractor.gif"",""img/Fire_Up_Distractor.gif"",""img/Fire_Up_Distractor.gif"",""img/Fire_Up_Distractor.gif"",""img/Fire_Up_Distractor.gif""]","targetDown_distractorsUp"
"","","","","","html-keyboard-response","102","258620","0.0-14.0-0.0-0.44","60fcce101117fe454e42be6b","6186fb1cc52d38b480598eb7","618731f51ea130388fd77019","null","","null","","","","","fixation","","","",""
"","","","","","visual-search-circle","103","260997","0.0-14.0-0.0-1.44","60fcce101117fe454e42be6b","6186fb1cc52d38b480598eb7","618731f51ea130388fd77019","1363.0999999996275","","d","true","[[2,336],[142,555],[401,582],[584,396],[552,137],[330,1],[85,89]]","true","7","","","img/Fire_Up_Target.gif","[""img/Fire_Down_Distractor.gif"",""img/Fire_Down_Distractor.gif"",""img/Fire_Down_Distractor.gif"",""img/Fire_Down_Distractor.gif"",""img/Fire_Down_Distractor.gif"",""img/Fire_Down_Distractor.gif"",""img/Fire_Down_Distractor.gif"",""img/Fire_Down_Distractor.gif"",""img/Fire_Down_Distractor.gif"",""img/Fire_Down_Distractor.gif"",""img/Fire_Down_Distractor.gif"",""img/Fire_Down_Distractor.gif""]","targetUp_distractorsDown"
"","","","","","html-keyboard-response","104","260999","0.0-14.0-0.0-0.45","60fcce101117fe454e42be6b","6186fb1cc52d38b480598eb7","618731f51ea130388fd77019","null","","null","","","","","fixation","","","",""
"","","","","","visual-search-circle","105","262651","0.0-14.0-0.0-1.45","60fcce101117fe454e42be6b","6186fb1cc52d38b480598eb7","618731f51ea130388fd77019","639.5999999996275","","s","true","[[580,407],[488,66],[136,48],[10,377],[284,599]]","false","5","","","img/Fire_Down_Target.gif","[""img/Fire_Up_Distractor.gif"",""img/Fire_Up_Distractor.gif"",""img/Fire_Up_Distractor.gif"",""img/Fire_Up_Distractor.gif"",""img/Fire_Up_Distractor.gif"",""img/Fire_Up_Distractor.gif"",""img/Fire_Up_Distractor.gif"",""img/Fire_Up_Distractor.gif"",""img/Fire_Up_Distractor.gif"",""img/Fire_Up_Distractor.gif"",""img/Fire_Up_Distractor.gif"",""img/Fire_Up_Distractor.gif""]","targetDown_distractorsUp"
"","","","","","html-keyboard-response","106","262653","0.0-14.0-0.0-0.46","60fcce101117fe454e42be6b","6186fb1cc52d38b480598eb7","618731f51ea130388fd77019","null","","null","","","","","fixation","","","",""
"","","","","","visual-search-circle","107","264460","0.0-14.0-0.0-1.46","60fcce101117fe454e42be6b","6186fb1cc52d38b480598eb7","618731f51ea130388fd77019","794.5","","s","false","[[512,512],[600,300],[512,87],[300,0],[87,87],[0,299],[87,512],[299,600]]","true","8","","","img/Fire_Up_Target.gif","[""img/Fire_Down_Distractor.gif"",""img/Fire_Down_Distractor.gif"",""img/Fire_Down_Distractor.gif"",""img/Fire_Down_Distractor.gif"",""img/Fire_Down_Distractor.gif"",""img/Fire_Down_Distractor.gif"",""img/Fire_Down_Distractor.gif"",""img/Fire_Down_Distractor.gif"",""img/Fire_Down_Distractor.gif"",""img/Fire_Down_Distractor.gif"",""img/Fire_Down_Distractor.gif"",""img/Fire_Down_Distractor.gif""]","targetUp_distractorsDown"
"","","","","","html-keyboard-response","108","264462","0.0-14.0-0.0-0.47","60fcce101117fe454e42be6b","6186fb1cc52d38b480598eb7","618731f51ea130388fd77019","null","","null","","","","","fixation","","","",""
"","","","","","visual-search-circle","109","266271","0.0-14.0-0.0-1.47","60fcce101117fe454e42be6b","6186fb1cc52d38b480598eb7","618731f51ea130388fd77019","793.1999999992549","","s","true","[[467,548],[599,323],[505,81],[256,3],[40,148],[20,408],[210,586]]","false","7","","","img/Fire_Down_Target.gif","[""img/Fire_Up_Distractor.gif"",""img/Fire_Up_Distractor.gif"",""img/Fire_Up_Distractor.gif"",""img/Fire_Up_Distractor.gif"",""img/Fire_Up_Distractor.gif"",""img/Fire_Up_Distractor.gif"",""img/Fire_Up_Distractor.gif"",""img/Fire_Up_Distractor.gif"",""img/Fire_Up_Distractor.gif"",""img/Fire_Up_Distractor.gif"",""img/Fire_Up_Distractor.gif"",""img/Fire_Up_Distractor.gif""]","targetDown_distractorsUp"
"","","","","","html-keyboard-response","110","266273","0.0-14.0-0.0-0.48","60fcce101117fe454e42be6b","6186fb1cc52d38b480598eb7","618731f51ea130388fd77019","null","","null","","","","","fixation","","","",""
"","","","","","visual-search-circle","111","268404","0.0-14.0-0.0-1.48","60fcce101117fe454e42be6b","6186fb1cc52d38b480598eb7","618731f51ea130388fd77019","1119.8999999994412","","s","false","[[0,320],[168,569],[467,548],[599,279],[431,30],[132,51]]","true","6","","","img/Fire_Up_Target.gif","[""img/Fire_Down_Distractor.gif"",""img/Fire_Down_Distractor.gif"",""img/Fire_Down_Distractor.gif"",""img/Fire_Down_Distractor.gif"",""img/Fire_Down_Distractor.gif"",""img/Fire_Down_Distractor.gif"",""img/Fire_Down_Distractor.gif"",""img/Fire_Down_Distractor.gif"",""img/Fire_Down_Distractor.gif"",""img/Fire_Down_Distractor.gif"",""img/Fire_Down_Distractor.gif"",""img/Fire_Down_Distractor.gif""]","targetUp_distractorsDown"
"","","","","","html-keyboard-response","112","268408","0.0-14.0-0.0-0.49","60fcce101117fe454e42be6b","6186fb1cc52d38b480598eb7","618731f51ea130388fd77019","null","","null","","","","","fixation","","","",""
"","","","","","visual-search-circle","113","270460","0.0-14.0-0.0-1.49","60fcce101117fe454e42be6b","6186fb1cc52d38b480598eb7","618731f51ea130388fd77019","1037.2999999998137","","s","true","[[440,35],[180,24],[10,221],[58,477],[288,599],[526,496],[594,244]]","false","7","","","img/Fire_Down_Target.gif","[""img/Fire_Up_Distractor.gif"",""img/Fire_Up_Distractor.gif"",""img/Fire_Up_Distractor.gif"",""img/Fire_Up_Distractor.gif"",""img/Fire_Up_Distractor.gif"",""img/Fire_Up_Distractor.gif"",""img/Fire_Up_Distractor.gif"",""img/Fire_Up_Distractor.gif"",""img/Fire_Up_Distractor.gif"",""img/Fire_Up_Distractor.gif"",""img/Fire_Up_Distractor.gif"",""img/Fire_Up_Distractor.gif""]","targetDown_distractorsUp"
"","","","","","html-keyboard-response","114","270463","0.0-14.0-0.0-0.50","60fcce101117fe454e42be6b","6186fb1cc52d38b480598eb7","618731f51ea130388fd77019","null","","null","","","","","fixation","","","",""
"","","","","","visual-search-circle","115","273318","0.0-14.0-0.0-1.50","60fcce101117fe454e42be6b","6186fb1cc52d38b480598eb7","618731f51ea130388fd77019","1839.6000000005588","","s","false","[[467,548],[599,279],[431,30],[132,51],[0,320],[168,569]]","true","6","","","img/Fire_Up_Target.gif","[""img/Fire_Down_Distractor.gif"",""img/Fire_Down_Distractor.gif"",""img/Fire_Down_Distractor.gif"",""img/Fire_Down_Distractor.gif"",""img/Fire_Down_Distractor.gif"",""img/Fire_Down_Distractor.gif"",""img/Fire_Down_Distractor.gif"",""img/Fire_Down_Distractor.gif"",""img/Fire_Down_Distractor.gif"",""img/Fire_Down_Distractor.gif"",""img/Fire_Down_Distractor.gif"",""img/Fire_Down_Distractor.gif""]","targetUp_distractorsDown"
"","","","","","html-keyboard-response","116","273320","0.0-14.0-0.0-0.51","60fcce101117fe454e42be6b","6186fb1cc52d38b480598eb7","618731f51ea130388fd77019","null","","null","","","","","fixation","","","",""
"","","","","","visual-search-circle","117","275361","0.0-14.0-0.0-1.51","60fcce101117fe454e42be6b","6186fb1cc52d38b480598eb7","618731f51ea130388fd77019","1032","","s","true","[[63,115],[51,467],[382,588],[599,310],[402,18]]","false","5","","","img/Fire_Down_Target.gif","[""img/Fire_Up_Distractor.gif"",""img/Fire_Up_Distractor.gif"",""img/Fire_Up_Distractor.gif"",""img/Fire_Up_Distractor.gif"",""img/Fire_Up_Distractor.gif"",""img/Fire_Up_Distractor.gif"",""img/Fire_Up_Distractor.gif"",""img/Fire_Up_Distractor.gif"",""img/Fire_Up_Distractor.gif"",""img/Fire_Up_Distractor.gif"",""img/Fire_Up_Distractor.gif"",""img/Fire_Up_Distractor.gif""]","targetDown_distractorsUp"
"","","","","","html-keyboard-response","118","275363","0.0-14.0-0.0-0.52","60fcce101117fe454e42be6b","6186fb1cc52d38b480598eb7","618731f51ea130388fd77019","null","","null","","","","","fixation","","","",""
"","","","","","visual-search-circle","119","278040","0.0-14.0-0.0-1.52","60fcce101117fe454e42be6b","6186fb1cc52d38b480598eb7","618731f51ea130388fd77019","1663.7999999998137","","s","false","[[496,73],[145,42],[7,367],[273,598],[576,417]]","true","5","","","img/Fire_Up_Target.gif","[""img/Fire_Down_Distractor.gif"",""img/Fire_Down_Distractor.gif"",""img/Fire_Down_Distractor.gif"",""img/Fire_Down_Distractor.gif"",""img/Fire_Down_Distractor.gif"",""img/Fire_Down_Distractor.gif"",""img/Fire_Down_Distractor.gif"",""img/Fire_Down_Distractor.gif"",""img/Fire_Down_Distractor.gif"",""img/Fire_Down_Distractor.gif"",""img/Fire_Down_Distractor.gif"",""img/Fire_Down_Distractor.gif""]","targetUp_distractorsDown"
"","","","","","html-keyboard-response","120","278042","0.0-14.0-0.0-0.53","60fcce101117fe454e42be6b","6186fb1cc52d38b480598eb7","618731f51ea130388fd77019","null","","null","","","","","fixation","","","",""
"","","","","","visual-search-circle","121","279910","0.0-14.0-0.0-1.53","60fcce101117fe454e42be6b","6186fb1cc52d38b480598eb7","618731f51ea130388fd77019","853.9000000003725","","s","true","[[551,136],[136,48],[48,463],[463,551]]","false","4","","","img/Fire_Down_Target.gif","[""img/Fire_Up_Distractor.gif"",""img/Fire_Up_Distractor.gif"",""img/Fire_Up_Distractor.gif"",""img/Fire_Up_Distractor.gif"",""img/Fire_Up_Distractor.gif"",""img/Fire_Up_Distractor.gif"",""img/Fire_Up_Distractor.gif"",""img/Fire_Up_Distractor.gif"",""img/Fire_Up_Distractor.gif"",""img/Fire_Up_Distractor.gif"",""img/Fire_Up_Distractor.gif"",""img/Fire_Up_Distractor.gif""]","targetDown_distractorsUp"
"","","","","","html-keyboard-response","122","279912","0.0-14.0-0.0-0.54","60fcce101117fe454e42be6b","6186fb1cc52d38b480598eb7","618731f51ea130388fd77019","null","","null","","","","","fixation","","","",""
"","","","","","visual-search-circle","123","282002","0.0-14.0-0.0-1.54","60fcce101117fe454e42be6b","6186fb1cc52d38b480598eb7","618731f51ea130388fd77019","1078.4000000003725","","s","false","[[95,80],[80,504],[504,519],[519,95]]","true","4","","","img/Fire_Up_Target.gif","[""img/Fire_Down_Distractor.gif"",""img/Fire_Down_Distractor.gif"",""img/Fire_Down_Distractor.gif"",""img/Fire_Down_Distractor.gif"",""img/Fire_Down_Distractor.gif"",""img/Fire_Down_Distractor.gif"",""img/Fire_Down_Distractor.gif"",""img/Fire_Down_Distractor.gif"",""img/Fire_Down_Distractor.gif"",""img/Fire_Down_Distractor.gif"",""img/Fire_Down_Distractor.gif"",""img/Fire_Down_Distractor.gif""]","targetUp_distractorsDown"
"","","","","","html-keyboard-response","124","282003","0.0-14.0-0.0-0.55","60fcce101117fe454e42be6b","6186fb1cc52d38b480598eb7","618731f51ea130388fd77019","null","","null","","","","","fixation","","","",""
"","","","","","visual-search-circle","125","283855","0.0-14.0-0.0-1.55","60fcce101117fe454e42be6b","6186fb1cc52d38b480598eb7","618731f51ea130388fd77019","839.7999999998137","","s","true","[[382,11],[91,84],[8,372],[217,588],[508,515],[591,227]]","false","6","","","img/Fire_Up_Target.gif","[""img/Fire_Down_Distractor.gif"",""img/Fire_Down_Distractor.gif"",""img/Fire_Down_Distractor.gif"",""img/Fire_Down_Distractor.gif"",""img/Fire_Down_Distractor.gif"",""img/Fire_Down_Distractor.gif"",""img/Fire_Down_Distractor.gif"",""img/Fire_Down_Distractor.gif"",""img/Fire_Down_Distractor.gif"",""img/Fire_Down_Distractor.gif"",""img/Fire_Down_Distractor.gif"",""img/Fire_Down_Distractor.gif""]","targetUp_distractorsDown"
"","","","","","html-keyboard-response","126","283856","0.0-14.0-0.0-0.56","60fcce101117fe454e42be6b","6186fb1cc52d38b480598eb7","618731f51ea130388fd77019","null","","null","","","","","fixation","","","",""
"","","","","","visual-search-circle","127","285828","0.0-14.0-0.0-1.56","60fcce101117fe454e42be6b","6186fb1cc52d38b480598eb7","618731f51ea130388fd77019","956.7999999998137","","s","true","[[57,123],[57,476],[392,585],[600,300],[392,14]]","false","5","","","img/Fire_Up_Target.gif","[""img/Fire_Down_Distractor.gif"",""img/Fire_Down_Distractor.gif"",""img/Fire_Down_Distractor.gif"",""img/Fire_Down_Distractor.gif"",""img/Fire_Down_Distractor.gif"",""img/Fire_Down_Distractor.gif"",""img/Fire_Down_Distractor.gif"",""img/Fire_Down_Distractor.gif"",""img/Fire_Down_Distractor.gif"",""img/Fire_Down_Distractor.gif"",""img/Fire_Down_Distractor.gif"",""img/Fire_Down_Distractor.gif""]","targetUp_distractorsDown"
"","","","","","html-keyboard-response","128","285830","0.0-14.0-0.0-0.57","60fcce101117fe454e42be6b","6186fb1cc52d38b480598eb7","618731f51ea130388fd77019","null","","null","","","","","fixation","","","",""
"","","","","","visual-search-circle","129","287826","0.0-14.0-0.0-1.57","60fcce101117fe454e42be6b","6186fb1cc52d38b480598eb7","618731f51ea130388fd77019","983","","d","true","[[30,431],[279,599],[548,467],[569,168],[320,0],[51,132]]","true","6","","","img/Fire_Down_Target.gif","[""img/Fire_Up_Distractor.gif"",""img/Fire_Up_Distractor.gif"",""img/Fire_Up_Distractor.gif"",""img/Fire_Up_Distractor.gif"",""img/Fire_Up_Distractor.gif"",""img/Fire_Up_Distractor.gif"",""img/Fire_Up_Distractor.gif"",""img/Fire_Up_Distractor.gif"",""img/Fire_Up_Distractor.gif"",""img/Fire_Up_Distractor.gif"",""img/Fire_Up_Distractor.gif"",""img/Fire_Up_Distractor.gif""]","targetDown_distractorsUp"
"","","","","","html-keyboard-response","130","287828","0.0-14.0-0.0-0.58","60fcce101117fe454e42be6b","6186fb1cc52d38b480598eb7","618731f51ea130388fd77019","null","","null","","","","","fixation","","","",""
"","","","","","visual-search-circle","131","289974","0.0-14.0-0.0-1.58","60fcce101117fe454e42be6b","6186fb1cc52d38b480598eb7","618731f51ea130388fd77019","1132.4000000003725","","s","true","[[352,4],[4,247],[247,595],[595,352]]","false","4","","","img/Fire_Up_Target.gif","[""img/Fire_Down_Distractor.gif"",""img/Fire_Down_Distractor.gif"",""img/Fire_Down_Distractor.gif"",""img/Fire_Down_Distractor.gif"",""img/Fire_Down_Distractor.gif"",""img/Fire_Down_Distractor.gif"",""img/Fire_Down_Distractor.gif"",""img/Fire_Down_Distractor.gif"",""img/Fire_Down_Distractor.gif"",""img/Fire_Down_Distractor.gif"",""img/Fire_Down_Distractor.gif"",""img/Fire_Down_Distractor.gif""]","targetUp_distractorsDown"
"","","","","","html-keyboard-response","132","291447","0.0-14.0-0.0-0.59","60fcce101117fe454e42be6b","6186fb1cc52d38b480598eb7","618731f51ea130388fd77019","1472.7000000001863","Wow! You've completed 60 out of 120 trials! </p> <p>  </p><p> Take a quick break, then press any key when you're ready to continue."," ","","","","","fixation","","","",""
"","","","","","visual-search-circle","133","293556","0.0-14.0-0.0-1.59","60fcce101117fe454e42be6b","6186fb1cc52d38b480598eb7","618731f51ea130388fd77019","1097","","s","true","[[73,496],[357,594],[583,397],[526,103],[242,5],[16,202]]","false","6","","","img/Fire_Up_Target.gif","[""img/Fire_Down_Distractor.gif"",""img/Fire_Down_Distractor.gif"",""img/Fire_Down_Distractor.gif"",""img/Fire_Down_Distractor.gif"",""img/Fire_Down_Distractor.gif"",""img/Fire_Down_Distractor.gif"",""img/Fire_Down_Distractor.gif"",""img/Fire_Down_Distractor.gif"",""img/Fire_Down_Distractor.gif"",""img/Fire_Down_Distractor.gif"",""img/Fire_Down_Distractor.gif"",""img/Fire_Down_Distractor.gif""]","targetUp_distractorsDown"
"","","","","","html-keyboard-response","134","293558","0.0-14.0-0.0-0.60","60fcce101117fe454e42be6b","6186fb1cc52d38b480598eb7","618731f51ea130388fd77019","null","","null","","","","","fixation","","","",""
"","","","","","visual-search-circle","135","295495","0.0-14.0-0.0-1.60","60fcce101117fe454e42be6b","6186fb1cc52d38b480598eb7","618731f51ea130388fd77019","924.7000000001863","","s","true","[[320,0],[0,279],[279,599],[599,320]]","false","4","","","img/Fire_Down_Target.gif","[""img/Fire_Up_Distractor.gif"",""img/Fire_Up_Distractor.gif"",""img/Fire_Up_Distractor.gif"",""img/Fire_Up_Distractor.gif"",""img/Fire_Up_Distractor.gif"",""img/Fire_Up_Distractor.gif"",""img/Fire_Up_Distractor.gif"",""img/Fire_Up_Distractor.gif"",""img/Fire_Up_Distractor.gif"",""img/Fire_Up_Distractor.gif"",""img/Fire_Up_Distractor.gif"",""img/Fire_Up_Distractor.gif""]","targetDown_distractorsUp"
"","","","","","html-keyboard-response","136","295497","0.0-14.0-0.0-0.61","60fcce101117fe454e42be6b","6186fb1cc52d38b480598eb7","618731f51ea130388fd77019","null","","null","","","","","fixation","","","",""
"","","","","","visual-search-circle","137","297628","0.0-14.0-0.0-1.61","60fcce101117fe454e42be6b","6186fb1cc52d38b480598eb7","618731f51ea130388fd77019","1123.7000000001863","","s","true","[[294,0],[0,305],[305,599],[599,294]]","false","4","","","img/Fire_Up_Target.gif","[""img/Fire_Down_Distractor.gif"",""img/Fire_Down_Distractor.gif"",""img/Fire_Down_Distractor.gif"",""img/Fire_Down_Distractor.gif"",""img/Fire_Down_Distractor.gif"",""img/Fire_Down_Distractor.gif"",""img/Fire_Down_Distractor.gif"",""img/Fire_Down_Distractor.gif"",""img/Fire_Down_Distractor.gif"",""img/Fire_Down_Distractor.gif"",""img/Fire_Down_Distractor.gif"",""img/Fire_Down_Distractor.gif""]","targetUp_distractorsDown"
"","","","","","html-keyboard-response","138","297630","0.0-14.0-0.0-0.62","60fcce101117fe454e42be6b","6186fb1cc52d38b480598eb7","618731f51ea130388fd77019","null","","null","","","","","fixation","","","",""
"","","","","","visual-search-circle","139","299695","0.0-14.0-0.0-1.62","60fcce101117fe454e42be6b","6186fb1cc52d38b480598eb7","618731f51ea130388fd77019","1047.7999999998137","","d","true","[[1,326],[107,529],[326,598],[529,492],[598,273],[492,70],[273,1],[70,107]]","true","8","","","img/Fire_Down_Target.gif","[""img/Fire_Up_Distractor.gif"",""img/Fire_Up_Distractor.gif"",""img/Fire_Up_Distractor.gif"",""img/Fire_Up_Distractor.gif"",""img/Fire_Up_Distractor.gif"",""img/Fire_Up_Distractor.gif"",""img/Fire_Up_Distractor.gif"",""img/Fire_Up_Distractor.gif"",""img/Fire_Up_Distractor.gif"",""img/Fire_Up_Distractor.gif"",""img/Fire_Up_Distractor.gif"",""img/Fire_Up_Distractor.gif""]","targetDown_distractorsUp"
"","","","","","html-keyboard-response","140","299697","0.0-14.0-0.0-0.63","60fcce101117fe454e42be6b","6186fb1cc52d38b480598eb7","618731f51ea130388fd77019","null","","null","","","","","fixation","","","",""
"","","","","","visual-search-circle","141","302630","0.0-14.0-0.0-1.63","60fcce101117fe454e42be6b","6186fb1cc52d38b480598eb7","618731f51ea130388fd77019","1916.5","","d","true","[[141,45],[7,232],[45,458],[232,592],[458,554],[592,367],[554,141],[367,7]]","true","8","","","img/Fire_Up_Target.gif","[""img/Fire_Down_Distractor.gif"",""img/Fire_Down_Distractor.gif"",""img/Fire_Down_Distractor.gif"",""img/Fire_Down_Distractor.gif"",""img/Fire_Down_Distractor.gif"",""img/Fire_Down_Distractor.gif"",""img/Fire_Down_Distractor.gif"",""img/Fire_Down_Distractor.gif"",""img/Fire_Down_Distractor.gif"",""img/Fire_Down_Distractor.gif"",""img/Fire_Down_Distractor.gif"",""img/Fire_Down_Distractor.gif""]","targetUp_distractorsDown"
"","","","","","html-keyboard-response","142","302632","0.0-14.0-0.0-0.64","60fcce101117fe454e42be6b","6186fb1cc52d38b480598eb7","618731f51ea130388fd77019","null","","null","","","","","fixation","","","",""
"","","","","","visual-search-circle","143","304576","0.0-14.0-0.0-1.64","60fcce101117fe454e42be6b","6186fb1cc52d38b480598eb7","618731f51ea130388fd77019","925","","d","true","[[10,222],[40,450],[222,589],[450,559],[589,377],[559,150],[377,10],[150,40]]","true","8","","","img/Fire_Up_Target.gif","[""img/Fire_Down_Distractor.gif"",""img/Fire_Down_Distractor.gif"",""img/Fire_Down_Distractor.gif"",""img/Fire_Down_Distractor.gif"",""img/Fire_Down_Distractor.gif"",""img/Fire_Down_Distractor.gif"",""img/Fire_Down_Distractor.gif"",""img/Fire_Down_Distractor.gif"",""img/Fire_Down_Distractor.gif"",""img/Fire_Down_Distractor.gif"",""img/Fire_Down_Distractor.gif"",""img/Fire_Down_Distractor.gif""]","targetUp_distractorsDown"
"","","","","","html-keyboard-response","144","304578","0.0-14.0-0.0-0.65","60fcce101117fe454e42be6b","6186fb1cc52d38b480598eb7","618731f51ea130388fd77019","null","","null","","","","","fixation","","","",""
"","","","","","visual-search-circle","145","309042","0.0-14.0-0.0-1.65","60fcce101117fe454e42be6b","6186fb1cc52d38b480598eb7","618731f51ea130388fd77019","3453.399999999441","","s","true","[[496,526],[594,242],[397,16],[103,73],[5,357],[202,583]]","false","6","","","img/Fire_Up_Target.gif","[""img/Fire_Down_Distractor.gif"",""img/Fire_Down_Distractor.gif"",""img/Fire_Down_Distractor.gif"",""img/Fire_Down_Distractor.gif"",""img/Fire_Down_Distractor.gif"",""img/Fire_Down_Distractor.gif"",""img/Fire_Down_Distractor.gif"",""img/Fire_Down_Distractor.gif"",""img/Fire_Down_Distractor.gif"",""img/Fire_Down_Distractor.gif"",""img/Fire_Down_Distractor.gif"",""img/Fire_Down_Distractor.gif""]","targetUp_distractorsDown"
"","","","","","html-keyboard-response","146","309045","0.0-14.0-0.0-0.66","60fcce101117fe454e42be6b","6186fb1cc52d38b480598eb7","618731f51ea130388fd77019","null","","null","","","","","fixation","","","",""
"","","","","","visual-search-circle","147","311936","0.0-14.0-0.0-1.66","60fcce101117fe454e42be6b","6186fb1cc52d38b480598eb7","618731f51ea130388fd77019","1877.300000000745","","d","true","[[16,202],[73,496],[357,594],[583,397],[526,103],[242,5]]","true","6","","","img/Fire_Down_Target.gif","[""img/Fire_Up_Distractor.gif"",""img/Fire_Up_Distractor.gif"",""img/Fire_Up_Distractor.gif"",""img/Fire_Up_Distractor.gif"",""img/Fire_Up_Distractor.gif"",""img/Fire_Up_Distractor.gif"",""img/Fire_Up_Distractor.gif"",""img/Fire_Up_Distractor.gif"",""img/Fire_Up_Distractor.gif"",""img/Fire_Up_Distractor.gif"",""img/Fire_Up_Distractor.gif"",""img/Fire_Up_Distractor.gif""]","targetDown_distractorsUp"
"","","","","","html-keyboard-response","148","311941","0.0-14.0-0.0-0.67","60fcce101117fe454e42be6b","6186fb1cc52d38b480598eb7","618731f51ea130388fd77019","null","","null","","","","","fixation","","","",""
"","","","","","visual-search-circle","149","314647","0.0-14.0-0.0-1.67","60fcce101117fe454e42be6b","6186fb1cc52d38b480598eb7","618731f51ea130388fd77019","1691.300000000745","","s","true","[[583,202],[400,17],[141,45],[2,264],[86,511],[332,598],[553,460]]","false","7","","","img/Fire_Down_Target.gif","[""img/Fire_Up_Distractor.gif"",""img/Fire_Up_Distractor.gif"",""img/Fire_Up_Distractor.gif"",""img/Fire_Up_Distractor.gif"",""img/Fire_Up_Distractor.gif"",""img/Fire_Up_Distractor.gif"",""img/Fire_Up_Distractor.gif"",""img/Fire_Up_Distractor.gif"",""img/Fire_Up_Distractor.gif"",""img/Fire_Up_Distractor.gif"",""img/Fire_Up_Distractor.gif"",""img/Fire_Up_Distractor.gif""]","targetDown_distractorsUp"
"","","","","","html-keyboard-response","150","314649","0.0-14.0-0.0-0.68","60fcce101117fe454e42be6b","6186fb1cc52d38b480598eb7","618731f51ea130388fd77019","null","","null","","","","","fixation","","","",""
"","","","","","visual-search-circle","151","316662","0.0-14.0-0.0-1.68","60fcce101117fe454e42be6b","6186fb1cc52d38b480598eb7","618731f51ea130388fd77019","997.2000000001863","","s","true","[[496,73],[279,0],[73,103],[0,320],[103,526],[320,599],[526,496],[599,279]]","false","8","","","img/Fire_Up_Target.gif","[""img/Fire_Down_Distractor.gif"",""img/Fire_Down_Distractor.gif"",""img/Fire_Down_Distractor.gif"",""img/Fire_Down_Distractor.gif"",""img/Fire_Down_Distractor.gif"",""img/Fire_Down_Distractor.gif"",""img/Fire_Down_Distractor.gif"",""img/Fire_Down_Distractor.gif"",""img/Fire_Down_Distractor.gif"",""img/Fire_Down_Distractor.gif"",""img/Fire_Down_Distractor.gif"",""img/Fire_Down_Distractor.gif""]","targetUp_distractorsDown"
"","","","","","html-keyboard-response","152","316665","0.0-14.0-0.0-0.69","60fcce101117fe454e42be6b","6186fb1cc52d38b480598eb7","618731f51ea130388fd77019","null","","null","","","","","fixation","","","",""
"","","","","","visual-search-circle","153","318744","0.0-14.0-0.0-1.69","60fcce101117fe454e42be6b","6186fb1cc52d38b480598eb7","618731f51ea130388fd77019","1062.2000000001863","","s","false","[[596,253],[448,39],[188,21],[12,213],[53,470],[279,599],[521,502]]","true","7","","","img/Fire_Down_Target.gif","[""img/Fire_Up_Distractor.gif"",""img/Fire_Up_Distractor.gif"",""img/Fire_Up_Distractor.gif"",""img/Fire_Up_Distractor.gif"",""img/Fire_Up_Distractor.gif"",""img/Fire_Up_Distractor.gif"",""img/Fire_Up_Distractor.gif"",""img/Fire_Up_Distractor.gif"",""img/Fire_Up_Distractor.gif"",""img/Fire_Up_Distractor.gif"",""img/Fire_Up_Distractor.gif"",""img/Fire_Up_Distractor.gif""]","targetDown_distractorsUp"
"","","","","","html-keyboard-response","154","318746","0.0-14.0-0.0-0.70","60fcce101117fe454e42be6b","6186fb1cc52d38b480598eb7","618731f51ea130388fd77019","null","","null","","","","","fixation","","","",""
"","","","","","visual-search-circle","155","320485","0.0-14.0-0.0-1.70","60fcce101117fe454e42be6b","6186fb1cc52d38b480598eb7","618731f51ea130388fd77019","724.4000000003725","","s","false","[[159,35],[5,244],[73,496],[311,599],[541,477],[589,221],[419,24]]","true","7","","","img/Fire_Down_Target.gif","[""img/Fire_Up_Distractor.gif"",""img/Fire_Up_Distractor.gif"",""img/Fire_Up_Distractor.gif"",""img/Fire_Up_Distractor.gif"",""img/Fire_Up_Distractor.gif"",""img/Fire_Up_Distractor.gif"",""img/Fire_Up_Distractor.gif"",""img/Fire_Up_Distractor.gif"",""img/Fire_Up_Distractor.gif"",""img/Fire_Up_Distractor.gif"",""img/Fire_Up_Distractor.gif"",""img/Fire_Up_Distractor.gif""]","targetDown_distractorsUp"
"","","","","","html-keyboard-response","156","320487","0.0-14.0-0.0-0.71","60fcce101117fe454e42be6b","6186fb1cc52d38b480598eb7","618731f51ea130388fd77019","null","","null","","","","","fixation","","","",""
"","","","","","visual-search-circle","157","322597","0.0-14.0-0.0-1.71","60fcce101117fe454e42be6b","6186fb1cc52d38b480598eb7","618731f51ea130388fd77019","1095.5","","s","true","[[545,472],[587,215],[413,22],[153,38],[3,251],[77,501],[318,599]]","false","7","","","img/Fire_Up_Target.gif","[""img/Fire_Down_Distractor.gif"",""img/Fire_Down_Distractor.gif"",""img/Fire_Down_Distractor.gif"",""img/Fire_Down_Distractor.gif"",""img/Fire_Down_Distractor.gif"",""img/Fire_Down_Distractor.gif"",""img/Fire_Down_Distractor.gif"",""img/Fire_Down_Distractor.gif"",""img/Fire_Down_Distractor.gif"",""img/Fire_Down_Distractor.gif"",""img/Fire_Down_Distractor.gif"",""img/Fire_Down_Distractor.gif""]","targetUp_distractorsDown"
"","","","","","html-keyboard-response","158","322600","0.0-14.0-0.0-0.72","60fcce101117fe454e42be6b","6186fb1cc52d38b480598eb7","618731f51ea130388fd77019","null","","null","","","","","fixation","","","",""
"","","","","","visual-search-circle","159","325023","0.0-14.0-0.0-1.72","60fcce101117fe454e42be6b","6186fb1cc52d38b480598eb7","618731f51ea130388fd77019","1413.1000000005588","","d","true","[[37,154],[80,504],[426,571],[597,263],[357,5]]","true","5","","","img/Fire_Up_Target.gif","[""img/Fire_Down_Distractor.gif"",""img/Fire_Down_Distractor.gif"",""img/Fire_Down_Distractor.gif"",""img/Fire_Down_Distractor.gif"",""img/Fire_Down_Distractor.gif"",""img/Fire_Down_Distractor.gif"",""img/Fire_Down_Distractor.gif"",""img/Fire_Down_Distractor.gif"",""img/Fire_Down_Distractor.gif"",""img/Fire_Down_Distractor.gif"",""img/Fire_Down_Distractor.gif"",""img/Fire_Down_Distractor.gif""]","targetUp_distractorsDown"
"","","","","","html-keyboard-response","160","325024","0.0-14.0-0.0-0.73","60fcce101117fe454e42be6b","6186fb1cc52d38b480598eb7","618731f51ea130388fd77019","null","","null","","","","","fixation","","","",""
"","","","","","visual-search-circle","161","327055","0.0-14.0-0.0-1.73","60fcce101117fe454e42be6b","6186fb1cc52d38b480598eb7","618731f51ea130388fd77019","1017.9000000003725","","s","true","[[73,103],[16,397],[242,594],[526,496],[583,202],[357,5]]","false","6","","","img/Fire_Down_Target.gif","[""img/Fire_Up_Distractor.gif"",""img/Fire_Up_Distractor.gif"",""img/Fire_Up_Distractor.gif"",""img/Fire_Up_Distractor.gif"",""img/Fire_Up_Distractor.gif"",""img/Fire_Up_Distractor.gif"",""img/Fire_Up_Distractor.gif"",""img/Fire_Up_Distractor.gif"",""img/Fire_Up_Distractor.gif"",""img/Fire_Up_Distractor.gif"",""img/Fire_Up_Distractor.gif"",""img/Fire_Up_Distractor.gif""]","targetDown_distractorsUp"
"","","","","","html-keyboard-response","162","327057","0.0-14.0-0.0-0.74","60fcce101117fe454e42be6b","6186fb1cc52d38b480598eb7","618731f51ea130388fd77019","null","","null","","","","","fixation","","","",""
"","","","","","visual-search-circle","163","331510","0.0-14.0-0.0-1.74","60fcce101117fe454e42be6b","6186fb1cc52d38b480598eb7","618731f51ea130388fd77019","3440.5","","d","true","[[533,111],[111,66],[66,488],[488,533]]","true","4","","","img/Fire_Down_Target.gif","[""img/Fire_Up_Distractor.gif"",""img/Fire_Up_Distractor.gif"",""img/Fire_Up_Distractor.gif"",""img/Fire_Up_Distractor.gif"",""img/Fire_Up_Distractor.gif"",""img/Fire_Up_Distractor.gif"",""img/Fire_Up_Distractor.gif"",""img/Fire_Up_Distractor.gif"",""img/Fire_Up_Distractor.gif"",""img/Fire_Up_Distractor.gif"",""img/Fire_Up_Distractor.gif"",""img/Fire_Up_Distractor.gif""]","targetDown_distractorsUp"
"","","","","","html-keyboard-response","164","331512","0.0-14.0-0.0-0.75","60fcce101117fe454e42be6b","6186fb1cc52d38b480598eb7","618731f51ea130388fd77019","null","","null","","","","","fixation","","","",""
"","","","","","visual-search-circle","165","333411","0.0-14.0-0.0-1.75","60fcce101117fe454e42be6b","6186fb1cc52d38b480598eb7","618731f51ea130388fd77019","883.2000000001863","","s","true","[[3,253],[78,502],[320,599],[546,470],[587,213],[411,21],[151,39]]","false","7","","","img/Fire_Up_Target.gif","[""img/Fire_Down_Distractor.gif"",""img/Fire_Down_Distractor.gif"",""img/Fire_Down_Distractor.gif"",""img/Fire_Down_Distractor.gif"",""img/Fire_Down_Distractor.gif"",""img/Fire_Down_Distractor.gif"",""img/Fire_Down_Distractor.gif"",""img/Fire_Down_Distractor.gif"",""img/Fire_Down_Distractor.gif"",""img/Fire_Down_Distractor.gif"",""img/Fire_Down_Distractor.gif"",""img/Fire_Down_Distractor.gif""]","targetUp_distractorsDown"
"","","","","","html-keyboard-response","166","333412","0.0-14.0-0.0-0.76","60fcce101117fe454e42be6b","6186fb1cc52d38b480598eb7","618731f51ea130388fd77019","null","","null","","","","","fixation","","","",""
"","","","","","visual-search-circle","167","335419","0.0-14.0-0.0-1.76","60fcce101117fe454e42be6b","6186fb1cc52d38b480598eb7","618731f51ea130388fd77019","994.9000000003725","","d","true","[[16,397],[397,583],[583,202],[202,16]]","true","4","","","img/Fire_Up_Target.gif","[""img/Fire_Down_Distractor.gif"",""img/Fire_Down_Distractor.gif"",""img/Fire_Down_Distractor.gif"",""img/Fire_Down_Distractor.gif"",""img/Fire_Down_Distractor.gif"",""img/Fire_Down_Distractor.gif"",""img/Fire_Down_Distractor.gif"",""img/Fire_Down_Distractor.gif"",""img/Fire_Down_Distractor.gif"",""img/Fire_Down_Distractor.gif"",""img/Fire_Down_Distractor.gif"",""img/Fire_Down_Distractor.gif""]","targetUp_distractorsDown"
"","","","","","html-keyboard-response","168","335421","0.0-14.0-0.0-0.77","60fcce101117fe454e42be6b","6186fb1cc52d38b480598eb7","618731f51ea130388fd77019","null","","null","","","","","fixation","","","",""
"","","","","","visual-search-circle","169","337096","0.0-14.0-0.0-1.77","60fcce101117fe454e42be6b","6186fb1cc52d38b480598eb7","618731f51ea130388fd77019","665.5","","s","true","[[536,115],[115,63],[63,484],[484,536]]","false","4","","","img/Fire_Down_Target.gif","[""img/Fire_Up_Distractor.gif"",""img/Fire_Up_Distractor.gif"",""img/Fire_Up_Distractor.gif"",""img/Fire_Up_Distractor.gif"",""img/Fire_Up_Distractor.gif"",""img/Fire_Up_Distractor.gif"",""img/Fire_Up_Distractor.gif"",""img/Fire_Up_Distractor.gif"",""img/Fire_Up_Distractor.gif"",""img/Fire_Up_Distractor.gif"",""img/Fire_Up_Distractor.gif"",""img/Fire_Up_Distractor.gif""]","targetDown_distractorsUp"
"","","","","","html-keyboard-response","170","337098","0.0-14.0-0.0-0.78","60fcce101117fe454e42be6b","6186fb1cc52d38b480598eb7","618731f51ea130388fd77019","null","","null","","","","","fixation","","","",""
"","","","","","visual-search-circle","171","338787","0.0-14.0-0.0-1.78","60fcce101117fe454e42be6b","6186fb1cc52d38b480598eb7","618731f51ea130388fd77019","675.7000000001863","","s","false","[[578,187],[417,23],[187,21],[23,182],[21,412],[182,576],[412,578],[576,417]]","true","8","","","img/Fire_Down_Target.gif","[""img/Fire_Up_Distractor.gif"",""img/Fire_Up_Distractor.gif"",""img/Fire_Up_Distractor.gif"",""img/Fire_Up_Distractor.gif"",""img/Fire_Up_Distractor.gif"",""img/Fire_Up_Distractor.gif"",""img/Fire_Up_Distractor.gif"",""img/Fire_Up_Distractor.gif"",""img/Fire_Up_Distractor.gif"",""img/Fire_Up_Distractor.gif"",""img/Fire_Up_Distractor.gif"",""img/Fire_Up_Distractor.gif""]","targetDown_distractorsUp"
"","","","","","html-keyboard-response","172","340134","0.0-14.0-0.0-0.79","60fcce101117fe454e42be6b","6186fb1cc52d38b480598eb7","618731f51ea130388fd77019","1346.2999999998137","Wow! You've completed 80 out of 120 trials! </p> <p>  </p><p> Take a quick break, then press any key when you're ready to continue."," ","","","","","fixation","","","",""
"","","","","","visual-search-circle","173","341971","0.0-14.0-0.0-1.79","60fcce101117fe454e42be6b","6186fb1cc52d38b480598eb7","618731f51ea130388fd77019","816.0999999996275","","s","true","[[187,578],[417,576],[578,412],[576,182],[412,21],[182,23],[21,187],[23,417]]","false","8","","","img/Fire_Down_Target.gif","[""img/Fire_Up_Distractor.gif"",""img/Fire_Up_Distractor.gif"",""img/Fire_Up_Distractor.gif"",""img/Fire_Up_Distractor.gif"",""img/Fire_Up_Distractor.gif"",""img/Fire_Up_Distractor.gif"",""img/Fire_Up_Distractor.gif"",""img/Fire_Up_Distractor.gif"",""img/Fire_Up_Distractor.gif"",""img/Fire_Up_Distractor.gif"",""img/Fire_Up_Distractor.gif"",""img/Fire_Up_Distractor.gif""]","targetDown_distractorsUp"
"","","","","","html-keyboard-response","174","341973","0.0-14.0-0.0-0.80","60fcce101117fe454e42be6b","6186fb1cc52d38b480598eb7","618731f51ea130388fd77019","null","","null","","","","","fixation","","","",""
"","","","","","visual-search-circle","175","343603","0.0-14.0-0.0-1.80","60fcce101117fe454e42be6b","6186fb1cc52d38b480598eb7","618731f51ea130388fd77019","617.5999999996275","","s","false","[[7,232],[45,458],[232,592],[458,554],[592,367],[554,141],[367,7],[141,45]]","true","8","","","img/Fire_Up_Target.gif","[""img/Fire_Down_Distractor.gif"",""img/Fire_Down_Distractor.gif"",""img/Fire_Down_Distractor.gif"",""img/Fire_Down_Distractor.gif"",""img/Fire_Down_Distractor.gif"",""img/Fire_Down_Distractor.gif"",""img/Fire_Down_Distractor.gif"",""img/Fire_Down_Distractor.gif"",""img/Fire_Down_Distractor.gif"",""img/Fire_Down_Distractor.gif"",""img/Fire_Down_Distractor.gif"",""img/Fire_Down_Distractor.gif""]","targetUp_distractorsDown"
"","","","","","html-keyboard-response","176","343604","0.0-14.0-0.0-0.81","60fcce101117fe454e42be6b","6186fb1cc52d38b480598eb7","618731f51ea130388fd77019","null","","null","","","","","fixation","","","",""
"","","","","","visual-search-circle","177","345171","0.0-14.0-0.0-1.81","60fcce101117fe454e42be6b","6186fb1cc52d38b480598eb7","618731f51ea130388fd77019","550.6000000005588","","s","false","[[500,77],[284,0],[77,99],[0,315],[99,522],[315,599],[522,500],[599,284]]","true","8","","","img/Fire_Down_Target.gif","[""img/Fire_Up_Distractor.gif"",""img/Fire_Up_Distractor.gif"",""img/Fire_Up_Distractor.gif"",""img/Fire_Up_Distractor.gif"",""img/Fire_Up_Distractor.gif"",""img/Fire_Up_Distractor.gif"",""img/Fire_Up_Distractor.gif"",""img/Fire_Up_Distractor.gif"",""img/Fire_Up_Distractor.gif"",""img/Fire_Up_Distractor.gif"",""img/Fire_Up_Distractor.gif"",""img/Fire_Up_Distractor.gif""]","targetDown_distractorsUp"
"","","","","","html-keyboard-response","178","345173","0.0-14.0-0.0-0.82","60fcce101117fe454e42be6b","6186fb1cc52d38b480598eb7","618731f51ea130388fd77019","null","","null","","","","","fixation","","","",""
"","","","","","visual-search-circle","179","346904","0.0-14.0-0.0-1.82","60fcce101117fe454e42be6b","6186fb1cc52d38b480598eb7","618731f51ea130388fd77019","720.2000000001863","","d","false","[[237,6],[6,362],[362,593],[593,237]]","false","4","","","img/Fire_Down_Target.gif","[""img/Fire_Up_Distractor.gif"",""img/Fire_Up_Distractor.gif"",""img/Fire_Up_Distractor.gif"",""img/Fire_Up_Distractor.gif"",""img/Fire_Up_Distractor.gif"",""img/Fire_Up_Distractor.gif"",""img/Fire_Up_Distractor.gif"",""img/Fire_Up_Distractor.gif"",""img/Fire_Up_Distractor.gif"",""img/Fire_Up_Distractor.gif"",""img/Fire_Up_Distractor.gif"",""img/Fire_Up_Distractor.gif""]","targetDown_distractorsUp"
"","","","","","html-keyboard-response","180","346906","0.0-14.0-0.0-0.83","60fcce101117fe454e42be6b","6186fb1cc52d38b480598eb7","618731f51ea130388fd77019","null","","null","","","","","fixation","","","",""
"","","","","","visual-search-circle","181","348895","0.0-14.0-0.0-1.83","60fcce101117fe454e42be6b","6186fb1cc52d38b480598eb7","618731f51ea130388fd77019","976","","d","false","[[387,586],[592,367],[504,80],[212,13],[7,232],[95,519]]","false","6","","","img/Fire_Up_Target.gif","[""img/Fire_Down_Distractor.gif"",""img/Fire_Down_Distractor.gif"",""img/Fire_Down_Distractor.gif"",""img/Fire_Down_Distractor.gif"",""img/Fire_Down_Distractor.gif"",""img/Fire_Down_Distractor.gif"",""img/Fire_Down_Distractor.gif"",""img/Fire_Down_Distractor.gif"",""img/Fire_Down_Distractor.gif"",""img/Fire_Down_Distractor.gif"",""img/Fire_Down_Distractor.gif"",""img/Fire_Down_Distractor.gif""]","targetUp_distractorsDown"
"","","","","","html-keyboard-response","182","348898","0.0-14.0-0.0-0.84","60fcce101117fe454e42be6b","6186fb1cc52d38b480598eb7","618731f51ea130388fd77019","null","","null","","","","","fixation","","","",""
"","","","","","visual-search-circle","183","350647","0.0-14.0-0.0-1.84","60fcce101117fe454e42be6b","6186fb1cc52d38b480598eb7","618731f51ea130388fd77019","732.2999999998137","","s","true","[[496,526],[599,320],[526,103],[320,0],[103,73],[0,279],[73,496],[279,599]]","false","8","","","img/Fire_Up_Target.gif","[""img/Fire_Down_Distractor.gif"",""img/Fire_Down_Distractor.gif"",""img/Fire_Down_Distractor.gif"",""img/Fire_Down_Distractor.gif"",""img/Fire_Down_Distractor.gif"",""img/Fire_Down_Distractor.gif"",""img/Fire_Down_Distractor.gif"",""img/Fire_Down_Distractor.gif"",""img/Fire_Down_Distractor.gif"",""img/Fire_Down_Distractor.gif"",""img/Fire_Down_Distractor.gif"",""img/Fire_Down_Distractor.gif""]","targetUp_distractorsDown"
"","","","","","html-keyboard-response","184","350650","0.0-14.0-0.0-0.85","60fcce101117fe454e42be6b","6186fb1cc52d38b480598eb7","618731f51ea130388fd77019","null","","null","","","","","fixation","","","",""
"","","","","","visual-search-circle","185","352176","0.0-14.0-0.0-1.85","60fcce101117fe454e42be6b","6186fb1cc52d38b480598eb7","618731f51ea130388fd77019","514.7000000001863","","s","false","[[7,367],[170,570],[430,569],[592,366],[534,112],[299,0],[64,113]]","true","7","","","img/Fire_Up_Target.gif","[""img/Fire_Down_Distractor.gif"",""img/Fire_Down_Distractor.gif"",""img/Fire_Down_Distractor.gif"",""img/Fire_Down_Distractor.gif"",""img/Fire_Down_Distractor.gif"",""img/Fire_Down_Distractor.gif"",""img/Fire_Down_Distractor.gif"",""img/Fire_Down_Distractor.gif"",""img/Fire_Down_Distractor.gif"",""img/Fire_Down_Distractor.gif"",""img/Fire_Down_Distractor.gif"",""img/Fire_Down_Distractor.gif""]","targetUp_distractorsDown"
"","","","","","html-keyboard-response","186","352178","0.0-14.0-0.0-0.86","60fcce101117fe454e42be6b","6186fb1cc52d38b480598eb7","618731f51ea130388fd77019","null","","null","","","","","fixation","","","",""
"","","","","","visual-search-circle","187","354051","0.0-14.0-0.0-1.86","60fcce101117fe454e42be6b","6186fb1cc52d38b480598eb7","618731f51ea130388fd77019","861.6000000005588","","s","false","[[536,484],[591,230],[427,28],[167,31],[6,236],[67,489],[302,599]]","true","7","","","img/Fire_Down_Target.gif","[""img/Fire_Up_Distractor.gif"",""img/Fire_Up_Distractor.gif"",""img/Fire_Up_Distractor.gif"",""img/Fire_Up_Distractor.gif"",""img/Fire_Up_Distractor.gif"",""img/Fire_Up_Distractor.gif"",""img/Fire_Up_Distractor.gif"",""img/Fire_Up_Distractor.gif"",""img/Fire_Up_Distractor.gif"",""img/Fire_Up_Distractor.gif"",""img/Fire_Up_Distractor.gif"",""img/Fire_Up_Distractor.gif""]","targetDown_distractorsUp"
"","","","","","html-keyboard-response","188","354053","0.0-14.0-0.0-0.87","60fcce101117fe454e42be6b","6186fb1cc52d38b480598eb7","618731f51ea130388fd77019","null","","null","","","","","fixation","","","",""
"","","","","","visual-search-circle","189","355841","0.0-14.0-0.0-1.87","60fcce101117fe454e42be6b","6186fb1cc52d38b480598eb7","618731f51ea130388fd77019","775.4000000003725","","s","true","[[599,289],[478,59],[223,10],[25,179],[34,439],[243,594],[495,527]]","false","7","","","img/Fire_Down_Target.gif","[""img/Fire_Up_Distractor.gif"",""img/Fire_Up_Distractor.gif"",""img/Fire_Up_Distractor.gif"",""img/Fire_Up_Distractor.gif"",""img/Fire_Up_Distractor.gif"",""img/Fire_Up_Distractor.gif"",""img/Fire_Up_Distractor.gif"",""img/Fire_Up_Distractor.gif"",""img/Fire_Up_Distractor.gif"",""img/Fire_Up_Distractor.gif"",""img/Fire_Up_Distractor.gif"",""img/Fire_Up_Distractor.gif""]","targetDown_distractorsUp"
"","","","","","html-keyboard-response","190","355843","0.0-14.0-0.0-0.88","60fcce101117fe454e42be6b","6186fb1cc52d38b480598eb7","618731f51ea130388fd77019","null","","null","","","","","fixation","","","",""
"","","","","","visual-search-circle","191","357770","0.0-14.0-0.0-1.88","60fcce101117fe454e42be6b","6186fb1cc52d38b480598eb7","618731f51ea130388fd77019","916.2999999998137","","d","false","[[150,40],[40,450],[450,559],[559,150]]","false","4","","","img/Fire_Up_Target.gif","[""img/Fire_Down_Distractor.gif"",""img/Fire_Down_Distractor.gif"",""img/Fire_Down_Distractor.gif"",""img/Fire_Down_Distractor.gif"",""img/Fire_Down_Distractor.gif"",""img/Fire_Down_Distractor.gif"",""img/Fire_Down_Distractor.gif"",""img/Fire_Down_Distractor.gif"",""img/Fire_Down_Distractor.gif"",""img/Fire_Down_Distractor.gif"",""img/Fire_Down_Distractor.gif"",""img/Fire_Down_Distractor.gif""]","targetUp_distractorsDown"
"","","","","","html-keyboard-response","192","357773","0.0-14.0-0.0-0.89","60fcce101117fe454e42be6b","6186fb1cc52d38b480598eb7","618731f51ea130388fd77019","null","","null","","","","","fixation","","","",""
"","","","","","visual-search-circle","193","359861","0.0-14.0-0.0-1.89","60fcce101117fe454e42be6b","6186fb1cc52d38b480598eb7","618731f51ea130388fd77019","1069.7000000001863","","d","true","[[132,548],[389,586],[579,408],[559,148],[343,3],[94,81],[0,323]]","true","7","","","img/Fire_Up_Target.gif","[""img/Fire_Down_Distractor.gif"",""img/Fire_Down_Distractor.gif"",""img/Fire_Down_Distractor.gif"",""img/Fire_Down_Distractor.gif"",""img/Fire_Down_Distractor.gif"",""img/Fire_Down_Distractor.gif"",""img/Fire_Down_Distractor.gif"",""img/Fire_Down_Distractor.gif"",""img/Fire_Down_Distractor.gif"",""img/Fire_Down_Distractor.gif"",""img/Fire_Down_Distractor.gif"",""img/Fire_Down_Distractor.gif""]","targetUp_distractorsDown"
"","","","","","html-keyboard-response","194","359863","0.0-14.0-0.0-0.90","60fcce101117fe454e42be6b","6186fb1cc52d38b480598eb7","618731f51ea130388fd77019","null","","null","","","","","fixation","","","",""
"","","","","","visual-search-circle","195","361856","0.0-14.0-0.0-1.90","60fcce101117fe454e42be6b","6186fb1cc52d38b480598eb7","618731f51ea130388fd77019","986.3999999994412","","s","true","[[217,11],[11,382],[382,588],[588,217]]","false","4","","","img/Fire_Down_Target.gif","[""img/Fire_Up_Distractor.gif"",""img/Fire_Up_Distractor.gif"",""img/Fire_Up_Distractor.gif"",""img/Fire_Up_Distractor.gif"",""img/Fire_Up_Distractor.gif"",""img/Fire_Up_Distractor.gif"",""img/Fire_Up_Distractor.gif"",""img/Fire_Up_Distractor.gif"",""img/Fire_Up_Distractor.gif"",""img/Fire_Up_Distractor.gif"",""img/Fire_Up_Distractor.gif"",""img/Fire_Up_Distractor.gif""]","targetDown_distractorsUp"
"","","","","","html-keyboard-response","196","361858","0.0-14.0-0.0-0.91","60fcce101117fe454e42be6b","6186fb1cc52d38b480598eb7","618731f51ea130388fd77019","null","","null","","","","","fixation","","","",""
"","","","","","visual-search-circle","197","363575","0.0-14.0-0.0-1.91","60fcce101117fe454e42be6b","6186fb1cc52d38b480598eb7","618731f51ea130388fd77019","701.2999999998137","","s","false","[[91,84],[0,294],[84,508],[294,599],[508,515],[599,305],[515,91],[305,0]]","true","8","","","img/Fire_Up_Target.gif","[""img/Fire_Down_Distractor.gif"",""img/Fire_Down_Distractor.gif"",""img/Fire_Down_Distractor.gif"",""img/Fire_Down_Distractor.gif"",""img/Fire_Down_Distractor.gif"",""img/Fire_Down_Distractor.gif"",""img/Fire_Down_Distractor.gif"",""img/Fire_Down_Distractor.gif"",""img/Fire_Down_Distractor.gif"",""img/Fire_Down_Distractor.gif"",""img/Fire_Down_Distractor.gif"",""img/Fire_Down_Distractor.gif""]","targetUp_distractorsDown"
"","","","","","html-keyboard-response","198","363578","0.0-14.0-0.0-0.92","60fcce101117fe454e42be6b","6186fb1cc52d38b480598eb7","618731f51ea130388fd77019","null","","null","","","","","fixation","","","",""
"","","","","","visual-search-circle","199","365866","0.0-14.0-0.0-1.92","60fcce101117fe454e42be6b","6186fb1cc52d38b480598eb7","618731f51ea130388fd77019","1276.9000000003725","","s","false","[[431,569],[569,168],[168,30],[30,431]]","true","4","","","img/Fire_Down_Target.gif","[""img/Fire_Up_Distractor.gif"",""img/Fire_Up_Distractor.gif"",""img/Fire_Up_Distractor.gif"",""img/Fire_Up_Distractor.gif"",""img/Fire_Up_Distractor.gif"",""img/Fire_Up_Distractor.gif"",""img/Fire_Up_Distractor.gif"",""img/Fire_Up_Distractor.gif"",""img/Fire_Up_Distractor.gif"",""img/Fire_Up_Distractor.gif"",""img/Fire_Up_Distractor.gif"",""img/Fire_Up_Distractor.gif""]","targetDown_distractorsUp"
"","","","","","html-keyboard-response","200","365868","0.0-14.0-0.0-0.93","60fcce101117fe454e42be6b","6186fb1cc52d38b480598eb7","618731f51ea130388fd77019","null","","null","","","","","fixation","","","",""
"","","","","","visual-search-circle","201","367610","0.0-14.0-0.0-1.93","60fcce101117fe454e42be6b","6186fb1cc52d38b480598eb7","618731f51ea130388fd77019","724.5","","s","true","[[66,488],[268,598],[488,533],[598,331],[533,111],[331,1],[111,66],[1,268]]","false","8","","","img/Fire_Down_Target.gif","[""img/Fire_Up_Distractor.gif"",""img/Fire_Up_Distractor.gif"",""img/Fire_Up_Distractor.gif"",""img/Fire_Up_Distractor.gif"",""img/Fire_Up_Distractor.gif"",""img/Fire_Up_Distractor.gif"",""img/Fire_Up_Distractor.gif"",""img/Fire_Up_Distractor.gif"",""img/Fire_Up_Distractor.gif"",""img/Fire_Up_Distractor.gif"",""img/Fire_Up_Distractor.gif"",""img/Fire_Up_Distractor.gif""]","targetDown_distractorsUp"
"","","","","","html-keyboard-response","202","367612","0.0-14.0-0.0-0.94","60fcce101117fe454e42be6b","6186fb1cc52d38b480598eb7","618731f51ea130388fd77019","null","","null","","","","","fixation","","","",""
"","","","","","visual-search-circle","203","369432","0.0-14.0-0.0-1.94","60fcce101117fe454e42be6b","6186fb1cc52d38b480598eb7","618731f51ea130388fd77019","808.2000000001863","","s","false","[[336,597],[597,263],[263,2],[2,336]]","true","4","","","img/Fire_Up_Target.gif","[""img/Fire_Down_Distractor.gif"",""img/Fire_Down_Distractor.gif"",""img/Fire_Down_Distractor.gif"",""img/Fire_Down_Distractor.gif"",""img/Fire_Down_Distractor.gif"",""img/Fire_Down_Distractor.gif"",""img/Fire_Down_Distractor.gif"",""img/Fire_Down_Distractor.gif"",""img/Fire_Down_Distractor.gif"",""img/Fire_Down_Distractor.gif"",""img/Fire_Down_Distractor.gif"",""img/Fire_Down_Distractor.gif""]","targetUp_distractorsDown"
"","","","","","html-keyboard-response","204","369436","0.0-14.0-0.0-0.95","60fcce101117fe454e42be6b","6186fb1cc52d38b480598eb7","618731f51ea130388fd77019","null","","null","","","","","fixation","","","",""
"","","","","","visual-search-circle","205","372210","0.0-14.0-0.0-1.95","60fcce101117fe454e42be6b","6186fb1cc52d38b480598eb7","618731f51ea130388fd77019","1759","","s","false","[[417,576],[597,336],[480,60],[182,23],[2,263],[119,539]]","true","6","","","img/Fire_Down_Target.gif","[""img/Fire_Up_Distractor.gif"",""img/Fire_Up_Distractor.gif"",""img/Fire_Up_Distractor.gif"",""img/Fire_Up_Distractor.gif"",""img/Fire_Up_Distractor.gif"",""img/Fire_Up_Distractor.gif"",""img/Fire_Up_Distractor.gif"",""img/Fire_Up_Distractor.gif"",""img/Fire_Up_Distractor.gif"",""img/Fire_Up_Distractor.gif"",""img/Fire_Up_Distractor.gif"",""img/Fire_Up_Distractor.gif""]","targetDown_distractorsUp"
"","","","","","html-keyboard-response","206","372213","0.0-14.0-0.0-0.96","60fcce101117fe454e42be6b","6186fb1cc52d38b480598eb7","618731f51ea130388fd77019","null","","null","","","","","fixation","","","",""
"","","","","","visual-search-circle","207","374783","0.0-14.0-0.0-1.96","60fcce101117fe454e42be6b","6186fb1cc52d38b480598eb7","618731f51ea130388fd77019","1557.7000000001863","","s","true","[[263,597],[571,426],[504,80],[154,37],[5,357]]","false","5","","","img/Fire_Up_Target.gif","[""img/Fire_Down_Distractor.gif"",""img/Fire_Down_Distractor.gif"",""img/Fire_Down_Distractor.gif"",""img/Fire_Down_Distractor.gif"",""img/Fire_Down_Distractor.gif"",""img/Fire_Down_Distractor.gif"",""img/Fire_Down_Distractor.gif"",""img/Fire_Down_Distractor.gif"",""img/Fire_Down_Distractor.gif"",""img/Fire_Down_Distractor.gif"",""img/Fire_Down_Distractor.gif"",""img/Fire_Down_Distractor.gif""]","targetUp_distractorsDown"
"","","","","","html-keyboard-response","208","374785","0.0-14.0-0.0-0.97","60fcce101117fe454e42be6b","6186fb1cc52d38b480598eb7","618731f51ea130388fd77019","null","","null","","","","","fixation","","","",""
"","","","","","visual-search-circle","209","376534","0.0-14.0-0.0-1.97","60fcce101117fe454e42be6b","6186fb1cc52d38b480598eb7","618731f51ea130388fd77019","736.5","","s","true","[[21,412],[320,599],[591,372],[458,45],[107,70]]","false","5","","","img/Fire_Down_Target.gif","[""img/Fire_Up_Distractor.gif"",""img/Fire_Up_Distractor.gif"",""img/Fire_Up_Distractor.gif"",""img/Fire_Up_Distractor.gif"",""img/Fire_Up_Distractor.gif"",""img/Fire_Up_Distractor.gif"",""img/Fire_Up_Distractor.gif"",""img/Fire_Up_Distractor.gif"",""img/Fire_Up_Distractor.gif"",""img/Fire_Up_Distractor.gif"",""img/Fire_Up_Distractor.gif"",""img/Fire_Up_Distractor.gif""]","targetDown_distractorsUp"
"","","","","","html-keyboard-response","210","376536","0.0-14.0-0.0-0.98","60fcce101117fe454e42be6b","6186fb1cc52d38b480598eb7","618731f51ea130388fd77019","null","","null","","","","","fixation","","","",""
"","","","","","visual-search-circle","211","378302","0.0-14.0-0.0-1.98","60fcce101117fe454e42be6b","6186fb1cc52d38b480598eb7","618731f51ea130388fd77019","750.7000000001863","","s","true","[[362,593],[551,463],[593,237],[463,48],[237,6],[48,136],[6,362],[136,551]]","false","8","","","img/Fire_Down_Target.gif","[""img/Fire_Up_Distractor.gif"",""img/Fire_Up_Distractor.gif"",""img/Fire_Up_Distractor.gif"",""img/Fire_Up_Distractor.gif"",""img/Fire_Up_Distractor.gif"",""img/Fire_Up_Distractor.gif"",""img/Fire_Up_Distractor.gif"",""img/Fire_Up_Distractor.gif"",""img/Fire_Up_Distractor.gif"",""img/Fire_Up_Distractor.gif"",""img/Fire_Up_Distractor.gif"",""img/Fire_Up_Distractor.gif""]","targetDown_distractorsUp"
"","","","","","html-keyboard-response","212","380144","0.0-14.0-0.0-0.99","60fcce101117fe454e42be6b","6186fb1cc52d38b480598eb7","618731f51ea130388fd77019","1840.5","Wow! You've completed 100 out of 120 trials! </p> <p>  </p><p> Take a quick break, then press any key when you're ready to continue."," ","","","","","fixation","","","",""
"","","","","","visual-search-circle","213","382343","0.0-14.0-0.0-1.99","60fcce101117fe454e42be6b","6186fb1cc52d38b480598eb7","618731f51ea130388fd77019","1185.2999999998137","","s","true","[[352,595],[581,402],[529,107],[247,4],[18,197],[70,492]]","false","6","","","img/Fire_Down_Target.gif","[""img/Fire_Up_Distractor.gif"",""img/Fire_Up_Distractor.gif"",""img/Fire_Up_Distractor.gif"",""img/Fire_Up_Distractor.gif"",""img/Fire_Up_Distractor.gif"",""img/Fire_Up_Distractor.gif"",""img/Fire_Up_Distractor.gif"",""img/Fire_Up_Distractor.gif"",""img/Fire_Up_Distractor.gif"",""img/Fire_Up_Distractor.gif"",""img/Fire_Up_Distractor.gif"",""img/Fire_Up_Distractor.gif""]","targetDown_distractorsUp"
"","","","","","html-keyboard-response","214","382345","0.0-14.0-0.0-0.100","60fcce101117fe454e42be6b","6186fb1cc52d38b480598eb7","618731f51ea130388fd77019","null","","null","","","","","fixation","","","",""
"","","","","","visual-search-circle","215","385236","0.0-14.0-0.0-1.100","60fcce101117fe454e42be6b","6186fb1cc52d38b480598eb7","618731f51ea130388fd77019","1873.2999999998137","","s","true","[[576,182],[412,21],[182,23],[21,187],[23,417],[187,578],[417,576],[578,412]]","false","8","","","img/Fire_Down_Target.gif","[""img/Fire_Up_Distractor.gif"",""img/Fire_Up_Distractor.gif"",""img/Fire_Up_Distractor.gif"",""img/Fire_Up_Distractor.gif"",""img/Fire_Up_Distractor.gif"",""img/Fire_Up_Distractor.gif"",""img/Fire_Up_Distractor.gif"",""img/Fire_Up_Distractor.gif"",""img/Fire_Up_Distractor.gif"",""img/Fire_Up_Distractor.gif"",""img/Fire_Up_Distractor.gif"",""img/Fire_Up_Distractor.gif""]","targetDown_distractorsUp"
"","","","","","html-keyboard-response","216","385239","0.0-14.0-0.0-0.101","60fcce101117fe454e42be6b","6186fb1cc52d38b480598eb7","618731f51ea130388fd77019","null","","null","","","","","fixation","","","",""
"","","","","","visual-search-circle","217","387303","0.0-14.0-0.0-1.101","60fcce101117fe454e42be6b","6186fb1cc52d38b480598eb7","618731f51ea130388fd77019","1050.0999999996275","","d","true","[[66,111],[48,463],[377,589],[599,315],[407,19]]","true","5","","","img/Fire_Up_Target.gif","[""img/Fire_Down_Distractor.gif"",""img/Fire_Down_Distractor.gif"",""img/Fire_Down_Distractor.gif"",""img/Fire_Down_Distractor.gif"",""img/Fire_Down_Distractor.gif"",""img/Fire_Down_Distractor.gif"",""img/Fire_Down_Distractor.gif"",""img/Fire_Down_Distractor.gif"",""img/Fire_Down_Distractor.gif"",""img/Fire_Down_Distractor.gif"",""img/Fire_Down_Distractor.gif"",""img/Fire_Down_Distractor.gif""]","targetUp_distractorsDown"
"","","","","","html-keyboard-response","218","387305","0.0-14.0-0.0-0.102","60fcce101117fe454e42be6b","6186fb1cc52d38b480598eb7","618731f51ea130388fd77019","null","","null","","","","","fixation","","","",""
"","","","","","visual-search-circle","219","389584","0.0-14.0-0.0-1.102","60fcce101117fe454e42be6b","6186fb1cc52d38b480598eb7","618731f51ea130388fd77019","1273.2999999998137","","s","true","[[454,557],[592,232],[326,1],[23,182],[103,526]]","false","5","","","img/Fire_Up_Target.gif","[""img/Fire_Down_Distractor.gif"",""img/Fire_Down_Distractor.gif"",""img/Fire_Down_Distractor.gif"",""img/Fire_Down_Distractor.gif"",""img/Fire_Down_Distractor.gif"",""img/Fire_Down_Distractor.gif"",""img/Fire_Down_Distractor.gif"",""img/Fire_Down_Distractor.gif"",""img/Fire_Down_Distractor.gif"",""img/Fire_Down_Distractor.gif"",""img/Fire_Down_Distractor.gif"",""img/Fire_Down_Distractor.gif""]","targetUp_distractorsDown"
"","","","","","html-keyboard-response","220","389586","0.0-14.0-0.0-0.103","60fcce101117fe454e42be6b","6186fb1cc52d38b480598eb7","618731f51ea130388fd77019","null","","null","","","","","fixation","","","",""
"","","","","","visual-search-circle","221","391278","0.0-14.0-0.0-1.103","60fcce101117fe454e42be6b","6186fb1cc52d38b480598eb7","618731f51ea130388fd77019","678.3999999994412","","s","true","[[37,154],[154,562],[562,445],[445,37]]","false","4","","","img/Fire_Down_Target.gif","[""img/Fire_Up_Distractor.gif"",""img/Fire_Up_Distractor.gif"",""img/Fire_Up_Distractor.gif"",""img/Fire_Up_Distractor.gif"",""img/Fire_Up_Distractor.gif"",""img/Fire_Up_Distractor.gif"",""img/Fire_Up_Distractor.gif"",""img/Fire_Up_Distractor.gif"",""img/Fire_Up_Distractor.gif"",""img/Fire_Up_Distractor.gif"",""img/Fire_Up_Distractor.gif"",""img/Fire_Up_Distractor.gif""]","targetDown_distractorsUp"
