"success","timeout","failed_images","failed_audio","failed_video","trial_type","trial_index","time_elapsed","internal_node_id","subject_id","study_id","session_id","rt","stimulus","response","correct","locations","target_present","set_size","task","correct_response","target","foilCM","searchCondition"
"true","false","[]","[]","[]","preload","0","44480","0.0-0.0","60feef5f0d6f0bd38cf36f83","6186fb1cc52d38b480598eb7","61872a79acf233df1c567258","","","","","","","","","","","",""
"true","","","","","fullscreen","1","55492","0.0-1.0","60feef5f0d6f0bd38cf36f83","6186fb1cc52d38b480598eb7","61872a79acf233df1c567258","","","","","","","","","","","",""
"","","","","","html-keyboard-response","2","60003","0.0-2.0","60feef5f0d6f0bd38cf36f83","6186fb1cc52d38b480598eb7","61872a79acf233df1c567258","4508","What a beautiful Saturday to do some awesome science! </p> <p>  </p><p> </p>
    By completing this survey or questionnaire, you are consenting to be in this research study. </p>
    Your participation is voluntary and you can stop at any time.
    <p> [Press any key to continue.] </p>
    
    "," ","","","","","","","","",""
"","","","","","video-keyboard-response","3","86875","0.0-3.0","60feef5f0d6f0bd38cf36f83","6186fb1cc52d38b480598eb7","61872a79acf233df1c567258","26860.20000000298","[""video/TaskInstructions.mp4""]","d","","","","","","","","",""
"","","","","","html-keyboard-response","4","89508","0.0-4.0","60feef5f0d6f0bd38cf36f83","6186fb1cc52d38b480598eb7","61872a79acf233df1c567258","2631.4000000059605","
    <p>First, we're going to do a few practice trials to make sure you understand the task. You will recieve feedback on each trial. </p>

    <p>[Press any key to begin the familiarization phase.]</p>
    "," ","","","","","","","","",""
"","","","","","visual-search-circle","5","94169","0.0-5.0-0.0","60feef5f0d6f0bd38cf36f83","6186fb1cc52d38b480598eb7","61872a79acf233df1c567258","3578.7999999970198","","d","true","[[103,526],[526,496],[496,73],[73,103]]","true","4","training","d","","",""
"","","","","","html-keyboard-response","6","97195","0.0-6.0","60feef5f0d6f0bd38cf36f83","6186fb1cc52d38b480598eb7","61872a79acf233df1c567258","3024.9000000059605"," <div style='float: center; '><img src='img/feedbackRight.png'></img> </div> "," ","","","","","","","","",""
"","","","","","visual-search-circle","7","100365","0.0-7.0-0.0","60feef5f0d6f0bd38cf36f83","6186fb1cc52d38b480598eb7","61872a79acf233df1c567258","2156.7999999970198","","d","false","[[593,237],[237,6],[6,362],[362,593]]","false","4","training","s","","",""
"","","","","","html-keyboard-response","8","101321","0.0-8.0","60feef5f0d6f0bd38cf36f83","6186fb1cc52d38b480598eb7","61872a79acf233df1c567258","954.4000000059605"," <div style='float: center;'><img src='img/feedbackWrong.png'></img> </div> "," ","","","","","","","","",""
"","","","","","visual-search-circle","9","104359","0.0-9.0-0.0","60feef5f0d6f0bd38cf36f83","6186fb1cc52d38b480598eb7","61872a79acf233df1c567258","2016","","s","true","[[305,0],[42,145],[37,445],[294,599],[557,454],[562,154]]","false","6","training","s","","",""
"","","","","","html-keyboard-response","10","105020","0.0-10.0","60feef5f0d6f0bd38cf36f83","6186fb1cc52d38b480598eb7","61872a79acf233df1c567258","659"," <div style='float: center; '><img src='img/feedbackRight.png'></img> </div> "," ","","","","","","","","",""
"","","","","","visual-search-circle","11","107679","0.0-11.0-0.0","60feef5f0d6f0bd38cf36f83","6186fb1cc52d38b480598eb7","61872a79acf233df1c567258","1641.300000011921","","d","true","[[559,450],[589,222],[449,40],[222,10],[40,150],[10,377],[150,559],[377,589]]","true","8","training","d","","",""
"","","","","","html-keyboard-response","12","108241","0.0-12.0","60feef5f0d6f0bd38cf36f83","6186fb1cc52d38b480598eb7","61872a79acf233df1c567258","560.2000000029802"," <div style='float: center; '><img src='img/feedbackRight.png'></img> </div> "," ","","","","","","","","",""
"","","","","","video-keyboard-response","13","113430","0.0-13.0","60feef5f0d6f0bd38cf36f83","6186fb1cc52d38b480598eb7","61872a79acf233df1c567258","5183.4000000059605","[""video/endTraining.mp4""]"," ","","","","","","","","",""
"","","","","","html-keyboard-response","14","113435","0.0-14.0-0.0-0.0","60feef5f0d6f0bd38cf36f83","6186fb1cc52d38b480598eb7","61872a79acf233df1c567258","null","","null","","","","","fixation","","","",""
"","","","","","visual-search-circle","15","115680","0.0-14.0-0.0-1.0","60feef5f0d6f0bd38cf36f83","6186fb1cc52d38b480598eb7","61872a79acf233df1c567258","1224.7999999970198","","d","false","[[526,496],[599,279],[496,73],[279,0],[73,103],[0,320],[103,526],[320,599]]","false","8","","","img/Fire_Up_Target.gif","[""img/Fire_Down_Distractor.gif"",""img/Fire_Down_Distractor.gif"",""img/Fire_Down_Distractor.gif"",""img/Fire_Down_Distractor.gif"",""img/Fire_Down_Distractor.gif"",""img/Fire_Down_Distractor.gif"",""img/Fire_Down_Distractor.gif"",""img/Fire_Down_Distractor.gif"",""img/Fire_Down_Distractor.gif"",""img/Fire_Down_Distractor.gif"",""img/Fire_Down_Distractor.gif"",""img/Fire_Down_Distractor.gif""]","targetUp_distractorsDown"
"","","","","","html-keyboard-response","16","115686","0.0-14.0-0.0-0.1","60feef5f0d6f0bd38cf36f83","6186fb1cc52d38b480598eb7","61872a79acf233df1c567258","null","","null","","","","","fixation","","","",""
"","","","","","visual-search-circle","17","118010","0.0-14.0-0.0-1.1","60feef5f0d6f0bd38cf36f83","6186fb1cc52d38b480598eb7","61872a79acf233df1c567258","1303.5","","s","true","[[6,237],[68,490],[304,599],[537,483],[591,228],[426,27],[165,31]]","false","7","","","img/Fire_Up_Target.gif","[""img/Fire_Down_Distractor.gif"",""img/Fire_Down_Distractor.gif"",""img/Fire_Down_Distractor.gif"",""img/Fire_Down_Distractor.gif"",""img/Fire_Down_Distractor.gif"",""img/Fire_Down_Distractor.gif"",""img/Fire_Down_Distractor.gif"",""img/Fire_Down_Distractor.gif"",""img/Fire_Down_Distractor.gif"",""img/Fire_Down_Distractor.gif"",""img/Fire_Down_Distractor.gif"",""img/Fire_Down_Distractor.gif""]","targetUp_distractorsDown"
"","","","","","html-keyboard-response","18","118043","0.0-14.0-0.0-0.2","60feef5f0d6f0bd38cf36f83","6186fb1cc52d38b480598eb7","61872a79acf233df1c567258","null","","null","","","","","fixation","","","",""
"","","","","","visual-search-circle","19","120509","0.0-14.0-0.0-1.2","60feef5f0d6f0bd38cf36f83","6186fb1cc52d38b480598eb7","61872a79acf233df1c567258","1433.699999988079","","d","true","[[529,492],[594,240],[436,33],[176,26],[9,225],[60,481],[292,599]]","true","7","","","img/Fire_Up_Target.gif","[""img/Fire_Down_Distractor.gif"",""img/Fire_Down_Distractor.gif"",""img/Fire_Down_Distractor.gif"",""img/Fire_Down_Distractor.gif"",""img/Fire_Down_Distractor.gif"",""img/Fire_Down_Distractor.gif"",""img/Fire_Down_Distractor.gif"",""img/Fire_Down_Distractor.gif"",""img/Fire_Down_Distractor.gif"",""img/Fire_Down_Distractor.gif"",""img/Fire_Down_Distractor.gif"",""img/Fire_Down_Distractor.gif""]","targetUp_distractorsDown"
"","","","","","html-keyboard-response","20","120510","0.0-14.0-0.0-0.3","60feef5f0d6f0bd38cf36f83","6186fb1cc52d38b480598eb7","61872a79acf233df1c567258","null","","null","","","","","fixation","","","",""
"","","","","","visual-search-circle","21","123156","0.0-14.0-0.0-1.3","60feef5f0d6f0bd38cf36f83","6186fb1cc52d38b480598eb7","61872a79acf233df1c567258","1623","","s","false","[[310,599],[540,478],[589,223],[420,25],[160,34],[5,243],[72,495]]","true","7","","","img/Fire_Down_Target.gif","[""img/Fire_Up_Distractor.gif"",""img/Fire_Up_Distractor.gif"",""img/Fire_Up_Distractor.gif"",""img/Fire_Up_Distractor.gif"",""img/Fire_Up_Distractor.gif"",""img/Fire_Up_Distractor.gif"",""img/Fire_Up_Distractor.gif"",""img/Fire_Up_Distractor.gif"",""img/Fire_Up_Distractor.gif"",""img/Fire_Up_Distractor.gif"",""img/Fire_Up_Distractor.gif"",""img/Fire_Up_Distractor.gif""]","targetDown_distractorsUp"
"","","","","","html-keyboard-response","22","123170","0.0-14.0-0.0-0.4","60feef5f0d6f0bd38cf36f83","6186fb1cc52d38b480598eb7","61872a79acf233df1c567258","null","","null","","","","","fixation","","","",""
"","","","","","visual-search-circle","23","126084","0.0-14.0-0.0-1.4","60feef5f0d6f0bd38cf36f83","6186fb1cc52d38b480598eb7","61872a79acf233df1c567258","1898","","s","true","[[132,51],[0,320],[168,569],[467,548],[599,279],[431,30]]","false","6","","","img/Fire_Up_Target.gif","[""img/Fire_Down_Distractor.gif"",""img/Fire_Down_Distractor.gif"",""img/Fire_Down_Distractor.gif"",""img/Fire_Down_Distractor.gif"",""img/Fire_Down_Distractor.gif"",""img/Fire_Down_Distractor.gif"",""img/Fire_Down_Distractor.gif"",""img/Fire_Down_Distractor.gif"",""img/Fire_Down_Distractor.gif"",""img/Fire_Down_Distractor.gif"",""img/Fire_Down_Distractor.gif"",""img/Fire_Down_Distractor.gif""]","targetUp_distractorsDown"
"","","","","","html-keyboard-response","24","126116","0.0-14.0-0.0-0.5","60feef5f0d6f0bd38cf36f83","6186fb1cc52d38b480598eb7","61872a79acf233df1c567258","null","","null","","","","","fixation","","","",""
"","","","","","visual-search-circle","25","128453","0.0-14.0-0.0-1.5","60feef5f0d6f0bd38cf36f83","6186fb1cc52d38b480598eb7","61872a79acf233df1c567258","1309.699999988079","","d","true","[[187,21],[2,258],[115,536],[412,578],[597,341],[484,63]]","true","6","","","img/Fire_Up_Target.gif","[""img/Fire_Down_Distractor.gif"",""img/Fire_Down_Distractor.gif"",""img/Fire_Down_Distractor.gif"",""img/Fire_Down_Distractor.gif"",""img/Fire_Down_Distractor.gif"",""img/Fire_Down_Distractor.gif"",""img/Fire_Down_Distractor.gif"",""img/Fire_Down_Distractor.gif"",""img/Fire_Down_Distractor.gif"",""img/Fire_Down_Distractor.gif"",""img/Fire_Down_Distractor.gif"",""img/Fire_Down_Distractor.gif""]","targetUp_distractorsDown"
"","","","","","html-keyboard-response","26","128475","0.0-14.0-0.0-0.6","60feef5f0d6f0bd38cf36f83","6186fb1cc52d38b480598eb7","61872a79acf233df1c567258","null","","null","","","","","fixation","","","",""
"","","","","","visual-search-circle","27","131339","0.0-14.0-0.0-1.6","60feef5f0d6f0bd38cf36f83","6186fb1cc52d38b480598eb7","61872a79acf233df1c567258","1845","","s","true","[[445,562],[588,382],[562,154],[382,11],[154,37],[11,217],[37,445],[217,588]]","false","8","","","img/Fire_Down_Target.gif","[""img/Fire_Up_Distractor.gif"",""img/Fire_Up_Distractor.gif"",""img/Fire_Up_Distractor.gif"",""img/Fire_Up_Distractor.gif"",""img/Fire_Up_Distractor.gif"",""img/Fire_Up_Distractor.gif"",""img/Fire_Up_Distractor.gif"",""img/Fire_Up_Distractor.gif"",""img/Fire_Up_Distractor.gif"",""img/Fire_Up_Distractor.gif"",""img/Fire_Up_Distractor.gif"",""img/Fire_Up_Distractor.gif""]","targetDown_distractorsUp"
"","","","","","html-keyboard-response","28","131348","0.0-14.0-0.0-0.7","60feef5f0d6f0bd38cf36f83","6186fb1cc52d38b480598eb7","61872a79acf233df1c567258","null","","null","","","","","fixation","","","",""
"","","","","","visual-search-circle","29","134499","0.0-14.0-0.0-1.7","60feef5f0d6f0bd38cf36f83","6186fb1cc52d38b480598eb7","61872a79acf233df1c567258","2138.5","","s","true","[[45,141],[17,399],[201,583],[460,553],[598,332],[511,87],[265,1]]","false","7","","","img/Fire_Down_Target.gif","[""img/Fire_Up_Distractor.gif"",""img/Fire_Up_Distractor.gif"",""img/Fire_Up_Distractor.gif"",""img/Fire_Up_Distractor.gif"",""img/Fire_Up_Distractor.gif"",""img/Fire_Up_Distractor.gif"",""img/Fire_Up_Distractor.gif"",""img/Fire_Up_Distractor.gif"",""img/Fire_Up_Distractor.gif"",""img/Fire_Up_Distractor.gif"",""img/Fire_Up_Distractor.gif"",""img/Fire_Up_Distractor.gif""]","targetDown_distractorsUp"
"","","","","","html-keyboard-response","30","134502","0.0-14.0-0.0-0.8","60feef5f0d6f0bd38cf36f83","6186fb1cc52d38b480598eb7","61872a79acf233df1c567258","null","","null","","","","","fixation","","","",""
"","","","","","visual-search-circle","31","137782","0.0-14.0-0.0-1.8","60feef5f0d6f0bd38cf36f83","6186fb1cc52d38b480598eb7","61872a79acf233df1c567258","2265.7000000029802","","d","false","[[362,593],[568,434],[572,173],[371,8],[116,62],[0,295],[109,531]]","false","7","","","img/Fire_Down_Target.gif","[""img/Fire_Up_Distractor.gif"",""img/Fire_Up_Distractor.gif"",""img/Fire_Up_Distractor.gif"",""img/Fire_Up_Distractor.gif"",""img/Fire_Up_Distractor.gif"",""img/Fire_Up_Distractor.gif"",""img/Fire_Up_Distractor.gif"",""img/Fire_Up_Distractor.gif"",""img/Fire_Up_Distractor.gif"",""img/Fire_Up_Distractor.gif"",""img/Fire_Up_Distractor.gif"",""img/Fire_Up_Distractor.gif""]","targetDown_distractorsUp"
"","","","","","html-keyboard-response","32","137784","0.0-14.0-0.0-0.9","60feef5f0d6f0bd38cf36f83","6186fb1cc52d38b480598eb7","61872a79acf233df1c567258","null","","null","","","","","fixation","","","",""
"","","","","","visual-search-circle","33","141122","0.0-14.0-0.0-1.9","60feef5f0d6f0bd38cf36f83","6186fb1cc52d38b480598eb7","61872a79acf233df1c567258","2309.2000000029802","","s","true","[[222,589],[478,541],[599,311],[495,72],[244,5],[34,159],[25,419]]","false","7","","","img/Fire_Up_Target.gif","[""img/Fire_Down_Distractor.gif"",""img/Fire_Down_Distractor.gif"",""img/Fire_Down_Distractor.gif"",""img/Fire_Down_Distractor.gif"",""img/Fire_Down_Distractor.gif"",""img/Fire_Down_Distractor.gif"",""img/Fire_Down_Distractor.gif"",""img/Fire_Down_Distractor.gif"",""img/Fire_Down_Distractor.gif"",""img/Fire_Down_Distractor.gif"",""img/Fire_Down_Distractor.gif"",""img/Fire_Down_Distractor.gif""]","targetUp_distractorsDown"
"","","","","","html-keyboard-response","34","141150","0.0-14.0-0.0-0.10","60feef5f0d6f0bd38cf36f83","6186fb1cc52d38b480598eb7","61872a79acf233df1c567258","null","","null","","","","","fixation","","","",""
"","","","","","visual-search-circle","35","143690","0.0-14.0-0.0-1.10","60feef5f0d6f0bd38cf36f83","6186fb1cc52d38b480598eb7","61872a79acf233df1c567258","1507.1000000089407","","d","true","[[80,504],[289,599],[504,519],[599,310],[519,95],[310,0],[95,80],[0,289]]","true","8","","","img/Fire_Up_Target.gif","[""img/Fire_Down_Distractor.gif"",""img/Fire_Down_Distractor.gif"",""img/Fire_Down_Distractor.gif"",""img/Fire_Down_Distractor.gif"",""img/Fire_Down_Distractor.gif"",""img/Fire_Down_Distractor.gif"",""img/Fire_Down_Distractor.gif"",""img/Fire_Down_Distractor.gif"",""img/Fire_Down_Distractor.gif"",""img/Fire_Down_Distractor.gif"",""img/Fire_Down_Distractor.gif"",""img/Fire_Down_Distractor.gif""]","targetUp_distractorsDown"
"","","","","","html-keyboard-response","36","143696","0.0-14.0-0.0-0.11","60feef5f0d6f0bd38cf36f83","6186fb1cc52d38b480598eb7","61872a79acf233df1c567258","null","","null","","","","","fixation","","","",""
"","","","","","visual-search-circle","37","145878","0.0-14.0-0.0-1.11","60feef5f0d6f0bd38cf36f83","6186fb1cc52d38b480598eb7","61872a79acf233df1c567258","1165.1000000089407","","d","true","[[7,367],[170,570],[430,569],[592,366],[534,112],[299,0],[64,113]]","true","7","","","img/Fire_Down_Target.gif","[""img/Fire_Up_Distractor.gif"",""img/Fire_Up_Distractor.gif"",""img/Fire_Up_Distractor.gif"",""img/Fire_Up_Distractor.gif"",""img/Fire_Up_Distractor.gif"",""img/Fire_Up_Distractor.gif"",""img/Fire_Up_Distractor.gif"",""img/Fire_Up_Distractor.gif"",""img/Fire_Up_Distractor.gif"",""img/Fire_Up_Distractor.gif"",""img/Fire_Up_Distractor.gif"",""img/Fire_Up_Distractor.gif""]","targetDown_distractorsUp"
"","","","","","html-keyboard-response","38","145881","0.0-14.0-0.0-0.12","60feef5f0d6f0bd38cf36f83","6186fb1cc52d38b480598eb7","61872a79acf233df1c567258","null","","null","","","","","fixation","","","",""
"","","","","","visual-search-circle","39","148950","0.0-14.0-0.0-1.12","60feef5f0d6f0bd38cf36f83","6186fb1cc52d38b480598eb7","61872a79acf233df1c567258","2059.2999999970198","","d","true","[[512,512],[512,87],[87,87],[87,512]]","true","4","","","img/Fire_Up_Target.gif","[""img/Fire_Down_Distractor.gif"",""img/Fire_Down_Distractor.gif"",""img/Fire_Down_Distractor.gif"",""img/Fire_Down_Distractor.gif"",""img/Fire_Down_Distractor.gif"",""img/Fire_Down_Distractor.gif"",""img/Fire_Down_Distractor.gif"",""img/Fire_Down_Distractor.gif"",""img/Fire_Down_Distractor.gif"",""img/Fire_Down_Distractor.gif"",""img/Fire_Down_Distractor.gif"",""img/Fire_Down_Distractor.gif""]","targetUp_distractorsDown"
"","","","","","html-keyboard-response","40","148953","0.0-14.0-0.0-0.13","60feef5f0d6f0bd38cf36f83","6186fb1cc52d38b480598eb7","61872a79acf233df1c567258","null","","null","","","","","fixation","","","",""
"","","","","","visual-search-circle","41","150951","0.0-14.0-0.0-1.13","60feef5f0d6f0bd38cf36f83","6186fb1cc52d38b480598eb7","61872a79acf233df1c567258","983.5","","d","true","[[5,357],[263,597],[571,426],[504,80],[154,37]]","true","5","","","img/Fire_Up_Target.gif","[""img/Fire_Down_Distractor.gif"",""img/Fire_Down_Distractor.gif"",""img/Fire_Down_Distractor.gif"",""img/Fire_Down_Distractor.gif"",""img/Fire_Down_Distractor.gif"",""img/Fire_Down_Distractor.gif"",""img/Fire_Down_Distractor.gif"",""img/Fire_Down_Distractor.gif"",""img/Fire_Down_Distractor.gif"",""img/Fire_Down_Distractor.gif"",""img/Fire_Down_Distractor.gif"",""img/Fire_Down_Distractor.gif""]","targetUp_distractorsDown"
"","","","","","html-keyboard-response","42","150964","0.0-14.0-0.0-0.14","60feef5f0d6f0bd38cf36f83","6186fb1cc52d38b480598eb7","61872a79acf233df1c567258","null","","null","","","","","fixation","","","",""
"","","","","","visual-search-circle","43","154052","0.0-14.0-0.0-1.14","60feef5f0d6f0bd38cf36f83","6186fb1cc52d38b480598eb7","61872a79acf233df1c567258","2067.1000000089407","","s","true","[[412,578],[597,341],[484,63],[187,21],[2,258],[115,536]]","false","6","","","img/Fire_Down_Target.gif","[""img/Fire_Up_Distractor.gif"",""img/Fire_Up_Distractor.gif"",""img/Fire_Up_Distractor.gif"",""img/Fire_Up_Distractor.gif"",""img/Fire_Up_Distractor.gif"",""img/Fire_Up_Distractor.gif"",""img/Fire_Up_Distractor.gif"",""img/Fire_Up_Distractor.gif"",""img/Fire_Up_Distractor.gif"",""img/Fire_Up_Distractor.gif"",""img/Fire_Up_Distractor.gif"",""img/Fire_Up_Distractor.gif""]","targetDown_distractorsUp"
"","","","","","html-keyboard-response","44","154056","0.0-14.0-0.0-0.15","60feef5f0d6f0bd38cf36f83","6186fb1cc52d38b480598eb7","61872a79acf233df1c567258","null","","null","","","","","fixation","","","",""
"","","","","","visual-search-circle","45","156305","0.0-14.0-0.0-1.15","60feef5f0d6f0bd38cf36f83","6186fb1cc52d38b480598eb7","61872a79acf233df1c567258","1233.2000000029802","","d","true","[[32,163],[87,512],[436,567],[596,253],[346,3]]","true","5","","","img/Fire_Down_Target.gif","[""img/Fire_Up_Distractor.gif"",""img/Fire_Up_Distractor.gif"",""img/Fire_Up_Distractor.gif"",""img/Fire_Up_Distractor.gif"",""img/Fire_Up_Distractor.gif"",""img/Fire_Up_Distractor.gif"",""img/Fire_Up_Distractor.gif"",""img/Fire_Up_Distractor.gif"",""img/Fire_Up_Distractor.gif"",""img/Fire_Up_Distractor.gif"",""img/Fire_Up_Distractor.gif"",""img/Fire_Up_Distractor.gif""]","targetDown_distractorsUp"
"","","","","","html-keyboard-response","46","156311","0.0-14.0-0.0-0.16","60feef5f0d6f0bd38cf36f83","6186fb1cc52d38b480598eb7","61872a79acf233df1c567258","null","","null","","","","","fixation","","","",""
"","","","","","visual-search-circle","47","158705","0.0-14.0-0.0-1.16","60feef5f0d6f0bd38cf36f83","6186fb1cc52d38b480598eb7","61872a79acf233df1c567258","1375.699999988079","","d","true","[[336,597],[576,417],[539,119],[263,2],[23,182],[60,480]]","true","6","","","img/Fire_Down_Target.gif","[""img/Fire_Up_Distractor.gif"",""img/Fire_Up_Distractor.gif"",""img/Fire_Up_Distractor.gif"",""img/Fire_Up_Distractor.gif"",""img/Fire_Up_Distractor.gif"",""img/Fire_Up_Distractor.gif"",""img/Fire_Up_Distractor.gif"",""img/Fire_Up_Distractor.gif"",""img/Fire_Up_Distractor.gif"",""img/Fire_Up_Distractor.gif"",""img/Fire_Up_Distractor.gif"",""img/Fire_Up_Distractor.gif""]","targetDown_distractorsUp"
"","","","","","html-keyboard-response","48","158722","0.0-14.0-0.0-0.17","60feef5f0d6f0bd38cf36f83","6186fb1cc52d38b480598eb7","61872a79acf233df1c567258","null","","null","","","","","fixation","","","",""
"","","","","","visual-search-circle","49","162399","0.0-14.0-0.0-1.17","60feef5f0d6f0bd38cf36f83","6186fb1cc52d38b480598eb7","61872a79acf233df1c567258","2666.5999999940395","","d","true","[[19,192],[111,533],[463,551],[589,222],[315,0]]","true","5","","","img/Fire_Down_Target.gif","[""img/Fire_Up_Distractor.gif"",""img/Fire_Up_Distractor.gif"",""img/Fire_Up_Distractor.gif"",""img/Fire_Up_Distractor.gif"",""img/Fire_Up_Distractor.gif"",""img/Fire_Up_Distractor.gif"",""img/Fire_Up_Distractor.gif"",""img/Fire_Up_Distractor.gif"",""img/Fire_Up_Distractor.gif"",""img/Fire_Up_Distractor.gif"",""img/Fire_Up_Distractor.gif"",""img/Fire_Up_Distractor.gif""]","targetDown_distractorsUp"
"","","","","","html-keyboard-response","50","162421","0.0-14.0-0.0-0.18","60feef5f0d6f0bd38cf36f83","6186fb1cc52d38b480598eb7","61872a79acf233df1c567258","null","","null","","","","","fixation","","","",""
"","","","","","visual-search-circle","51","165794","0.0-14.0-0.0-1.18","60feef5f0d6f0bd38cf36f83","6186fb1cc52d38b480598eb7","61872a79acf233df1c567258","2353.5999999940395","","s","false","[[123,542],[422,574],[598,331],[476,57],[177,25],[1,268]]","true","6","","","img/Fire_Down_Target.gif","[""img/Fire_Up_Distractor.gif"",""img/Fire_Up_Distractor.gif"",""img/Fire_Up_Distractor.gif"",""img/Fire_Up_Distractor.gif"",""img/Fire_Up_Distractor.gif"",""img/Fire_Up_Distractor.gif"",""img/Fire_Up_Distractor.gif"",""img/Fire_Up_Distractor.gif"",""img/Fire_Up_Distractor.gif"",""img/Fire_Up_Distractor.gif"",""img/Fire_Up_Distractor.gif"",""img/Fire_Up_Distractor.gif""]","targetDown_distractorsUp"
"","","","","","html-keyboard-response","52","173647","0.0-14.0-0.0-0.19","60feef5f0d6f0bd38cf36f83","6186fb1cc52d38b480598eb7","61872a79acf233df1c567258","7852","Wow! You've completed 20 out of 120 trials! </p> <p>  </p><p> Take a quick break, then press any key when you're ready to continue."," ","","","","","fixation","","","",""
"","","","","","visual-search-circle","53","176550","0.0-14.0-0.0-1.19","60feef5f0d6f0bd38cf36f83","6186fb1cc52d38b480598eb7","61872a79acf233df1c567258","1873.1000000089407","","d","false","[[127,545],[352,595],[545,472],[595,247],[472,54],[247,4],[54,127],[4,352]]","false","8","","","img/Fire_Up_Target.gif","[""img/Fire_Down_Distractor.gif"",""img/Fire_Down_Distractor.gif"",""img/Fire_Down_Distractor.gif"",""img/Fire_Down_Distractor.gif"",""img/Fire_Down_Distractor.gif"",""img/Fire_Down_Distractor.gif"",""img/Fire_Down_Distractor.gif"",""img/Fire_Down_Distractor.gif"",""img/Fire_Down_Distractor.gif"",""img/Fire_Down_Distractor.gif"",""img/Fire_Down_Distractor.gif"",""img/Fire_Down_Distractor.gif""]","targetUp_distractorsDown"
"","","","","","html-keyboard-response","54","176557","0.0-14.0-0.0-0.20","60feef5f0d6f0bd38cf36f83","6186fb1cc52d38b480598eb7","61872a79acf233df1c567258","null","","null","","","","","fixation","","","",""
"","","","","","visual-search-circle","55","179340","0.0-14.0-0.0-1.20","60feef5f0d6f0bd38cf36f83","6186fb1cc52d38b480598eb7","61872a79acf233df1c567258","1759.6000000089407","","d","false","[[598,331],[510,86],[264,2],[44,142],[17,401],[203,583],[461,552]]","false","7","","","img/Fire_Up_Target.gif","[""img/Fire_Down_Distractor.gif"",""img/Fire_Down_Distractor.gif"",""img/Fire_Down_Distractor.gif"",""img/Fire_Down_Distractor.gif"",""img/Fire_Down_Distractor.gif"",""img/Fire_Down_Distractor.gif"",""img/Fire_Down_Distractor.gif"",""img/Fire_Down_Distractor.gif"",""img/Fire_Down_Distractor.gif"",""img/Fire_Down_Distractor.gif"",""img/Fire_Down_Distractor.gif"",""img/Fire_Down_Distractor.gif""]","targetUp_distractorsDown"
"","","","","","html-keyboard-response","56","179342","0.0-14.0-0.0-0.21","60feef5f0d6f0bd38cf36f83","6186fb1cc52d38b480598eb7","61872a79acf233df1c567258","null","","null","","","","","fixation","","","",""
"","","","","","visual-search-circle","57","181258","0.0-14.0-0.0-1.21","60feef5f0d6f0bd38cf36f83","6186fb1cc52d38b480598eb7","61872a79acf233df1c567258","889.0999999940395","","d","true","[[598,268],[362,6],[40,150],[77,500],[422,574]]","true","5","","","img/Fire_Up_Target.gif","[""img/Fire_Down_Distractor.gif"",""img/Fire_Down_Distractor.gif"",""img/Fire_Down_Distractor.gif"",""img/Fire_Down_Distractor.gif"",""img/Fire_Down_Distractor.gif"",""img/Fire_Down_Distractor.gif"",""img/Fire_Down_Distractor.gif"",""img/Fire_Down_Distractor.gif"",""img/Fire_Down_Distractor.gif"",""img/Fire_Down_Distractor.gif"",""img/Fire_Down_Distractor.gif"",""img/Fire_Down_Distractor.gif""]","targetUp_distractorsDown"
"","","","","","html-keyboard-response","58","181265","0.0-14.0-0.0-0.22","60feef5f0d6f0bd38cf36f83","6186fb1cc52d38b480598eb7","61872a79acf233df1c567258","null","","null","","","","","fixation","","","",""
"","","","","","visual-search-circle","59","182987","0.0-14.0-0.0-1.22","60feef5f0d6f0bd38cf36f83","6186fb1cc52d38b480598eb7","61872a79acf233df1c567258","701.1000000089407","","s","false","[[32,436],[207,585],[436,567],[585,392],[567,163],[392,14],[163,32],[14,207]]","true","8","","","img/Fire_Down_Target.gif","[""img/Fire_Up_Distractor.gif"",""img/Fire_Up_Distractor.gif"",""img/Fire_Up_Distractor.gif"",""img/Fire_Up_Distractor.gif"",""img/Fire_Up_Distractor.gif"",""img/Fire_Up_Distractor.gif"",""img/Fire_Up_Distractor.gif"",""img/Fire_Up_Distractor.gif"",""img/Fire_Up_Distractor.gif"",""img/Fire_Up_Distractor.gif"",""img/Fire_Up_Distractor.gif"",""img/Fire_Up_Distractor.gif""]","targetDown_distractorsUp"
"","","","","","html-keyboard-response","60","182997","0.0-14.0-0.0-0.23","60feef5f0d6f0bd38cf36f83","6186fb1cc52d38b480598eb7","61872a79acf233df1c567258","null","","null","","","","","fixation","","","",""
"","","","","","visual-search-circle","61","185593","0.0-14.0-0.0-1.23","60feef5f0d6f0bd38cf36f83","6186fb1cc52d38b480598eb7","61872a79acf233df1c567258","1586.5","","s","true","[[13,212],[212,586],[586,387],[387,13]]","false","4","","","img/Fire_Down_Target.gif","[""img/Fire_Up_Distractor.gif"",""img/Fire_Up_Distractor.gif"",""img/Fire_Up_Distractor.gif"",""img/Fire_Up_Distractor.gif"",""img/Fire_Up_Distractor.gif"",""img/Fire_Up_Distractor.gif"",""img/Fire_Up_Distractor.gif"",""img/Fire_Up_Distractor.gif"",""img/Fire_Up_Distractor.gif"",""img/Fire_Up_Distractor.gif"",""img/Fire_Up_Distractor.gif"",""img/Fire_Up_Distractor.gif""]","targetDown_distractorsUp"
"","","","","","html-keyboard-response","62","185596","0.0-14.0-0.0-0.24","60feef5f0d6f0bd38cf36f83","6186fb1cc52d38b480598eb7","61872a79acf233df1c567258","null","","null","","","","","fixation","","","",""
"","","","","","visual-search-circle","63","187656","0.0-14.0-0.0-1.24","60feef5f0d6f0bd38cf36f83","6186fb1cc52d38b480598eb7","61872a79acf233df1c567258","1047.7999999970198","","s","true","[[310,0],[0,289],[289,599],[599,310]]","false","4","","","img/Fire_Down_Target.gif","[""img/Fire_Up_Distractor.gif"",""img/Fire_Up_Distractor.gif"",""img/Fire_Up_Distractor.gif"",""img/Fire_Up_Distractor.gif"",""img/Fire_Up_Distractor.gif"",""img/Fire_Up_Distractor.gif"",""img/Fire_Up_Distractor.gif"",""img/Fire_Up_Distractor.gif"",""img/Fire_Up_Distractor.gif"",""img/Fire_Up_Distractor.gif"",""img/Fire_Up_Distractor.gif"",""img/Fire_Up_Distractor.gif""]","targetDown_distractorsUp"
"","","","","","html-keyboard-response","64","187670","0.0-14.0-0.0-0.25","60feef5f0d6f0bd38cf36f83","6186fb1cc52d38b480598eb7","61872a79acf233df1c567258","null","","null","","","","","fixation","","","",""
"","","","","","visual-search-circle","65","189710","0.0-14.0-0.0-1.25","60feef5f0d6f0bd38cf36f83","6186fb1cc52d38b480598eb7","61872a79acf233df1c567258","1028.199999988079","","d","true","[[331,598],[574,422],[542,123],[268,1],[25,177],[57,476]]","true","6","","","img/Fire_Down_Target.gif","[""img/Fire_Up_Distractor.gif"",""img/Fire_Up_Distractor.gif"",""img/Fire_Up_Distractor.gif"",""img/Fire_Up_Distractor.gif"",""img/Fire_Up_Distractor.gif"",""img/Fire_Up_Distractor.gif"",""img/Fire_Up_Distractor.gif"",""img/Fire_Up_Distractor.gif"",""img/Fire_Up_Distractor.gif"",""img/Fire_Up_Distractor.gif"",""img/Fire_Up_Distractor.gif"",""img/Fire_Up_Distractor.gif""]","targetDown_distractorsUp"
"","","","","","html-keyboard-response","66","189747","0.0-14.0-0.0-0.26","60feef5f0d6f0bd38cf36f83","6186fb1cc52d38b480598eb7","61872a79acf233df1c567258","null","","null","","","","","fixation","","","",""
"","","","","","visual-search-circle","67","192147","0.0-14.0-0.0-1.26","60feef5f0d6f0bd38cf36f83","6186fb1cc52d38b480598eb7","61872a79acf233df1c567258","1382.2999999970198","","s","false","[[341,597],[597,258],[258,2],[2,341]]","true","4","","","img/Fire_Down_Target.gif","[""img/Fire_Up_Distractor.gif"",""img/Fire_Up_Distractor.gif"",""img/Fire_Up_Distractor.gif"",""img/Fire_Up_Distractor.gif"",""img/Fire_Up_Distractor.gif"",""img/Fire_Up_Distractor.gif"",""img/Fire_Up_Distractor.gif"",""img/Fire_Up_Distractor.gif"",""img/Fire_Up_Distractor.gif"",""img/Fire_Up_Distractor.gif"",""img/Fire_Up_Distractor.gif"",""img/Fire_Up_Distractor.gif""]","targetDown_distractorsUp"
"","","","","","html-keyboard-response","68","192161","0.0-14.0-0.0-0.27","60feef5f0d6f0bd38cf36f83","6186fb1cc52d38b480598eb7","61872a79acf233df1c567258","null","","null","","","","","fixation","","","",""
"","","","","","visual-search-circle","69","195121","0.0-14.0-0.0-1.27","60feef5f0d6f0bd38cf36f83","6186fb1cc52d38b480598eb7","61872a79acf233df1c567258","1945","","s","false","[[463,551],[589,222],[315,0],[19,192],[111,533]]","true","5","","","img/Fire_Up_Target.gif","[""img/Fire_Down_Distractor.gif"",""img/Fire_Down_Distractor.gif"",""img/Fire_Down_Distractor.gif"",""img/Fire_Down_Distractor.gif"",""img/Fire_Down_Distractor.gif"",""img/Fire_Down_Distractor.gif"",""img/Fire_Down_Distractor.gif"",""img/Fire_Down_Distractor.gif"",""img/Fire_Down_Distractor.gif"",""img/Fire_Down_Distractor.gif"",""img/Fire_Down_Distractor.gif"",""img/Fire_Down_Distractor.gif""]","targetUp_distractorsDown"
"","","","","","html-keyboard-response","70","195149","0.0-14.0-0.0-0.28","60feef5f0d6f0bd38cf36f83","6186fb1cc52d38b480598eb7","61872a79acf233df1c567258","null","","null","","","","","fixation","","","",""
"","","","","","visual-search-circle","71","197799","0.0-14.0-0.0-1.28","60feef5f0d6f0bd38cf36f83","6186fb1cc52d38b480598eb7","61872a79acf233df1c567258","1631","","d","true","[[107,70],[21,412],[320,599],[591,372],[458,45]]","true","5","","","img/Fire_Down_Target.gif","[""img/Fire_Up_Distractor.gif"",""img/Fire_Up_Distractor.gif"",""img/Fire_Up_Distractor.gif"",""img/Fire_Up_Distractor.gif"",""img/Fire_Up_Distractor.gif"",""img/Fire_Up_Distractor.gif"",""img/Fire_Up_Distractor.gif"",""img/Fire_Up_Distractor.gif"",""img/Fire_Up_Distractor.gif"",""img/Fire_Up_Distractor.gif"",""img/Fire_Up_Distractor.gif"",""img/Fire_Up_Distractor.gif""]","targetDown_distractorsUp"
"","","","","","html-keyboard-response","72","197803","0.0-14.0-0.0-0.29","60feef5f0d6f0bd38cf36f83","6186fb1cc52d38b480598eb7","61872a79acf233df1c567258","null","","null","","","","","fixation","","","",""
"","","","","","visual-search-circle","73","200369","0.0-14.0-0.0-1.29","60feef5f0d6f0bd38cf36f83","6186fb1cc52d38b480598eb7","61872a79acf233df1c567258","1548.7999999970198","","d","true","[[559,450],[589,222],[449,40],[222,10],[40,150],[10,377],[150,559],[377,589]]","true","8","","","img/Fire_Down_Target.gif","[""img/Fire_Up_Distractor.gif"",""img/Fire_Up_Distractor.gif"",""img/Fire_Up_Distractor.gif"",""img/Fire_Up_Distractor.gif"",""img/Fire_Up_Distractor.gif"",""img/Fire_Up_Distractor.gif"",""img/Fire_Up_Distractor.gif"",""img/Fire_Up_Distractor.gif"",""img/Fire_Up_Distractor.gif"",""img/Fire_Up_Distractor.gif"",""img/Fire_Up_Distractor.gif"",""img/Fire_Up_Distractor.gif""]","targetDown_distractorsUp"
"","","","","","html-keyboard-response","74","200410","0.0-14.0-0.0-0.30","60feef5f0d6f0bd38cf36f83","6186fb1cc52d38b480598eb7","61872a79acf233df1c567258","null","","null","","","","","fixation","","","",""
"","","","","","visual-search-circle","75","202872","0.0-14.0-0.0-1.30","60feef5f0d6f0bd38cf36f83","6186fb1cc52d38b480598eb7","61872a79acf233df1c567258","1440.2999999970198","","s","true","[[247,595],[564,440],[515,91],[168,30],[2,341]]","false","5","","","img/Fire_Down_Target.gif","[""img/Fire_Up_Distractor.gif"",""img/Fire_Up_Distractor.gif"",""img/Fire_Up_Distractor.gif"",""img/Fire_Up_Distractor.gif"",""img/Fire_Up_Distractor.gif"",""img/Fire_Up_Distractor.gif"",""img/Fire_Up_Distractor.gif"",""img/Fire_Up_Distractor.gif"",""img/Fire_Up_Distractor.gif"",""img/Fire_Up_Distractor.gif"",""img/Fire_Up_Distractor.gif"",""img/Fire_Up_Distractor.gif""]","targetDown_distractorsUp"
"","","","","","html-keyboard-response","76","202900","0.0-14.0-0.0-0.31","60feef5f0d6f0bd38cf36f83","6186fb1cc52d38b480598eb7","61872a79acf233df1c567258","null","","null","","","","","fixation","","","",""
"","","","","","visual-search-circle","77","205135","0.0-14.0-0.0-1.31","60feef5f0d6f0bd38cf36f83","6186fb1cc52d38b480598eb7","61872a79acf233df1c567258","1224.4000000059605","","s","true","[[588,382],[382,11],[11,217],[217,588]]","false","4","","","img/Fire_Down_Target.gif","[""img/Fire_Up_Distractor.gif"",""img/Fire_Up_Distractor.gif"",""img/Fire_Up_Distractor.gif"",""img/Fire_Up_Distractor.gif"",""img/Fire_Up_Distractor.gif"",""img/Fire_Up_Distractor.gif"",""img/Fire_Up_Distractor.gif"",""img/Fire_Up_Distractor.gif"",""img/Fire_Up_Distractor.gif"",""img/Fire_Up_Distractor.gif"",""img/Fire_Up_Distractor.gif"",""img/Fire_Up_Distractor.gif""]","targetDown_distractorsUp"
"","","","","","html-keyboard-response","78","205146","0.0-14.0-0.0-0.32","60feef5f0d6f0bd38cf36f83","6186fb1cc52d38b480598eb7","61872a79acf233df1c567258","null","","null","","","","","fixation","","","",""
"","","","","","visual-search-circle","79","207708","0.0-14.0-0.0-1.32","60feef5f0d6f0bd38cf36f83","6186fb1cc52d38b480598eb7","61872a79acf233df1c567258","1542.7999999970198","","s","true","[[35,159],[159,564],[564,440],[440,35]]","false","4","","","img/Fire_Up_Target.gif","[""img/Fire_Down_Distractor.gif"",""img/Fire_Down_Distractor.gif"",""img/Fire_Down_Distractor.gif"",""img/Fire_Down_Distractor.gif"",""img/Fire_Down_Distractor.gif"",""img/Fire_Down_Distractor.gif"",""img/Fire_Down_Distractor.gif"",""img/Fire_Down_Distractor.gif"",""img/Fire_Down_Distractor.gif"",""img/Fire_Down_Distractor.gif"",""img/Fire_Down_Distractor.gif"",""img/Fire_Down_Distractor.gif""]","targetUp_distractorsDown"
"","","","","","html-keyboard-response","80","207723","0.0-14.0-0.0-0.33","60feef5f0d6f0bd38cf36f83","6186fb1cc52d38b480598eb7","61872a79acf233df1c567258","null","","null","","","","","fixation","","","",""
"","","","","","visual-search-circle","81","210158","0.0-14.0-0.0-1.33","60feef5f0d6f0bd38cf36f83","6186fb1cc52d38b480598eb7","61872a79acf233df1c567258","1425.5","","s","true","[[500,77],[77,99],[99,522],[522,500]]","false","4","","","img/Fire_Up_Target.gif","[""img/Fire_Down_Distractor.gif"",""img/Fire_Down_Distractor.gif"",""img/Fire_Down_Distractor.gif"",""img/Fire_Down_Distractor.gif"",""img/Fire_Down_Distractor.gif"",""img/Fire_Down_Distractor.gif"",""img/Fire_Down_Distractor.gif"",""img/Fire_Down_Distractor.gif"",""img/Fire_Down_Distractor.gif"",""img/Fire_Down_Distractor.gif"",""img/Fire_Down_Distractor.gif"",""img/Fire_Down_Distractor.gif""]","targetUp_distractorsDown"
"","","","","","html-keyboard-response","82","210179","0.0-14.0-0.0-0.34","60feef5f0d6f0bd38cf36f83","6186fb1cc52d38b480598eb7","61872a79acf233df1c567258","null","","null","","","","","fixation","","","",""
"","","","","","visual-search-circle","83","212793","0.0-14.0-0.0-1.34","60feef5f0d6f0bd38cf36f83","6186fb1cc52d38b480598eb7","61872a79acf233df1c567258","1592.5","","s","true","[[149,559],[409,579],[586,388],[547,131],[322,0],[80,95],[3,344]]","false","7","","","img/Fire_Down_Target.gif","[""img/Fire_Up_Distractor.gif"",""img/Fire_Up_Distractor.gif"",""img/Fire_Up_Distractor.gif"",""img/Fire_Up_Distractor.gif"",""img/Fire_Up_Distractor.gif"",""img/Fire_Up_Distractor.gif"",""img/Fire_Up_Distractor.gif"",""img/Fire_Up_Distractor.gif"",""img/Fire_Up_Distractor.gif"",""img/Fire_Up_Distractor.gif"",""img/Fire_Up_Distractor.gif"",""img/Fire_Up_Distractor.gif""]","targetDown_distractorsUp"
"","","","","","html-keyboard-response","84","212797","0.0-14.0-0.0-0.35","60feef5f0d6f0bd38cf36f83","6186fb1cc52d38b480598eb7","61872a79acf233df1c567258","null","","null","","","","","fixation","","","",""
"","","","","","visual-search-circle","85","214770","0.0-14.0-0.0-1.35","60feef5f0d6f0bd38cf36f83","6186fb1cc52d38b480598eb7","61872a79acf233df1c567258","950.0999999940395","","d","true","[[585,207],[405,19],[146,42],[2,259],[83,507],[326,598],[550,465]]","true","7","","","img/Fire_Up_Target.gif","[""img/Fire_Down_Distractor.gif"",""img/Fire_Down_Distractor.gif"",""img/Fire_Down_Distractor.gif"",""img/Fire_Down_Distractor.gif"",""img/Fire_Down_Distractor.gif"",""img/Fire_Down_Distractor.gif"",""img/Fire_Down_Distractor.gif"",""img/Fire_Down_Distractor.gif"",""img/Fire_Down_Distractor.gif"",""img/Fire_Down_Distractor.gif"",""img/Fire_Down_Distractor.gif"",""img/Fire_Down_Distractor.gif""]","targetUp_distractorsDown"
"","","","","","html-keyboard-response","86","214772","0.0-14.0-0.0-0.36","60feef5f0d6f0bd38cf36f83","6186fb1cc52d38b480598eb7","61872a79acf233df1c567258","null","","null","","","","","fixation","","","",""
"","","","","","visual-search-circle","87","217074","0.0-14.0-0.0-1.36","60feef5f0d6f0bd38cf36f83","6186fb1cc52d38b480598eb7","61872a79acf233df1c567258","1288.300000011921","","d","true","[[484,536],[599,302],[489,67],[236,6],[31,167],[28,427],[230,591]]","true","7","","","img/Fire_Up_Target.gif","[""img/Fire_Down_Distractor.gif"",""img/Fire_Down_Distractor.gif"",""img/Fire_Down_Distractor.gif"",""img/Fire_Down_Distractor.gif"",""img/Fire_Down_Distractor.gif"",""img/Fire_Down_Distractor.gif"",""img/Fire_Down_Distractor.gif"",""img/Fire_Down_Distractor.gif"",""img/Fire_Down_Distractor.gif"",""img/Fire_Down_Distractor.gif"",""img/Fire_Down_Distractor.gif"",""img/Fire_Down_Distractor.gif""]","targetUp_distractorsDown"
"","","","","","html-keyboard-response","88","217089","0.0-14.0-0.0-0.37","60feef5f0d6f0bd38cf36f83","6186fb1cc52d38b480598eb7","61872a79acf233df1c567258","null","","null","","","","","fixation","","","",""
"","","","","","visual-search-circle","89","219779","0.0-14.0-0.0-1.37","60feef5f0d6f0bd38cf36f83","6186fb1cc52d38b480598eb7","61872a79acf233df1c567258","1663","","s","false","[[581,197],[426,28],[197,18],[28,173],[18,402],[173,571],[402,581],[571,426]]","true","8","","","img/Fire_Up_Target.gif","[""img/Fire_Down_Distractor.gif"",""img/Fire_Down_Distractor.gif"",""img/Fire_Down_Distractor.gif"",""img/Fire_Down_Distractor.gif"",""img/Fire_Down_Distractor.gif"",""img/Fire_Down_Distractor.gif"",""img/Fire_Down_Distractor.gif"",""img/Fire_Down_Distractor.gif"",""img/Fire_Down_Distractor.gif"",""img/Fire_Down_Distractor.gif"",""img/Fire_Down_Distractor.gif"",""img/Fire_Down_Distractor.gif""]","targetUp_distractorsDown"
"","","","","","html-keyboard-response","90","219781","0.0-14.0-0.0-0.38","60feef5f0d6f0bd38cf36f83","6186fb1cc52d38b480598eb7","61872a79acf233df1c567258","null","","null","","","","","fixation","","","",""
"","","","","","visual-search-circle","91","221717","0.0-14.0-0.0-1.38","60feef5f0d6f0bd38cf36f83","6186fb1cc52d38b480598eb7","61872a79acf233df1c567258","909.2999999970198","","d","true","[[496,526],[599,320],[526,103],[320,0],[103,73],[0,279],[73,496],[279,599]]","true","8","","","img/Fire_Up_Target.gif","[""img/Fire_Down_Distractor.gif"",""img/Fire_Down_Distractor.gif"",""img/Fire_Down_Distractor.gif"",""img/Fire_Down_Distractor.gif"",""img/Fire_Down_Distractor.gif"",""img/Fire_Down_Distractor.gif"",""img/Fire_Down_Distractor.gif"",""img/Fire_Down_Distractor.gif"",""img/Fire_Down_Distractor.gif"",""img/Fire_Down_Distractor.gif"",""img/Fire_Down_Distractor.gif"",""img/Fire_Down_Distractor.gif""]","targetUp_distractorsDown"
"","","","","","html-keyboard-response","92","236101","0.0-14.0-0.0-0.39","60feef5f0d6f0bd38cf36f83","6186fb1cc52d38b480598eb7","61872a79acf233df1c567258","14383.20000000298","Wow! You've completed 40 out of 120 trials! </p> <p>  </p><p> Take a quick break, then press any key when you're ready to continue."," ","","","","","fixation","","","",""
"","","","","","visual-search-circle","93","238384","0.0-14.0-0.0-1.39","60feef5f0d6f0bd38cf36f83","6186fb1cc52d38b480598eb7","61872a79acf233df1c567258","1261.5999999940395","","s","true","[[392,14],[14,207],[207,585],[585,392]]","false","4","","","img/Fire_Down_Target.gif","[""img/Fire_Up_Distractor.gif"",""img/Fire_Up_Distractor.gif"",""img/Fire_Up_Distractor.gif"",""img/Fire_Up_Distractor.gif"",""img/Fire_Up_Distractor.gif"",""img/Fire_Up_Distractor.gif"",""img/Fire_Up_Distractor.gif"",""img/Fire_Up_Distractor.gif"",""img/Fire_Up_Distractor.gif"",""img/Fire_Up_Distractor.gif"",""img/Fire_Up_Distractor.gif"",""img/Fire_Up_Distractor.gif""]","targetDown_distractorsUp"
"","","","","","html-keyboard-response","94","238386","0.0-14.0-0.0-0.40","60feef5f0d6f0bd38cf36f83","6186fb1cc52d38b480598eb7","61872a79acf233df1c567258","null","","null","","","","","fixation","","","",""
"","","","","","visual-search-circle","95","240770","0.0-14.0-0.0-1.40","60feef5f0d6f0bd38cf36f83","6186fb1cc52d38b480598eb7","61872a79acf233df1c567258","1357.7999999970198","","d","true","[[591,227],[424,27],[164,32],[6,239],[69,491],[305,599],[538,482]]","true","7","","","img/Fire_Down_Target.gif","[""img/Fire_Up_Distractor.gif"",""img/Fire_Up_Distractor.gif"",""img/Fire_Up_Distractor.gif"",""img/Fire_Up_Distractor.gif"",""img/Fire_Up_Distractor.gif"",""img/Fire_Up_Distractor.gif"",""img/Fire_Up_Distractor.gif"",""img/Fire_Up_Distractor.gif"",""img/Fire_Up_Distractor.gif"",""img/Fire_Up_Distractor.gif"",""img/Fire_Up_Distractor.gif"",""img/Fire_Up_Distractor.gif""]","targetDown_distractorsUp"
"","","","","","html-keyboard-response","96","240772","0.0-14.0-0.0-0.41","60feef5f0d6f0bd38cf36f83","6186fb1cc52d38b480598eb7","61872a79acf233df1c567258","null","","null","","","","","fixation","","","",""
"","","","","","visual-search-circle","97","242859","0.0-14.0-0.0-1.41","60feef5f0d6f0bd38cf36f83","6186fb1cc52d38b480598eb7","61872a79acf233df1c567258","1074.9000000059605","","s","false","[[341,2],[2,258],[258,597],[597,341]]","true","4","","","img/Fire_Up_Target.gif","[""img/Fire_Down_Distractor.gif"",""img/Fire_Down_Distractor.gif"",""img/Fire_Down_Distractor.gif"",""img/Fire_Down_Distractor.gif"",""img/Fire_Down_Distractor.gif"",""img/Fire_Down_Distractor.gif"",""img/Fire_Down_Distractor.gif"",""img/Fire_Down_Distractor.gif"",""img/Fire_Down_Distractor.gif"",""img/Fire_Down_Distractor.gif"",""img/Fire_Down_Distractor.gif"",""img/Fire_Down_Distractor.gif""]","targetUp_distractorsDown"
"","","","","","html-keyboard-response","98","242917","0.0-14.0-0.0-0.42","60feef5f0d6f0bd38cf36f83","6186fb1cc52d38b480598eb7","61872a79acf233df1c567258","null","","null","","","","","fixation","","","",""
"","","","","","visual-search-circle","99","244926","0.0-14.0-0.0-1.42","60feef5f0d6f0bd38cf36f83","6186fb1cc52d38b480598eb7","61872a79acf233df1c567258","995","","s","true","[[21,412],[258,597],[536,484],[578,187],[341,2],[63,115]]","false","6","","","img/Fire_Up_Target.gif","[""img/Fire_Down_Distractor.gif"",""img/Fire_Down_Distractor.gif"",""img/Fire_Down_Distractor.gif"",""img/Fire_Down_Distractor.gif"",""img/Fire_Down_Distractor.gif"",""img/Fire_Down_Distractor.gif"",""img/Fire_Down_Distractor.gif"",""img/Fire_Down_Distractor.gif"",""img/Fire_Down_Distractor.gif"",""img/Fire_Down_Distractor.gif"",""img/Fire_Down_Distractor.gif"",""img/Fire_Down_Distractor.gif""]","targetUp_distractorsDown"
"","","","","","html-keyboard-response","100","244964","0.0-14.0-0.0-0.43","60feef5f0d6f0bd38cf36f83","6186fb1cc52d38b480598eb7","61872a79acf233df1c567258","null","","null","","","","","fixation","","","",""
"","","","","","visual-search-circle","101","247222","0.0-14.0-0.0-1.43","60feef5f0d6f0bd38cf36f83","6186fb1cc52d38b480598eb7","61872a79acf233df1c567258","1241.300000011921","","s","true","[[284,599],[551,463],[567,163],[315,0],[48,136],[32,436]]","false","6","","","img/Fire_Down_Target.gif","[""img/Fire_Up_Distractor.gif"",""img/Fire_Up_Distractor.gif"",""img/Fire_Up_Distractor.gif"",""img/Fire_Up_Distractor.gif"",""img/Fire_Up_Distractor.gif"",""img/Fire_Up_Distractor.gif"",""img/Fire_Up_Distractor.gif"",""img/Fire_Up_Distractor.gif"",""img/Fire_Up_Distractor.gif"",""img/Fire_Up_Distractor.gif"",""img/Fire_Up_Distractor.gif"",""img/Fire_Up_Distractor.gif""]","targetDown_distractorsUp"
"","","","","","html-keyboard-response","102","247226","0.0-14.0-0.0-0.44","60feef5f0d6f0bd38cf36f83","6186fb1cc52d38b480598eb7","61872a79acf233df1c567258","null","","null","","","","","fixation","","","",""
"","","","","","visual-search-circle","103","249543","0.0-14.0-0.0-1.44","60feef5f0d6f0bd38cf36f83","6186fb1cc52d38b480598eb7","61872a79acf233df1c567258","1291.4000000059605","","s","true","[[496,526],[599,287],[476,57],[220,10],[24,181],[35,441],[245,595]]","false","7","","","img/Fire_Up_Target.gif","[""img/Fire_Down_Distractor.gif"",""img/Fire_Down_Distractor.gif"",""img/Fire_Down_Distractor.gif"",""img/Fire_Down_Distractor.gif"",""img/Fire_Down_Distractor.gif"",""img/Fire_Down_Distractor.gif"",""img/Fire_Down_Distractor.gif"",""img/Fire_Down_Distractor.gif"",""img/Fire_Down_Distractor.gif"",""img/Fire_Down_Distractor.gif"",""img/Fire_Down_Distractor.gif"",""img/Fire_Down_Distractor.gif""]","targetUp_distractorsDown"
"","","","","","html-keyboard-response","104","249545","0.0-14.0-0.0-0.45","60feef5f0d6f0bd38cf36f83","6186fb1cc52d38b480598eb7","61872a79acf233df1c567258","null","","null","","","","","fixation","","","",""
"","","","","","visual-search-circle","105","251686","0.0-14.0-0.0-1.45","60feef5f0d6f0bd38cf36f83","6186fb1cc52d38b480598eb7","61872a79acf233df1c567258","1120","","d","true","[[163,32],[6,239],[69,492],[306,599],[538,481],[590,226],[424,26]]","true","7","","","img/Fire_Up_Target.gif","[""img/Fire_Down_Distractor.gif"",""img/Fire_Down_Distractor.gif"",""img/Fire_Down_Distractor.gif"",""img/Fire_Down_Distractor.gif"",""img/Fire_Down_Distractor.gif"",""img/Fire_Down_Distractor.gif"",""img/Fire_Down_Distractor.gif"",""img/Fire_Down_Distractor.gif"",""img/Fire_Down_Distractor.gif"",""img/Fire_Down_Distractor.gif"",""img/Fire_Down_Distractor.gif"",""img/Fire_Down_Distractor.gif""]","targetUp_distractorsDown"
"","","","","","html-keyboard-response","106","251690","0.0-14.0-0.0-0.46","60feef5f0d6f0bd38cf36f83","6186fb1cc52d38b480598eb7","61872a79acf233df1c567258","null","","null","","","","","fixation","","","",""
"","","","","","visual-search-circle","107","254439","0.0-14.0-0.0-1.46","60feef5f0d6f0bd38cf36f83","6186fb1cc52d38b480598eb7","61872a79acf233df1c567258","1722.9000000059605","","s","true","[[0,315],[125,544],[381,588],[576,415],[563,155],[351,4],[100,75]]","false","7","","","img/Fire_Down_Target.gif","[""img/Fire_Up_Distractor.gif"",""img/Fire_Up_Distractor.gif"",""img/Fire_Up_Distractor.gif"",""img/Fire_Up_Distractor.gif"",""img/Fire_Up_Distractor.gif"",""img/Fire_Up_Distractor.gif"",""img/Fire_Up_Distractor.gif"",""img/Fire_Up_Distractor.gif"",""img/Fire_Up_Distractor.gif"",""img/Fire_Up_Distractor.gif"",""img/Fire_Up_Distractor.gif"",""img/Fire_Up_Distractor.gif""]","targetDown_distractorsUp"
"","","","","","html-keyboard-response","108","254442","0.0-14.0-0.0-0.47","60feef5f0d6f0bd38cf36f83","6186fb1cc52d38b480598eb7","61872a79acf233df1c567258","null","","null","","","","","fixation","","","",""
"","","","","","visual-search-circle","109","257185","0.0-14.0-0.0-1.47","60feef5f0d6f0bd38cf36f83","6186fb1cc52d38b480598eb7","61872a79acf233df1c567258","1723.0999999940395","","s","false","[[599,320],[320,0],[0,279],[279,599]]","true","4","","","img/Fire_Down_Target.gif","[""img/Fire_Up_Distractor.gif"",""img/Fire_Up_Distractor.gif"",""img/Fire_Up_Distractor.gif"",""img/Fire_Up_Distractor.gif"",""img/Fire_Up_Distractor.gif"",""img/Fire_Up_Distractor.gif"",""img/Fire_Up_Distractor.gif"",""img/Fire_Up_Distractor.gif"",""img/Fire_Up_Distractor.gif"",""img/Fire_Up_Distractor.gif"",""img/Fire_Up_Distractor.gif"",""img/Fire_Up_Distractor.gif""]","targetDown_distractorsUp"
"","","","","","html-keyboard-response","110","257188","0.0-14.0-0.0-0.48","60feef5f0d6f0bd38cf36f83","6186fb1cc52d38b480598eb7","61872a79acf233df1c567258","null","","null","","","","","fixation","","","",""
"","","","","","visual-search-circle","111","259996","0.0-14.0-0.0-1.48","60feef5f0d6f0bd38cf36f83","6186fb1cc52d38b480598eb7","61872a79acf233df1c567258","1789.4000000059605","","s","false","[[45,458],[458,554],[554,141],[141,45]]","true","4","","","img/Fire_Up_Target.gif","[""img/Fire_Down_Distractor.gif"",""img/Fire_Down_Distractor.gif"",""img/Fire_Down_Distractor.gif"",""img/Fire_Down_Distractor.gif"",""img/Fire_Down_Distractor.gif"",""img/Fire_Down_Distractor.gif"",""img/Fire_Down_Distractor.gif"",""img/Fire_Down_Distractor.gif"",""img/Fire_Down_Distractor.gif"",""img/Fire_Down_Distractor.gif"",""img/Fire_Down_Distractor.gif"",""img/Fire_Down_Distractor.gif""]","targetUp_distractorsDown"
"","","","","","html-keyboard-response","112","260018","0.0-14.0-0.0-0.49","60feef5f0d6f0bd38cf36f83","6186fb1cc52d38b480598eb7","61872a79acf233df1c567258","null","","null","","","","","fixation","","","",""
"","","","","","visual-search-circle","113","263533","0.0-14.0-0.0-1.49","60feef5f0d6f0bd38cf36f83","6186fb1cc52d38b480598eb7","61872a79acf233df1c567258","2504.5999999940395","","s","false","[[440,35],[91,84],[30,431],[341,597],[595,352]]","true","5","","","img/Fire_Up_Target.gif","[""img/Fire_Down_Distractor.gif"",""img/Fire_Down_Distractor.gif"",""img/Fire_Down_Distractor.gif"",""img/Fire_Down_Distractor.gif"",""img/Fire_Down_Distractor.gif"",""img/Fire_Down_Distractor.gif"",""img/Fire_Down_Distractor.gif"",""img/Fire_Down_Distractor.gif"",""img/Fire_Down_Distractor.gif"",""img/Fire_Down_Distractor.gif"",""img/Fire_Down_Distractor.gif"",""img/Fire_Down_Distractor.gif""]","targetUp_distractorsDown"
"","","","","","html-keyboard-response","114","263536","0.0-14.0-0.0-0.50","60feef5f0d6f0bd38cf36f83","6186fb1cc52d38b480598eb7","61872a79acf233df1c567258","null","","null","","","","","fixation","","","",""
"","","","","","visual-search-circle","115","266290","0.0-14.0-0.0-1.50","60feef5f0d6f0bd38cf36f83","6186fb1cc52d38b480598eb7","61872a79acf233df1c567258","1743.300000011921","","s","true","[[594,357],[445,37],[95,80],[28,426],[336,597]]","false","5","","","img/Fire_Up_Target.gif","[""img/Fire_Down_Distractor.gif"",""img/Fire_Down_Distractor.gif"",""img/Fire_Down_Distractor.gif"",""img/Fire_Down_Distractor.gif"",""img/Fire_Down_Distractor.gif"",""img/Fire_Down_Distractor.gif"",""img/Fire_Down_Distractor.gif"",""img/Fire_Down_Distractor.gif"",""img/Fire_Down_Distractor.gif"",""img/Fire_Down_Distractor.gif"",""img/Fire_Down_Distractor.gif"",""img/Fire_Down_Distractor.gif""]","targetUp_distractorsDown"
"","","","","","html-keyboard-response","116","266293","0.0-14.0-0.0-0.51","60feef5f0d6f0bd38cf36f83","6186fb1cc52d38b480598eb7","61872a79acf233df1c567258","null","","null","","","","","fixation","","","",""
"","","","","","visual-search-circle","117","268214","0.0-14.0-0.0-1.51","60feef5f0d6f0bd38cf36f83","6186fb1cc52d38b480598eb7","61872a79acf233df1c567258","896.9000000059605","","d","true","[[377,589],[559,450],[589,222],[449,40],[222,10],[40,150],[10,377],[150,559]]","true","8","","","img/Fire_Down_Target.gif","[""img/Fire_Up_Distractor.gif"",""img/Fire_Up_Distractor.gif"",""img/Fire_Up_Distractor.gif"",""img/Fire_Up_Distractor.gif"",""img/Fire_Up_Distractor.gif"",""img/Fire_Up_Distractor.gif"",""img/Fire_Up_Distractor.gif"",""img/Fire_Up_Distractor.gif"",""img/Fire_Up_Distractor.gif"",""img/Fire_Up_Distractor.gif"",""img/Fire_Up_Distractor.gif"",""img/Fire_Up_Distractor.gif""]","targetDown_distractorsUp"
"","","","","","html-keyboard-response","118","268220","0.0-14.0-0.0-0.52","60feef5f0d6f0bd38cf36f83","6186fb1cc52d38b480598eb7","61872a79acf233df1c567258","null","","null","","","","","fixation","","","",""
"","","","","","visual-search-circle","119","270675","0.0-14.0-0.0-1.52","60feef5f0d6f0bd38cf36f83","6186fb1cc52d38b480598eb7","61872a79acf233df1c567258","1439.9000000059605","","d","true","[[492,70],[197,18],[4,247],[107,529],[402,581],[595,352]]","true","6","","","img/Fire_Up_Target.gif","[""img/Fire_Down_Distractor.gif"",""img/Fire_Down_Distractor.gif"",""img/Fire_Down_Distractor.gif"",""img/Fire_Down_Distractor.gif"",""img/Fire_Down_Distractor.gif"",""img/Fire_Down_Distractor.gif"",""img/Fire_Down_Distractor.gif"",""img/Fire_Down_Distractor.gif"",""img/Fire_Down_Distractor.gif"",""img/Fire_Down_Distractor.gif"",""img/Fire_Down_Distractor.gif"",""img/Fire_Down_Distractor.gif""]","targetUp_distractorsDown"
"","","","","","html-keyboard-response","120","270684","0.0-14.0-0.0-0.53","60feef5f0d6f0bd38cf36f83","6186fb1cc52d38b480598eb7","61872a79acf233df1c567258","null","","null","","","","","fixation","","","",""
"","","","","","visual-search-circle","121","273062","0.0-14.0-0.0-1.53","60feef5f0d6f0bd38cf36f83","6186fb1cc52d38b480598eb7","61872a79acf233df1c567258","1358.7000000029802","","s","false","[[436,32],[175,26],[9,226],[61,481],[293,599],[530,492],[593,239]]","true","7","","","img/Fire_Up_Target.gif","[""img/Fire_Down_Distractor.gif"",""img/Fire_Down_Distractor.gif"",""img/Fire_Down_Distractor.gif"",""img/Fire_Down_Distractor.gif"",""img/Fire_Down_Distractor.gif"",""img/Fire_Down_Distractor.gif"",""img/Fire_Down_Distractor.gif"",""img/Fire_Down_Distractor.gif"",""img/Fire_Down_Distractor.gif"",""img/Fire_Down_Distractor.gif"",""img/Fire_Down_Distractor.gif"",""img/Fire_Down_Distractor.gif""]","targetUp_distractorsDown"
"","","","","","html-keyboard-response","122","273064","0.0-14.0-0.0-0.54","60feef5f0d6f0bd38cf36f83","6186fb1cc52d38b480598eb7","61872a79acf233df1c567258","null","","null","","","","","fixation","","","",""
"","","","","","visual-search-circle","123","275823","0.0-14.0-0.0-1.54","60feef5f0d6f0bd38cf36f83","6186fb1cc52d38b480598eb7","61872a79acf233df1c567258","1743.7000000029802","","d","true","[[84,508],[294,599],[508,515],[599,305],[515,91],[305,0],[91,84],[0,294]]","true","8","","","img/Fire_Down_Target.gif","[""img/Fire_Up_Distractor.gif"",""img/Fire_Up_Distractor.gif"",""img/Fire_Up_Distractor.gif"",""img/Fire_Up_Distractor.gif"",""img/Fire_Up_Distractor.gif"",""img/Fire_Up_Distractor.gif"",""img/Fire_Up_Distractor.gif"",""img/Fire_Up_Distractor.gif"",""img/Fire_Up_Distractor.gif"",""img/Fire_Up_Distractor.gif"",""img/Fire_Up_Distractor.gif"",""img/Fire_Up_Distractor.gif""]","targetDown_distractorsUp"
"","","","","","html-keyboard-response","124","275826","0.0-14.0-0.0-0.55","60feef5f0d6f0bd38cf36f83","6186fb1cc52d38b480598eb7","61872a79acf233df1c567258","null","","null","","","","","fixation","","","",""
"","","","","","visual-search-circle","125","278793","0.0-14.0-0.0-1.55","60feef5f0d6f0bd38cf36f83","6186fb1cc52d38b480598eb7","61872a79acf233df1c567258","1952.2999999970198","","s","false","[[0,299],[149,559],[450,559],[600,300],[449,40],[150,40]]","true","6","","","img/Fire_Up_Target.gif","[""img/Fire_Down_Distractor.gif"",""img/Fire_Down_Distractor.gif"",""img/Fire_Down_Distractor.gif"",""img/Fire_Down_Distractor.gif"",""img/Fire_Down_Distractor.gif"",""img/Fire_Down_Distractor.gif"",""img/Fire_Down_Distractor.gif"",""img/Fire_Down_Distractor.gif"",""img/Fire_Down_Distractor.gif"",""img/Fire_Down_Distractor.gif"",""img/Fire_Down_Distractor.gif"",""img/Fire_Down_Distractor.gif""]","targetUp_distractorsDown"
"","","","","","html-keyboard-response","126","278816","0.0-14.0-0.0-0.56","60feef5f0d6f0bd38cf36f83","6186fb1cc52d38b480598eb7","61872a79acf233df1c567258","null","","null","","","","","fixation","","","",""
"","","","","","visual-search-circle","127","281469","0.0-14.0-0.0-1.56","60feef5f0d6f0bd38cf36f83","6186fb1cc52d38b480598eb7","61872a79acf233df1c567258","1638.7000000029802","","d","true","[[574,177],[331,1],[57,123],[25,422],[268,598],[542,476]]","true","6","","","img/Fire_Up_Target.gif","[""img/Fire_Down_Distractor.gif"",""img/Fire_Down_Distractor.gif"",""img/Fire_Down_Distractor.gif"",""img/Fire_Down_Distractor.gif"",""img/Fire_Down_Distractor.gif"",""img/Fire_Down_Distractor.gif"",""img/Fire_Down_Distractor.gif"",""img/Fire_Down_Distractor.gif"",""img/Fire_Down_Distractor.gif"",""img/Fire_Down_Distractor.gif"",""img/Fire_Down_Distractor.gif"",""img/Fire_Down_Distractor.gif""]","targetUp_distractorsDown"
"","","","","","html-keyboard-response","128","281485","0.0-14.0-0.0-0.57","60feef5f0d6f0bd38cf36f83","6186fb1cc52d38b480598eb7","61872a79acf233df1c567258","null","","null","","","","","fixation","","","",""
"","","","","","visual-search-circle","129","284533","0.0-14.0-0.0-1.57","60feef5f0d6f0bd38cf36f83","6186fb1cc52d38b480598eb7","61872a79acf233df1c567258","2031.4000000059605","","s","true","[[591,227],[454,42],[227,8],[42,145],[8,372],[145,557],[372,591],[557,454]]","false","8","","","img/Fire_Down_Target.gif","[""img/Fire_Up_Distractor.gif"",""img/Fire_Up_Distractor.gif"",""img/Fire_Up_Distractor.gif"",""img/Fire_Up_Distractor.gif"",""img/Fire_Up_Distractor.gif"",""img/Fire_Up_Distractor.gif"",""img/Fire_Up_Distractor.gif"",""img/Fire_Up_Distractor.gif"",""img/Fire_Up_Distractor.gif"",""img/Fire_Up_Distractor.gif"",""img/Fire_Up_Distractor.gif"",""img/Fire_Up_Distractor.gif""]","targetDown_distractorsUp"
"","","","","","html-keyboard-response","130","284537","0.0-14.0-0.0-0.58","60feef5f0d6f0bd38cf36f83","6186fb1cc52d38b480598eb7","61872a79acf233df1c567258","null","","null","","","","","fixation","","","",""
"","","","","","visual-search-circle","131","287022","0.0-14.0-0.0-1.58","60feef5f0d6f0bd38cf36f83","6186fb1cc52d38b480598eb7","61872a79acf233df1c567258","1466.2000000029802","","s","false","[[10,222],[222,589],[589,377],[377,10]]","true","4","","","img/Fire_Down_Target.gif","[""img/Fire_Up_Distractor.gif"",""img/Fire_Up_Distractor.gif"",""img/Fire_Up_Distractor.gif"",""img/Fire_Up_Distractor.gif"",""img/Fire_Up_Distractor.gif"",""img/Fire_Up_Distractor.gif"",""img/Fire_Up_Distractor.gif"",""img/Fire_Up_Distractor.gif"",""img/Fire_Up_Distractor.gif"",""img/Fire_Up_Distractor.gif"",""img/Fire_Up_Distractor.gif"",""img/Fire_Up_Distractor.gif""]","targetDown_distractorsUp"
"","","","","","html-keyboard-response","132","295329","0.0-14.0-0.0-0.59","60feef5f0d6f0bd38cf36f83","6186fb1cc52d38b480598eb7","61872a79acf233df1c567258","8305.39999999106","Wow! You've completed 60 out of 120 trials! </p> <p>  </p><p> Take a quick break, then press any key when you're ready to continue."," ","","","","","fixation","","","",""
"","","","","","visual-search-circle","133","297744","0.0-14.0-0.0-1.59","60feef5f0d6f0bd38cf36f83","6186fb1cc52d38b480598eb7","61872a79acf233df1c567258","1389","","s","true","[[3,346],[151,560],[411,578],[587,386],[546,129],[320,0],[78,97]]","false","7","","","img/Fire_Up_Target.gif","[""img/Fire_Down_Distractor.gif"",""img/Fire_Down_Distractor.gif"",""img/Fire_Down_Distractor.gif"",""img/Fire_Down_Distractor.gif"",""img/Fire_Down_Distractor.gif"",""img/Fire_Down_Distractor.gif"",""img/Fire_Down_Distractor.gif"",""img/Fire_Down_Distractor.gif"",""img/Fire_Down_Distractor.gif"",""img/Fire_Down_Distractor.gif"",""img/Fire_Down_Distractor.gif"",""img/Fire_Down_Distractor.gif""]","targetUp_distractorsDown"
"","","","","","html-keyboard-response","134","297746","0.0-14.0-0.0-0.60","60feef5f0d6f0bd38cf36f83","6186fb1cc52d38b480598eb7","61872a79acf233df1c567258","null","","null","","","","","fixation","","","",""
"","","","","","visual-search-circle","135","300288","0.0-14.0-0.0-1.60","60feef5f0d6f0bd38cf36f83","6186fb1cc52d38b480598eb7","61872a79acf233df1c567258","1523.4000000059605","","s","true","[[310,0],[18,197],[115,536],[467,548],[588,217]]","false","5","","","img/Fire_Up_Target.gif","[""img/Fire_Down_Distractor.gif"",""img/Fire_Down_Distractor.gif"",""img/Fire_Down_Distractor.gif"",""img/Fire_Down_Distractor.gif"",""img/Fire_Down_Distractor.gif"",""img/Fire_Down_Distractor.gif"",""img/Fire_Down_Distractor.gif"",""img/Fire_Down_Distractor.gif"",""img/Fire_Down_Distractor.gif"",""img/Fire_Down_Distractor.gif"",""img/Fire_Down_Distractor.gif"",""img/Fire_Down_Distractor.gif""]","targetUp_distractorsDown"
"","","","","","html-keyboard-response","136","300307","0.0-14.0-0.0-0.61","60feef5f0d6f0bd38cf36f83","6186fb1cc52d38b480598eb7","61872a79acf233df1c567258","null","","null","","","","","fixation","","","",""
"","","","","","visual-search-circle","137","302790","0.0-14.0-0.0-1.61","60feef5f0d6f0bd38cf36f83","6186fb1cc52d38b480598eb7","61872a79acf233df1c567258","1472","","s","false","[[80,504],[426,571],[597,263],[357,5],[37,154]]","true","5","","","img/Fire_Up_Target.gif","[""img/Fire_Down_Distractor.gif"",""img/Fire_Down_Distractor.gif"",""img/Fire_Down_Distractor.gif"",""img/Fire_Down_Distractor.gif"",""img/Fire_Down_Distractor.gif"",""img/Fire_Down_Distractor.gif"",""img/Fire_Down_Distractor.gif"",""img/Fire_Down_Distractor.gif"",""img/Fire_Down_Distractor.gif"",""img/Fire_Down_Distractor.gif"",""img/Fire_Down_Distractor.gif"",""img/Fire_Down_Distractor.gif""]","targetUp_distractorsDown"
"","","","","","html-keyboard-response","138","302802","0.0-14.0-0.0-0.62","60feef5f0d6f0bd38cf36f83","6186fb1cc52d38b480598eb7","61872a79acf233df1c567258","null","","null","","","","","fixation","","","",""
"","","","","","visual-search-circle","139","305065","0.0-14.0-0.0-1.62","60feef5f0d6f0bd38cf36f83","6186fb1cc52d38b480598eb7","61872a79acf233df1c567258","1245.4000000059605","","s","true","[[48,463],[377,589],[599,315],[407,19],[66,111]]","false","5","","","img/Fire_Up_Target.gif","[""img/Fire_Down_Distractor.gif"",""img/Fire_Down_Distractor.gif"",""img/Fire_Down_Distractor.gif"",""img/Fire_Down_Distractor.gif"",""img/Fire_Down_Distractor.gif"",""img/Fire_Down_Distractor.gif"",""img/Fire_Down_Distractor.gif"",""img/Fire_Down_Distractor.gif"",""img/Fire_Down_Distractor.gif"",""img/Fire_Down_Distractor.gif"",""img/Fire_Down_Distractor.gif"",""img/Fire_Down_Distractor.gif""]","targetUp_distractorsDown"
"","","","","","html-keyboard-response","140","305069","0.0-14.0-0.0-0.63","60feef5f0d6f0bd38cf36f83","6186fb1cc52d38b480598eb7","61872a79acf233df1c567258","null","","null","","","","","fixation","","","",""
"","","","","","visual-search-circle","141","307595","0.0-14.0-0.0-1.63","60feef5f0d6f0bd38cf36f83","6186fb1cc52d38b480598eb7","61872a79acf233df1c567258","1502.3999999910593","","s","true","[[4,247],[159,564],[508,515],[569,168],[258,2]]","false","5","","","img/Fire_Up_Target.gif","[""img/Fire_Down_Distractor.gif"",""img/Fire_Down_Distractor.gif"",""img/Fire_Down_Distractor.gif"",""img/Fire_Down_Distractor.gif"",""img/Fire_Down_Distractor.gif"",""img/Fire_Down_Distractor.gif"",""img/Fire_Down_Distractor.gif"",""img/Fire_Down_Distractor.gif"",""img/Fire_Down_Distractor.gif"",""img/Fire_Down_Distractor.gif"",""img/Fire_Down_Distractor.gif"",""img/Fire_Down_Distractor.gif""]","targetUp_distractorsDown"
"","","","","","html-keyboard-response","142","307598","0.0-14.0-0.0-0.64","60feef5f0d6f0bd38cf36f83","6186fb1cc52d38b480598eb7","61872a79acf233df1c567258","null","","null","","","","","fixation","","","",""
"","","","","","visual-search-circle","143","310390","0.0-14.0-0.0-1.64","60feef5f0d6f0bd38cf36f83","6186fb1cc52d38b480598eb7","61872a79acf233df1c567258","1729.699999988079","","s","true","[[436,567],[585,392],[567,163],[392,14],[163,32],[14,207],[32,436],[207,585]]","false","8","","","img/Fire_Down_Target.gif","[""img/Fire_Up_Distractor.gif"",""img/Fire_Up_Distractor.gif"",""img/Fire_Up_Distractor.gif"",""img/Fire_Up_Distractor.gif"",""img/Fire_Up_Distractor.gif"",""img/Fire_Up_Distractor.gif"",""img/Fire_Up_Distractor.gif"",""img/Fire_Up_Distractor.gif"",""img/Fire_Up_Distractor.gif"",""img/Fire_Up_Distractor.gif"",""img/Fire_Up_Distractor.gif"",""img/Fire_Up_Distractor.gif""]","targetDown_distractorsUp"
"","","","","","html-keyboard-response","144","310405","0.0-14.0-0.0-0.65","60feef5f0d6f0bd38cf36f83","6186fb1cc52d38b480598eb7","61872a79acf233df1c567258","null","","null","","","","","fixation","","","",""
"","","","","","visual-search-circle","145","313461","0.0-14.0-0.0-1.65","60feef5f0d6f0bd38cf36f83","6186fb1cc52d38b480598eb7","61872a79acf233df1c567258","2040.2999999970198","","s","true","[[564,159],[387,13],[159,35],[13,212],[35,440],[212,586],[440,564],[586,387]]","false","8","","","img/Fire_Up_Target.gif","[""img/Fire_Down_Distractor.gif"",""img/Fire_Down_Distractor.gif"",""img/Fire_Down_Distractor.gif"",""img/Fire_Down_Distractor.gif"",""img/Fire_Down_Distractor.gif"",""img/Fire_Down_Distractor.gif"",""img/Fire_Down_Distractor.gif"",""img/Fire_Down_Distractor.gif"",""img/Fire_Down_Distractor.gif"",""img/Fire_Down_Distractor.gif"",""img/Fire_Down_Distractor.gif"",""img/Fire_Down_Distractor.gif""]","targetUp_distractorsDown"
"","","","","","html-keyboard-response","146","313462","0.0-14.0-0.0-0.66","60feef5f0d6f0bd38cf36f83","6186fb1cc52d38b480598eb7","61872a79acf233df1c567258","null","","null","","","","","fixation","","","",""
"","","","","","visual-search-circle","147","316077","0.0-14.0-0.0-1.66","60feef5f0d6f0bd38cf36f83","6186fb1cc52d38b480598eb7","61872a79acf233df1c567258","1578.4000000059605","","d","true","[[84,91],[2,338],[144,556],[404,581],[584,394],[551,135],[328,1]]","true","7","","","img/Fire_Down_Target.gif","[""img/Fire_Up_Distractor.gif"",""img/Fire_Up_Distractor.gif"",""img/Fire_Up_Distractor.gif"",""img/Fire_Up_Distractor.gif"",""img/Fire_Up_Distractor.gif"",""img/Fire_Up_Distractor.gif"",""img/Fire_Up_Distractor.gif"",""img/Fire_Up_Distractor.gif"",""img/Fire_Up_Distractor.gif"",""img/Fire_Up_Distractor.gif"",""img/Fire_Up_Distractor.gif"",""img/Fire_Up_Distractor.gif""]","targetDown_distractorsUp"
"","","","","","html-keyboard-response","148","316096","0.0-14.0-0.0-0.67","60feef5f0d6f0bd38cf36f83","6186fb1cc52d38b480598eb7","61872a79acf233df1c567258","null","","null","","","","","fixation","","","",""
"","","","","","visual-search-circle","149","318709","0.0-14.0-0.0-1.67","60feef5f0d6f0bd38cf36f83","6186fb1cc52d38b480598eb7","61872a79acf233df1c567258","1597","","s","true","[[21,412],[320,599],[591,372],[458,45],[107,70]]","false","5","","","img/Fire_Down_Target.gif","[""img/Fire_Up_Distractor.gif"",""img/Fire_Up_Distractor.gif"",""img/Fire_Up_Distractor.gif"",""img/Fire_Up_Distractor.gif"",""img/Fire_Up_Distractor.gif"",""img/Fire_Up_Distractor.gif"",""img/Fire_Up_Distractor.gif"",""img/Fire_Up_Distractor.gif"",""img/Fire_Up_Distractor.gif"",""img/Fire_Up_Distractor.gif"",""img/Fire_Up_Distractor.gif"",""img/Fire_Up_Distractor.gif""]","targetDown_distractorsUp"
"","","","","","html-keyboard-response","150","318711","0.0-14.0-0.0-0.68","60feef5f0d6f0bd38cf36f83","6186fb1cc52d38b480598eb7","61872a79acf233df1c567258","null","","null","","","","","fixation","","","",""
"","","","","","visual-search-circle","151","321322","0.0-14.0-0.0-1.68","60feef5f0d6f0bd38cf36f83","6186fb1cc52d38b480598eb7","61872a79acf233df1c567258","1592.7000000029802","","d","true","[[599,315],[315,0],[0,284],[284,599]]","true","4","","","img/Fire_Up_Target.gif","[""img/Fire_Down_Distractor.gif"",""img/Fire_Down_Distractor.gif"",""img/Fire_Down_Distractor.gif"",""img/Fire_Down_Distractor.gif"",""img/Fire_Down_Distractor.gif"",""img/Fire_Down_Distractor.gif"",""img/Fire_Down_Distractor.gif"",""img/Fire_Down_Distractor.gif"",""img/Fire_Down_Distractor.gif"",""img/Fire_Down_Distractor.gif"",""img/Fire_Down_Distractor.gif"",""img/Fire_Down_Distractor.gif""]","targetUp_distractorsDown"
"","","","","","html-keyboard-response","152","321329","0.0-14.0-0.0-0.69","60feef5f0d6f0bd38cf36f83","6186fb1cc52d38b480598eb7","61872a79acf233df1c567258","null","","null","","","","","fixation","","","",""
"","","","","","visual-search-circle","153","324150","0.0-14.0-0.0-1.69","60feef5f0d6f0bd38cf36f83","6186fb1cc52d38b480598eb7","61872a79acf233df1c567258","1807.7000000029802","","d","true","[[412,578],[599,279],[372,8],[45,141],[70,492]]","true","5","","","img/Fire_Down_Target.gif","[""img/Fire_Up_Distractor.gif"",""img/Fire_Up_Distractor.gif"",""img/Fire_Up_Distractor.gif"",""img/Fire_Up_Distractor.gif"",""img/Fire_Up_Distractor.gif"",""img/Fire_Up_Distractor.gif"",""img/Fire_Up_Distractor.gif"",""img/Fire_Up_Distractor.gif"",""img/Fire_Up_Distractor.gif"",""img/Fire_Up_Distractor.gif"",""img/Fire_Up_Distractor.gif"",""img/Fire_Up_Distractor.gif""]","targetDown_distractorsUp"
"","","","","","html-keyboard-response","154","324154","0.0-14.0-0.0-0.70","60feef5f0d6f0bd38cf36f83","6186fb1cc52d38b480598eb7","61872a79acf233df1c567258","null","","null","","","","","fixation","","","",""
"","","","","","visual-search-circle","155","326054","0.0-14.0-0.0-1.70","60feef5f0d6f0bd38cf36f83","6186fb1cc52d38b480598eb7","61872a79acf233df1c567258","876.7999999970198","","d","true","[[315,0],[75,100],[4,351],[155,563],[415,576],[588,381],[544,125]]","true","7","","","img/Fire_Down_Target.gif","[""img/Fire_Up_Distractor.gif"",""img/Fire_Up_Distractor.gif"",""img/Fire_Up_Distractor.gif"",""img/Fire_Up_Distractor.gif"",""img/Fire_Up_Distractor.gif"",""img/Fire_Up_Distractor.gif"",""img/Fire_Up_Distractor.gif"",""img/Fire_Up_Distractor.gif"",""img/Fire_Up_Distractor.gif"",""img/Fire_Up_Distractor.gif"",""img/Fire_Up_Distractor.gif"",""img/Fire_Up_Distractor.gif""]","targetDown_distractorsUp"
"","","","","","html-keyboard-response","156","326065","0.0-14.0-0.0-0.71","60feef5f0d6f0bd38cf36f83","6186fb1cc52d38b480598eb7","61872a79acf233df1c567258","null","","null","","","","","fixation","","","",""
"","","","","","visual-search-circle","157","328891","0.0-14.0-0.0-1.71","60feef5f0d6f0bd38cf36f83","6186fb1cc52d38b480598eb7","61872a79acf233df1c567258","1813.4000000059605","","s","false","[[488,66],[66,111],[111,533],[533,488]]","true","4","","","img/Fire_Down_Target.gif","[""img/Fire_Up_Distractor.gif"",""img/Fire_Up_Distractor.gif"",""img/Fire_Up_Distractor.gif"",""img/Fire_Up_Distractor.gif"",""img/Fire_Up_Distractor.gif"",""img/Fire_Up_Distractor.gif"",""img/Fire_Up_Distractor.gif"",""img/Fire_Up_Distractor.gif"",""img/Fire_Up_Distractor.gif"",""img/Fire_Up_Distractor.gif"",""img/Fire_Up_Distractor.gif"",""img/Fire_Up_Distractor.gif""]","targetDown_distractorsUp"
"","","","","","html-keyboard-response","158","328896","0.0-14.0-0.0-0.72","60feef5f0d6f0bd38cf36f83","6186fb1cc52d38b480598eb7","61872a79acf233df1c567258","null","","null","","","","","fixation","","","",""
"","","","","","visual-search-circle","159","330840","0.0-14.0-0.0-1.72","60feef5f0d6f0bd38cf36f83","6186fb1cc52d38b480598eb7","61872a79acf233df1c567258","914.6000000089407","","d","true","[[247,595],[498,524],[599,285],[475,56],[218,11],[23,183],[36,443]]","true","7","","","img/Fire_Down_Target.gif","[""img/Fire_Up_Distractor.gif"",""img/Fire_Up_Distractor.gif"",""img/Fire_Up_Distractor.gif"",""img/Fire_Up_Distractor.gif"",""img/Fire_Up_Distractor.gif"",""img/Fire_Up_Distractor.gif"",""img/Fire_Up_Distractor.gif"",""img/Fire_Up_Distractor.gif"",""img/Fire_Up_Distractor.gif"",""img/Fire_Up_Distractor.gif"",""img/Fire_Up_Distractor.gif"",""img/Fire_Up_Distractor.gif""]","targetDown_distractorsUp"
"","","","","","html-keyboard-response","160","330850","0.0-14.0-0.0-0.73","60feef5f0d6f0bd38cf36f83","6186fb1cc52d38b480598eb7","61872a79acf233df1c567258","null","","null","","","","","fixation","","","",""
"","","","","","visual-search-circle","161","333206","0.0-14.0-0.0-1.73","60feef5f0d6f0bd38cf36f83","6186fb1cc52d38b480598eb7","61872a79acf233df1c567258","1345.199999988079","","s","true","[[596,346],[346,3],[3,253],[253,596]]","false","4","","","img/Fire_Down_Target.gif","[""img/Fire_Up_Distractor.gif"",""img/Fire_Up_Distractor.gif"",""img/Fire_Up_Distractor.gif"",""img/Fire_Up_Distractor.gif"",""img/Fire_Up_Distractor.gif"",""img/Fire_Up_Distractor.gif"",""img/Fire_Up_Distractor.gif"",""img/Fire_Up_Distractor.gif"",""img/Fire_Up_Distractor.gif"",""img/Fire_Up_Distractor.gif"",""img/Fire_Up_Distractor.gif"",""img/Fire_Up_Distractor.gif""]","targetDown_distractorsUp"
"","","","","","html-keyboard-response","162","333207","0.0-14.0-0.0-0.74","60feef5f0d6f0bd38cf36f83","6186fb1cc52d38b480598eb7","61872a79acf233df1c567258","null","","null","","","","","fixation","","","",""
"","","","","","visual-search-circle","163","335438","0.0-14.0-0.0-1.74","60feef5f0d6f0bd38cf36f83","6186fb1cc52d38b480598eb7","61872a79acf233df1c567258","1207.1000000089407","","s","true","[[28,426],[273,598],[545,472],[571,173],[326,1],[54,127]]","false","6","","","img/Fire_Up_Target.gif","[""img/Fire_Down_Distractor.gif"",""img/Fire_Down_Distractor.gif"",""img/Fire_Down_Distractor.gif"",""img/Fire_Down_Distractor.gif"",""img/Fire_Down_Distractor.gif"",""img/Fire_Down_Distractor.gif"",""img/Fire_Down_Distractor.gif"",""img/Fire_Down_Distractor.gif"",""img/Fire_Down_Distractor.gif"",""img/Fire_Down_Distractor.gif"",""img/Fire_Down_Distractor.gif"",""img/Fire_Down_Distractor.gif""]","targetUp_distractorsDown"
"","","","","","html-keyboard-response","164","335442","0.0-14.0-0.0-0.75","60feef5f0d6f0bd38cf36f83","6186fb1cc52d38b480598eb7","61872a79acf233df1c567258","null","","null","","","","","fixation","","","",""
"","","","","","visual-search-circle","165","337283","0.0-14.0-0.0-1.75","60feef5f0d6f0bd38cf36f83","6186fb1cc52d38b480598eb7","61872a79acf233df1c567258","828.0999999940395","","d","true","[[212,13],[13,387],[387,586],[586,212]]","true","4","","","img/Fire_Up_Target.gif","[""img/Fire_Down_Distractor.gif"",""img/Fire_Down_Distractor.gif"",""img/Fire_Down_Distractor.gif"",""img/Fire_Down_Distractor.gif"",""img/Fire_Down_Distractor.gif"",""img/Fire_Down_Distractor.gif"",""img/Fire_Down_Distractor.gif"",""img/Fire_Down_Distractor.gif"",""img/Fire_Down_Distractor.gif"",""img/Fire_Down_Distractor.gif"",""img/Fire_Down_Distractor.gif"",""img/Fire_Down_Distractor.gif""]","targetUp_distractorsDown"
"","","","","","html-keyboard-response","166","337285","0.0-14.0-0.0-0.76","60feef5f0d6f0bd38cf36f83","6186fb1cc52d38b480598eb7","61872a79acf233df1c567258","null","","null","","","","","fixation","","","",""
"","","","","","visual-search-circle","167","339635","0.0-14.0-0.0-1.76","60feef5f0d6f0bd38cf36f83","6186fb1cc52d38b480598eb7","61872a79acf233df1c567258","1338.8999999910593","","s","false","[[597,258],[258,2],[2,341],[341,597]]","true","4","","","img/Fire_Up_Target.gif","[""img/Fire_Down_Distractor.gif"",""img/Fire_Down_Distractor.gif"",""img/Fire_Down_Distractor.gif"",""img/Fire_Down_Distractor.gif"",""img/Fire_Down_Distractor.gif"",""img/Fire_Down_Distractor.gif"",""img/Fire_Down_Distractor.gif"",""img/Fire_Down_Distractor.gif"",""img/Fire_Down_Distractor.gif"",""img/Fire_Down_Distractor.gif"",""img/Fire_Down_Distractor.gif"",""img/Fire_Down_Distractor.gif""]","targetUp_distractorsDown"
"","","","","","html-keyboard-response","168","339637","0.0-14.0-0.0-0.77","60feef5f0d6f0bd38cf36f83","6186fb1cc52d38b480598eb7","61872a79acf233df1c567258","null","","null","","","","","fixation","","","",""
"","","","","","visual-search-circle","169","341483","0.0-14.0-0.0-1.77","60feef5f0d6f0bd38cf36f83","6186fb1cc52d38b480598eb7","61872a79acf233df1c567258","821.4000000059605","","d","true","[[536,115],[258,2],[21,187],[63,484],[341,597],[578,412]]","true","6","","","img/Fire_Up_Target.gif","[""img/Fire_Down_Distractor.gif"",""img/Fire_Down_Distractor.gif"",""img/Fire_Down_Distractor.gif"",""img/Fire_Down_Distractor.gif"",""img/Fire_Down_Distractor.gif"",""img/Fire_Down_Distractor.gif"",""img/Fire_Down_Distractor.gif"",""img/Fire_Down_Distractor.gif"",""img/Fire_Down_Distractor.gif"",""img/Fire_Down_Distractor.gif"",""img/Fire_Down_Distractor.gif"",""img/Fire_Down_Distractor.gif""]","targetUp_distractorsDown"
"","","","","","html-keyboard-response","170","341486","0.0-14.0-0.0-0.78","60feef5f0d6f0bd38cf36f83","6186fb1cc52d38b480598eb7","61872a79acf233df1c567258","null","","null","","","","","fixation","","","",""
"","","","","","visual-search-circle","171","343372","0.0-14.0-0.0-1.78","60feef5f0d6f0bd38cf36f83","6186fb1cc52d38b480598eb7","61872a79acf233df1c567258","858.7000000029802","","s","true","[[569,168],[365,7],[111,66],[0,301],[114,535],[368,592],[570,428]]","false","7","","","img/Fire_Up_Target.gif","[""img/Fire_Down_Distractor.gif"",""img/Fire_Down_Distractor.gif"",""img/Fire_Down_Distractor.gif"",""img/Fire_Down_Distractor.gif"",""img/Fire_Down_Distractor.gif"",""img/Fire_Down_Distractor.gif"",""img/Fire_Down_Distractor.gif"",""img/Fire_Down_Distractor.gif"",""img/Fire_Down_Distractor.gif"",""img/Fire_Down_Distractor.gif"",""img/Fire_Down_Distractor.gif"",""img/Fire_Down_Distractor.gif""]","targetUp_distractorsDown"
"","","","","","html-keyboard-response","172","344743","0.0-14.0-0.0-0.79","60feef5f0d6f0bd38cf36f83","6186fb1cc52d38b480598eb7","61872a79acf233df1c567258","1369.2999999970198","Wow! You've completed 80 out of 120 trials! </p> <p>  </p><p> Take a quick break, then press any key when you're ready to continue."," ","","","","","fixation","","","",""
"","","","","","visual-search-circle","173","346911","0.0-14.0-0.0-1.79","60feef5f0d6f0bd38cf36f83","6186fb1cc52d38b480598eb7","61872a79acf233df1c567258","1156.9000000059605","","s","false","[[315,599],[589,377],[463,48],[111,66],[19,407]]","true","5","","","img/Fire_Down_Target.gif","[""img/Fire_Up_Distractor.gif"",""img/Fire_Up_Distractor.gif"",""img/Fire_Up_Distractor.gif"",""img/Fire_Up_Distractor.gif"",""img/Fire_Up_Distractor.gif"",""img/Fire_Up_Distractor.gif"",""img/Fire_Up_Distractor.gif"",""img/Fire_Up_Distractor.gif"",""img/Fire_Up_Distractor.gif"",""img/Fire_Up_Distractor.gif"",""img/Fire_Up_Distractor.gif"",""img/Fire_Up_Distractor.gif""]","targetDown_distractorsUp"
"","","","","","html-keyboard-response","174","346913","0.0-14.0-0.0-0.80","60feef5f0d6f0bd38cf36f83","6186fb1cc52d38b480598eb7","61872a79acf233df1c567258","null","","null","","","","","fixation","","","",""
"","","","","","visual-search-circle","175","348808","0.0-14.0-0.0-1.80","60feef5f0d6f0bd38cf36f83","6186fb1cc52d38b480598eb7","61872a79acf233df1c567258","873.2000000029802","","s","true","[[149,559],[450,559],[600,300],[449,40],[150,40],[0,299]]","false","6","","","img/Fire_Down_Target.gif","[""img/Fire_Up_Distractor.gif"",""img/Fire_Up_Distractor.gif"",""img/Fire_Up_Distractor.gif"",""img/Fire_Up_Distractor.gif"",""img/Fire_Up_Distractor.gif"",""img/Fire_Up_Distractor.gif"",""img/Fire_Up_Distractor.gif"",""img/Fire_Up_Distractor.gif"",""img/Fire_Up_Distractor.gif"",""img/Fire_Up_Distractor.gif"",""img/Fire_Up_Distractor.gif"",""img/Fire_Up_Distractor.gif""]","targetDown_distractorsUp"
"","","","","","html-keyboard-response","176","348837","0.0-14.0-0.0-0.81","60feef5f0d6f0bd38cf36f83","6186fb1cc52d38b480598eb7","61872a79acf233df1c567258","null","","null","","","","","fixation","","","",""
"","","","","","visual-search-circle","177","350727","0.0-14.0-0.0-1.81","60feef5f0d6f0bd38cf36f83","6186fb1cc52d38b480598eb7","61872a79acf233df1c567258","871.5999999940395","","d","true","[[422,25],[123,57],[1,331],[177,574],[476,542],[598,268]]","true","6","","","img/Fire_Down_Target.gif","[""img/Fire_Up_Distractor.gif"",""img/Fire_Up_Distractor.gif"",""img/Fire_Up_Distractor.gif"",""img/Fire_Up_Distractor.gif"",""img/Fire_Up_Distractor.gif"",""img/Fire_Up_Distractor.gif"",""img/Fire_Up_Distractor.gif"",""img/Fire_Up_Distractor.gif"",""img/Fire_Up_Distractor.gif"",""img/Fire_Up_Distractor.gif"",""img/Fire_Up_Distractor.gif"",""img/Fire_Up_Distractor.gif""]","targetDown_distractorsUp"
"","","","","","html-keyboard-response","178","350729","0.0-14.0-0.0-0.82","60feef5f0d6f0bd38cf36f83","6186fb1cc52d38b480598eb7","61872a79acf233df1c567258","null","","null","","","","","fixation","","","",""
"","","","","","visual-search-circle","179","352892","0.0-14.0-0.0-1.82","60feef5f0d6f0bd38cf36f83","6186fb1cc52d38b480598eb7","61872a79acf233df1c567258","1135.7999999970198","","d","true","[[232,7],[45,141],[7,367],[141,554],[367,592],[554,458],[592,232],[458,45]]","true","8","","","img/Fire_Up_Target.gif","[""img/Fire_Down_Distractor.gif"",""img/Fire_Down_Distractor.gif"",""img/Fire_Down_Distractor.gif"",""img/Fire_Down_Distractor.gif"",""img/Fire_Down_Distractor.gif"",""img/Fire_Down_Distractor.gif"",""img/Fire_Down_Distractor.gif"",""img/Fire_Down_Distractor.gif"",""img/Fire_Down_Distractor.gif"",""img/Fire_Down_Distractor.gif"",""img/Fire_Down_Distractor.gif"",""img/Fire_Down_Distractor.gif""]","targetUp_distractorsDown"
"","","","","","html-keyboard-response","180","352908","0.0-14.0-0.0-0.83","60feef5f0d6f0bd38cf36f83","6186fb1cc52d38b480598eb7","61872a79acf233df1c567258","null","","null","","","","","fixation","","","",""
"","","","","","visual-search-circle","181","354929","0.0-14.0-0.0-1.83","60feef5f0d6f0bd38cf36f83","6186fb1cc52d38b480598eb7","61872a79acf233df1c567258","1001.2999999970198","","s","true","[[103,526],[454,557],[592,232],[326,1],[23,182]]","false","5","","","img/Fire_Down_Target.gif","[""img/Fire_Up_Distractor.gif"",""img/Fire_Up_Distractor.gif"",""img/Fire_Up_Distractor.gif"",""img/Fire_Up_Distractor.gif"",""img/Fire_Up_Distractor.gif"",""img/Fire_Up_Distractor.gif"",""img/Fire_Up_Distractor.gif"",""img/Fire_Up_Distractor.gif"",""img/Fire_Up_Distractor.gif"",""img/Fire_Up_Distractor.gif"",""img/Fire_Up_Distractor.gif"",""img/Fire_Up_Distractor.gif""]","targetDown_distractorsUp"
"","","","","","html-keyboard-response","182","354948","0.0-14.0-0.0-0.84","60feef5f0d6f0bd38cf36f83","6186fb1cc52d38b480598eb7","61872a79acf233df1c567258","null","","null","","","","","fixation","","","",""
"","","","","","visual-search-circle","183","357265","0.0-14.0-0.0-1.84","60feef5f0d6f0bd38cf36f83","6186fb1cc52d38b480598eb7","61872a79acf233df1c567258","1291.7999999970198","","d","false","[[0,315],[163,567],[463,551],[599,284],[436,32],[136,48]]","false","6","","","img/Fire_Up_Target.gif","[""img/Fire_Down_Distractor.gif"",""img/Fire_Down_Distractor.gif"",""img/Fire_Down_Distractor.gif"",""img/Fire_Down_Distractor.gif"",""img/Fire_Down_Distractor.gif"",""img/Fire_Down_Distractor.gif"",""img/Fire_Down_Distractor.gif"",""img/Fire_Down_Distractor.gif"",""img/Fire_Down_Distractor.gif"",""img/Fire_Down_Distractor.gif"",""img/Fire_Down_Distractor.gif"",""img/Fire_Down_Distractor.gif""]","targetUp_distractorsDown"
"","","","","","html-keyboard-response","184","357267","0.0-14.0-0.0-0.85","60feef5f0d6f0bd38cf36f83","6186fb1cc52d38b480598eb7","61872a79acf233df1c567258","null","","null","","","","","fixation","","","",""
"","","","","","visual-search-circle","185","359406","0.0-14.0-0.0-1.85","60feef5f0d6f0bd38cf36f83","6186fb1cc52d38b480598eb7","61872a79acf233df1c567258","1122.2000000029802","","s","true","[[0,294],[294,599],[599,305],[305,0]]","false","4","","","img/Fire_Up_Target.gif","[""img/Fire_Down_Distractor.gif"",""img/Fire_Down_Distractor.gif"",""img/Fire_Down_Distractor.gif"",""img/Fire_Down_Distractor.gif"",""img/Fire_Down_Distractor.gif"",""img/Fire_Down_Distractor.gif"",""img/Fire_Down_Distractor.gif"",""img/Fire_Down_Distractor.gif"",""img/Fire_Down_Distractor.gif"",""img/Fire_Down_Distractor.gif"",""img/Fire_Down_Distractor.gif"",""img/Fire_Down_Distractor.gif""]","targetUp_distractorsDown"
"","","","","","html-keyboard-response","186","359411","0.0-14.0-0.0-0.86","60feef5f0d6f0bd38cf36f83","6186fb1cc52d38b480598eb7","61872a79acf233df1c567258","null","","null","","","","","fixation","","","",""
"","","","","","visual-search-circle","187","362242","0.0-14.0-0.0-1.86","60feef5f0d6f0bd38cf36f83","6186fb1cc52d38b480598eb7","61872a79acf233df1c567258","1814.5","","s","true","[[66,488],[407,580],[599,284],[377,10],[48,136]]","false","5","","","img/Fire_Up_Target.gif","[""img/Fire_Down_Distractor.gif"",""img/Fire_Down_Distractor.gif"",""img/Fire_Down_Distractor.gif"",""img/Fire_Down_Distractor.gif"",""img/Fire_Down_Distractor.gif"",""img/Fire_Down_Distractor.gif"",""img/Fire_Down_Distractor.gif"",""img/Fire_Down_Distractor.gif"",""img/Fire_Down_Distractor.gif"",""img/Fire_Down_Distractor.gif"",""img/Fire_Down_Distractor.gif"",""img/Fire_Down_Distractor.gif""]","targetUp_distractorsDown"
"","","","","","html-keyboard-response","188","362253","0.0-14.0-0.0-0.87","60feef5f0d6f0bd38cf36f83","6186fb1cc52d38b480598eb7","61872a79acf233df1c567258","null","","null","","","","","fixation","","","",""
"","","","","","visual-search-circle","189","364569","0.0-14.0-0.0-1.87","60feef5f0d6f0bd38cf36f83","6186fb1cc52d38b480598eb7","61872a79acf233df1c567258","1297.2000000029802","","s","true","[[377,10],[150,40],[10,222],[40,450],[222,589],[450,559],[589,377],[559,150]]","false","8","","","img/Fire_Down_Target.gif","[""img/Fire_Up_Distractor.gif"",""img/Fire_Up_Distractor.gif"",""img/Fire_Up_Distractor.gif"",""img/Fire_Up_Distractor.gif"",""img/Fire_Up_Distractor.gif"",""img/Fire_Up_Distractor.gif"",""img/Fire_Up_Distractor.gif"",""img/Fire_Up_Distractor.gif"",""img/Fire_Up_Distractor.gif"",""img/Fire_Up_Distractor.gif"",""img/Fire_Up_Distractor.gif"",""img/Fire_Up_Distractor.gif""]","targetDown_distractorsUp"
"","","","","","html-keyboard-response","190","364571","0.0-14.0-0.0-0.88","60feef5f0d6f0bd38cf36f83","6186fb1cc52d38b480598eb7","61872a79acf233df1c567258","null","","null","","","","","fixation","","","",""
"","","","","","visual-search-circle","191","366938","0.0-14.0-0.0-1.88","60feef5f0d6f0bd38cf36f83","6186fb1cc52d38b480598eb7","61872a79acf233df1c567258","1332.5","","d","true","[[21,187],[23,417],[187,578],[417,576],[578,412],[576,182],[412,21],[182,23]]","true","8","","","img/Fire_Up_Target.gif","[""img/Fire_Down_Distractor.gif"",""img/Fire_Down_Distractor.gif"",""img/Fire_Down_Distractor.gif"",""img/Fire_Down_Distractor.gif"",""img/Fire_Down_Distractor.gif"",""img/Fire_Down_Distractor.gif"",""img/Fire_Down_Distractor.gif"",""img/Fire_Down_Distractor.gif"",""img/Fire_Down_Distractor.gif"",""img/Fire_Down_Distractor.gif"",""img/Fire_Down_Distractor.gif"",""img/Fire_Down_Distractor.gif""]","targetUp_distractorsDown"
"","","","","","html-keyboard-response","192","366952","0.0-14.0-0.0-0.89","60feef5f0d6f0bd38cf36f83","6186fb1cc52d38b480598eb7","61872a79acf233df1c567258","null","","null","","","","","fixation","","","",""
"","","","","","visual-search-circle","193","369135","0.0-14.0-0.0-1.89","60feef5f0d6f0bd38cf36f83","6186fb1cc52d38b480598eb7","61872a79acf233df1c567258","1151.8999999910593","","d","false","[[336,597],[536,484],[597,263],[484,63],[263,2],[63,115],[2,336],[115,536]]","false","8","","","img/Fire_Up_Target.gif","[""img/Fire_Down_Distractor.gif"",""img/Fire_Down_Distractor.gif"",""img/Fire_Down_Distractor.gif"",""img/Fire_Down_Distractor.gif"",""img/Fire_Down_Distractor.gif"",""img/Fire_Down_Distractor.gif"",""img/Fire_Down_Distractor.gif"",""img/Fire_Down_Distractor.gif"",""img/Fire_Down_Distractor.gif"",""img/Fire_Down_Distractor.gif"",""img/Fire_Down_Distractor.gif"",""img/Fire_Down_Distractor.gif""]","targetUp_distractorsDown"
"","","","","","html-keyboard-response","194","369147","0.0-14.0-0.0-0.90","60feef5f0d6f0bd38cf36f83","6186fb1cc52d38b480598eb7","61872a79acf233df1c567258","null","","null","","","","","fixation","","","",""
"","","","","","visual-search-circle","195","371432","0.0-14.0-0.0-1.90","60feef5f0d6f0bd38cf36f83","6186fb1cc52d38b480598eb7","61872a79acf233df1c567258","1265.7999999970198","","s","true","[[187,21],[21,412],[412,578],[578,187]]","false","4","","","img/Fire_Up_Target.gif","[""img/Fire_Down_Distractor.gif"",""img/Fire_Down_Distractor.gif"",""img/Fire_Down_Distractor.gif"",""img/Fire_Down_Distractor.gif"",""img/Fire_Down_Distractor.gif"",""img/Fire_Down_Distractor.gif"",""img/Fire_Down_Distractor.gif"",""img/Fire_Down_Distractor.gif"",""img/Fire_Down_Distractor.gif"",""img/Fire_Down_Distractor.gif"",""img/Fire_Down_Distractor.gif"",""img/Fire_Down_Distractor.gif""]","targetUp_distractorsDown"
"","","","","","html-keyboard-response","196","371434","0.0-14.0-0.0-0.91","60feef5f0d6f0bd38cf36f83","6186fb1cc52d38b480598eb7","61872a79acf233df1c567258","null","","null","","","","","fixation","","","",""
"","","","","","visual-search-circle","197","373449","0.0-14.0-0.0-1.91","60feef5f0d6f0bd38cf36f83","6186fb1cc52d38b480598eb7","61872a79acf233df1c567258","1005.7000000029802","","s","true","[[4,247],[247,595],[595,352],[352,4]]","false","4","","","img/Fire_Up_Target.gif","[""img/Fire_Down_Distractor.gif"",""img/Fire_Down_Distractor.gif"",""img/Fire_Down_Distractor.gif"",""img/Fire_Down_Distractor.gif"",""img/Fire_Down_Distractor.gif"",""img/Fire_Down_Distractor.gif"",""img/Fire_Down_Distractor.gif"",""img/Fire_Down_Distractor.gif"",""img/Fire_Down_Distractor.gif"",""img/Fire_Down_Distractor.gif"",""img/Fire_Down_Distractor.gif"",""img/Fire_Down_Distractor.gif""]","targetUp_distractorsDown"
"","","","","","html-keyboard-response","198","373454","0.0-14.0-0.0-0.92","60feef5f0d6f0bd38cf36f83","6186fb1cc52d38b480598eb7","61872a79acf233df1c567258","null","","null","","","","","fixation","","","",""
"","","","","","visual-search-circle","199","377515","0.0-14.0-0.0-1.92","60feef5f0d6f0bd38cf36f83","6186fb1cc52d38b480598eb7","61872a79acf233df1c567258","3038.800000011921","","s","false","[[454,42],[227,8],[42,145],[8,372],[145,557],[372,591],[557,454],[591,227]]","true","8","","","img/Fire_Up_Target.gif","[""img/Fire_Down_Distractor.gif"",""img/Fire_Down_Distractor.gif"",""img/Fire_Down_Distractor.gif"",""img/Fire_Down_Distractor.gif"",""img/Fire_Down_Distractor.gif"",""img/Fire_Down_Distractor.gif"",""img/Fire_Down_Distractor.gif"",""img/Fire_Down_Distractor.gif"",""img/Fire_Down_Distractor.gif"",""img/Fire_Down_Distractor.gif"",""img/Fire_Down_Distractor.gif"",""img/Fire_Down_Distractor.gif""]","targetUp_distractorsDown"
"","","","","","html-keyboard-response","200","377523","0.0-14.0-0.0-0.93","60feef5f0d6f0bd38cf36f83","6186fb1cc52d38b480598eb7","61872a79acf233df1c567258","null","","null","","","","","fixation","","","",""
"","","","","","visual-search-circle","201","379377","0.0-14.0-0.0-1.93","60feef5f0d6f0bd38cf36f83","6186fb1cc52d38b480598eb7","61872a79acf233df1c567258","824.5","","s","true","[[159,35],[4,352],[258,597],[569,431],[508,84]]","false","5","","","img/Fire_Down_Target.gif","[""img/Fire_Up_Distractor.gif"",""img/Fire_Up_Distractor.gif"",""img/Fire_Up_Distractor.gif"",""img/Fire_Up_Distractor.gif"",""img/Fire_Up_Distractor.gif"",""img/Fire_Up_Distractor.gif"",""img/Fire_Up_Distractor.gif"",""img/Fire_Up_Distractor.gif"",""img/Fire_Up_Distractor.gif"",""img/Fire_Up_Distractor.gif"",""img/Fire_Up_Distractor.gif"",""img/Fire_Up_Distractor.gif""]","targetDown_distractorsUp"
"","","","","","html-keyboard-response","202","379382","0.0-14.0-0.0-0.94","60feef5f0d6f0bd38cf36f83","6186fb1cc52d38b480598eb7","61872a79acf233df1c567258","null","","null","","","","","fixation","","","",""
"","","","","","visual-search-circle","203","381238","0.0-14.0-0.0-1.94","60feef5f0d6f0bd38cf36f83","6186fb1cc52d38b480598eb7","61872a79acf233df1c567258","838.2000000029802","","s","true","[[159,564],[564,440],[440,35],[35,159]]","false","4","","","img/Fire_Down_Target.gif","[""img/Fire_Up_Distractor.gif"",""img/Fire_Up_Distractor.gif"",""img/Fire_Up_Distractor.gif"",""img/Fire_Up_Distractor.gif"",""img/Fire_Up_Distractor.gif"",""img/Fire_Up_Distractor.gif"",""img/Fire_Up_Distractor.gif"",""img/Fire_Up_Distractor.gif"",""img/Fire_Up_Distractor.gif"",""img/Fire_Up_Distractor.gif"",""img/Fire_Up_Distractor.gif"",""img/Fire_Up_Distractor.gif""]","targetDown_distractorsUp"
"","","","","","html-keyboard-response","204","381240","0.0-14.0-0.0-0.95","60feef5f0d6f0bd38cf36f83","6186fb1cc52d38b480598eb7","61872a79acf233df1c567258","null","","null","","","","","fixation","","","",""
"","","","","","visual-search-circle","205","383551","0.0-14.0-0.0-1.95","60feef5f0d6f0bd38cf36f83","6186fb1cc52d38b480598eb7","61872a79acf233df1c567258","1299.5","","s","true","[[387,586],[586,212],[212,13],[13,387]]","false","4","","","img/Fire_Up_Target.gif","[""img/Fire_Down_Distractor.gif"",""img/Fire_Down_Distractor.gif"",""img/Fire_Down_Distractor.gif"",""img/Fire_Down_Distractor.gif"",""img/Fire_Down_Distractor.gif"",""img/Fire_Down_Distractor.gif"",""img/Fire_Down_Distractor.gif"",""img/Fire_Down_Distractor.gif"",""img/Fire_Down_Distractor.gif"",""img/Fire_Down_Distractor.gif"",""img/Fire_Down_Distractor.gif"",""img/Fire_Down_Distractor.gif""]","targetUp_distractorsDown"
"","","","","","html-keyboard-response","206","383555","0.0-14.0-0.0-0.96","60feef5f0d6f0bd38cf36f83","6186fb1cc52d38b480598eb7","61872a79acf233df1c567258","null","","null","","","","","fixation","","","",""
"","","","","","visual-search-circle","207","385451","0.0-14.0-0.0-1.96","60feef5f0d6f0bd38cf36f83","6186fb1cc52d38b480598eb7","61872a79acf233df1c567258","876.1000000089407","","d","true","[[66,488],[268,598],[488,533],[598,331],[533,111],[331,1],[111,66],[1,268]]","true","8","","","img/Fire_Down_Target.gif","[""img/Fire_Up_Distractor.gif"",""img/Fire_Up_Distractor.gif"",""img/Fire_Up_Distractor.gif"",""img/Fire_Up_Distractor.gif"",""img/Fire_Up_Distractor.gif"",""img/Fire_Up_Distractor.gif"",""img/Fire_Up_Distractor.gif"",""img/Fire_Up_Distractor.gif"",""img/Fire_Up_Distractor.gif"",""img/Fire_Up_Distractor.gif"",""img/Fire_Up_Distractor.gif"",""img/Fire_Up_Distractor.gif""]","targetDown_distractorsUp"
"","","","","","html-keyboard-response","208","385453","0.0-14.0-0.0-0.97","60feef5f0d6f0bd38cf36f83","6186fb1cc52d38b480598eb7","61872a79acf233df1c567258","null","","null","","","","","fixation","","","",""
"","","","","","visual-search-circle","209","387916","0.0-14.0-0.0-1.97","60feef5f0d6f0bd38cf36f83","6186fb1cc52d38b480598eb7","61872a79acf233df1c567258","1446.2000000029802","","s","true","[[581,197],[289,0],[11,217],[132,548],[484,536]]","false","5","","","img/Fire_Up_Target.gif","[""img/Fire_Down_Distractor.gif"",""img/Fire_Down_Distractor.gif"",""img/Fire_Down_Distractor.gif"",""img/Fire_Down_Distractor.gif"",""img/Fire_Down_Distractor.gif"",""img/Fire_Down_Distractor.gif"",""img/Fire_Down_Distractor.gif"",""img/Fire_Down_Distractor.gif"",""img/Fire_Down_Distractor.gif"",""img/Fire_Down_Distractor.gif"",""img/Fire_Down_Distractor.gif"",""img/Fire_Down_Distractor.gif""]","targetUp_distractorsDown"
"","","","","","html-keyboard-response","210","387918","0.0-14.0-0.0-0.98","60feef5f0d6f0bd38cf36f83","6186fb1cc52d38b480598eb7","61872a79acf233df1c567258","null","","null","","","","","fixation","","","",""
"","","","","","visual-search-circle","211","390347","0.0-14.0-0.0-1.98","60feef5f0d6f0bd38cf36f83","6186fb1cc52d38b480598eb7","61872a79acf233df1c567258","1402.0999999940395","","s","true","[[258,597],[480,539],[597,341],[539,119],[341,2],[119,60],[2,258],[60,480]]","false","8","","","img/Fire_Down_Target.gif","[""img/Fire_Up_Distractor.gif"",""img/Fire_Up_Distractor.gif"",""img/Fire_Up_Distractor.gif"",""img/Fire_Up_Distractor.gif"",""img/Fire_Up_Distractor.gif"",""img/Fire_Up_Distractor.gif"",""img/Fire_Up_Distractor.gif"",""img/Fire_Up_Distractor.gif"",""img/Fire_Up_Distractor.gif"",""img/Fire_Up_Distractor.gif"",""img/Fire_Up_Distractor.gif"",""img/Fire_Up_Distractor.gif""]","targetDown_distractorsUp"
"","","","","","html-keyboard-response","212","391532","0.0-14.0-0.0-0.99","60feef5f0d6f0bd38cf36f83","6186fb1cc52d38b480598eb7","61872a79acf233df1c567258","1183.8999999910593","Wow! You've completed 100 out of 120 trials! </p> <p>  </p><p> Take a quick break, then press any key when you're ready to continue.","s","","","","","fixation","","","",""
"","","","","","visual-search-circle","213","393924","0.0-14.0-0.0-1.99","60feef5f0d6f0bd38cf36f83","6186fb1cc52d38b480598eb7","61872a79acf233df1c567258","1356","","s","true","[[242,5],[51,132],[5,357],[132,548],[357,594],[548,467],[594,242],[467,51]]","false","8","","","img/Fire_Up_Target.gif","[""img/Fire_Down_Distractor.gif"",""img/Fire_Down_Distractor.gif"",""img/Fire_Down_Distractor.gif"",""img/Fire_Down_Distractor.gif"",""img/Fire_Down_Distractor.gif"",""img/Fire_Down_Distractor.gif"",""img/Fire_Down_Distractor.gif"",""img/Fire_Down_Distractor.gif"",""img/Fire_Down_Distractor.gif"",""img/Fire_Down_Distractor.gif"",""img/Fire_Down_Distractor.gif"",""img/Fire_Down_Distractor.gif""]","targetUp_distractorsDown"
"","","","","","html-keyboard-response","214","393927","0.0-14.0-0.0-0.100","60feef5f0d6f0bd38cf36f83","6186fb1cc52d38b480598eb7","61872a79acf233df1c567258","null","","null","","","","","fixation","","","",""
"","","","","","visual-search-circle","215","396045","0.0-14.0-0.0-1.100","60feef5f0d6f0bd38cf36f83","6186fb1cc52d38b480598eb7","61872a79acf233df1c567258","1097.7999999970198","","d","true","[[253,3],[3,346],[346,596],[596,253]]","true","4","","","img/Fire_Down_Target.gif","[""img/Fire_Up_Distractor.gif"",""img/Fire_Up_Distractor.gif"",""img/Fire_Up_Distractor.gif"",""img/Fire_Up_Distractor.gif"",""img/Fire_Up_Distractor.gif"",""img/Fire_Up_Distractor.gif"",""img/Fire_Up_Distractor.gif"",""img/Fire_Up_Distractor.gif"",""img/Fire_Up_Distractor.gif"",""img/Fire_Up_Distractor.gif"",""img/Fire_Up_Distractor.gif"",""img/Fire_Up_Distractor.gif""]","targetDown_distractorsUp"
"","","","","","html-keyboard-response","216","396047","0.0-14.0-0.0-0.101","60feef5f0d6f0bd38cf36f83","6186fb1cc52d38b480598eb7","61872a79acf233df1c567258","null","","null","","","","","fixation","","","",""
"","","","","","visual-search-circle","217","398456","0.0-14.0-0.0-1.101","60feef5f0d6f0bd38cf36f83","6186fb1cc52d38b480598eb7","61872a79acf233df1c567258","1395.1000000089407","","s","true","[[149,559],[500,522],[574,177],[268,1],[6,237]]","false","5","","","img/Fire_Down_Target.gif","[""img/Fire_Up_Distractor.gif"",""img/Fire_Up_Distractor.gif"",""img/Fire_Up_Distractor.gif"",""img/Fire_Up_Distractor.gif"",""img/Fire_Up_Distractor.gif"",""img/Fire_Up_Distractor.gif"",""img/Fire_Up_Distractor.gif"",""img/Fire_Up_Distractor.gif"",""img/Fire_Up_Distractor.gif"",""img/Fire_Up_Distractor.gif"",""img/Fire_Up_Distractor.gif"",""img/Fire_Up_Distractor.gif""]","targetDown_distractorsUp"
"","","","","","html-keyboard-response","218","398467","0.0-14.0-0.0-0.102","60feef5f0d6f0bd38cf36f83","6186fb1cc52d38b480598eb7","61872a79acf233df1c567258","null","","null","","","","","fixation","","","",""
"","","","","","visual-search-circle","219","400486","0.0-14.0-0.0-1.102","60feef5f0d6f0bd38cf36f83","6186fb1cc52d38b480598eb7","61872a79acf233df1c567258","978.5","","s","true","[[463,48],[237,6],[48,136],[6,362],[136,551],[362,593],[551,463],[593,237]]","false","8","","","img/Fire_Up_Target.gif","[""img/Fire_Down_Distractor.gif"",""img/Fire_Down_Distractor.gif"",""img/Fire_Down_Distractor.gif"",""img/Fire_Down_Distractor.gif"",""img/Fire_Down_Distractor.gif"",""img/Fire_Down_Distractor.gif"",""img/Fire_Down_Distractor.gif"",""img/Fire_Down_Distractor.gif"",""img/Fire_Down_Distractor.gif"",""img/Fire_Down_Distractor.gif"",""img/Fire_Down_Distractor.gif"",""img/Fire_Down_Distractor.gif""]","targetUp_distractorsDown"
"","","","","","html-keyboard-response","220","400488","0.0-14.0-0.0-0.103","60feef5f0d6f0bd38cf36f83","6186fb1cc52d38b480598eb7","61872a79acf233df1c567258","null","","null","","","","","fixation","","","",""
"","","","","","visual-search-circle","221","402537","0.0-14.0-0.0-1.103","60feef5f0d6f0bd38cf36f83","6186fb1cc52d38b480598eb7","61872a79acf233df1c567258","1030.2000000029802","","d","true","[[586,387],[564,159],[387,13],[159,35],[13,212],[35,440],[212,586],[440,564]]","true","8","","","img/Fire_Down_Target.gif","[""img/Fire_Up_Distractor.gif"",""img/Fire_Up_Distractor.gif"",""img/Fire_Up_Distractor.gif"",""img/Fire_Up_Distractor.gif"",""img/Fire_Up_Distractor.gif"",""img/Fire_Up_Distractor.gif"",""img/Fire_Up_Distractor.gif"",""img/Fire_Up_Distractor.gif"",""img/Fire_Up_Distractor.gif"",""img/Fire_Up_Distractor.gif"",""img/Fire_Up_Distractor.gif"",""img/Fire_Up_Distractor.gif""]","targetDown_distractorsUp"
