"success","timeout","failed_images","failed_audio","failed_video","trial_type","trial_index","time_elapsed","internal_node_id","subject_id","study_id","session_id","rt","stimulus","response","correct","locations","target_present","set_size","task","correct_response","target","foilCM","searchCondition"
"true","false","[]","[]","[]","preload","0","22711","0.0-0.0","610aaf2df1bbcc04ce0d2237","6186fb1cc52d38b480598eb7","618736d109b6e6172cb04058","","","","","","","","","","","",""
"true","","","","","fullscreen","1","33150","0.0-1.0","610aaf2df1bbcc04ce0d2237","6186fb1cc52d38b480598eb7","618736d109b6e6172cb04058","","","","","","","","","","","",""
"","","","","","html-keyboard-response","2","37486","0.0-2.0","610aaf2df1bbcc04ce0d2237","6186fb1cc52d38b480598eb7","618736d109b6e6172cb04058","4337.200000047684","What a beautiful Saturday to do some awesome science! </p> <p>  </p><p> </p>
    By completing this survey or questionnaire, you are consenting to be in this research study. </p>
    Your participation is voluntary and you can stop at any time.
    <p> [Press any key to continue.] </p>
    
    "," ","","","","","","","","",""
"","","","","","video-keyboard-response","3","55546","0.0-3.0","610aaf2df1bbcc04ce0d2237","6186fb1cc52d38b480598eb7","618736d109b6e6172cb04058","18054.699999928474","[""video/TaskInstructions.mp4""]"," ","","","","","","","","",""
"","","","","","html-keyboard-response","4","60776","0.0-4.0","610aaf2df1bbcc04ce0d2237","6186fb1cc52d38b480598eb7","618736d109b6e6172cb04058","5229.199999928474","
    <p>First, we're going to do a few practice trials to make sure you understand the task. You will recieve feedback on each trial. </p>

    <p>[Press any key to begin the familiarization phase.]</p>
    ","alt","","","","","","","","",""
"","","","","","visual-search-circle","5","66749","0.0-5.0-0.0","610aaf2df1bbcc04ce0d2237","6186fb1cc52d38b480598eb7","618736d109b6e6172cb04058","4900.5","","d","true","[[57,476],[476,542],[542,123],[123,57]]","true","4","training","d","","",""
"","","","","","html-keyboard-response","6","68252","0.0-6.0","610aaf2df1bbcc04ce0d2237","6186fb1cc52d38b480598eb7","618736d109b6e6172cb04058","1502.6000000238419"," <div style='float: center; '><img src='img/feedbackRight.png'></img> </div> "," ","","","","","","","","",""
"","","","","","visual-search-circle","7","70838","0.0-7.0-0.0","610aaf2df1bbcc04ce0d2237","6186fb1cc52d38b480598eb7","618736d109b6e6172cb04058","1576.6000000238419","","s","true","[[3,253],[253,596],[596,346],[346,3]]","false","4","training","s","","",""
"","","","","","html-keyboard-response","8","71471","0.0-8.0","610aaf2df1bbcc04ce0d2237","6186fb1cc52d38b480598eb7","618736d109b6e6172cb04058","632.7000000476837"," <div style='float: center; '><img src='img/feedbackRight.png'></img> </div> "," ","","","","","","","","",""
"","","","","","visual-search-circle","9","74827","0.0-9.0-0.0","610aaf2df1bbcc04ce0d2237","6186fb1cc52d38b480598eb7","618736d109b6e6172cb04058","2343.7000000476837","","s","true","[[6,237],[99,522],[392,585],[593,362],[500,77],[207,14]]","false","6","training","s","","",""
"","","","","","html-keyboard-response","10","77460","0.0-10.0","610aaf2df1bbcc04ce0d2237","6186fb1cc52d38b480598eb7","618736d109b6e6172cb04058","2632"," <div style='float: center; '><img src='img/feedbackRight.png'></img> </div> "," ","","","","","","","","",""
"","","","","","visual-search-circle","11","81023","0.0-11.0-0.0","610aaf2df1bbcc04ce0d2237","6186fb1cc52d38b480598eb7","618736d109b6e6172cb04058","2547.1999999284744","","d","true","[[21,412],[182,576],[412,578],[576,417],[578,187],[417,23],[187,21],[23,182]]","true","8","training","d","","",""
"","","","","","html-keyboard-response","12","81880","0.0-12.0","610aaf2df1bbcc04ce0d2237","6186fb1cc52d38b480598eb7","618736d109b6e6172cb04058","856.1000000238419"," <div style='float: center; '><img src='img/feedbackRight.png'></img> </div> "," ","","","","","","","","",""
"","","","","","video-keyboard-response","13","84546","0.0-13.0","610aaf2df1bbcc04ce0d2237","6186fb1cc52d38b480598eb7","618736d109b6e6172cb04058","2664.399999976158","[""video/endTraining.mp4""]"," ","","","","","","","","",""
"","","","","","html-keyboard-response","14","84550","0.0-14.0-0.0-0.0","610aaf2df1bbcc04ce0d2237","6186fb1cc52d38b480598eb7","618736d109b6e6172cb04058","null","","null","","","","","fixation","","","",""
"","","","","","visual-search-circle","15","88121","0.0-14.0-0.0-1.0","610aaf2df1bbcc04ce0d2237","6186fb1cc52d38b480598eb7","618736d109b6e6172cb04058","2555.5999999046326","","s","true","[[581,197],[395,15],[137,47],[1,270],[90,514],[337,597],[555,456]]","false","7","","","img/Fire_Up_Target.gif","[""img/Fire_Down_Distractor.gif"",""img/Fire_Down_Distractor.gif"",""img/Fire_Down_Distractor.gif"",""img/Fire_Down_Distractor.gif"",""img/Fire_Down_Distractor.gif"",""img/Fire_Down_Distractor.gif"",""img/Fire_Down_Distractor.gif"",""img/Fire_Down_Distractor.gif"",""img/Fire_Down_Distractor.gif"",""img/Fire_Down_Distractor.gif"",""img/Fire_Down_Distractor.gif"",""img/Fire_Down_Distractor.gif""]","targetUp_distractorsDown"
"","","","","","html-keyboard-response","16","88125","0.0-14.0-0.0-0.1","610aaf2df1bbcc04ce0d2237","6186fb1cc52d38b480598eb7","618736d109b6e6172cb04058","null","","null","","","","","fixation","","","",""
"","","","","","visual-search-circle","17","89973","0.0-14.0-0.0-1.1","610aaf2df1bbcc04ce0d2237","6186fb1cc52d38b480598eb7","618736d109b6e6172cb04058","840.2000000476837","","d","true","[[580,407],[407,19],[19,192],[192,580]]","true","4","","","img/Fire_Up_Target.gif","[""img/Fire_Down_Distractor.gif"",""img/Fire_Down_Distractor.gif"",""img/Fire_Down_Distractor.gif"",""img/Fire_Down_Distractor.gif"",""img/Fire_Down_Distractor.gif"",""img/Fire_Down_Distractor.gif"",""img/Fire_Down_Distractor.gif"",""img/Fire_Down_Distractor.gif"",""img/Fire_Down_Distractor.gif"",""img/Fire_Down_Distractor.gif"",""img/Fire_Down_Distractor.gif"",""img/Fire_Down_Distractor.gif""]","targetUp_distractorsDown"
"","","","","","html-keyboard-response","18","89995","0.0-14.0-0.0-0.2","610aaf2df1bbcc04ce0d2237","6186fb1cc52d38b480598eb7","618736d109b6e6172cb04058","null","","null","","","","","fixation","","","",""
"","","","","","visual-search-circle","19","92449","0.0-14.0-0.0-1.2","610aaf2df1bbcc04ce0d2237","6186fb1cc52d38b480598eb7","618736d109b6e6172cb04058","1442.8000000715256","","s","true","[[596,253],[476,57],[253,3],[57,123],[3,346],[123,542],[346,596],[542,476]]","false","8","","","img/Fire_Down_Target.gif","[""img/Fire_Up_Distractor.gif"",""img/Fire_Up_Distractor.gif"",""img/Fire_Up_Distractor.gif"",""img/Fire_Up_Distractor.gif"",""img/Fire_Up_Distractor.gif"",""img/Fire_Up_Distractor.gif"",""img/Fire_Up_Distractor.gif"",""img/Fire_Up_Distractor.gif"",""img/Fire_Up_Distractor.gif"",""img/Fire_Up_Distractor.gif"",""img/Fire_Up_Distractor.gif"",""img/Fire_Up_Distractor.gif""]","targetDown_distractorsUp"
"","","","","","html-keyboard-response","20","92451","0.0-14.0-0.0-0.3","610aaf2df1bbcc04ce0d2237","6186fb1cc52d38b480598eb7","618736d109b6e6172cb04058","null","","null","","","","","fixation","","","",""
"","","","","","visual-search-circle","21","94908","0.0-14.0-0.0-1.3","610aaf2df1bbcc04ce0d2237","6186fb1cc52d38b480598eb7","618736d109b6e6172cb04058","1444.5","","d","true","[[426,28],[28,173],[173,571],[571,426]]","true","4","","","img/Fire_Down_Target.gif","[""img/Fire_Up_Distractor.gif"",""img/Fire_Up_Distractor.gif"",""img/Fire_Up_Distractor.gif"",""img/Fire_Up_Distractor.gif"",""img/Fire_Up_Distractor.gif"",""img/Fire_Up_Distractor.gif"",""img/Fire_Up_Distractor.gif"",""img/Fire_Up_Distractor.gif"",""img/Fire_Up_Distractor.gif"",""img/Fire_Up_Distractor.gif"",""img/Fire_Up_Distractor.gif"",""img/Fire_Up_Distractor.gif""]","targetDown_distractorsUp"
"","","","","","html-keyboard-response","22","94910","0.0-14.0-0.0-0.4","610aaf2df1bbcc04ce0d2237","6186fb1cc52d38b480598eb7","618736d109b6e6172cb04058","null","","null","","","","","fixation","","","",""
"","","","","","visual-search-circle","23","98870","0.0-14.0-0.0-1.4","610aaf2df1bbcc04ce0d2237","6186fb1cc52d38b480598eb7","618736d109b6e6172cb04058","2948.5","","d","true","[[57,476],[331,598],[574,422],[542,123],[268,1],[25,177]]","true","6","","","img/Fire_Down_Target.gif","[""img/Fire_Up_Distractor.gif"",""img/Fire_Up_Distractor.gif"",""img/Fire_Up_Distractor.gif"",""img/Fire_Up_Distractor.gif"",""img/Fire_Up_Distractor.gif"",""img/Fire_Up_Distractor.gif"",""img/Fire_Up_Distractor.gif"",""img/Fire_Up_Distractor.gif"",""img/Fire_Up_Distractor.gif"",""img/Fire_Up_Distractor.gif"",""img/Fire_Up_Distractor.gif"",""img/Fire_Up_Distractor.gif""]","targetDown_distractorsUp"
"","","","","","html-keyboard-response","24","98877","0.0-14.0-0.0-0.5","610aaf2df1bbcc04ce0d2237","6186fb1cc52d38b480598eb7","618736d109b6e6172cb04058","null","","null","","","","","fixation","","","",""
"","","","","","visual-search-circle","25","101325","0.0-14.0-0.0-1.5","610aaf2df1bbcc04ce0d2237","6186fb1cc52d38b480598eb7","618736d109b6e6172cb04058","1435.7000000476837","","d","true","[[598,326],[326,1],[1,273],[273,598]]","true","4","","","img/Fire_Up_Target.gif","[""img/Fire_Down_Distractor.gif"",""img/Fire_Down_Distractor.gif"",""img/Fire_Down_Distractor.gif"",""img/Fire_Down_Distractor.gif"",""img/Fire_Down_Distractor.gif"",""img/Fire_Down_Distractor.gif"",""img/Fire_Down_Distractor.gif"",""img/Fire_Down_Distractor.gif"",""img/Fire_Down_Distractor.gif"",""img/Fire_Down_Distractor.gif"",""img/Fire_Down_Distractor.gif"",""img/Fire_Down_Distractor.gif""]","targetUp_distractorsDown"
"","","","","","html-keyboard-response","26","101327","0.0-14.0-0.0-0.6","610aaf2df1bbcc04ce0d2237","6186fb1cc52d38b480598eb7","618736d109b6e6172cb04058","null","","null","","","","","fixation","","","",""
"","","","","","visual-search-circle","27","104323","0.0-14.0-0.0-1.6","610aaf2df1bbcc04ce0d2237","6186fb1cc52d38b480598eb7","618736d109b6e6172cb04058","1985.5","","s","true","[[187,578],[578,412],[412,21],[21,187]]","false","4","","","img/Fire_Up_Target.gif","[""img/Fire_Down_Distractor.gif"",""img/Fire_Down_Distractor.gif"",""img/Fire_Down_Distractor.gif"",""img/Fire_Down_Distractor.gif"",""img/Fire_Down_Distractor.gif"",""img/Fire_Down_Distractor.gif"",""img/Fire_Down_Distractor.gif"",""img/Fire_Down_Distractor.gif"",""img/Fire_Down_Distractor.gif"",""img/Fire_Down_Distractor.gif"",""img/Fire_Down_Distractor.gif"",""img/Fire_Down_Distractor.gif""]","targetUp_distractorsDown"
"","","","","","html-keyboard-response","28","104335","0.0-14.0-0.0-0.7","610aaf2df1bbcc04ce0d2237","6186fb1cc52d38b480598eb7","618736d109b6e6172cb04058","null","","null","","","","","fixation","","","",""
"","","","","","visual-search-circle","29","107149","0.0-14.0-0.0-1.7","610aaf2df1bbcc04ce0d2237","6186fb1cc52d38b480598eb7","618736d109b6e6172cb04058","1805.8000000715256","","s","true","[[91,84],[8,372],[217,588],[508,515],[591,227],[382,11]]","false","6","","","img/Fire_Up_Target.gif","[""img/Fire_Down_Distractor.gif"",""img/Fire_Down_Distractor.gif"",""img/Fire_Down_Distractor.gif"",""img/Fire_Down_Distractor.gif"",""img/Fire_Down_Distractor.gif"",""img/Fire_Down_Distractor.gif"",""img/Fire_Down_Distractor.gif"",""img/Fire_Down_Distractor.gif"",""img/Fire_Down_Distractor.gif"",""img/Fire_Down_Distractor.gif"",""img/Fire_Down_Distractor.gif"",""img/Fire_Down_Distractor.gif""]","targetUp_distractorsDown"
"","","","","","html-keyboard-response","30","107152","0.0-14.0-0.0-0.8","610aaf2df1bbcc04ce0d2237","6186fb1cc52d38b480598eb7","618736d109b6e6172cb04058","null","","null","","","","","fixation","","","",""
"","","","","","visual-search-circle","31","109218","0.0-14.0-0.0-1.8","610aaf2df1bbcc04ce0d2237","6186fb1cc52d38b480598eb7","618736d109b6e6172cb04058","1056.7000000476837","","d","true","[[212,586],[504,519],[592,232],[387,13],[95,80],[7,367]]","true","6","","","img/Fire_Down_Target.gif","[""img/Fire_Up_Distractor.gif"",""img/Fire_Up_Distractor.gif"",""img/Fire_Up_Distractor.gif"",""img/Fire_Up_Distractor.gif"",""img/Fire_Up_Distractor.gif"",""img/Fire_Up_Distractor.gif"",""img/Fire_Up_Distractor.gif"",""img/Fire_Up_Distractor.gif"",""img/Fire_Up_Distractor.gif"",""img/Fire_Up_Distractor.gif"",""img/Fire_Up_Distractor.gif"",""img/Fire_Up_Distractor.gif""]","targetDown_distractorsUp"
"","","","","","html-keyboard-response","32","109225","0.0-14.0-0.0-0.9","610aaf2df1bbcc04ce0d2237","6186fb1cc52d38b480598eb7","618736d109b6e6172cb04058","null","","null","","","","","fixation","","","",""
"","","","","","visual-search-circle","33","112427","0.0-14.0-0.0-1.9","610aaf2df1bbcc04ce0d2237","6186fb1cc52d38b480598eb7","618736d109b6e6172cb04058","2189.3000000715256","","s","true","[[279,599],[578,412],[492,70],[141,45],[8,372]]","false","5","","","img/Fire_Up_Target.gif","[""img/Fire_Down_Distractor.gif"",""img/Fire_Down_Distractor.gif"",""img/Fire_Down_Distractor.gif"",""img/Fire_Down_Distractor.gif"",""img/Fire_Down_Distractor.gif"",""img/Fire_Down_Distractor.gif"",""img/Fire_Down_Distractor.gif"",""img/Fire_Down_Distractor.gif"",""img/Fire_Down_Distractor.gif"",""img/Fire_Down_Distractor.gif"",""img/Fire_Down_Distractor.gif"",""img/Fire_Down_Distractor.gif""]","targetUp_distractorsDown"
"","","","","","html-keyboard-response","34","112435","0.0-14.0-0.0-0.10","610aaf2df1bbcc04ce0d2237","6186fb1cc52d38b480598eb7","618736d109b6e6172cb04058","null","","null","","","","","fixation","","","",""
"","","","","","visual-search-circle","35","114492","0.0-14.0-0.0-1.10","610aaf2df1bbcc04ce0d2237","6186fb1cc52d38b480598eb7","618736d109b6e6172cb04058","1048.7999999523163","","d","true","[[458,45],[200,17],[16,201],[46,460],[267,598],[512,511],[598,265]]","true","7","","","img/Fire_Down_Target.gif","[""img/Fire_Up_Distractor.gif"",""img/Fire_Up_Distractor.gif"",""img/Fire_Up_Distractor.gif"",""img/Fire_Up_Distractor.gif"",""img/Fire_Up_Distractor.gif"",""img/Fire_Up_Distractor.gif"",""img/Fire_Up_Distractor.gif"",""img/Fire_Up_Distractor.gif"",""img/Fire_Up_Distractor.gif"",""img/Fire_Up_Distractor.gif"",""img/Fire_Up_Distractor.gif"",""img/Fire_Up_Distractor.gif""]","targetDown_distractorsUp"
"","","","","","html-keyboard-response","36","114502","0.0-14.0-0.0-0.11","610aaf2df1bbcc04ce0d2237","6186fb1cc52d38b480598eb7","618736d109b6e6172cb04058","null","","null","","","","","fixation","","","",""
"","","","","","visual-search-circle","37","116355","0.0-14.0-0.0-1.11","610aaf2df1bbcc04ce0d2237","6186fb1cc52d38b480598eb7","618736d109b6e6172cb04058","846.1000000238419","","d","true","[[192,580],[580,407],[407,19],[19,192]]","true","4","","","img/Fire_Up_Target.gif","[""img/Fire_Down_Distractor.gif"",""img/Fire_Down_Distractor.gif"",""img/Fire_Down_Distractor.gif"",""img/Fire_Down_Distractor.gif"",""img/Fire_Down_Distractor.gif"",""img/Fire_Down_Distractor.gif"",""img/Fire_Down_Distractor.gif"",""img/Fire_Down_Distractor.gif"",""img/Fire_Down_Distractor.gif"",""img/Fire_Down_Distractor.gif"",""img/Fire_Down_Distractor.gif"",""img/Fire_Down_Distractor.gif""]","targetUp_distractorsDown"
"","","","","","html-keyboard-response","38","116358","0.0-14.0-0.0-0.12","610aaf2df1bbcc04ce0d2237","6186fb1cc52d38b480598eb7","618736d109b6e6172cb04058","null","","null","","","","","fixation","","","",""
"","","","","","visual-search-circle","39","118339","0.0-14.0-0.0-1.12","610aaf2df1bbcc04ce0d2237","6186fb1cc52d38b480598eb7","618736d109b6e6172cb04058","973.7000000476837","","d","true","[[227,591],[554,458],[529,107],[187,21],[0,320]]","true","5","","","img/Fire_Down_Target.gif","[""img/Fire_Up_Distractor.gif"",""img/Fire_Up_Distractor.gif"",""img/Fire_Up_Distractor.gif"",""img/Fire_Up_Distractor.gif"",""img/Fire_Up_Distractor.gif"",""img/Fire_Up_Distractor.gif"",""img/Fire_Up_Distractor.gif"",""img/Fire_Up_Distractor.gif"",""img/Fire_Up_Distractor.gif"",""img/Fire_Up_Distractor.gif"",""img/Fire_Up_Distractor.gif"",""img/Fire_Up_Distractor.gif""]","targetDown_distractorsUp"
"","","","","","html-keyboard-response","40","118345","0.0-14.0-0.0-0.13","610aaf2df1bbcc04ce0d2237","6186fb1cc52d38b480598eb7","618736d109b6e6172cb04058","null","","null","","","","","fixation","","","",""
"","","","","","visual-search-circle","41","120456","0.0-14.0-0.0-1.13","610aaf2df1bbcc04ce0d2237","6186fb1cc52d38b480598eb7","618736d109b6e6172cb04058","1092.1999999284744","","d","false","[[136,48],[48,463],[463,551],[551,136]]","false","4","","","img/Fire_Down_Target.gif","[""img/Fire_Up_Distractor.gif"",""img/Fire_Up_Distractor.gif"",""img/Fire_Up_Distractor.gif"",""img/Fire_Up_Distractor.gif"",""img/Fire_Up_Distractor.gif"",""img/Fire_Up_Distractor.gif"",""img/Fire_Up_Distractor.gif"",""img/Fire_Up_Distractor.gif"",""img/Fire_Up_Distractor.gif"",""img/Fire_Up_Distractor.gif"",""img/Fire_Up_Distractor.gif"",""img/Fire_Up_Distractor.gif""]","targetDown_distractorsUp"
"","","","","","html-keyboard-response","42","120458","0.0-14.0-0.0-0.14","610aaf2df1bbcc04ce0d2237","6186fb1cc52d38b480598eb7","618736d109b6e6172cb04058","null","","null","","","","","fixation","","","",""
"","","","","","visual-search-circle","43","124749","0.0-14.0-0.0-1.14","610aaf2df1bbcc04ce0d2237","6186fb1cc52d38b480598eb7","618736d109b6e6172cb04058","3278.2000000476837","","d","true","[[95,519],[310,599],[519,504],[599,289],[504,80],[289,0],[80,95],[0,310]]","true","8","","","img/Fire_Down_Target.gif","[""img/Fire_Up_Distractor.gif"",""img/Fire_Up_Distractor.gif"",""img/Fire_Up_Distractor.gif"",""img/Fire_Up_Distractor.gif"",""img/Fire_Up_Distractor.gif"",""img/Fire_Up_Distractor.gif"",""img/Fire_Up_Distractor.gif"",""img/Fire_Up_Distractor.gif"",""img/Fire_Up_Distractor.gif"",""img/Fire_Up_Distractor.gif"",""img/Fire_Up_Distractor.gif"",""img/Fire_Up_Distractor.gif""]","targetDown_distractorsUp"
"","","","","","html-keyboard-response","44","124751","0.0-14.0-0.0-0.15","610aaf2df1bbcc04ce0d2237","6186fb1cc52d38b480598eb7","618736d109b6e6172cb04058","null","","null","","","","","fixation","","","",""
"","","","","","visual-search-circle","45","129228","0.0-14.0-0.0-1.15","610aaf2df1bbcc04ce0d2237","6186fb1cc52d38b480598eb7","618736d109b6e6172cb04058","3468.6999999284744","","d","false","[[488,533],[596,253],[407,19],[111,66],[3,346],[192,580]]","false","6","","","img/Fire_Down_Target.gif","[""img/Fire_Up_Distractor.gif"",""img/Fire_Up_Distractor.gif"",""img/Fire_Up_Distractor.gif"",""img/Fire_Up_Distractor.gif"",""img/Fire_Up_Distractor.gif"",""img/Fire_Up_Distractor.gif"",""img/Fire_Up_Distractor.gif"",""img/Fire_Up_Distractor.gif"",""img/Fire_Up_Distractor.gif"",""img/Fire_Up_Distractor.gif"",""img/Fire_Up_Distractor.gif"",""img/Fire_Up_Distractor.gif""]","targetDown_distractorsUp"
"","","","","","html-keyboard-response","46","129230","0.0-14.0-0.0-0.16","610aaf2df1bbcc04ce0d2237","6186fb1cc52d38b480598eb7","618736d109b6e6172cb04058","null","","null","","","","","fixation","","","",""
"","","","","","visual-search-circle","47","132302","0.0-14.0-0.0-1.16","610aaf2df1bbcc04ce0d2237","6186fb1cc52d38b480598eb7","618736d109b6e6172cb04058","2063","","s","true","[[426,571],[581,402],[571,173],[402,18],[173,28],[18,197],[28,426],[197,581]]","false","8","","","img/Fire_Down_Target.gif","[""img/Fire_Up_Distractor.gif"",""img/Fire_Up_Distractor.gif"",""img/Fire_Up_Distractor.gif"",""img/Fire_Up_Distractor.gif"",""img/Fire_Up_Distractor.gif"",""img/Fire_Up_Distractor.gif"",""img/Fire_Up_Distractor.gif"",""img/Fire_Up_Distractor.gif"",""img/Fire_Up_Distractor.gif"",""img/Fire_Up_Distractor.gif"",""img/Fire_Up_Distractor.gif"",""img/Fire_Up_Distractor.gif""]","targetDown_distractorsUp"
"","","","","","html-keyboard-response","48","132304","0.0-14.0-0.0-0.17","610aaf2df1bbcc04ce0d2237","6186fb1cc52d38b480598eb7","618736d109b6e6172cb04058","null","","null","","","","","fixation","","","",""
"","","","","","visual-search-circle","49","135198","0.0-14.0-0.0-1.17","610aaf2df1bbcc04ce0d2237","6186fb1cc52d38b480598eb7","618736d109b6e6172cb04058","1884.1000000238419","","s","false","[[37,445],[357,594],[597,336],[426,28],[80,95]]","true","5","","","img/Fire_Up_Target.gif","[""img/Fire_Down_Distractor.gif"",""img/Fire_Down_Distractor.gif"",""img/Fire_Down_Distractor.gif"",""img/Fire_Down_Distractor.gif"",""img/Fire_Down_Distractor.gif"",""img/Fire_Down_Distractor.gif"",""img/Fire_Down_Distractor.gif"",""img/Fire_Down_Distractor.gif"",""img/Fire_Down_Distractor.gif"",""img/Fire_Down_Distractor.gif"",""img/Fire_Down_Distractor.gif"",""img/Fire_Down_Distractor.gif""]","targetUp_distractorsDown"
"","","","","","html-keyboard-response","50","135200","0.0-14.0-0.0-0.18","610aaf2df1bbcc04ce0d2237","6186fb1cc52d38b480598eb7","618736d109b6e6172cb04058","null","","null","","","","","fixation","","","",""
"","","","","","visual-search-circle","51","138294","0.0-14.0-0.0-1.18","610aaf2df1bbcc04ce0d2237","6186fb1cc52d38b480598eb7","618736d109b6e6172cb04058","2084.3000000715256","","s","true","[[119,539],[539,480],[480,60],[60,119]]","false","4","","","img/Fire_Down_Target.gif","[""img/Fire_Up_Distractor.gif"",""img/Fire_Up_Distractor.gif"",""img/Fire_Up_Distractor.gif"",""img/Fire_Up_Distractor.gif"",""img/Fire_Up_Distractor.gif"",""img/Fire_Up_Distractor.gif"",""img/Fire_Up_Distractor.gif"",""img/Fire_Up_Distractor.gif"",""img/Fire_Up_Distractor.gif"",""img/Fire_Up_Distractor.gif"",""img/Fire_Up_Distractor.gif"",""img/Fire_Up_Distractor.gif""]","targetDown_distractorsUp"
"","","","","","html-keyboard-response","52","140396","0.0-14.0-0.0-0.19","610aaf2df1bbcc04ce0d2237","6186fb1cc52d38b480598eb7","618736d109b6e6172cb04058","2100.5","Wow! You've completed 20 out of 120 trials! </p> <p>  </p><p> Take a quick break, then press any key when you're ready to continue."," ","","","","","fixation","","","",""
"","","","","","visual-search-circle","53","143460","0.0-14.0-0.0-1.19","610aaf2df1bbcc04ce0d2237","6186fb1cc52d38b480598eb7","618736d109b6e6172cb04058","2051.899999976158","","s","true","[[30,168],[51,467],[320,599],[569,431],[548,132],[279,0]]","false","6","","","img/Fire_Up_Target.gif","[""img/Fire_Down_Distractor.gif"",""img/Fire_Down_Distractor.gif"",""img/Fire_Down_Distractor.gif"",""img/Fire_Down_Distractor.gif"",""img/Fire_Down_Distractor.gif"",""img/Fire_Down_Distractor.gif"",""img/Fire_Down_Distractor.gif"",""img/Fire_Down_Distractor.gif"",""img/Fire_Down_Distractor.gif"",""img/Fire_Down_Distractor.gif"",""img/Fire_Down_Distractor.gif"",""img/Fire_Down_Distractor.gif""]","targetUp_distractorsDown"
"","","","","","html-keyboard-response","54","143464","0.0-14.0-0.0-0.20","610aaf2df1bbcc04ce0d2237","6186fb1cc52d38b480598eb7","618736d109b6e6172cb04058","null","","null","","","","","fixation","","","",""
"","","","","","visual-search-circle","55","145917","0.0-14.0-0.0-1.20","610aaf2df1bbcc04ce0d2237","6186fb1cc52d38b480598eb7","618736d109b6e6172cb04058","1442.6000000238419","","d","true","[[3,346],[192,580],[488,533],[596,253],[407,19],[111,66]]","true","6","","","img/Fire_Down_Target.gif","[""img/Fire_Up_Distractor.gif"",""img/Fire_Up_Distractor.gif"",""img/Fire_Up_Distractor.gif"",""img/Fire_Up_Distractor.gif"",""img/Fire_Up_Distractor.gif"",""img/Fire_Up_Distractor.gif"",""img/Fire_Up_Distractor.gif"",""img/Fire_Up_Distractor.gif"",""img/Fire_Up_Distractor.gif"",""img/Fire_Up_Distractor.gif"",""img/Fire_Up_Distractor.gif"",""img/Fire_Up_Distractor.gif""]","targetDown_distractorsUp"
"","","","","","html-keyboard-response","56","145919","0.0-14.0-0.0-0.21","610aaf2df1bbcc04ce0d2237","6186fb1cc52d38b480598eb7","618736d109b6e6172cb04058","null","","null","","","","","fixation","","","",""
"","","","","","visual-search-circle","57","147790","0.0-14.0-0.0-1.21","610aaf2df1bbcc04ce0d2237","6186fb1cc52d38b480598eb7","618736d109b6e6172cb04058","855.3999999761581","","d","true","[[578,187],[341,2],[63,115],[21,412],[258,597],[536,484]]","true","6","","","img/Fire_Up_Target.gif","[""img/Fire_Down_Distractor.gif"",""img/Fire_Down_Distractor.gif"",""img/Fire_Down_Distractor.gif"",""img/Fire_Down_Distractor.gif"",""img/Fire_Down_Distractor.gif"",""img/Fire_Down_Distractor.gif"",""img/Fire_Down_Distractor.gif"",""img/Fire_Down_Distractor.gif"",""img/Fire_Down_Distractor.gif"",""img/Fire_Down_Distractor.gif"",""img/Fire_Down_Distractor.gif"",""img/Fire_Down_Distractor.gif""]","targetUp_distractorsDown"
"","","","","","html-keyboard-response","58","147798","0.0-14.0-0.0-0.22","610aaf2df1bbcc04ce0d2237","6186fb1cc52d38b480598eb7","618736d109b6e6172cb04058","null","","null","","","","","fixation","","","",""
"","","","","","visual-search-circle","59","150231","0.0-14.0-0.0-1.22","610aaf2df1bbcc04ce0d2237","6186fb1cc52d38b480598eb7","618736d109b6e6172cb04058","1418.5999999046326","","s","false","[[173,571],[433,568],[593,363],[532,110],[296,0],[63,115],[8,370]]","true","7","","","img/Fire_Up_Target.gif","[""img/Fire_Down_Distractor.gif"",""img/Fire_Down_Distractor.gif"",""img/Fire_Down_Distractor.gif"",""img/Fire_Down_Distractor.gif"",""img/Fire_Down_Distractor.gif"",""img/Fire_Down_Distractor.gif"",""img/Fire_Down_Distractor.gif"",""img/Fire_Down_Distractor.gif"",""img/Fire_Down_Distractor.gif"",""img/Fire_Down_Distractor.gif"",""img/Fire_Down_Distractor.gif"",""img/Fire_Down_Distractor.gif""]","targetUp_distractorsDown"
"","","","","","html-keyboard-response","60","150234","0.0-14.0-0.0-0.23","610aaf2df1bbcc04ce0d2237","6186fb1cc52d38b480598eb7","618736d109b6e6172cb04058","null","","null","","","","","fixation","","","",""
"","","","","","visual-search-circle","61","153551","0.0-14.0-0.0-1.23","610aaf2df1bbcc04ce0d2237","6186fb1cc52d38b480598eb7","618736d109b6e6172cb04058","2305.2999999523163","","s","false","[[80,504],[367,592],[586,387],[519,95],[232,7],[13,212]]","true","6","","","img/Fire_Up_Target.gif","[""img/Fire_Down_Distractor.gif"",""img/Fire_Down_Distractor.gif"",""img/Fire_Down_Distractor.gif"",""img/Fire_Down_Distractor.gif"",""img/Fire_Down_Distractor.gif"",""img/Fire_Down_Distractor.gif"",""img/Fire_Down_Distractor.gif"",""img/Fire_Down_Distractor.gif"",""img/Fire_Down_Distractor.gif"",""img/Fire_Down_Distractor.gif"",""img/Fire_Down_Distractor.gif"",""img/Fire_Down_Distractor.gif""]","targetUp_distractorsDown"
"","","","","","html-keyboard-response","62","153553","0.0-14.0-0.0-0.24","610aaf2df1bbcc04ce0d2237","6186fb1cc52d38b480598eb7","618736d109b6e6172cb04058","null","","null","","","","","fixation","","","",""
"","","","","","visual-search-circle","63","156411","0.0-14.0-0.0-1.24","610aaf2df1bbcc04ce0d2237","6186fb1cc52d38b480598eb7","618736d109b6e6172cb04058","1845.1000000238419","","s","true","[[37,445],[294,599],[557,454],[562,154],[305,0],[42,145]]","false","6","","","img/Fire_Up_Target.gif","[""img/Fire_Down_Distractor.gif"",""img/Fire_Down_Distractor.gif"",""img/Fire_Down_Distractor.gif"",""img/Fire_Down_Distractor.gif"",""img/Fire_Down_Distractor.gif"",""img/Fire_Down_Distractor.gif"",""img/Fire_Down_Distractor.gif"",""img/Fire_Down_Distractor.gif"",""img/Fire_Down_Distractor.gif"",""img/Fire_Down_Distractor.gif"",""img/Fire_Down_Distractor.gif"",""img/Fire_Down_Distractor.gif""]","targetUp_distractorsDown"
"","","","","","html-keyboard-response","64","156414","0.0-14.0-0.0-0.25","610aaf2df1bbcc04ce0d2237","6186fb1cc52d38b480598eb7","618736d109b6e6172cb04058","null","","null","","","","","fixation","","","",""
"","","","","","visual-search-circle","65","160852","0.0-14.0-0.0-1.25","610aaf2df1bbcc04ce0d2237","6186fb1cc52d38b480598eb7","618736d109b6e6172cb04058","3429","","d","true","[[10,377],[284,599],[580,407],[488,66],[136,48]]","true","5","","","img/Fire_Down_Target.gif","[""img/Fire_Up_Distractor.gif"",""img/Fire_Up_Distractor.gif"",""img/Fire_Up_Distractor.gif"",""img/Fire_Up_Distractor.gif"",""img/Fire_Up_Distractor.gif"",""img/Fire_Up_Distractor.gif"",""img/Fire_Up_Distractor.gif"",""img/Fire_Up_Distractor.gif"",""img/Fire_Up_Distractor.gif"",""img/Fire_Up_Distractor.gif"",""img/Fire_Up_Distractor.gif"",""img/Fire_Up_Distractor.gif""]","targetDown_distractorsUp"
"","","","","","html-keyboard-response","66","160858","0.0-14.0-0.0-0.26","610aaf2df1bbcc04ce0d2237","6186fb1cc52d38b480598eb7","618736d109b6e6172cb04058","null","","null","","","","","fixation","","","",""
"","","","","","visual-search-circle","67","164053","0.0-14.0-0.0-1.26","610aaf2df1bbcc04ce0d2237","6186fb1cc52d38b480598eb7","618736d109b6e6172cb04058","2185.7999999523163","","d","true","[[10,377],[180,574],[440,565],[594,355],[527,104],[288,0],[58,121]]","true","7","","","img/Fire_Down_Target.gif","[""img/Fire_Up_Distractor.gif"",""img/Fire_Up_Distractor.gif"",""img/Fire_Up_Distractor.gif"",""img/Fire_Up_Distractor.gif"",""img/Fire_Up_Distractor.gif"",""img/Fire_Up_Distractor.gif"",""img/Fire_Up_Distractor.gif"",""img/Fire_Up_Distractor.gif"",""img/Fire_Up_Distractor.gif"",""img/Fire_Up_Distractor.gif"",""img/Fire_Up_Distractor.gif"",""img/Fire_Up_Distractor.gif""]","targetDown_distractorsUp"
"","","","","","html-keyboard-response","68","164063","0.0-14.0-0.0-0.27","610aaf2df1bbcc04ce0d2237","6186fb1cc52d38b480598eb7","618736d109b6e6172cb04058","null","","null","","","","","fixation","","","",""
"","","","","","visual-search-circle","69","165848","0.0-14.0-0.0-1.27","610aaf2df1bbcc04ce0d2237","6186fb1cc52d38b480598eb7","618736d109b6e6172cb04058","775.2999999523163","","d","true","[[268,1],[1,331],[331,598],[598,268]]","true","4","","","img/Fire_Down_Target.gif","[""img/Fire_Up_Distractor.gif"",""img/Fire_Up_Distractor.gif"",""img/Fire_Up_Distractor.gif"",""img/Fire_Up_Distractor.gif"",""img/Fire_Up_Distractor.gif"",""img/Fire_Up_Distractor.gif"",""img/Fire_Up_Distractor.gif"",""img/Fire_Up_Distractor.gif"",""img/Fire_Up_Distractor.gif"",""img/Fire_Up_Distractor.gif"",""img/Fire_Up_Distractor.gif"",""img/Fire_Up_Distractor.gif""]","targetDown_distractorsUp"
"","","","","","html-keyboard-response","70","165852","0.0-14.0-0.0-0.28","610aaf2df1bbcc04ce0d2237","6186fb1cc52d38b480598eb7","618736d109b6e6172cb04058","null","","null","","","","","fixation","","","",""
"","","","","","visual-search-circle","71","167919","0.0-14.0-0.0-1.28","610aaf2df1bbcc04ce0d2237","6186fb1cc52d38b480598eb7","618736d109b6e6172cb04058","1058.8999999761581","","d","true","[[173,571],[519,504],[562,154],[242,5],[2,263]]","true","5","","","img/Fire_Up_Target.gif","[""img/Fire_Down_Distractor.gif"",""img/Fire_Down_Distractor.gif"",""img/Fire_Down_Distractor.gif"",""img/Fire_Down_Distractor.gif"",""img/Fire_Down_Distractor.gif"",""img/Fire_Down_Distractor.gif"",""img/Fire_Down_Distractor.gif"",""img/Fire_Down_Distractor.gif"",""img/Fire_Down_Distractor.gif"",""img/Fire_Down_Distractor.gif"",""img/Fire_Down_Distractor.gif"",""img/Fire_Down_Distractor.gif""]","targetUp_distractorsDown"
"","","","","","html-keyboard-response","72","167922","0.0-14.0-0.0-0.29","610aaf2df1bbcc04ce0d2237","6186fb1cc52d38b480598eb7","618736d109b6e6172cb04058","null","","null","","","","","fixation","","","",""
"","","","","","visual-search-circle","73","170110","0.0-14.0-0.0-1.29","610aaf2df1bbcc04ce0d2237","6186fb1cc52d38b480598eb7","618736d109b6e6172cb04058","1179.3999999761581","","s","true","[[35,159],[24,419],[221,589],[477,541],[599,311],[496,73],[244,5]]","false","7","","","img/Fire_Down_Target.gif","[""img/Fire_Up_Distractor.gif"",""img/Fire_Up_Distractor.gif"",""img/Fire_Up_Distractor.gif"",""img/Fire_Up_Distractor.gif"",""img/Fire_Up_Distractor.gif"",""img/Fire_Up_Distractor.gif"",""img/Fire_Up_Distractor.gif"",""img/Fire_Up_Distractor.gif"",""img/Fire_Up_Distractor.gif"",""img/Fire_Up_Distractor.gif"",""img/Fire_Up_Distractor.gif"",""img/Fire_Up_Distractor.gif""]","targetDown_distractorsUp"
"","","","","","html-keyboard-response","74","170118","0.0-14.0-0.0-0.30","610aaf2df1bbcc04ce0d2237","6186fb1cc52d38b480598eb7","618736d109b6e6172cb04058","null","","null","","","","","fixation","","","",""
"","","","","","visual-search-circle","75","172152","0.0-14.0-0.0-1.30","610aaf2df1bbcc04ce0d2237","6186fb1cc52d38b480598eb7","618736d109b6e6172cb04058","1023.3000000715256","","s","true","[[294,599],[557,454],[562,154],[305,0],[42,145],[37,445]]","false","6","","","img/Fire_Down_Target.gif","[""img/Fire_Up_Distractor.gif"",""img/Fire_Up_Distractor.gif"",""img/Fire_Up_Distractor.gif"",""img/Fire_Up_Distractor.gif"",""img/Fire_Up_Distractor.gif"",""img/Fire_Up_Distractor.gif"",""img/Fire_Up_Distractor.gif"",""img/Fire_Up_Distractor.gif"",""img/Fire_Up_Distractor.gif"",""img/Fire_Up_Distractor.gif"",""img/Fire_Up_Distractor.gif"",""img/Fire_Up_Distractor.gif""]","targetDown_distractorsUp"
"","","","","","html-keyboard-response","76","172157","0.0-14.0-0.0-0.31","610aaf2df1bbcc04ce0d2237","6186fb1cc52d38b480598eb7","618736d109b6e6172cb04058","null","","null","","","","","fixation","","","",""
"","","","","","visual-search-circle","77","174589","0.0-14.0-0.0-1.31","610aaf2df1bbcc04ce0d2237","6186fb1cc52d38b480598eb7","618736d109b6e6172cb04058","1424.8999999761581","","s","false","[[3,253],[78,502],[320,599],[546,470],[587,213],[411,21],[151,39]]","true","7","","","img/Fire_Up_Target.gif","[""img/Fire_Down_Distractor.gif"",""img/Fire_Down_Distractor.gif"",""img/Fire_Down_Distractor.gif"",""img/Fire_Down_Distractor.gif"",""img/Fire_Down_Distractor.gif"",""img/Fire_Down_Distractor.gif"",""img/Fire_Down_Distractor.gif"",""img/Fire_Down_Distractor.gif"",""img/Fire_Down_Distractor.gif"",""img/Fire_Down_Distractor.gif"",""img/Fire_Down_Distractor.gif"",""img/Fire_Down_Distractor.gif""]","targetUp_distractorsDown"
"","","","","","html-keyboard-response","78","174591","0.0-14.0-0.0-0.32","610aaf2df1bbcc04ce0d2237","6186fb1cc52d38b480598eb7","618736d109b6e6172cb04058","null","","null","","","","","fixation","","","",""
"","","","","","visual-search-circle","79","177239","0.0-14.0-0.0-1.32","610aaf2df1bbcc04ce0d2237","6186fb1cc52d38b480598eb7","618736d109b6e6172cb04058","1637.5999999046326","","s","false","[[159,35],[0,289],[141,554],[440,564],[599,310],[458,45]]","true","6","","","img/Fire_Up_Target.gif","[""img/Fire_Down_Distractor.gif"",""img/Fire_Down_Distractor.gif"",""img/Fire_Down_Distractor.gif"",""img/Fire_Down_Distractor.gif"",""img/Fire_Down_Distractor.gif"",""img/Fire_Down_Distractor.gif"",""img/Fire_Down_Distractor.gif"",""img/Fire_Down_Distractor.gif"",""img/Fire_Down_Distractor.gif"",""img/Fire_Down_Distractor.gif"",""img/Fire_Down_Distractor.gif"",""img/Fire_Down_Distractor.gif""]","targetUp_distractorsDown"
"","","","","","html-keyboard-response","80","177241","0.0-14.0-0.0-0.33","610aaf2df1bbcc04ce0d2237","6186fb1cc52d38b480598eb7","618736d109b6e6172cb04058","null","","null","","","","","fixation","","","",""
"","","","","","visual-search-circle","81","179780","0.0-14.0-0.0-1.33","610aaf2df1bbcc04ce0d2237","6186fb1cc52d38b480598eb7","618736d109b6e6172cb04058","1524.2999999523163","","s","true","[[431,30],[202,16],[30,168],[16,397],[168,569],[397,583],[569,431],[583,202]]","false","8","","","img/Fire_Up_Target.gif","[""img/Fire_Down_Distractor.gif"",""img/Fire_Down_Distractor.gif"",""img/Fire_Down_Distractor.gif"",""img/Fire_Down_Distractor.gif"",""img/Fire_Down_Distractor.gif"",""img/Fire_Down_Distractor.gif"",""img/Fire_Down_Distractor.gif"",""img/Fire_Down_Distractor.gif"",""img/Fire_Down_Distractor.gif"",""img/Fire_Down_Distractor.gif"",""img/Fire_Down_Distractor.gif"",""img/Fire_Down_Distractor.gif""]","targetUp_distractorsDown"
"","","","","","html-keyboard-response","82","179782","0.0-14.0-0.0-0.34","610aaf2df1bbcc04ce0d2237","6186fb1cc52d38b480598eb7","618736d109b6e6172cb04058","null","","null","","","","","fixation","","","",""
"","","","","","visual-search-circle","83","182788","0.0-14.0-0.0-1.34","610aaf2df1bbcc04ce0d2237","6186fb1cc52d38b480598eb7","618736d109b6e6172cb04058","1986.8999999761581","","s","true","[[32,163],[14,392],[163,567],[392,585],[567,436],[585,207],[436,32],[207,14]]","false","8","","","img/Fire_Up_Target.gif","[""img/Fire_Down_Distractor.gif"",""img/Fire_Down_Distractor.gif"",""img/Fire_Down_Distractor.gif"",""img/Fire_Down_Distractor.gif"",""img/Fire_Down_Distractor.gif"",""img/Fire_Down_Distractor.gif"",""img/Fire_Down_Distractor.gif"",""img/Fire_Down_Distractor.gif"",""img/Fire_Down_Distractor.gif"",""img/Fire_Down_Distractor.gif"",""img/Fire_Down_Distractor.gif"",""img/Fire_Down_Distractor.gif""]","targetUp_distractorsDown"
"","","","","","html-keyboard-response","84","182798","0.0-14.0-0.0-0.35","610aaf2df1bbcc04ce0d2237","6186fb1cc52d38b480598eb7","618736d109b6e6172cb04058","null","","null","","","","","fixation","","","",""
"","","","","","visual-search-circle","85","184762","0.0-14.0-0.0-1.35","610aaf2df1bbcc04ce0d2237","6186fb1cc52d38b480598eb7","618736d109b6e6172cb04058","942","","d","true","[[596,346],[521,97],[279,0],[53,129],[12,386],[188,578],[448,560]]","true","7","","","img/Fire_Down_Target.gif","[""img/Fire_Up_Distractor.gif"",""img/Fire_Up_Distractor.gif"",""img/Fire_Up_Distractor.gif"",""img/Fire_Up_Distractor.gif"",""img/Fire_Up_Distractor.gif"",""img/Fire_Up_Distractor.gif"",""img/Fire_Up_Distractor.gif"",""img/Fire_Up_Distractor.gif"",""img/Fire_Up_Distractor.gif"",""img/Fire_Up_Distractor.gif"",""img/Fire_Up_Distractor.gif"",""img/Fire_Up_Distractor.gif""]","targetDown_distractorsUp"
"","","","","","html-keyboard-response","86","184769","0.0-14.0-0.0-0.36","610aaf2df1bbcc04ce0d2237","6186fb1cc52d38b480598eb7","618736d109b6e6172cb04058","null","","null","","","","","fixation","","","",""
"","","","","","visual-search-circle","87","187055","0.0-14.0-0.0-1.36","610aaf2df1bbcc04ce0d2237","6186fb1cc52d38b480598eb7","618736d109b6e6172cb04058","1274.5","","d","true","[[492,70],[273,1],[70,107],[1,326],[107,529],[326,598],[529,492],[598,273]]","true","8","","","img/Fire_Up_Target.gif","[""img/Fire_Down_Distractor.gif"",""img/Fire_Down_Distractor.gif"",""img/Fire_Down_Distractor.gif"",""img/Fire_Down_Distractor.gif"",""img/Fire_Down_Distractor.gif"",""img/Fire_Down_Distractor.gif"",""img/Fire_Down_Distractor.gif"",""img/Fire_Down_Distractor.gif"",""img/Fire_Down_Distractor.gif"",""img/Fire_Down_Distractor.gif"",""img/Fire_Down_Distractor.gif"",""img/Fire_Down_Distractor.gif""]","targetUp_distractorsDown"
"","","","","","html-keyboard-response","88","187060","0.0-14.0-0.0-0.37","610aaf2df1bbcc04ce0d2237","6186fb1cc52d38b480598eb7","618736d109b6e6172cb04058","null","","null","","","","","fixation","","","",""
"","","","","","visual-search-circle","89","191167","0.0-14.0-0.0-1.37","610aaf2df1bbcc04ce0d2237","6186fb1cc52d38b480598eb7","618736d109b6e6172cb04058","3091.100000023842","","s","true","[[588,217],[445,37],[217,11],[37,154],[11,382],[154,562],[382,588],[562,445]]","false","8","","","img/Fire_Down_Target.gif","[""img/Fire_Up_Distractor.gif"",""img/Fire_Up_Distractor.gif"",""img/Fire_Up_Distractor.gif"",""img/Fire_Up_Distractor.gif"",""img/Fire_Up_Distractor.gif"",""img/Fire_Up_Distractor.gif"",""img/Fire_Up_Distractor.gif"",""img/Fire_Up_Distractor.gif"",""img/Fire_Up_Distractor.gif"",""img/Fire_Up_Distractor.gif"",""img/Fire_Up_Distractor.gif"",""img/Fire_Up_Distractor.gif""]","targetDown_distractorsUp"
"","","","","","html-keyboard-response","90","191169","0.0-14.0-0.0-0.38","610aaf2df1bbcc04ce0d2237","6186fb1cc52d38b480598eb7","618736d109b6e6172cb04058","null","","null","","","","","fixation","","","",""
"","","","","","visual-search-circle","91","193982","0.0-14.0-0.0-1.38","610aaf2df1bbcc04ce0d2237","6186fb1cc52d38b480598eb7","618736d109b6e6172cb04058","1796","","s","true","[[1,331],[331,598],[598,268],[268,1]]","false","4","","","img/Fire_Up_Target.gif","[""img/Fire_Down_Distractor.gif"",""img/Fire_Down_Distractor.gif"",""img/Fire_Down_Distractor.gif"",""img/Fire_Down_Distractor.gif"",""img/Fire_Down_Distractor.gif"",""img/Fire_Down_Distractor.gif"",""img/Fire_Down_Distractor.gif"",""img/Fire_Down_Distractor.gif"",""img/Fire_Down_Distractor.gif"",""img/Fire_Down_Distractor.gif"",""img/Fire_Down_Distractor.gif"",""img/Fire_Down_Distractor.gif""]","targetUp_distractorsDown"
"","","","","","html-keyboard-response","92","195031","0.0-14.0-0.0-0.39","610aaf2df1bbcc04ce0d2237","6186fb1cc52d38b480598eb7","618736d109b6e6172cb04058","1048.1000000238419","Wow! You've completed 40 out of 120 trials! </p> <p>  </p><p> Take a quick break, then press any key when you're ready to continue."," ","","","","","fixation","","","",""
"","","","","","visual-search-circle","93","198538","0.0-14.0-0.0-1.39","610aaf2df1bbcc04ce0d2237","6186fb1cc52d38b480598eb7","618736d109b6e6172cb04058","2496.100000023842","","d","true","[[63,484],[341,597],[578,412],[536,115],[258,2],[21,187]]","true","6","","","img/Fire_Up_Target.gif","[""img/Fire_Down_Distractor.gif"",""img/Fire_Down_Distractor.gif"",""img/Fire_Down_Distractor.gif"",""img/Fire_Down_Distractor.gif"",""img/Fire_Down_Distractor.gif"",""img/Fire_Down_Distractor.gif"",""img/Fire_Down_Distractor.gif"",""img/Fire_Down_Distractor.gif"",""img/Fire_Down_Distractor.gif"",""img/Fire_Down_Distractor.gif"",""img/Fire_Down_Distractor.gif"",""img/Fire_Down_Distractor.gif""]","targetUp_distractorsDown"
"","","","","","html-keyboard-response","94","198546","0.0-14.0-0.0-0.40","610aaf2df1bbcc04ce0d2237","6186fb1cc52d38b480598eb7","618736d109b6e6172cb04058","null","","null","","","","","fixation","","","",""
"","","","","","visual-search-circle","95","202577","0.0-14.0-0.0-1.40","610aaf2df1bbcc04ce0d2237","6186fb1cc52d38b480598eb7","618736d109b6e6172cb04058","3019.100000023842","","s","true","[[23,417],[263,597],[539,480],[576,182],[336,2],[60,119]]","false","6","","","img/Fire_Up_Target.gif","[""img/Fire_Down_Distractor.gif"",""img/Fire_Down_Distractor.gif"",""img/Fire_Down_Distractor.gif"",""img/Fire_Down_Distractor.gif"",""img/Fire_Down_Distractor.gif"",""img/Fire_Down_Distractor.gif"",""img/Fire_Down_Distractor.gif"",""img/Fire_Down_Distractor.gif"",""img/Fire_Down_Distractor.gif"",""img/Fire_Down_Distractor.gif"",""img/Fire_Down_Distractor.gif"",""img/Fire_Down_Distractor.gif""]","targetUp_distractorsDown"
"","","","","","html-keyboard-response","96","202579","0.0-14.0-0.0-0.41","610aaf2df1bbcc04ce0d2237","6186fb1cc52d38b480598eb7","618736d109b6e6172cb04058","null","","null","","","","","fixation","","","",""
"","","","","","visual-search-circle","97","204719","0.0-14.0-0.0-1.41","610aaf2df1bbcc04ce0d2237","6186fb1cc52d38b480598eb7","618736d109b6e6172cb04058","1129","","s","true","[[14,207],[207,585],[585,392],[392,14]]","false","4","","","img/Fire_Up_Target.gif","[""img/Fire_Down_Distractor.gif"",""img/Fire_Down_Distractor.gif"",""img/Fire_Down_Distractor.gif"",""img/Fire_Down_Distractor.gif"",""img/Fire_Down_Distractor.gif"",""img/Fire_Down_Distractor.gif"",""img/Fire_Down_Distractor.gif"",""img/Fire_Down_Distractor.gif"",""img/Fire_Down_Distractor.gif"",""img/Fire_Down_Distractor.gif"",""img/Fire_Down_Distractor.gif"",""img/Fire_Down_Distractor.gif""]","targetUp_distractorsDown"
"","","","","","html-keyboard-response","98","204723","0.0-14.0-0.0-0.42","610aaf2df1bbcc04ce0d2237","6186fb1cc52d38b480598eb7","618736d109b6e6172cb04058","null","","null","","","","","fixation","","","",""
"","","","","","visual-search-circle","99","206581","0.0-14.0-0.0-1.42","610aaf2df1bbcc04ce0d2237","6186fb1cc52d38b480598eb7","618736d109b6e6172cb04058","848","","s","true","[[294,0],[37,154],[42,454],[305,599],[562,445],[557,145]]","false","6","","","img/Fire_Up_Target.gif","[""img/Fire_Down_Distractor.gif"",""img/Fire_Down_Distractor.gif"",""img/Fire_Down_Distractor.gif"",""img/Fire_Down_Distractor.gif"",""img/Fire_Down_Distractor.gif"",""img/Fire_Down_Distractor.gif"",""img/Fire_Down_Distractor.gif"",""img/Fire_Down_Distractor.gif"",""img/Fire_Down_Distractor.gif"",""img/Fire_Down_Distractor.gif"",""img/Fire_Down_Distractor.gif"",""img/Fire_Down_Distractor.gif""]","targetUp_distractorsDown"
"","","","","","html-keyboard-response","100","206590","0.0-14.0-0.0-0.43","610aaf2df1bbcc04ce0d2237","6186fb1cc52d38b480598eb7","618736d109b6e6172cb04058","null","","null","","","","","fixation","","","",""
"","","","","","visual-search-circle","101","209109","0.0-14.0-0.0-1.43","610aaf2df1bbcc04ce0d2237","6186fb1cc52d38b480598eb7","618736d109b6e6172cb04058","1508","","s","true","[[402,18],[173,28],[18,197],[28,426],[197,581],[426,571],[581,402],[571,173]]","false","8","","","img/Fire_Down_Target.gif","[""img/Fire_Up_Distractor.gif"",""img/Fire_Up_Distractor.gif"",""img/Fire_Up_Distractor.gif"",""img/Fire_Up_Distractor.gif"",""img/Fire_Up_Distractor.gif"",""img/Fire_Up_Distractor.gif"",""img/Fire_Up_Distractor.gif"",""img/Fire_Up_Distractor.gif"",""img/Fire_Up_Distractor.gif"",""img/Fire_Up_Distractor.gif"",""img/Fire_Up_Distractor.gif"",""img/Fire_Up_Distractor.gif""]","targetDown_distractorsUp"
"","","","","","html-keyboard-response","102","209112","0.0-14.0-0.0-0.44","610aaf2df1bbcc04ce0d2237","6186fb1cc52d38b480598eb7","618736d109b6e6172cb04058","null","","null","","","","","fixation","","","",""
"","","","","","visual-search-circle","103","211532","0.0-14.0-0.0-1.44","610aaf2df1bbcc04ce0d2237","6186fb1cc52d38b480598eb7","618736d109b6e6172cb04058","1409.0999999046326","","s","true","[[5,242],[154,562],[504,519],[571,173],[263,2]]","false","5","","","img/Fire_Down_Target.gif","[""img/Fire_Up_Distractor.gif"",""img/Fire_Up_Distractor.gif"",""img/Fire_Up_Distractor.gif"",""img/Fire_Up_Distractor.gif"",""img/Fire_Up_Distractor.gif"",""img/Fire_Up_Distractor.gif"",""img/Fire_Up_Distractor.gif"",""img/Fire_Up_Distractor.gif"",""img/Fire_Up_Distractor.gif"",""img/Fire_Up_Distractor.gif"",""img/Fire_Up_Distractor.gif"",""img/Fire_Up_Distractor.gif""]","targetDown_distractorsUp"
"","","","","","html-keyboard-response","104","211540","0.0-14.0-0.0-0.45","610aaf2df1bbcc04ce0d2237","6186fb1cc52d38b480598eb7","618736d109b6e6172cb04058","null","","null","","","","","fixation","","","",""
"","","","","","visual-search-circle","105","216520","0.0-14.0-0.0-1.45","610aaf2df1bbcc04ce0d2237","6186fb1cc52d38b480598eb7","618736d109b6e6172cb04058","3972","","d","false","[[515,91],[168,30],[2,341],[247,595],[564,440]]","false","5","","","img/Fire_Up_Target.gif","[""img/Fire_Down_Distractor.gif"",""img/Fire_Down_Distractor.gif"",""img/Fire_Down_Distractor.gif"",""img/Fire_Down_Distractor.gif"",""img/Fire_Down_Distractor.gif"",""img/Fire_Down_Distractor.gif"",""img/Fire_Down_Distractor.gif"",""img/Fire_Down_Distractor.gif"",""img/Fire_Down_Distractor.gif"",""img/Fire_Down_Distractor.gif"",""img/Fire_Down_Distractor.gif"",""img/Fire_Down_Distractor.gif""]","targetUp_distractorsDown"
"","","","","","html-keyboard-response","106","216522","0.0-14.0-0.0-0.46","610aaf2df1bbcc04ce0d2237","6186fb1cc52d38b480598eb7","618736d109b6e6172cb04058","null","","null","","","","","fixation","","","",""
"","","","","","visual-search-circle","107","219188","0.0-14.0-0.0-1.46","610aaf2df1bbcc04ce0d2237","6186fb1cc52d38b480598eb7","618736d109b6e6172cb04058","1647.6000000238419","","s","true","[[315,0],[0,284],[284,599],[599,315]]","false","4","","","img/Fire_Down_Target.gif","[""img/Fire_Up_Distractor.gif"",""img/Fire_Up_Distractor.gif"",""img/Fire_Up_Distractor.gif"",""img/Fire_Up_Distractor.gif"",""img/Fire_Up_Distractor.gif"",""img/Fire_Up_Distractor.gif"",""img/Fire_Up_Distractor.gif"",""img/Fire_Up_Distractor.gif"",""img/Fire_Up_Distractor.gif"",""img/Fire_Up_Distractor.gif"",""img/Fire_Up_Distractor.gif"",""img/Fire_Up_Distractor.gif""]","targetDown_distractorsUp"
"","","","","","html-keyboard-response","108","219194","0.0-14.0-0.0-0.47","610aaf2df1bbcc04ce0d2237","6186fb1cc52d38b480598eb7","618736d109b6e6172cb04058","null","","null","","","","","fixation","","","",""
"","","","","","visual-search-circle","109","221855","0.0-14.0-0.0-1.47","610aaf2df1bbcc04ce0d2237","6186fb1cc52d38b480598eb7","618736d109b6e6172cb04058","1644.2000000476837","","s","true","[[571,173],[370,8],[115,63],[0,296],[110,532],[363,593],[568,433]]","false","7","","","img/Fire_Down_Target.gif","[""img/Fire_Up_Distractor.gif"",""img/Fire_Up_Distractor.gif"",""img/Fire_Up_Distractor.gif"",""img/Fire_Up_Distractor.gif"",""img/Fire_Up_Distractor.gif"",""img/Fire_Up_Distractor.gif"",""img/Fire_Up_Distractor.gif"",""img/Fire_Up_Distractor.gif"",""img/Fire_Up_Distractor.gif"",""img/Fire_Up_Distractor.gif"",""img/Fire_Up_Distractor.gif"",""img/Fire_Up_Distractor.gif""]","targetDown_distractorsUp"
"","","","","","html-keyboard-response","110","221858","0.0-14.0-0.0-0.48","610aaf2df1bbcc04ce0d2237","6186fb1cc52d38b480598eb7","618736d109b6e6172cb04058","null","","null","","","","","fixation","","","",""
"","","","","","visual-search-circle","111","223656","0.0-14.0-0.0-1.48","610aaf2df1bbcc04ce0d2237","6186fb1cc52d38b480598eb7","618736d109b6e6172cb04058","789.2000000476837","","d","true","[[28,173],[31,433],[236,593],[489,532],[599,296],[484,63],[229,8]]","true","7","","","img/Fire_Down_Target.gif","[""img/Fire_Up_Distractor.gif"",""img/Fire_Up_Distractor.gif"",""img/Fire_Up_Distractor.gif"",""img/Fire_Up_Distractor.gif"",""img/Fire_Up_Distractor.gif"",""img/Fire_Up_Distractor.gif"",""img/Fire_Up_Distractor.gif"",""img/Fire_Up_Distractor.gif"",""img/Fire_Up_Distractor.gif"",""img/Fire_Up_Distractor.gif"",""img/Fire_Up_Distractor.gif"",""img/Fire_Up_Distractor.gif""]","targetDown_distractorsUp"
"","","","","","html-keyboard-response","112","223658","0.0-14.0-0.0-0.49","610aaf2df1bbcc04ce0d2237","6186fb1cc52d38b480598eb7","618736d109b6e6172cb04058","null","","null","","","","","fixation","","","",""
"","","","","","visual-search-circle","113","225606","0.0-14.0-0.0-1.49","610aaf2df1bbcc04ce0d2237","6186fb1cc52d38b480598eb7","618736d109b6e6172cb04058","937.2000000476837","","s","true","[[574,422],[580,192],[422,25],[192,19],[25,177],[19,407],[177,574],[407,580]]","false","8","","","img/Fire_Down_Target.gif","[""img/Fire_Up_Distractor.gif"",""img/Fire_Up_Distractor.gif"",""img/Fire_Up_Distractor.gif"",""img/Fire_Up_Distractor.gif"",""img/Fire_Up_Distractor.gif"",""img/Fire_Up_Distractor.gif"",""img/Fire_Up_Distractor.gif"",""img/Fire_Up_Distractor.gif"",""img/Fire_Up_Distractor.gif"",""img/Fire_Up_Distractor.gif"",""img/Fire_Up_Distractor.gif"",""img/Fire_Up_Distractor.gif""]","targetDown_distractorsUp"
"","","","","","html-keyboard-response","114","225608","0.0-14.0-0.0-0.50","610aaf2df1bbcc04ce0d2237","6186fb1cc52d38b480598eb7","618736d109b6e6172cb04058","null","","null","","","","","fixation","","","",""
"","","","","","visual-search-circle","115","227889","0.0-14.0-0.0-1.50","610aaf2df1bbcc04ce0d2237","6186fb1cc52d38b480598eb7","618736d109b6e6172cb04058","1269.6000000238419","","d","true","[[263,2],[63,115],[2,336],[115,536],[336,597],[536,484],[597,263],[484,63]]","true","8","","","img/Fire_Down_Target.gif","[""img/Fire_Up_Distractor.gif"",""img/Fire_Up_Distractor.gif"",""img/Fire_Up_Distractor.gif"",""img/Fire_Up_Distractor.gif"",""img/Fire_Up_Distractor.gif"",""img/Fire_Up_Distractor.gif"",""img/Fire_Up_Distractor.gif"",""img/Fire_Up_Distractor.gif"",""img/Fire_Up_Distractor.gif"",""img/Fire_Up_Distractor.gif"",""img/Fire_Up_Distractor.gif"",""img/Fire_Up_Distractor.gif""]","targetDown_distractorsUp"
"","","","","","html-keyboard-response","116","227895","0.0-14.0-0.0-0.51","610aaf2df1bbcc04ce0d2237","6186fb1cc52d38b480598eb7","618736d109b6e6172cb04058","null","","null","","","","","fixation","","","",""
"","","","","","visual-search-circle","117","230051","0.0-14.0-0.0-1.51","610aaf2df1bbcc04ce0d2237","6186fb1cc52d38b480598eb7","618736d109b6e6172cb04058","1144.8000000715256","","s","true","[[450,40],[222,10],[40,150],[10,377],[149,559],[377,589],[559,450],[589,222]]","false","8","","","img/Fire_Down_Target.gif","[""img/Fire_Up_Distractor.gif"",""img/Fire_Up_Distractor.gif"",""img/Fire_Up_Distractor.gif"",""img/Fire_Up_Distractor.gif"",""img/Fire_Up_Distractor.gif"",""img/Fire_Up_Distractor.gif"",""img/Fire_Up_Distractor.gif"",""img/Fire_Up_Distractor.gif"",""img/Fire_Up_Distractor.gif"",""img/Fire_Up_Distractor.gif"",""img/Fire_Up_Distractor.gif"",""img/Fire_Up_Distractor.gif""]","targetDown_distractorsUp"
"","","","","","html-keyboard-response","118","230054","0.0-14.0-0.0-0.52","610aaf2df1bbcc04ce0d2237","6186fb1cc52d38b480598eb7","618736d109b6e6172cb04058","null","","null","","","","","fixation","","","",""
"","","","","","visual-search-circle","119","232063","0.0-14.0-0.0-1.52","610aaf2df1bbcc04ce0d2237","6186fb1cc52d38b480598eb7","618736d109b6e6172cb04058","994.5","","d","true","[[422,25],[123,57],[1,331],[177,574],[476,542],[598,268]]","true","6","","","img/Fire_Down_Target.gif","[""img/Fire_Up_Distractor.gif"",""img/Fire_Up_Distractor.gif"",""img/Fire_Up_Distractor.gif"",""img/Fire_Up_Distractor.gif"",""img/Fire_Up_Distractor.gif"",""img/Fire_Up_Distractor.gif"",""img/Fire_Up_Distractor.gif"",""img/Fire_Up_Distractor.gif"",""img/Fire_Up_Distractor.gif"",""img/Fire_Up_Distractor.gif"",""img/Fire_Up_Distractor.gif"",""img/Fire_Up_Distractor.gif""]","targetDown_distractorsUp"
"","","","","","html-keyboard-response","120","232068","0.0-14.0-0.0-0.53","610aaf2df1bbcc04ce0d2237","6186fb1cc52d38b480598eb7","618736d109b6e6172cb04058","null","","null","","","","","fixation","","","",""
"","","","","","visual-search-circle","121","233972","0.0-14.0-0.0-1.53","610aaf2df1bbcc04ce0d2237","6186fb1cc52d38b480598eb7","618736d109b6e6172cb04058","889","","d","true","[[467,548],[599,323],[505,81],[256,3],[40,148],[20,408],[210,586]]","true","7","","","img/Fire_Up_Target.gif","[""img/Fire_Down_Distractor.gif"",""img/Fire_Down_Distractor.gif"",""img/Fire_Down_Distractor.gif"",""img/Fire_Down_Distractor.gif"",""img/Fire_Down_Distractor.gif"",""img/Fire_Down_Distractor.gif"",""img/Fire_Down_Distractor.gif"",""img/Fire_Down_Distractor.gif"",""img/Fire_Down_Distractor.gif"",""img/Fire_Down_Distractor.gif"",""img/Fire_Down_Distractor.gif"",""img/Fire_Down_Distractor.gif""]","targetUp_distractorsDown"
"","","","","","html-keyboard-response","122","233977","0.0-14.0-0.0-0.54","610aaf2df1bbcc04ce0d2237","6186fb1cc52d38b480598eb7","618736d109b6e6172cb04058","null","","null","","","","","fixation","","","",""
"","","","","","visual-search-circle","123","236903","0.0-14.0-0.0-1.54","610aaf2df1bbcc04ce0d2237","6186fb1cc52d38b480598eb7","618736d109b6e6172cb04058","1918.3999999761581","","s","true","[[597,258],[452,41],[193,19],[14,208],[50,466],[274,598],[517,506]]","false","7","","","img/Fire_Up_Target.gif","[""img/Fire_Down_Distractor.gif"",""img/Fire_Down_Distractor.gif"",""img/Fire_Down_Distractor.gif"",""img/Fire_Down_Distractor.gif"",""img/Fire_Down_Distractor.gif"",""img/Fire_Down_Distractor.gif"",""img/Fire_Down_Distractor.gif"",""img/Fire_Down_Distractor.gif"",""img/Fire_Down_Distractor.gif"",""img/Fire_Down_Distractor.gif"",""img/Fire_Down_Distractor.gif"",""img/Fire_Down_Distractor.gif""]","targetUp_distractorsDown"
"","","","","","html-keyboard-response","124","236918","0.0-14.0-0.0-0.55","610aaf2df1bbcc04ce0d2237","6186fb1cc52d38b480598eb7","618736d109b6e6172cb04058","null","","null","","","","","fixation","","","",""
"","","","","","visual-search-circle","125","239906","0.0-14.0-0.0-1.55","610aaf2df1bbcc04ce0d2237","6186fb1cc52d38b480598eb7","618736d109b6e6172cb04058","1979.5","","d","true","[[397,583],[569,431],[583,202],[431,30],[202,16],[30,168],[16,397],[168,569]]","true","8","","","img/Fire_Down_Target.gif","[""img/Fire_Up_Distractor.gif"",""img/Fire_Up_Distractor.gif"",""img/Fire_Up_Distractor.gif"",""img/Fire_Up_Distractor.gif"",""img/Fire_Up_Distractor.gif"",""img/Fire_Up_Distractor.gif"",""img/Fire_Up_Distractor.gif"",""img/Fire_Up_Distractor.gif"",""img/Fire_Up_Distractor.gif"",""img/Fire_Up_Distractor.gif"",""img/Fire_Up_Distractor.gif"",""img/Fire_Up_Distractor.gif""]","targetDown_distractorsUp"
"","","","","","html-keyboard-response","126","239908","0.0-14.0-0.0-0.56","610aaf2df1bbcc04ce0d2237","6186fb1cc52d38b480598eb7","618736d109b6e6172cb04058","null","","null","","","","","fixation","","","",""
"","","","","","visual-search-circle","127","243008","0.0-14.0-0.0-1.56","610aaf2df1bbcc04ce0d2237","6186fb1cc52d38b480598eb7","618736d109b6e6172cb04058","2090.2999999523163","","d","true","[[0,289],[197,581],[536,484],[548,132],[217,11]]","true","5","","","img/Fire_Up_Target.gif","[""img/Fire_Down_Distractor.gif"",""img/Fire_Down_Distractor.gif"",""img/Fire_Down_Distractor.gif"",""img/Fire_Down_Distractor.gif"",""img/Fire_Down_Distractor.gif"",""img/Fire_Down_Distractor.gif"",""img/Fire_Down_Distractor.gif"",""img/Fire_Down_Distractor.gif"",""img/Fire_Down_Distractor.gif"",""img/Fire_Down_Distractor.gif"",""img/Fire_Down_Distractor.gif"",""img/Fire_Down_Distractor.gif""]","targetUp_distractorsDown"
"","","","","","html-keyboard-response","128","243012","0.0-14.0-0.0-0.57","610aaf2df1bbcc04ce0d2237","6186fb1cc52d38b480598eb7","618736d109b6e6172cb04058","null","","null","","","","","fixation","","","",""
"","","","","","visual-search-circle","129","245205","0.0-14.0-0.0-1.57","610aaf2df1bbcc04ce0d2237","6186fb1cc52d38b480598eb7","618736d109b6e6172cb04058","1182.8000000715256","","s","true","[[279,599],[599,320],[320,0],[0,279]]","false","4","","","img/Fire_Up_Target.gif","[""img/Fire_Down_Distractor.gif"",""img/Fire_Down_Distractor.gif"",""img/Fire_Down_Distractor.gif"",""img/Fire_Down_Distractor.gif"",""img/Fire_Down_Distractor.gif"",""img/Fire_Down_Distractor.gif"",""img/Fire_Down_Distractor.gif"",""img/Fire_Down_Distractor.gif"",""img/Fire_Down_Distractor.gif"",""img/Fire_Down_Distractor.gif"",""img/Fire_Down_Distractor.gif"",""img/Fire_Down_Distractor.gif""]","targetUp_distractorsDown"
"","","","","","html-keyboard-response","130","245211","0.0-14.0-0.0-0.58","610aaf2df1bbcc04ce0d2237","6186fb1cc52d38b480598eb7","618736d109b6e6172cb04058","null","","null","","","","","fixation","","","",""
"","","","","","visual-search-circle","131","249993","0.0-14.0-0.0-1.58","610aaf2df1bbcc04ce0d2237","6186fb1cc52d38b480598eb7","618736d109b6e6172cb04058","3767.399999976158","","d","true","[[597,336],[480,60],[182,23],[2,263],[119,539],[417,576]]","true","6","","","img/Fire_Down_Target.gif","[""img/Fire_Up_Distractor.gif"",""img/Fire_Up_Distractor.gif"",""img/Fire_Up_Distractor.gif"",""img/Fire_Up_Distractor.gif"",""img/Fire_Up_Distractor.gif"",""img/Fire_Up_Distractor.gif"",""img/Fire_Up_Distractor.gif"",""img/Fire_Up_Distractor.gif"",""img/Fire_Up_Distractor.gif"",""img/Fire_Up_Distractor.gif"",""img/Fire_Up_Distractor.gif"",""img/Fire_Up_Distractor.gif""]","targetDown_distractorsUp"
"","","","","","html-keyboard-response","132","251235","0.0-14.0-0.0-0.59","610aaf2df1bbcc04ce0d2237","6186fb1cc52d38b480598eb7","618736d109b6e6172cb04058","1241.1000000238419","Wow! You've completed 60 out of 120 trials! </p> <p>  </p><p> Take a quick break, then press any key when you're ready to continue."," ","","","","","fixation","","","",""
"","","","","","visual-search-circle","133","253122","0.0-14.0-0.0-1.59","610aaf2df1bbcc04ce0d2237","6186fb1cc52d38b480598eb7","618736d109b6e6172cb04058","874.9000000953674","","s","true","[[99,77],[25,422],[331,598],[593,362],[449,40]]","false","5","","","img/Fire_Up_Target.gif","[""img/Fire_Down_Distractor.gif"",""img/Fire_Down_Distractor.gif"",""img/Fire_Down_Distractor.gif"",""img/Fire_Down_Distractor.gif"",""img/Fire_Down_Distractor.gif"",""img/Fire_Down_Distractor.gif"",""img/Fire_Down_Distractor.gif"",""img/Fire_Down_Distractor.gif"",""img/Fire_Down_Distractor.gif"",""img/Fire_Down_Distractor.gif"",""img/Fire_Down_Distractor.gif"",""img/Fire_Down_Distractor.gif""]","targetUp_distractorsDown"
"","","","","","html-keyboard-response","134","253127","0.0-14.0-0.0-0.60","610aaf2df1bbcc04ce0d2237","6186fb1cc52d38b480598eb7","618736d109b6e6172cb04058","null","","null","","","","","fixation","","","",""
"","","","","","visual-search-circle","135","255066","0.0-14.0-0.0-1.60","610aaf2df1bbcc04ce0d2237","6186fb1cc52d38b480598eb7","618736d109b6e6172cb04058","919.6000000238419","","d","true","[[426,571],[581,402],[571,173],[402,18],[173,28],[18,197],[28,426],[197,581]]","true","8","","","img/Fire_Down_Target.gif","[""img/Fire_Up_Distractor.gif"",""img/Fire_Up_Distractor.gif"",""img/Fire_Up_Distractor.gif"",""img/Fire_Up_Distractor.gif"",""img/Fire_Up_Distractor.gif"",""img/Fire_Up_Distractor.gif"",""img/Fire_Up_Distractor.gif"",""img/Fire_Up_Distractor.gif"",""img/Fire_Up_Distractor.gif"",""img/Fire_Up_Distractor.gif"",""img/Fire_Up_Distractor.gif"",""img/Fire_Up_Distractor.gif""]","targetDown_distractorsUp"
"","","","","","html-keyboard-response","136","255071","0.0-14.0-0.0-0.61","610aaf2df1bbcc04ce0d2237","6186fb1cc52d38b480598eb7","618736d109b6e6172cb04058","null","","null","","","","","fixation","","","",""
"","","","","","visual-search-circle","137","256945","0.0-14.0-0.0-1.61","610aaf2df1bbcc04ce0d2237","6186fb1cc52d38b480598eb7","618736d109b6e6172cb04058","865.5999999046326","","d","true","[[564,159],[247,4],[2,258],[168,569],[515,508]]","true","5","","","img/Fire_Down_Target.gif","[""img/Fire_Up_Distractor.gif"",""img/Fire_Up_Distractor.gif"",""img/Fire_Up_Distractor.gif"",""img/Fire_Up_Distractor.gif"",""img/Fire_Up_Distractor.gif"",""img/Fire_Up_Distractor.gif"",""img/Fire_Up_Distractor.gif"",""img/Fire_Up_Distractor.gif"",""img/Fire_Up_Distractor.gif"",""img/Fire_Up_Distractor.gif"",""img/Fire_Up_Distractor.gif"",""img/Fire_Up_Distractor.gif""]","targetDown_distractorsUp"
"","","","","","html-keyboard-response","138","256951","0.0-14.0-0.0-0.62","610aaf2df1bbcc04ce0d2237","6186fb1cc52d38b480598eb7","618736d109b6e6172cb04058","null","","null","","","","","fixation","","","",""
"","","","","","visual-search-circle","139","259695","0.0-14.0-0.0-1.62","610aaf2df1bbcc04ce0d2237","6186fb1cc52d38b480598eb7","618736d109b6e6172cb04058","1735.1000000238419","","d","true","[[19,192],[25,422],[192,580],[422,574],[580,407],[574,177],[407,19],[177,25]]","true","8","","","img/Fire_Down_Target.gif","[""img/Fire_Up_Distractor.gif"",""img/Fire_Up_Distractor.gif"",""img/Fire_Up_Distractor.gif"",""img/Fire_Up_Distractor.gif"",""img/Fire_Up_Distractor.gif"",""img/Fire_Up_Distractor.gif"",""img/Fire_Up_Distractor.gif"",""img/Fire_Up_Distractor.gif"",""img/Fire_Up_Distractor.gif"",""img/Fire_Up_Distractor.gif"",""img/Fire_Up_Distractor.gif"",""img/Fire_Up_Distractor.gif""]","targetDown_distractorsUp"
"","","","","","html-keyboard-response","140","259701","0.0-14.0-0.0-0.63","610aaf2df1bbcc04ce0d2237","6186fb1cc52d38b480598eb7","618736d109b6e6172cb04058","null","","null","","","","","fixation","","","",""
"","","","","","visual-search-circle","141","262550","0.0-14.0-0.0-1.63","610aaf2df1bbcc04ce0d2237","6186fb1cc52d38b480598eb7","618736d109b6e6172cb04058","1833.4000000953674","","s","false","[[32,163],[26,424],[226,590],[481,538],[599,306],[492,69],[239,6]]","true","7","","","img/Fire_Up_Target.gif","[""img/Fire_Down_Distractor.gif"",""img/Fire_Down_Distractor.gif"",""img/Fire_Down_Distractor.gif"",""img/Fire_Down_Distractor.gif"",""img/Fire_Down_Distractor.gif"",""img/Fire_Down_Distractor.gif"",""img/Fire_Down_Distractor.gif"",""img/Fire_Down_Distractor.gif"",""img/Fire_Down_Distractor.gif"",""img/Fire_Down_Distractor.gif"",""img/Fire_Down_Distractor.gif"",""img/Fire_Down_Distractor.gif""]","targetUp_distractorsDown"
"","","","","","html-keyboard-response","142","262554","0.0-14.0-0.0-0.64","610aaf2df1bbcc04ce0d2237","6186fb1cc52d38b480598eb7","618736d109b6e6172cb04058","null","","null","","","","","fixation","","","",""
"","","","","","visual-search-circle","143","265653","0.0-14.0-0.0-1.64","610aaf2df1bbcc04ce0d2237","6186fb1cc52d38b480598eb7","618736d109b6e6172cb04058","2087.399999976158","","s","true","[[87,87],[0,299],[87,512],[299,600],[512,512],[600,300],[512,87],[300,0]]","false","8","","","img/Fire_Up_Target.gif","[""img/Fire_Down_Distractor.gif"",""img/Fire_Down_Distractor.gif"",""img/Fire_Down_Distractor.gif"",""img/Fire_Down_Distractor.gif"",""img/Fire_Down_Distractor.gif"",""img/Fire_Down_Distractor.gif"",""img/Fire_Down_Distractor.gif"",""img/Fire_Down_Distractor.gif"",""img/Fire_Down_Distractor.gif"",""img/Fire_Down_Distractor.gif"",""img/Fire_Down_Distractor.gif"",""img/Fire_Down_Distractor.gif""]","targetUp_distractorsDown"
"","","","","","html-keyboard-response","144","265655","0.0-14.0-0.0-0.65","610aaf2df1bbcc04ce0d2237","6186fb1cc52d38b480598eb7","618736d109b6e6172cb04058","null","","null","","","","","fixation","","","",""
"","","","","","visual-search-circle","145","267672","0.0-14.0-0.0-1.65","610aaf2df1bbcc04ce0d2237","6186fb1cc52d38b480598eb7","618736d109b6e6172cb04058","1005.8999999761581","","s","true","[[580,192],[390,13],[132,50],[1,275],[94,518],[342,596],[558,451]]","false","7","","","img/Fire_Up_Target.gif","[""img/Fire_Down_Distractor.gif"",""img/Fire_Down_Distractor.gif"",""img/Fire_Down_Distractor.gif"",""img/Fire_Down_Distractor.gif"",""img/Fire_Down_Distractor.gif"",""img/Fire_Down_Distractor.gif"",""img/Fire_Down_Distractor.gif"",""img/Fire_Down_Distractor.gif"",""img/Fire_Down_Distractor.gif"",""img/Fire_Down_Distractor.gif"",""img/Fire_Down_Distractor.gif"",""img/Fire_Down_Distractor.gif""]","targetUp_distractorsDown"
"","","","","","html-keyboard-response","146","267675","0.0-14.0-0.0-0.66","610aaf2df1bbcc04ce0d2237","6186fb1cc52d38b480598eb7","618736d109b6e6172cb04058","null","","null","","","","","fixation","","","",""
"","","","","","visual-search-circle","147","270317","0.0-14.0-0.0-1.66","610aaf2df1bbcc04ce0d2237","6186fb1cc52d38b480598eb7","618736d109b6e6172cb04058","1621.3999999761581","","s","false","[[25,177],[19,407],[177,574],[407,580],[574,422],[580,192],[422,25],[192,19]]","true","8","","","img/Fire_Up_Target.gif","[""img/Fire_Down_Distractor.gif"",""img/Fire_Down_Distractor.gif"",""img/Fire_Down_Distractor.gif"",""img/Fire_Down_Distractor.gif"",""img/Fire_Down_Distractor.gif"",""img/Fire_Down_Distractor.gif"",""img/Fire_Down_Distractor.gif"",""img/Fire_Down_Distractor.gif"",""img/Fire_Down_Distractor.gif"",""img/Fire_Down_Distractor.gif"",""img/Fire_Down_Distractor.gif"",""img/Fire_Down_Distractor.gif""]","targetUp_distractorsDown"
"","","","","","html-keyboard-response","148","270319","0.0-14.0-0.0-0.67","610aaf2df1bbcc04ce0d2237","6186fb1cc52d38b480598eb7","618736d109b6e6172cb04058","null","","null","","","","","fixation","","","",""
"","","","","","visual-search-circle","149","272432","0.0-14.0-0.0-1.67","610aaf2df1bbcc04ce0d2237","6186fb1cc52d38b480598eb7","618736d109b6e6172cb04058","1100.2999999523163","","d","true","[[377,589],[559,450],[589,222],[449,40],[222,10],[40,150],[10,377],[150,559]]","true","8","","","img/Fire_Down_Target.gif","[""img/Fire_Up_Distractor.gif"",""img/Fire_Up_Distractor.gif"",""img/Fire_Up_Distractor.gif"",""img/Fire_Up_Distractor.gif"",""img/Fire_Up_Distractor.gif"",""img/Fire_Up_Distractor.gif"",""img/Fire_Up_Distractor.gif"",""img/Fire_Up_Distractor.gif"",""img/Fire_Up_Distractor.gif"",""img/Fire_Up_Distractor.gif"",""img/Fire_Up_Distractor.gif"",""img/Fire_Up_Distractor.gif""]","targetDown_distractorsUp"
"","","","","","html-keyboard-response","150","272440","0.0-14.0-0.0-0.68","610aaf2df1bbcc04ce0d2237","6186fb1cc52d38b480598eb7","618736d109b6e6172cb04058","null","","null","","","","","fixation","","","",""
"","","","","","visual-search-circle","151","275073","0.0-14.0-0.0-1.68","610aaf2df1bbcc04ce0d2237","6186fb1cc52d38b480598eb7","618736d109b6e6172cb04058","1624.8000000715256","","d","true","[[4,352],[352,595],[595,247],[247,4]]","true","4","","","img/Fire_Up_Target.gif","[""img/Fire_Down_Distractor.gif"",""img/Fire_Down_Distractor.gif"",""img/Fire_Down_Distractor.gif"",""img/Fire_Down_Distractor.gif"",""img/Fire_Down_Distractor.gif"",""img/Fire_Down_Distractor.gif"",""img/Fire_Down_Distractor.gif"",""img/Fire_Down_Distractor.gif"",""img/Fire_Down_Distractor.gif"",""img/Fire_Down_Distractor.gif"",""img/Fire_Down_Distractor.gif"",""img/Fire_Down_Distractor.gif""]","targetUp_distractorsDown"
"","","","","","html-keyboard-response","152","275075","0.0-14.0-0.0-0.69","610aaf2df1bbcc04ce0d2237","6186fb1cc52d38b480598eb7","618736d109b6e6172cb04058","null","","null","","","","","fixation","","","",""
"","","","","","visual-search-circle","153","276871","0.0-14.0-0.0-1.69","610aaf2df1bbcc04ce0d2237","6186fb1cc52d38b480598eb7","618736d109b6e6172cb04058","786.1999999284744","","s","true","[[315,0],[48,136],[32,436],[284,599],[551,463],[567,163]]","false","6","","","img/Fire_Up_Target.gif","[""img/Fire_Down_Distractor.gif"",""img/Fire_Down_Distractor.gif"",""img/Fire_Down_Distractor.gif"",""img/Fire_Down_Distractor.gif"",""img/Fire_Down_Distractor.gif"",""img/Fire_Down_Distractor.gif"",""img/Fire_Down_Distractor.gif"",""img/Fire_Down_Distractor.gif"",""img/Fire_Down_Distractor.gif"",""img/Fire_Down_Distractor.gif"",""img/Fire_Down_Distractor.gif"",""img/Fire_Down_Distractor.gif""]","targetUp_distractorsDown"
"","","","","","html-keyboard-response","154","276878","0.0-14.0-0.0-0.70","610aaf2df1bbcc04ce0d2237","6186fb1cc52d38b480598eb7","618736d109b6e6172cb04058","null","","null","","","","","fixation","","","",""
"","","","","","visual-search-circle","155","278767","0.0-14.0-0.0-1.70","610aaf2df1bbcc04ce0d2237","6186fb1cc52d38b480598eb7","618736d109b6e6172cb04058","880.6999999284744","","s","true","[[2,336],[182,576],[480,539],[597,263],[417,23],[119,60]]","false","6","","","img/Fire_Down_Target.gif","[""img/Fire_Up_Distractor.gif"",""img/Fire_Up_Distractor.gif"",""img/Fire_Up_Distractor.gif"",""img/Fire_Up_Distractor.gif"",""img/Fire_Up_Distractor.gif"",""img/Fire_Up_Distractor.gif"",""img/Fire_Up_Distractor.gif"",""img/Fire_Up_Distractor.gif"",""img/Fire_Up_Distractor.gif"",""img/Fire_Up_Distractor.gif"",""img/Fire_Up_Distractor.gif"",""img/Fire_Up_Distractor.gif""]","targetDown_distractorsUp"
"","","","","","html-keyboard-response","156","278769","0.0-14.0-0.0-0.71","610aaf2df1bbcc04ce0d2237","6186fb1cc52d38b480598eb7","618736d109b6e6172cb04058","null","","null","","","","","fixation","","","",""
"","","","","","visual-search-circle","157","280733","0.0-14.0-0.0-1.71","610aaf2df1bbcc04ce0d2237","6186fb1cc52d38b480598eb7","618736d109b6e6172cb04058","955","","s","true","[[263,2],[44,142],[17,401],[203,584],[462,552],[598,330],[510,85]]","false","7","","","img/Fire_Down_Target.gif","[""img/Fire_Up_Distractor.gif"",""img/Fire_Up_Distractor.gif"",""img/Fire_Up_Distractor.gif"",""img/Fire_Up_Distractor.gif"",""img/Fire_Up_Distractor.gif"",""img/Fire_Up_Distractor.gif"",""img/Fire_Up_Distractor.gif"",""img/Fire_Up_Distractor.gif"",""img/Fire_Up_Distractor.gif"",""img/Fire_Up_Distractor.gif"",""img/Fire_Up_Distractor.gif"",""img/Fire_Up_Distractor.gif""]","targetDown_distractorsUp"
"","","","","","html-keyboard-response","158","280735","0.0-14.0-0.0-0.72","610aaf2df1bbcc04ce0d2237","6186fb1cc52d38b480598eb7","618736d109b6e6172cb04058","null","","null","","","","","fixation","","","",""
"","","","","","visual-search-circle","159","283228","0.0-14.0-0.0-1.72","610aaf2df1bbcc04ce0d2237","6186fb1cc52d38b480598eb7","618736d109b6e6172cb04058","1480.3999999761581","","s","false","[[23,417],[326,598],[592,367],[454,42],[103,73]]","true","5","","","img/Fire_Down_Target.gif","[""img/Fire_Up_Distractor.gif"",""img/Fire_Up_Distractor.gif"",""img/Fire_Up_Distractor.gif"",""img/Fire_Up_Distractor.gif"",""img/Fire_Up_Distractor.gif"",""img/Fire_Up_Distractor.gif"",""img/Fire_Up_Distractor.gif"",""img/Fire_Up_Distractor.gif"",""img/Fire_Up_Distractor.gif"",""img/Fire_Up_Distractor.gif"",""img/Fire_Up_Distractor.gif"",""img/Fire_Up_Distractor.gif""]","targetDown_distractorsUp"
"","","","","","html-keyboard-response","160","283230","0.0-14.0-0.0-0.73","610aaf2df1bbcc04ce0d2237","6186fb1cc52d38b480598eb7","618736d109b6e6172cb04058","null","","null","","","","","fixation","","","",""
"","","","","","visual-search-circle","161","284909","0.0-14.0-0.0-1.73","610aaf2df1bbcc04ce0d2237","6186fb1cc52d38b480598eb7","618736d109b6e6172cb04058","673.3000000715256","","s","true","[[526,103],[182,23],[1,326],[232,592],[557,454]]","false","5","","","img/Fire_Down_Target.gif","[""img/Fire_Up_Distractor.gif"",""img/Fire_Up_Distractor.gif"",""img/Fire_Up_Distractor.gif"",""img/Fire_Up_Distractor.gif"",""img/Fire_Up_Distractor.gif"",""img/Fire_Up_Distractor.gif"",""img/Fire_Up_Distractor.gif"",""img/Fire_Up_Distractor.gif"",""img/Fire_Up_Distractor.gif"",""img/Fire_Up_Distractor.gif"",""img/Fire_Up_Distractor.gif"",""img/Fire_Up_Distractor.gif""]","targetDown_distractorsUp"
"","","","","","html-keyboard-response","162","284919","0.0-14.0-0.0-0.74","610aaf2df1bbcc04ce0d2237","6186fb1cc52d38b480598eb7","618736d109b6e6172cb04058","null","","null","","","","","fixation","","","",""
"","","","","","visual-search-circle","163","286579","0.0-14.0-0.0-1.74","610aaf2df1bbcc04ce0d2237","6186fb1cc52d38b480598eb7","618736d109b6e6172cb04058","639.5","","s","false","[[63,115],[51,467],[382,588],[599,310],[402,18]]","true","5","","","img/Fire_Up_Target.gif","[""img/Fire_Down_Distractor.gif"",""img/Fire_Down_Distractor.gif"",""img/Fire_Down_Distractor.gif"",""img/Fire_Down_Distractor.gif"",""img/Fire_Down_Distractor.gif"",""img/Fire_Down_Distractor.gif"",""img/Fire_Down_Distractor.gif"",""img/Fire_Down_Distractor.gif"",""img/Fire_Down_Distractor.gif"",""img/Fire_Down_Distractor.gif"",""img/Fire_Down_Distractor.gif"",""img/Fire_Down_Distractor.gif""]","targetUp_distractorsDown"
"","","","","","html-keyboard-response","164","286583","0.0-14.0-0.0-0.75","610aaf2df1bbcc04ce0d2237","6186fb1cc52d38b480598eb7","618736d109b6e6172cb04058","null","","null","","","","","fixation","","","",""
"","","","","","visual-search-circle","165","288437","0.0-14.0-0.0-1.75","610aaf2df1bbcc04ce0d2237","6186fb1cc52d38b480598eb7","618736d109b6e6172cb04058","837","","d","true","[[500,522],[522,99],[99,77],[77,500]]","true","4","","","img/Fire_Down_Target.gif","[""img/Fire_Up_Distractor.gif"",""img/Fire_Up_Distractor.gif"",""img/Fire_Up_Distractor.gif"",""img/Fire_Up_Distractor.gif"",""img/Fire_Up_Distractor.gif"",""img/Fire_Up_Distractor.gif"",""img/Fire_Up_Distractor.gif"",""img/Fire_Up_Distractor.gif"",""img/Fire_Up_Distractor.gif"",""img/Fire_Up_Distractor.gif"",""img/Fire_Up_Distractor.gif"",""img/Fire_Up_Distractor.gif""]","targetDown_distractorsUp"
"","","","","","html-keyboard-response","166","288442","0.0-14.0-0.0-0.76","610aaf2df1bbcc04ce0d2237","6186fb1cc52d38b480598eb7","618736d109b6e6172cb04058","null","","null","","","","","fixation","","","",""
"","","","","","visual-search-circle","167","290316","0.0-14.0-0.0-1.76","610aaf2df1bbcc04ce0d2237","6186fb1cc52d38b480598eb7","618736d109b6e6172cb04058","864.2999999523163","","s","false","[[0,305],[117,537],[371,591],[572,425],[567,165],[361,6],[108,68]]","true","7","","","img/Fire_Up_Target.gif","[""img/Fire_Down_Distractor.gif"",""img/Fire_Down_Distractor.gif"",""img/Fire_Down_Distractor.gif"",""img/Fire_Down_Distractor.gif"",""img/Fire_Down_Distractor.gif"",""img/Fire_Down_Distractor.gif"",""img/Fire_Down_Distractor.gif"",""img/Fire_Down_Distractor.gif"",""img/Fire_Down_Distractor.gif"",""img/Fire_Down_Distractor.gif"",""img/Fire_Down_Distractor.gif"",""img/Fire_Down_Distractor.gif""]","targetUp_distractorsDown"
"","","","","","html-keyboard-response","168","290318","0.0-14.0-0.0-0.77","610aaf2df1bbcc04ce0d2237","6186fb1cc52d38b480598eb7","618736d109b6e6172cb04058","null","","null","","","","","fixation","","","",""
"","","","","","visual-search-circle","169","292218","0.0-14.0-0.0-1.77","610aaf2df1bbcc04ce0d2237","6186fb1cc52d38b480598eb7","618736d109b6e6172cb04058","893.1999999284744","","s","true","[[127,54],[54,472],[472,545],[545,127]]","false","4","","","img/Fire_Up_Target.gif","[""img/Fire_Down_Distractor.gif"",""img/Fire_Down_Distractor.gif"",""img/Fire_Down_Distractor.gif"",""img/Fire_Down_Distractor.gif"",""img/Fire_Down_Distractor.gif"",""img/Fire_Down_Distractor.gif"",""img/Fire_Down_Distractor.gif"",""img/Fire_Down_Distractor.gif"",""img/Fire_Down_Distractor.gif"",""img/Fire_Down_Distractor.gif"",""img/Fire_Down_Distractor.gif"",""img/Fire_Down_Distractor.gif""]","targetUp_distractorsDown"
"","","","","","html-keyboard-response","170","292229","0.0-14.0-0.0-0.78","610aaf2df1bbcc04ce0d2237","6186fb1cc52d38b480598eb7","618736d109b6e6172cb04058","null","","null","","","","","fixation","","","",""
"","","","","","visual-search-circle","171","294224","0.0-14.0-0.0-1.78","610aaf2df1bbcc04ce0d2237","6186fb1cc52d38b480598eb7","618736d109b6e6172cb04058","986.5999999046326","","s","false","[[436,32],[87,87],[32,436],[346,596],[596,346]]","true","5","","","img/Fire_Up_Target.gif","[""img/Fire_Down_Distractor.gif"",""img/Fire_Down_Distractor.gif"",""img/Fire_Down_Distractor.gif"",""img/Fire_Down_Distractor.gif"",""img/Fire_Down_Distractor.gif"",""img/Fire_Down_Distractor.gif"",""img/Fire_Down_Distractor.gif"",""img/Fire_Down_Distractor.gif"",""img/Fire_Down_Distractor.gif"",""img/Fire_Down_Distractor.gif"",""img/Fire_Down_Distractor.gif"",""img/Fire_Down_Distractor.gif""]","targetUp_distractorsDown"
"","","","","","html-keyboard-response","172","294937","0.0-14.0-0.0-0.79","610aaf2df1bbcc04ce0d2237","6186fb1cc52d38b480598eb7","618736d109b6e6172cb04058","712.1000000238419","Wow! You've completed 80 out of 120 trials! </p> <p>  </p><p> Take a quick break, then press any key when you're ready to continue."," ","","","","","fixation","","","",""
"","","","","","visual-search-circle","173","296592","0.0-14.0-0.0-1.79","610aaf2df1bbcc04ce0d2237","6186fb1cc52d38b480598eb7","618736d109b6e6172cb04058","641.2000000476837","","d","true","[[73,103],[103,526],[526,496],[496,73]]","true","4","","","img/Fire_Up_Target.gif","[""img/Fire_Down_Distractor.gif"",""img/Fire_Down_Distractor.gif"",""img/Fire_Down_Distractor.gif"",""img/Fire_Down_Distractor.gif"",""img/Fire_Down_Distractor.gif"",""img/Fire_Down_Distractor.gif"",""img/Fire_Down_Distractor.gif"",""img/Fire_Down_Distractor.gif"",""img/Fire_Down_Distractor.gif"",""img/Fire_Down_Distractor.gif"",""img/Fire_Down_Distractor.gif"",""img/Fire_Down_Distractor.gif""]","targetUp_distractorsDown"
"","","","","","html-keyboard-response","174","296598","0.0-14.0-0.0-0.80","610aaf2df1bbcc04ce0d2237","6186fb1cc52d38b480598eb7","618736d109b6e6172cb04058","null","","null","","","","","fixation","","","",""
"","","","","","visual-search-circle","175","298578","0.0-14.0-0.0-1.80","610aaf2df1bbcc04ce0d2237","6186fb1cc52d38b480598eb7","618736d109b6e6172cb04058","972.5","","s","false","[[268,1],[66,111],[1,331],[111,533],[331,598],[533,488],[598,268],[488,66]]","true","8","","","img/Fire_Up_Target.gif","[""img/Fire_Down_Distractor.gif"",""img/Fire_Down_Distractor.gif"",""img/Fire_Down_Distractor.gif"",""img/Fire_Down_Distractor.gif"",""img/Fire_Down_Distractor.gif"",""img/Fire_Down_Distractor.gif"",""img/Fire_Down_Distractor.gif"",""img/Fire_Down_Distractor.gif"",""img/Fire_Down_Distractor.gif"",""img/Fire_Down_Distractor.gif"",""img/Fire_Down_Distractor.gif"",""img/Fire_Down_Distractor.gif""]","targetUp_distractorsDown"
"","","","","","html-keyboard-response","176","298582","0.0-14.0-0.0-0.81","610aaf2df1bbcc04ce0d2237","6186fb1cc52d38b480598eb7","618736d109b6e6172cb04058","null","","null","","","","","fixation","","","",""
"","","","","","visual-search-circle","177","300147","0.0-14.0-0.0-1.81","610aaf2df1bbcc04ce0d2237","6186fb1cc52d38b480598eb7","618736d109b6e6172cb04058","554.0999999046326","","s","true","[[253,3],[39,151],[21,411],[213,587],[470,546],[599,320],[502,78]]","false","7","","","img/Fire_Down_Target.gif","[""img/Fire_Up_Distractor.gif"",""img/Fire_Up_Distractor.gif"",""img/Fire_Up_Distractor.gif"",""img/Fire_Up_Distractor.gif"",""img/Fire_Up_Distractor.gif"",""img/Fire_Up_Distractor.gif"",""img/Fire_Up_Distractor.gif"",""img/Fire_Up_Distractor.gif"",""img/Fire_Up_Distractor.gif"",""img/Fire_Up_Distractor.gif"",""img/Fire_Up_Distractor.gif"",""img/Fire_Up_Distractor.gif""]","targetDown_distractorsUp"
"","","","","","html-keyboard-response","178","300150","0.0-14.0-0.0-0.82","610aaf2df1bbcc04ce0d2237","6186fb1cc52d38b480598eb7","618736d109b6e6172cb04058","null","","null","","","","","fixation","","","",""
"","","","","","visual-search-circle","179","302981","0.0-14.0-0.0-1.82","610aaf2df1bbcc04ce0d2237","6186fb1cc52d38b480598eb7","618736d109b6e6172cb04058","1815.7000000476837","","s","true","[[559,150],[150,40],[40,450],[450,559]]","false","4","","","img/Fire_Up_Target.gif","[""img/Fire_Down_Distractor.gif"",""img/Fire_Down_Distractor.gif"",""img/Fire_Down_Distractor.gif"",""img/Fire_Down_Distractor.gif"",""img/Fire_Down_Distractor.gif"",""img/Fire_Down_Distractor.gif"",""img/Fire_Down_Distractor.gif"",""img/Fire_Down_Distractor.gif"",""img/Fire_Down_Distractor.gif"",""img/Fire_Down_Distractor.gif"",""img/Fire_Down_Distractor.gif"",""img/Fire_Down_Distractor.gif""]","targetUp_distractorsDown"
"","","","","","html-keyboard-response","180","302987","0.0-14.0-0.0-0.83","610aaf2df1bbcc04ce0d2237","6186fb1cc52d38b480598eb7","618736d109b6e6172cb04058","null","","null","","","","","fixation","","","",""
"","","","","","visual-search-circle","181","304977","0.0-14.0-0.0-1.83","610aaf2df1bbcc04ce0d2237","6186fb1cc52d38b480598eb7","618736d109b6e6172cb04058","982.7999999523163","","s","true","[[8,372],[279,599],[578,412],[492,70],[141,45]]","false","5","","","img/Fire_Up_Target.gif","[""img/Fire_Down_Distractor.gif"",""img/Fire_Down_Distractor.gif"",""img/Fire_Down_Distractor.gif"",""img/Fire_Down_Distractor.gif"",""img/Fire_Down_Distractor.gif"",""img/Fire_Down_Distractor.gif"",""img/Fire_Down_Distractor.gif"",""img/Fire_Down_Distractor.gif"",""img/Fire_Down_Distractor.gif"",""img/Fire_Down_Distractor.gif"",""img/Fire_Down_Distractor.gif"",""img/Fire_Down_Distractor.gif""]","targetUp_distractorsDown"
"","","","","","html-keyboard-response","182","304979","0.0-14.0-0.0-0.84","610aaf2df1bbcc04ce0d2237","6186fb1cc52d38b480598eb7","618736d109b6e6172cb04058","null","","null","","","","","fixation","","","",""
"","","","","","visual-search-circle","183","307629","0.0-14.0-0.0-1.84","610aaf2df1bbcc04ce0d2237","6186fb1cc52d38b480598eb7","618736d109b6e6172cb04058","1644.3000000715256","","s","true","[[542,476],[476,57],[57,123],[123,542]]","false","4","","","img/Fire_Down_Target.gif","[""img/Fire_Up_Distractor.gif"",""img/Fire_Up_Distractor.gif"",""img/Fire_Up_Distractor.gif"",""img/Fire_Up_Distractor.gif"",""img/Fire_Up_Distractor.gif"",""img/Fire_Up_Distractor.gif"",""img/Fire_Up_Distractor.gif"",""img/Fire_Up_Distractor.gif"",""img/Fire_Up_Distractor.gif"",""img/Fire_Up_Distractor.gif"",""img/Fire_Up_Distractor.gif"",""img/Fire_Up_Distractor.gif""]","targetDown_distractorsUp"
"","","","","","html-keyboard-response","184","307633","0.0-14.0-0.0-0.85","610aaf2df1bbcc04ce0d2237","6186fb1cc52d38b480598eb7","618736d109b6e6172cb04058","null","","null","","","","","fixation","","","",""
"","","","","","visual-search-circle","185","310363","0.0-14.0-0.0-1.85","610aaf2df1bbcc04ce0d2237","6186fb1cc52d38b480598eb7","618736d109b6e6172cb04058","1715.2000000476837","","s","false","[[91,84],[30,431],[341,597],[595,352],[440,35]]","true","5","","","img/Fire_Down_Target.gif","[""img/Fire_Up_Distractor.gif"",""img/Fire_Up_Distractor.gif"",""img/Fire_Up_Distractor.gif"",""img/Fire_Up_Distractor.gif"",""img/Fire_Up_Distractor.gif"",""img/Fire_Up_Distractor.gif"",""img/Fire_Up_Distractor.gif"",""img/Fire_Up_Distractor.gif"",""img/Fire_Up_Distractor.gif"",""img/Fire_Up_Distractor.gif"",""img/Fire_Up_Distractor.gif"",""img/Fire_Up_Distractor.gif""]","targetDown_distractorsUp"
"","","","","","html-keyboard-response","186","310368","0.0-14.0-0.0-0.86","610aaf2df1bbcc04ce0d2237","6186fb1cc52d38b480598eb7","618736d109b6e6172cb04058","null","","null","","","","","fixation","","","",""
"","","","","","visual-search-circle","187","312213","0.0-14.0-0.0-1.86","610aaf2df1bbcc04ce0d2237","6186fb1cc52d38b480598eb7","618736d109b6e6172cb04058","833.2000000476837","","s","false","[[173,28],[28,426],[426,571],[571,173]]","true","4","","","img/Fire_Down_Target.gif","[""img/Fire_Up_Distractor.gif"",""img/Fire_Up_Distractor.gif"",""img/Fire_Up_Distractor.gif"",""img/Fire_Up_Distractor.gif"",""img/Fire_Up_Distractor.gif"",""img/Fire_Up_Distractor.gif"",""img/Fire_Up_Distractor.gif"",""img/Fire_Up_Distractor.gif"",""img/Fire_Up_Distractor.gif"",""img/Fire_Up_Distractor.gif"",""img/Fire_Up_Distractor.gif"",""img/Fire_Up_Distractor.gif""]","targetDown_distractorsUp"
"","","","","","html-keyboard-response","188","312219","0.0-14.0-0.0-0.87","610aaf2df1bbcc04ce0d2237","6186fb1cc52d38b480598eb7","618736d109b6e6172cb04058","null","","null","","","","","fixation","","","",""
"","","","","","visual-search-circle","189","313745","0.0-14.0-0.0-1.87","610aaf2df1bbcc04ce0d2237","6186fb1cc52d38b480598eb7","618736d109b6e6172cb04058","509","","s","false","[[154,37],[11,217],[37,445],[217,588],[445,562],[588,382],[562,154],[382,11]]","true","8","","","img/Fire_Up_Target.gif","[""img/Fire_Down_Distractor.gif"",""img/Fire_Down_Distractor.gif"",""img/Fire_Down_Distractor.gif"",""img/Fire_Down_Distractor.gif"",""img/Fire_Down_Distractor.gif"",""img/Fire_Down_Distractor.gif"",""img/Fire_Down_Distractor.gif"",""img/Fire_Down_Distractor.gif"",""img/Fire_Down_Distractor.gif"",""img/Fire_Down_Distractor.gif"",""img/Fire_Down_Distractor.gif"",""img/Fire_Down_Distractor.gif""]","targetUp_distractorsDown"
"","","","","","html-keyboard-response","190","313747","0.0-14.0-0.0-0.88","610aaf2df1bbcc04ce0d2237","6186fb1cc52d38b480598eb7","618736d109b6e6172cb04058","null","","null","","","","","fixation","","","",""
"","","","","","visual-search-circle","191","315365","0.0-14.0-0.0-1.88","610aaf2df1bbcc04ce0d2237","6186fb1cc52d38b480598eb7","618736d109b6e6172cb04058","611.6000000238419","","d","true","[[253,3],[3,253],[163,567],[512,512],[567,163]]","true","5","","","img/Fire_Down_Target.gif","[""img/Fire_Up_Distractor.gif"",""img/Fire_Up_Distractor.gif"",""img/Fire_Up_Distractor.gif"",""img/Fire_Up_Distractor.gif"",""img/Fire_Up_Distractor.gif"",""img/Fire_Up_Distractor.gif"",""img/Fire_Up_Distractor.gif"",""img/Fire_Up_Distractor.gif"",""img/Fire_Up_Distractor.gif"",""img/Fire_Up_Distractor.gif"",""img/Fire_Up_Distractor.gif"",""img/Fire_Up_Distractor.gif""]","targetDown_distractorsUp"
"","","","","","html-keyboard-response","192","315380","0.0-14.0-0.0-0.89","610aaf2df1bbcc04ce0d2237","6186fb1cc52d38b480598eb7","618736d109b6e6172cb04058","null","","null","","","","","fixation","","","",""
"","","","","","visual-search-circle","193","317077","0.0-14.0-0.0-1.89","610aaf2df1bbcc04ce0d2237","6186fb1cc52d38b480598eb7","618736d109b6e6172cb04058","681.4000000953674","","d","false","[[95,519],[343,596],[559,450],[579,191],[389,13],[131,51],[0,276]]","false","7","","","img/Fire_Down_Target.gif","[""img/Fire_Up_Distractor.gif"",""img/Fire_Up_Distractor.gif"",""img/Fire_Up_Distractor.gif"",""img/Fire_Up_Distractor.gif"",""img/Fire_Up_Distractor.gif"",""img/Fire_Up_Distractor.gif"",""img/Fire_Up_Distractor.gif"",""img/Fire_Up_Distractor.gif"",""img/Fire_Up_Distractor.gif"",""img/Fire_Up_Distractor.gif"",""img/Fire_Up_Distractor.gif"",""img/Fire_Up_Distractor.gif""]","targetDown_distractorsUp"
"","","","","","html-keyboard-response","194","317079","0.0-14.0-0.0-0.90","610aaf2df1bbcc04ce0d2237","6186fb1cc52d38b480598eb7","618736d109b6e6172cb04058","null","","null","","","","","fixation","","","",""
"","","","","","visual-search-circle","195","318973","0.0-14.0-0.0-1.90","610aaf2df1bbcc04ce0d2237","6186fb1cc52d38b480598eb7","618736d109b6e6172cb04058","875.2000000476837","","d","true","[[8,227],[141,554],[492,529],[578,187],[279,0]]","true","5","","","img/Fire_Up_Target.gif","[""img/Fire_Down_Distractor.gif"",""img/Fire_Down_Distractor.gif"",""img/Fire_Down_Distractor.gif"",""img/Fire_Down_Distractor.gif"",""img/Fire_Down_Distractor.gif"",""img/Fire_Down_Distractor.gif"",""img/Fire_Down_Distractor.gif"",""img/Fire_Down_Distractor.gif"",""img/Fire_Down_Distractor.gif"",""img/Fire_Down_Distractor.gif"",""img/Fire_Down_Distractor.gif"",""img/Fire_Down_Distractor.gif""]","targetUp_distractorsDown"
"","","","","","html-keyboard-response","196","318979","0.0-14.0-0.0-0.91","610aaf2df1bbcc04ce0d2237","6186fb1cc52d38b480598eb7","618736d109b6e6172cb04058","null","","null","","","","","fixation","","","",""
"","","","","","visual-search-circle","197","320540","0.0-14.0-0.0-1.91","610aaf2df1bbcc04ce0d2237","6186fb1cc52d38b480598eb7","618736d109b6e6172cb04058","544.7000000476837","","s","true","[[599,284],[474,55],[218,11],[23,184],[36,444],[248,595],[499,524]]","false","7","","","img/Fire_Up_Target.gif","[""img/Fire_Down_Distractor.gif"",""img/Fire_Down_Distractor.gif"",""img/Fire_Down_Distractor.gif"",""img/Fire_Down_Distractor.gif"",""img/Fire_Down_Distractor.gif"",""img/Fire_Down_Distractor.gif"",""img/Fire_Down_Distractor.gif"",""img/Fire_Down_Distractor.gif"",""img/Fire_Down_Distractor.gif"",""img/Fire_Down_Distractor.gif"",""img/Fire_Down_Distractor.gif"",""img/Fire_Down_Distractor.gif""]","targetUp_distractorsDown"
"","","","","","html-keyboard-response","198","320546","0.0-14.0-0.0-0.92","610aaf2df1bbcc04ce0d2237","6186fb1cc52d38b480598eb7","618736d109b6e6172cb04058","null","","null","","","","","fixation","","","",""
"","","","","","visual-search-circle","199","322471","0.0-14.0-0.0-1.92","610aaf2df1bbcc04ce0d2237","6186fb1cc52d38b480598eb7","618736d109b6e6172cb04058","919","","s","true","[[496,73],[145,42],[7,367],[273,598],[576,417]]","false","5","","","img/Fire_Down_Target.gif","[""img/Fire_Up_Distractor.gif"",""img/Fire_Up_Distractor.gif"",""img/Fire_Up_Distractor.gif"",""img/Fire_Up_Distractor.gif"",""img/Fire_Up_Distractor.gif"",""img/Fire_Up_Distractor.gif"",""img/Fire_Up_Distractor.gif"",""img/Fire_Up_Distractor.gif"",""img/Fire_Up_Distractor.gif"",""img/Fire_Up_Distractor.gif"",""img/Fire_Up_Distractor.gif"",""img/Fire_Up_Distractor.gif""]","targetDown_distractorsUp"
"","","","","","html-keyboard-response","200","322478","0.0-14.0-0.0-0.93","610aaf2df1bbcc04ce0d2237","6186fb1cc52d38b480598eb7","618736d109b6e6172cb04058","null","","null","","","","","fixation","","","",""
"","","","","","visual-search-circle","201","324234","0.0-14.0-0.0-1.93","610aaf2df1bbcc04ce0d2237","6186fb1cc52d38b480598eb7","618736d109b6e6172cb04058","750.2000000476837","","s","true","[[182,576],[576,417],[417,23],[23,182]]","false","4","","","img/Fire_Down_Target.gif","[""img/Fire_Up_Distractor.gif"",""img/Fire_Up_Distractor.gif"",""img/Fire_Up_Distractor.gif"",""img/Fire_Up_Distractor.gif"",""img/Fire_Up_Distractor.gif"",""img/Fire_Up_Distractor.gif"",""img/Fire_Up_Distractor.gif"",""img/Fire_Up_Distractor.gif"",""img/Fire_Up_Distractor.gif"",""img/Fire_Up_Distractor.gif"",""img/Fire_Up_Distractor.gif"",""img/Fire_Up_Distractor.gif""]","targetDown_distractorsUp"
"","","","","","html-keyboard-response","202","324239","0.0-14.0-0.0-0.94","610aaf2df1bbcc04ce0d2237","6186fb1cc52d38b480598eb7","618736d109b6e6172cb04058","null","","null","","","","","fixation","","","",""
"","","","","","visual-search-circle","203","326310","0.0-14.0-0.0-1.94","610aaf2df1bbcc04ce0d2237","6186fb1cc52d38b480598eb7","618736d109b6e6172cb04058","1063.5999999046326","","s","true","[[42,145],[18,404],[206,585],[464,550],[598,327],[507,83],[260,2]]","false","7","","","img/Fire_Up_Target.gif","[""img/Fire_Down_Distractor.gif"",""img/Fire_Down_Distractor.gif"",""img/Fire_Down_Distractor.gif"",""img/Fire_Down_Distractor.gif"",""img/Fire_Down_Distractor.gif"",""img/Fire_Down_Distractor.gif"",""img/Fire_Down_Distractor.gif"",""img/Fire_Down_Distractor.gif"",""img/Fire_Down_Distractor.gif"",""img/Fire_Down_Distractor.gif"",""img/Fire_Down_Distractor.gif"",""img/Fire_Down_Distractor.gif""]","targetUp_distractorsDown"
"","","","","","html-keyboard-response","204","326325","0.0-14.0-0.0-0.95","610aaf2df1bbcc04ce0d2237","6186fb1cc52d38b480598eb7","618736d109b6e6172cb04058","null","","null","","","","","fixation","","","",""
"","","","","","visual-search-circle","205","328355","0.0-14.0-0.0-1.95","610aaf2df1bbcc04ce0d2237","6186fb1cc52d38b480598eb7","618736d109b6e6172cb04058","1019.1000000238419","","s","false","[[583,202],[400,17],[141,45],[2,264],[86,511],[332,598],[553,460]]","true","7","","","img/Fire_Down_Target.gif","[""img/Fire_Up_Distractor.gif"",""img/Fire_Up_Distractor.gif"",""img/Fire_Up_Distractor.gif"",""img/Fire_Up_Distractor.gif"",""img/Fire_Up_Distractor.gif"",""img/Fire_Up_Distractor.gif"",""img/Fire_Up_Distractor.gif"",""img/Fire_Up_Distractor.gif"",""img/Fire_Up_Distractor.gif"",""img/Fire_Up_Distractor.gif"",""img/Fire_Up_Distractor.gif"",""img/Fire_Up_Distractor.gif""]","targetDown_distractorsUp"
"","","","","","html-keyboard-response","206","328364","0.0-14.0-0.0-0.96","610aaf2df1bbcc04ce0d2237","6186fb1cc52d38b480598eb7","618736d109b6e6172cb04058","null","","null","","","","","fixation","","","",""
"","","","","","visual-search-circle","207","330236","0.0-14.0-0.0-1.96","610aaf2df1bbcc04ce0d2237","6186fb1cc52d38b480598eb7","618736d109b6e6172cb04058","858.2999999523163","","s","true","[[422,574],[580,407],[574,177],[407,19],[177,25],[19,192],[25,422],[192,580]]","false","8","","","img/Fire_Up_Target.gif","[""img/Fire_Down_Distractor.gif"",""img/Fire_Down_Distractor.gif"",""img/Fire_Down_Distractor.gif"",""img/Fire_Down_Distractor.gif"",""img/Fire_Down_Distractor.gif"",""img/Fire_Down_Distractor.gif"",""img/Fire_Down_Distractor.gif"",""img/Fire_Down_Distractor.gif"",""img/Fire_Down_Distractor.gif"",""img/Fire_Down_Distractor.gif"",""img/Fire_Down_Distractor.gif"",""img/Fire_Down_Distractor.gif""]","targetUp_distractorsDown"
"","","","","","html-keyboard-response","208","330238","0.0-14.0-0.0-0.97","610aaf2df1bbcc04ce0d2237","6186fb1cc52d38b480598eb7","618736d109b6e6172cb04058","null","","null","","","","","fixation","","","",""
"","","","","","visual-search-circle","209","332477","0.0-14.0-0.0-1.97","610aaf2df1bbcc04ce0d2237","6186fb1cc52d38b480598eb7","618736d109b6e6172cb04058","1232.6000000238419","","d","true","[[529,492],[581,197],[352,4],[70,107],[18,402],[247,595]]","true","6","","","img/Fire_Up_Target.gif","[""img/Fire_Down_Distractor.gif"",""img/Fire_Down_Distractor.gif"",""img/Fire_Down_Distractor.gif"",""img/Fire_Down_Distractor.gif"",""img/Fire_Down_Distractor.gif"",""img/Fire_Down_Distractor.gif"",""img/Fire_Down_Distractor.gif"",""img/Fire_Down_Distractor.gif"",""img/Fire_Down_Distractor.gif"",""img/Fire_Down_Distractor.gif"",""img/Fire_Down_Distractor.gif"",""img/Fire_Down_Distractor.gif""]","targetUp_distractorsDown"
"","","","","","html-keyboard-response","210","332486","0.0-14.0-0.0-0.98","610aaf2df1bbcc04ce0d2237","6186fb1cc52d38b480598eb7","618736d109b6e6172cb04058","null","","null","","","","","fixation","","","",""
"","","","","","visual-search-circle","211","335485","0.0-14.0-0.0-1.98","610aaf2df1bbcc04ce0d2237","6186fb1cc52d38b480598eb7","618736d109b6e6172cb04058","1991.6000000238419","","s","false","[[84,508],[372,591],[588,382],[515,91],[227,8],[11,217]]","true","6","","","img/Fire_Up_Target.gif","[""img/Fire_Down_Distractor.gif"",""img/Fire_Down_Distractor.gif"",""img/Fire_Down_Distractor.gif"",""img/Fire_Down_Distractor.gif"",""img/Fire_Down_Distractor.gif"",""img/Fire_Down_Distractor.gif"",""img/Fire_Down_Distractor.gif"",""img/Fire_Down_Distractor.gif"",""img/Fire_Down_Distractor.gif"",""img/Fire_Down_Distractor.gif"",""img/Fire_Down_Distractor.gif"",""img/Fire_Down_Distractor.gif""]","targetUp_distractorsDown"
"","","","","","html-keyboard-response","212","336238","0.0-14.0-0.0-0.99","610aaf2df1bbcc04ce0d2237","6186fb1cc52d38b480598eb7","618736d109b6e6172cb04058","752.6999999284744","Wow! You've completed 100 out of 120 trials! </p> <p>  </p><p> Take a quick break, then press any key when you're ready to continue."," ","","","","","fixation","","","",""
"","","","","","visual-search-circle","213","338881","0.0-14.0-0.0-1.99","610aaf2df1bbcc04ce0d2237","6186fb1cc52d38b480598eb7","618736d109b6e6172cb04058","1634.7999999523163","","s","true","[[522,500],[559,150],[237,6],[1,268],[177,574]]","false","5","","","img/Fire_Down_Target.gif","[""img/Fire_Up_Distractor.gif"",""img/Fire_Up_Distractor.gif"",""img/Fire_Up_Distractor.gif"",""img/Fire_Up_Distractor.gif"",""img/Fire_Up_Distractor.gif"",""img/Fire_Up_Distractor.gif"",""img/Fire_Up_Distractor.gif"",""img/Fire_Up_Distractor.gif"",""img/Fire_Up_Distractor.gif"",""img/Fire_Up_Distractor.gif"",""img/Fire_Up_Distractor.gif"",""img/Fire_Up_Distractor.gif""]","targetDown_distractorsUp"
"","","","","","html-keyboard-response","214","338890","0.0-14.0-0.0-0.100","610aaf2df1bbcc04ce0d2237","6186fb1cc52d38b480598eb7","618736d109b6e6172cb04058","null","","null","","","","","fixation","","","",""
"","","","","","visual-search-circle","215","341865","0.0-14.0-0.0-1.100","610aaf2df1bbcc04ce0d2237","6186fb1cc52d38b480598eb7","618736d109b6e6172cb04058","1961.1000000238419","","s","false","[[63,115],[2,336],[115,536],[336,597],[536,484],[597,263],[484,63],[263,2]]","true","8","","","img/Fire_Up_Target.gif","[""img/Fire_Down_Distractor.gif"",""img/Fire_Down_Distractor.gif"",""img/Fire_Down_Distractor.gif"",""img/Fire_Down_Distractor.gif"",""img/Fire_Down_Distractor.gif"",""img/Fire_Down_Distractor.gif"",""img/Fire_Down_Distractor.gif"",""img/Fire_Down_Distractor.gif"",""img/Fire_Down_Distractor.gif"",""img/Fire_Down_Distractor.gif"",""img/Fire_Down_Distractor.gif"",""img/Fire_Down_Distractor.gif""]","targetUp_distractorsDown"
"","","","","","html-keyboard-response","216","341869","0.0-14.0-0.0-0.101","610aaf2df1bbcc04ce0d2237","6186fb1cc52d38b480598eb7","618736d109b6e6172cb04058","null","","null","","","","","fixation","","","",""
"","","","","","visual-search-circle","217","343654","0.0-14.0-0.0-1.101","610aaf2df1bbcc04ce0d2237","6186fb1cc52d38b480598eb7","618736d109b6e6172cb04058","770.3000000715256","","s","true","[[536,484],[597,263],[484,63],[263,2],[63,115],[2,336],[115,536],[336,597]]","false","8","","","img/Fire_Up_Target.gif","[""img/Fire_Down_Distractor.gif"",""img/Fire_Down_Distractor.gif"",""img/Fire_Down_Distractor.gif"",""img/Fire_Down_Distractor.gif"",""img/Fire_Down_Distractor.gif"",""img/Fire_Down_Distractor.gif"",""img/Fire_Down_Distractor.gif"",""img/Fire_Down_Distractor.gif"",""img/Fire_Down_Distractor.gif"",""img/Fire_Down_Distractor.gif"",""img/Fire_Down_Distractor.gif"",""img/Fire_Down_Distractor.gif""]","targetUp_distractorsDown"
"","","","","","html-keyboard-response","218","343663","0.0-14.0-0.0-0.102","610aaf2df1bbcc04ce0d2237","6186fb1cc52d38b480598eb7","618736d109b6e6172cb04058","null","","null","","","","","fixation","","","",""
"","","","","","visual-search-circle","219","346677","0.0-14.0-0.0-1.102","610aaf2df1bbcc04ce0d2237","6186fb1cc52d38b480598eb7","618736d109b6e6172cb04058","2006.5","","d","true","[[70,107],[107,529],[529,492],[492,70]]","true","4","","","img/Fire_Up_Target.gif","[""img/Fire_Down_Distractor.gif"",""img/Fire_Down_Distractor.gif"",""img/Fire_Down_Distractor.gif"",""img/Fire_Down_Distractor.gif"",""img/Fire_Down_Distractor.gif"",""img/Fire_Down_Distractor.gif"",""img/Fire_Down_Distractor.gif"",""img/Fire_Down_Distractor.gif"",""img/Fire_Down_Distractor.gif"",""img/Fire_Down_Distractor.gif"",""img/Fire_Down_Distractor.gif"",""img/Fire_Down_Distractor.gif""]","targetUp_distractorsDown"
"","","","","","html-keyboard-response","220","346685","0.0-14.0-0.0-0.103","610aaf2df1bbcc04ce0d2237","6186fb1cc52d38b480598eb7","618736d109b6e6172cb04058","null","","null","","","","","fixation","","","",""
"","","","","","visual-search-circle","221","349015","0.0-14.0-0.0-1.103","610aaf2df1bbcc04ce0d2237","6186fb1cc52d38b480598eb7","618736d109b6e6172cb04058","1318.1000000238419","","s","false","[[289,599],[599,310],[310,0],[0,289]]","true","4","","","img/Fire_Down_Target.gif","[""img/Fire_Up_Distractor.gif"",""img/Fire_Up_Distractor.gif"",""img/Fire_Up_Distractor.gif"",""img/Fire_Up_Distractor.gif"",""img/Fire_Up_Distractor.gif"",""img/Fire_Up_Distractor.gif"",""img/Fire_Up_Distractor.gif"",""img/Fire_Up_Distractor.gif"",""img/Fire_Up_Distractor.gif"",""img/Fire_Up_Distractor.gif"",""img/Fire_Up_Distractor.gif"",""img/Fire_Up_Distractor.gif""]","targetDown_distractorsUp"
