"success","timeout","failed_images","failed_audio","failed_video","trial_type","trial_index","time_elapsed","internal_node_id","subject_id","study_id","session_id","rt","stimulus","response","correct","locations","target_present","set_size","task","correct_response","target","foilCM","searchCondition"
"true","false","[]","[]","[]","preload","0","20366","0.0-0.0","6111b4c15650244aadca5dd0","6186fb1cc52d38b480598eb7","6187384b4893130c4d002824","","","","","","","","","","","",""
"true","","","","","fullscreen","1","25106","0.0-1.0","6111b4c15650244aadca5dd0","6186fb1cc52d38b480598eb7","6187384b4893130c4d002824","","","","","","","","","","","",""
"","","","","","html-keyboard-response","2","33420","0.0-2.0","6111b4c15650244aadca5dd0","6186fb1cc52d38b480598eb7","6187384b4893130c4d002824","8312.5","What a beautiful Saturday to do some awesome science! </p> <p>  </p><p> </p>
    By completing this survey or questionnaire, you are consenting to be in this research study. </p>
    Your participation is voluntary and you can stop at any time.
    <p> [Press any key to continue.] </p>
    
    "," ","","","","","","","","",""
"","","","","","video-keyboard-response","3","86268","0.0-3.0","6111b4c15650244aadca5dd0","6186fb1cc52d38b480598eb7","6187384b4893130c4d002824","52843.70000000112","[""video/TaskInstructions.mp4""]"," ","","","","","","","","",""
"","","","","","html-keyboard-response","4","91226","0.0-4.0","6111b4c15650244aadca5dd0","6186fb1cc52d38b480598eb7","6187384b4893130c4d002824","4956.9000000003725","
    <p>First, we're going to do a few practice trials to make sure you understand the task. You will recieve feedback on each trial. </p>

    <p>[Press any key to begin the familiarization phase.]</p>
    "," ","","","","","","","","",""
"","","","","","visual-search-circle","5","93794","0.0-5.0-0.0","6111b4c15650244aadca5dd0","6186fb1cc52d38b480598eb7","6187384b4893130c4d002824","1498.5999999996275","","d","true","[[467,51],[51,132],[132,548],[548,467]]","true","4","training","d","","",""
"","","","","","html-keyboard-response","6","97030","0.0-6.0","6111b4c15650244aadca5dd0","6186fb1cc52d38b480598eb7","6187384b4893130c4d002824","3235.4000000003725"," <div style='float: center; '><img src='img/feedbackRight.png'></img> </div> "," ","","","","","","","","",""
"","","","","","visual-search-circle","7","98757","0.0-7.0-0.0","6111b4c15650244aadca5dd0","6186fb1cc52d38b480598eb7","6187384b4893130c4d002824","719.8000000007451","","s","true","[[562,445],[445,37],[37,154],[154,562]]","false","4","training","s","","",""
"","","","","","html-keyboard-response","8","102639","0.0-8.0","6111b4c15650244aadca5dd0","6186fb1cc52d38b480598eb7","6187384b4893130c4d002824","3880.5999999996275"," <div style='float: center; '><img src='img/feedbackRight.png'></img> </div> "," ","","","","","","","","",""
"","","","","","visual-search-circle","9","104345","0.0-9.0-0.0","6111b4c15650244aadca5dd0","6186fb1cc52d38b480598eb7","6187384b4893130c4d002824","687.5","","s","true","[[0,284],[136,551],[436,567],[599,315],[463,48],[163,32]]","false","6","training","s","","",""
"","","","","","html-keyboard-response","10","105570","0.0-10.0","6111b4c15650244aadca5dd0","6186fb1cc52d38b480598eb7","6187384b4893130c4d002824","1224.9000000003725"," <div style='float: center; '><img src='img/feedbackRight.png'></img> </div> "," ","","","","","","","","",""
"","","","","","visual-search-circle","11","107571","0.0-11.0-0.0","6111b4c15650244aadca5dd0","6186fb1cc52d38b480598eb7","6187384b4893130c4d002824","988.5","","s","false","[[557,145],[372,8],[145,42],[8,227],[42,454],[227,591],[454,557],[591,372]]","true","8","training","d","","",""
"","","","","","html-keyboard-response","12","109842","0.0-12.0","6111b4c15650244aadca5dd0","6186fb1cc52d38b480598eb7","6187384b4893130c4d002824","2271.300000000745"," <div style='float: center;'><img src='img/feedbackWrong.png'></img> </div> "," ","","","","","","","","",""
"","","","","","video-keyboard-response","13","119645","0.0-13.0","6111b4c15650244aadca5dd0","6186fb1cc52d38b480598eb7","6187384b4893130c4d002824","9801","[""video/endTraining.mp4""]"," ","","","","","","","","",""
"","","","","","html-keyboard-response","14","119649","0.0-14.0-0.0-0.0","6111b4c15650244aadca5dd0","6186fb1cc52d38b480598eb7","6187384b4893130c4d002824","null","","null","","","","","fixation","","","",""
"","","","","","visual-search-circle","15","122100","0.0-14.0-0.0-1.0","6111b4c15650244aadca5dd0","6186fb1cc52d38b480598eb7","6187384b4893130c4d002824","1436","","s","true","[[30,431],[341,597],[595,352],[440,35],[91,84]]","false","5","","","img/Fire_Up_Target.gif","[""img/Fire_Down_Distractor.gif"",""img/Fire_Down_Distractor.gif"",""img/Fire_Down_Distractor.gif"",""img/Fire_Down_Distractor.gif"",""img/Fire_Down_Distractor.gif"",""img/Fire_Down_Distractor.gif"",""img/Fire_Down_Distractor.gif"",""img/Fire_Down_Distractor.gif"",""img/Fire_Down_Distractor.gif"",""img/Fire_Down_Distractor.gif"",""img/Fire_Down_Distractor.gif"",""img/Fire_Down_Distractor.gif""]","targetUp_distractorsDown"
"","","","","","html-keyboard-response","16","122106","0.0-14.0-0.0-0.1","6111b4c15650244aadca5dd0","6186fb1cc52d38b480598eb7","6187384b4893130c4d002824","null","","null","","","","","fixation","","","",""
"","","","","","visual-search-circle","17","124327","0.0-14.0-0.0-1.1","6111b4c15650244aadca5dd0","6186fb1cc52d38b480598eb7","6187384b4893130c4d002824","1212.0999999996275","","s","true","[[492,70],[240,5],[33,163],[26,423],[225,590],[481,539],[599,307]]","false","7","","","img/Fire_Up_Target.gif","[""img/Fire_Down_Distractor.gif"",""img/Fire_Down_Distractor.gif"",""img/Fire_Down_Distractor.gif"",""img/Fire_Down_Distractor.gif"",""img/Fire_Down_Distractor.gif"",""img/Fire_Down_Distractor.gif"",""img/Fire_Down_Distractor.gif"",""img/Fire_Down_Distractor.gif"",""img/Fire_Down_Distractor.gif"",""img/Fire_Down_Distractor.gif"",""img/Fire_Down_Distractor.gif"",""img/Fire_Down_Distractor.gif""]","targetUp_distractorsDown"
"","","","","","html-keyboard-response","18","124329","0.0-14.0-0.0-0.2","6111b4c15650244aadca5dd0","6186fb1cc52d38b480598eb7","6187384b4893130c4d002824","null","","null","","","","","fixation","","","",""
"","","","","","visual-search-circle","19","127319","0.0-14.0-0.0-1.2","6111b4c15650244aadca5dd0","6186fb1cc52d38b480598eb7","6187384b4893130c4d002824","1974.699999999255","","s","true","[[559,150],[300,0],[40,150],[40,450],[299,600],[559,450]]","false","6","","","img/Fire_Up_Target.gif","[""img/Fire_Down_Distractor.gif"",""img/Fire_Down_Distractor.gif"",""img/Fire_Down_Distractor.gif"",""img/Fire_Down_Distractor.gif"",""img/Fire_Down_Distractor.gif"",""img/Fire_Down_Distractor.gif"",""img/Fire_Down_Distractor.gif"",""img/Fire_Down_Distractor.gif"",""img/Fire_Down_Distractor.gif"",""img/Fire_Down_Distractor.gif"",""img/Fire_Down_Distractor.gif"",""img/Fire_Down_Distractor.gif""]","targetUp_distractorsDown"
"","","","","","html-keyboard-response","20","127321","0.0-14.0-0.0-0.3","6111b4c15650244aadca5dd0","6186fb1cc52d38b480598eb7","6187384b4893130c4d002824","null","","null","","","","","fixation","","","",""
"","","","","","visual-search-circle","21","129567","0.0-14.0-0.0-1.3","6111b4c15650244aadca5dd0","6186fb1cc52d38b480598eb7","6187384b4893130c4d002824","1221.7000000011176","","s","true","[[0,294],[145,557],[445,562],[599,305],[454,42],[154,37]]","false","6","","","img/Fire_Down_Target.gif","[""img/Fire_Up_Distractor.gif"",""img/Fire_Up_Distractor.gif"",""img/Fire_Up_Distractor.gif"",""img/Fire_Up_Distractor.gif"",""img/Fire_Up_Distractor.gif"",""img/Fire_Up_Distractor.gif"",""img/Fire_Up_Distractor.gif"",""img/Fire_Up_Distractor.gif"",""img/Fire_Up_Distractor.gif"",""img/Fire_Up_Distractor.gif"",""img/Fire_Up_Distractor.gif"",""img/Fire_Up_Distractor.gif""]","targetDown_distractorsUp"
"","","","","","html-keyboard-response","22","129570","0.0-14.0-0.0-0.4","6111b4c15650244aadca5dd0","6186fb1cc52d38b480598eb7","6187384b4893130c4d002824","null","","null","","","","","fixation","","","",""
"","","","","","visual-search-circle","23","131851","0.0-14.0-0.0-1.4","6111b4c15650244aadca5dd0","6186fb1cc52d38b480598eb7","6187384b4893130c4d002824","1266.5999999996275","","s","true","[[352,4],[4,247],[247,595],[595,352]]","false","4","","","img/Fire_Down_Target.gif","[""img/Fire_Up_Distractor.gif"",""img/Fire_Up_Distractor.gif"",""img/Fire_Up_Distractor.gif"",""img/Fire_Up_Distractor.gif"",""img/Fire_Up_Distractor.gif"",""img/Fire_Up_Distractor.gif"",""img/Fire_Up_Distractor.gif"",""img/Fire_Up_Distractor.gif"",""img/Fire_Up_Distractor.gif"",""img/Fire_Up_Distractor.gif"",""img/Fire_Up_Distractor.gif"",""img/Fire_Up_Distractor.gif""]","targetDown_distractorsUp"
"","","","","","html-keyboard-response","24","131856","0.0-14.0-0.0-0.5","6111b4c15650244aadca5dd0","6186fb1cc52d38b480598eb7","6187384b4893130c4d002824","null","","null","","","","","fixation","","","",""
"","","","","","visual-search-circle","25","133646","0.0-14.0-0.0-1.5","6111b4c15650244aadca5dd0","6186fb1cc52d38b480598eb7","6187384b4893130c4d002824","784.7000000011176","","d","true","[[253,596],[596,346],[346,3],[3,253]]","true","4","","","img/Fire_Down_Target.gif","[""img/Fire_Up_Distractor.gif"",""img/Fire_Up_Distractor.gif"",""img/Fire_Up_Distractor.gif"",""img/Fire_Up_Distractor.gif"",""img/Fire_Up_Distractor.gif"",""img/Fire_Up_Distractor.gif"",""img/Fire_Up_Distractor.gif"",""img/Fire_Up_Distractor.gif"",""img/Fire_Up_Distractor.gif"",""img/Fire_Up_Distractor.gif"",""img/Fire_Up_Distractor.gif"",""img/Fire_Up_Distractor.gif""]","targetDown_distractorsUp"
"","","","","","html-keyboard-response","26","133657","0.0-14.0-0.0-0.6","6111b4c15650244aadca5dd0","6186fb1cc52d38b480598eb7","6187384b4893130c4d002824","null","","null","","","","","fixation","","","",""
"","","","","","visual-search-circle","27","135430","0.0-14.0-0.0-1.6","6111b4c15650244aadca5dd0","6186fb1cc52d38b480598eb7","6187384b4893130c4d002824","755.8000000007451","","d","true","[[127,545],[480,539],[583,202],[294,0],[13,212]]","true","5","","","img/Fire_Down_Target.gif","[""img/Fire_Up_Distractor.gif"",""img/Fire_Up_Distractor.gif"",""img/Fire_Up_Distractor.gif"",""img/Fire_Up_Distractor.gif"",""img/Fire_Up_Distractor.gif"",""img/Fire_Up_Distractor.gif"",""img/Fire_Up_Distractor.gif"",""img/Fire_Up_Distractor.gif"",""img/Fire_Up_Distractor.gif"",""img/Fire_Up_Distractor.gif"",""img/Fire_Up_Distractor.gif"",""img/Fire_Up_Distractor.gif""]","targetDown_distractorsUp"
"","","","","","html-keyboard-response","28","135432","0.0-14.0-0.0-0.7","6111b4c15650244aadca5dd0","6186fb1cc52d38b480598eb7","6187384b4893130c4d002824","null","","null","","","","","fixation","","","",""
"","","","","","visual-search-circle","29","137557","0.0-14.0-0.0-1.7","6111b4c15650244aadca5dd0","6186fb1cc52d38b480598eb7","6187384b4893130c4d002824","1111.9000000003725","","s","true","[[51,132],[132,548],[548,467],[467,51]]","false","4","","","img/Fire_Up_Target.gif","[""img/Fire_Down_Distractor.gif"",""img/Fire_Down_Distractor.gif"",""img/Fire_Down_Distractor.gif"",""img/Fire_Down_Distractor.gif"",""img/Fire_Down_Distractor.gif"",""img/Fire_Down_Distractor.gif"",""img/Fire_Down_Distractor.gif"",""img/Fire_Down_Distractor.gif"",""img/Fire_Down_Distractor.gif"",""img/Fire_Down_Distractor.gif"",""img/Fire_Down_Distractor.gif"",""img/Fire_Down_Distractor.gif""]","targetUp_distractorsDown"
"","","","","","html-keyboard-response","30","137559","0.0-14.0-0.0-0.8","6111b4c15650244aadca5dd0","6186fb1cc52d38b480598eb7","6187384b4893130c4d002824","null","","null","","","","","fixation","","","",""
"","","","","","visual-search-circle","31","139703","0.0-14.0-0.0-1.8","6111b4c15650244aadca5dd0","6186fb1cc52d38b480598eb7","6187384b4893130c4d002824","1133.199999999255","","d","true","[[4,247],[159,564],[508,515],[569,168],[258,2]]","true","5","","","img/Fire_Up_Target.gif","[""img/Fire_Down_Distractor.gif"",""img/Fire_Down_Distractor.gif"",""img/Fire_Down_Distractor.gif"",""img/Fire_Down_Distractor.gif"",""img/Fire_Down_Distractor.gif"",""img/Fire_Down_Distractor.gif"",""img/Fire_Down_Distractor.gif"",""img/Fire_Down_Distractor.gif"",""img/Fire_Down_Distractor.gif"",""img/Fire_Down_Distractor.gif"",""img/Fire_Down_Distractor.gif"",""img/Fire_Down_Distractor.gif""]","targetUp_distractorsDown"
"","","","","","html-keyboard-response","32","139705","0.0-14.0-0.0-0.9","6111b4c15650244aadca5dd0","6186fb1cc52d38b480598eb7","6187384b4893130c4d002824","null","","null","","","","","fixation","","","",""
"","","","","","visual-search-circle","33","141589","0.0-14.0-0.0-1.9","6111b4c15650244aadca5dd0","6186fb1cc52d38b480598eb7","6187384b4893130c4d002824","862","","s","false","[[548,132],[217,11],[0,289],[197,581],[536,484]]","true","5","","","img/Fire_Up_Target.gif","[""img/Fire_Down_Distractor.gif"",""img/Fire_Down_Distractor.gif"",""img/Fire_Down_Distractor.gif"",""img/Fire_Down_Distractor.gif"",""img/Fire_Down_Distractor.gif"",""img/Fire_Down_Distractor.gif"",""img/Fire_Down_Distractor.gif"",""img/Fire_Down_Distractor.gif"",""img/Fire_Down_Distractor.gif"",""img/Fire_Down_Distractor.gif"",""img/Fire_Down_Distractor.gif"",""img/Fire_Down_Distractor.gif""]","targetUp_distractorsDown"
"","","","","","html-keyboard-response","34","141591","0.0-14.0-0.0-0.10","6111b4c15650244aadca5dd0","6186fb1cc52d38b480598eb7","6187384b4893130c4d002824","null","","null","","","","","fixation","","","",""
"","","","","","visual-search-circle","35","143469","0.0-14.0-0.0-1.10","6111b4c15650244aadca5dd0","6186fb1cc52d38b480598eb7","6187384b4893130c4d002824","859.6999999992549","","d","true","[[362,593],[585,392],[522,99],[237,6],[14,207],[77,500]]","true","6","","","img/Fire_Down_Target.gif","[""img/Fire_Up_Distractor.gif"",""img/Fire_Up_Distractor.gif"",""img/Fire_Up_Distractor.gif"",""img/Fire_Up_Distractor.gif"",""img/Fire_Up_Distractor.gif"",""img/Fire_Up_Distractor.gif"",""img/Fire_Up_Distractor.gif"",""img/Fire_Up_Distractor.gif"",""img/Fire_Up_Distractor.gif"",""img/Fire_Up_Distractor.gif"",""img/Fire_Up_Distractor.gif"",""img/Fire_Up_Distractor.gif""]","targetDown_distractorsUp"
"","","","","","html-keyboard-response","36","143470","0.0-14.0-0.0-0.11","6111b4c15650244aadca5dd0","6186fb1cc52d38b480598eb7","6187384b4893130c4d002824","null","","null","","","","","fixation","","","",""
"","","","","","visual-search-circle","37","145329","0.0-14.0-0.0-1.11","6111b4c15650244aadca5dd0","6186fb1cc52d38b480598eb7","6187384b4893130c4d002824","846.5999999996275","","s","true","[[207,585],[500,522],[593,237],[392,14],[99,77],[6,362]]","false","6","","","img/Fire_Up_Target.gif","[""img/Fire_Down_Distractor.gif"",""img/Fire_Down_Distractor.gif"",""img/Fire_Down_Distractor.gif"",""img/Fire_Down_Distractor.gif"",""img/Fire_Down_Distractor.gif"",""img/Fire_Down_Distractor.gif"",""img/Fire_Down_Distractor.gif"",""img/Fire_Down_Distractor.gif"",""img/Fire_Down_Distractor.gif"",""img/Fire_Down_Distractor.gif"",""img/Fire_Down_Distractor.gif"",""img/Fire_Down_Distractor.gif""]","targetUp_distractorsDown"
"","","","","","html-keyboard-response","38","145331","0.0-14.0-0.0-0.12","6111b4c15650244aadca5dd0","6186fb1cc52d38b480598eb7","6187384b4893130c4d002824","null","","null","","","","","fixation","","","",""
"","","","","","visual-search-circle","39","147229","0.0-14.0-0.0-1.12","6111b4c15650244aadca5dd0","6186fb1cc52d38b480598eb7","6187384b4893130c4d002824","894.6999999992549","","d","true","[[594,357],[357,5],[5,242],[242,594]]","true","4","","","img/Fire_Down_Target.gif","[""img/Fire_Up_Distractor.gif"",""img/Fire_Up_Distractor.gif"",""img/Fire_Up_Distractor.gif"",""img/Fire_Up_Distractor.gif"",""img/Fire_Up_Distractor.gif"",""img/Fire_Up_Distractor.gif"",""img/Fire_Up_Distractor.gif"",""img/Fire_Up_Distractor.gif"",""img/Fire_Up_Distractor.gif"",""img/Fire_Up_Distractor.gif"",""img/Fire_Up_Distractor.gif"",""img/Fire_Up_Distractor.gif""]","targetDown_distractorsUp"
"","","","","","html-keyboard-response","40","147231","0.0-14.0-0.0-0.13","6111b4c15650244aadca5dd0","6186fb1cc52d38b480598eb7","6187384b4893130c4d002824","null","","null","","","","","fixation","","","",""
"","","","","","visual-search-circle","41","149346","0.0-14.0-0.0-1.13","6111b4c15650244aadca5dd0","6186fb1cc52d38b480598eb7","6187384b4893130c4d002824","1108.5","","s","false","[[227,591],[454,557],[591,372],[557,145],[372,8],[145,42],[8,227],[42,454]]","true","8","","","img/Fire_Up_Target.gif","[""img/Fire_Down_Distractor.gif"",""img/Fire_Down_Distractor.gif"",""img/Fire_Down_Distractor.gif"",""img/Fire_Down_Distractor.gif"",""img/Fire_Down_Distractor.gif"",""img/Fire_Down_Distractor.gif"",""img/Fire_Down_Distractor.gif"",""img/Fire_Down_Distractor.gif"",""img/Fire_Down_Distractor.gif"",""img/Fire_Down_Distractor.gif"",""img/Fire_Down_Distractor.gif"",""img/Fire_Down_Distractor.gif""]","targetUp_distractorsDown"
"","","","","","html-keyboard-response","42","149347","0.0-14.0-0.0-0.14","6111b4c15650244aadca5dd0","6186fb1cc52d38b480598eb7","6187384b4893130c4d002824","null","","null","","","","","fixation","","","",""
"","","","","","visual-search-circle","43","151519","0.0-14.0-0.0-1.14","6111b4c15650244aadca5dd0","6186fb1cc52d38b480598eb7","6187384b4893130c4d002824","1158.4000000003725","","d","true","[[545,127],[318,0],[77,98],[3,348],[153,561],[413,577],[587,384]]","true","7","","","img/Fire_Up_Target.gif","[""img/Fire_Down_Distractor.gif"",""img/Fire_Down_Distractor.gif"",""img/Fire_Down_Distractor.gif"",""img/Fire_Down_Distractor.gif"",""img/Fire_Down_Distractor.gif"",""img/Fire_Down_Distractor.gif"",""img/Fire_Down_Distractor.gif"",""img/Fire_Down_Distractor.gif"",""img/Fire_Down_Distractor.gif"",""img/Fire_Down_Distractor.gif"",""img/Fire_Down_Distractor.gif"",""img/Fire_Down_Distractor.gif""]","targetUp_distractorsDown"
"","","","","","html-keyboard-response","44","151522","0.0-14.0-0.0-0.15","6111b4c15650244aadca5dd0","6186fb1cc52d38b480598eb7","6187384b4893130c4d002824","null","","null","","","","","fixation","","","",""
"","","","","","visual-search-circle","45","153634","0.0-14.0-0.0-1.15","6111b4c15650244aadca5dd0","6186fb1cc52d38b480598eb7","6187384b4893130c4d002824","1096.2999999988824","","s","true","[[66,111],[19,407],[253,596],[533,488],[580,192],[346,3]]","false","6","","","img/Fire_Down_Target.gif","[""img/Fire_Up_Distractor.gif"",""img/Fire_Up_Distractor.gif"",""img/Fire_Up_Distractor.gif"",""img/Fire_Up_Distractor.gif"",""img/Fire_Up_Distractor.gif"",""img/Fire_Up_Distractor.gif"",""img/Fire_Up_Distractor.gif"",""img/Fire_Up_Distractor.gif"",""img/Fire_Up_Distractor.gif"",""img/Fire_Up_Distractor.gif"",""img/Fire_Up_Distractor.gif"",""img/Fire_Up_Distractor.gif""]","targetDown_distractorsUp"
"","","","","","html-keyboard-response","46","153637","0.0-14.0-0.0-0.16","6111b4c15650244aadca5dd0","6186fb1cc52d38b480598eb7","6187384b4893130c4d002824","null","","null","","","","","fixation","","","",""
"","","","","","visual-search-circle","47","156468","0.0-14.0-0.0-1.16","6111b4c15650244aadca5dd0","6186fb1cc52d38b480598eb7","6187384b4893130c4d002824","1825.5","","s","false","[[551,463],[533,111],[192,19],[0,315],[222,589]]","true","5","","","img/Fire_Down_Target.gif","[""img/Fire_Up_Distractor.gif"",""img/Fire_Up_Distractor.gif"",""img/Fire_Up_Distractor.gif"",""img/Fire_Up_Distractor.gif"",""img/Fire_Up_Distractor.gif"",""img/Fire_Up_Distractor.gif"",""img/Fire_Up_Distractor.gif"",""img/Fire_Up_Distractor.gif"",""img/Fire_Up_Distractor.gif"",""img/Fire_Up_Distractor.gif"",""img/Fire_Up_Distractor.gif"",""img/Fire_Up_Distractor.gif""]","targetDown_distractorsUp"
"","","","","","html-keyboard-response","48","156470","0.0-14.0-0.0-0.17","6111b4c15650244aadca5dd0","6186fb1cc52d38b480598eb7","6187384b4893130c4d002824","null","","null","","","","","fixation","","","",""
"","","","","","visual-search-circle","49","159047","0.0-14.0-0.0-1.17","6111b4c15650244aadca5dd0","6186fb1cc52d38b480598eb7","6187384b4893130c4d002824","1556.3999999985099","","s","true","[[0,299],[112,534],[366,592],[570,430],[570,169],[366,7],[112,65]]","false","7","","","img/Fire_Up_Target.gif","[""img/Fire_Down_Distractor.gif"",""img/Fire_Down_Distractor.gif"",""img/Fire_Down_Distractor.gif"",""img/Fire_Down_Distractor.gif"",""img/Fire_Down_Distractor.gif"",""img/Fire_Down_Distractor.gif"",""img/Fire_Down_Distractor.gif"",""img/Fire_Down_Distractor.gif"",""img/Fire_Down_Distractor.gif"",""img/Fire_Down_Distractor.gif"",""img/Fire_Down_Distractor.gif"",""img/Fire_Down_Distractor.gif""]","targetUp_distractorsDown"
"","","","","","html-keyboard-response","50","159053","0.0-14.0-0.0-0.18","6111b4c15650244aadca5dd0","6186fb1cc52d38b480598eb7","6187384b4893130c4d002824","null","","null","","","","","fixation","","","",""
"","","","","","visual-search-circle","51","161719","0.0-14.0-0.0-1.18","6111b4c15650244aadca5dd0","6186fb1cc52d38b480598eb7","6187384b4893130c4d002824","1650.699999999255","","d","true","[[599,320],[502,79],[253,3],[39,151],[21,410],[213,587],[470,547]]","true","7","","","img/Fire_Down_Target.gif","[""img/Fire_Up_Distractor.gif"",""img/Fire_Up_Distractor.gif"",""img/Fire_Up_Distractor.gif"",""img/Fire_Up_Distractor.gif"",""img/Fire_Up_Distractor.gif"",""img/Fire_Up_Distractor.gif"",""img/Fire_Up_Distractor.gif"",""img/Fire_Up_Distractor.gif"",""img/Fire_Up_Distractor.gif"",""img/Fire_Up_Distractor.gif"",""img/Fire_Up_Distractor.gif"",""img/Fire_Up_Distractor.gif""]","targetDown_distractorsUp"
"","","","","","html-keyboard-response","52","178422","0.0-14.0-0.0-0.19","6111b4c15650244aadca5dd0","6186fb1cc52d38b480598eb7","6187384b4893130c4d002824","16702.300000000745","Wow! You've completed 20 out of 120 trials! </p> <p>  </p><p> Take a quick break, then press any key when you're ready to continue."," ","","","","","fixation","","","",""
"","","","","","visual-search-circle","53","180576","0.0-14.0-0.0-1.19","6111b4c15650244aadca5dd0","6186fb1cc52d38b480598eb7","6187384b4893130c4d002824","1143.8999999985099","","s","true","[[571,173],[402,18],[173,28],[18,197],[28,426],[197,581],[426,571],[581,402]]","false","8","","","img/Fire_Down_Target.gif","[""img/Fire_Up_Distractor.gif"",""img/Fire_Up_Distractor.gif"",""img/Fire_Up_Distractor.gif"",""img/Fire_Up_Distractor.gif"",""img/Fire_Up_Distractor.gif"",""img/Fire_Up_Distractor.gif"",""img/Fire_Up_Distractor.gif"",""img/Fire_Up_Distractor.gif"",""img/Fire_Up_Distractor.gif"",""img/Fire_Up_Distractor.gif"",""img/Fire_Up_Distractor.gif"",""img/Fire_Up_Distractor.gif""]","targetDown_distractorsUp"
"","","","","","html-keyboard-response","54","180581","0.0-14.0-0.0-0.20","6111b4c15650244aadca5dd0","6186fb1cc52d38b480598eb7","6187384b4893130c4d002824","null","","null","","","","","fixation","","","",""
"","","","","","visual-search-circle","55","182690","0.0-14.0-0.0-1.20","6111b4c15650244aadca5dd0","6186fb1cc52d38b480598eb7","6187384b4893130c4d002824","1104.5","","s","true","[[2,263],[173,571],[519,504],[562,154],[242,5]]","false","5","","","img/Fire_Up_Target.gif","[""img/Fire_Down_Distractor.gif"",""img/Fire_Down_Distractor.gif"",""img/Fire_Down_Distractor.gif"",""img/Fire_Down_Distractor.gif"",""img/Fire_Down_Distractor.gif"",""img/Fire_Down_Distractor.gif"",""img/Fire_Down_Distractor.gif"",""img/Fire_Down_Distractor.gif"",""img/Fire_Down_Distractor.gif"",""img/Fire_Down_Distractor.gif"",""img/Fire_Down_Distractor.gif"",""img/Fire_Down_Distractor.gif""]","targetUp_distractorsDown"
"","","","","","html-keyboard-response","56","182699","0.0-14.0-0.0-0.21","6111b4c15650244aadca5dd0","6186fb1cc52d38b480598eb7","6187384b4893130c4d002824","null","","null","","","","","fixation","","","",""
"","","","","","visual-search-circle","57","184702","0.0-14.0-0.0-1.21","6111b4c15650244aadca5dd0","6186fb1cc52d38b480598eb7","6187384b4893130c4d002824","985.9000000003725","","s","true","[[187,21],[23,182],[21,412],[182,576],[412,578],[576,417],[578,187],[417,23]]","false","8","","","img/Fire_Down_Target.gif","[""img/Fire_Up_Distractor.gif"",""img/Fire_Up_Distractor.gif"",""img/Fire_Up_Distractor.gif"",""img/Fire_Up_Distractor.gif"",""img/Fire_Up_Distractor.gif"",""img/Fire_Up_Distractor.gif"",""img/Fire_Up_Distractor.gif"",""img/Fire_Up_Distractor.gif"",""img/Fire_Up_Distractor.gif"",""img/Fire_Up_Distractor.gif"",""img/Fire_Up_Distractor.gif"",""img/Fire_Up_Distractor.gif""]","targetDown_distractorsUp"
"","","","","","html-keyboard-response","58","184705","0.0-14.0-0.0-0.22","6111b4c15650244aadca5dd0","6186fb1cc52d38b480598eb7","6187384b4893130c4d002824","null","","null","","","","","fixation","","","",""
"","","","","","visual-search-circle","59","186701","0.0-14.0-0.0-1.22","6111b4c15650244aadca5dd0","6186fb1cc52d38b480598eb7","6187384b4893130c4d002824","981.6999999992549","","d","true","[[28,173],[173,571],[571,426],[426,28]]","true","4","","","img/Fire_Down_Target.gif","[""img/Fire_Up_Distractor.gif"",""img/Fire_Up_Distractor.gif"",""img/Fire_Up_Distractor.gif"",""img/Fire_Up_Distractor.gif"",""img/Fire_Up_Distractor.gif"",""img/Fire_Up_Distractor.gif"",""img/Fire_Up_Distractor.gif"",""img/Fire_Up_Distractor.gif"",""img/Fire_Up_Distractor.gif"",""img/Fire_Up_Distractor.gif"",""img/Fire_Up_Distractor.gif"",""img/Fire_Up_Distractor.gif""]","targetDown_distractorsUp"
"","","","","","html-keyboard-response","60","186704","0.0-14.0-0.0-0.23","6111b4c15650244aadca5dd0","6186fb1cc52d38b480598eb7","6187384b4893130c4d002824","null","","null","","","","","fixation","","","",""
"","","","","","visual-search-circle","61","188612","0.0-14.0-0.0-1.23","6111b4c15650244aadca5dd0","6186fb1cc52d38b480598eb7","6187384b4893130c4d002824","897.4000000003725","","d","true","[[597,258],[352,4],[35,159],[84,508],[431,569]]","true","5","","","img/Fire_Up_Target.gif","[""img/Fire_Down_Distractor.gif"",""img/Fire_Down_Distractor.gif"",""img/Fire_Down_Distractor.gif"",""img/Fire_Down_Distractor.gif"",""img/Fire_Down_Distractor.gif"",""img/Fire_Down_Distractor.gif"",""img/Fire_Down_Distractor.gif"",""img/Fire_Down_Distractor.gif"",""img/Fire_Down_Distractor.gif"",""img/Fire_Down_Distractor.gif"",""img/Fire_Down_Distractor.gif"",""img/Fire_Down_Distractor.gif""]","targetUp_distractorsDown"
"","","","","","html-keyboard-response","62","188615","0.0-14.0-0.0-0.24","6111b4c15650244aadca5dd0","6186fb1cc52d38b480598eb7","6187384b4893130c4d002824","null","","null","","","","","fixation","","","",""
"","","","","","visual-search-circle","63","190798","0.0-14.0-0.0-1.24","6111b4c15650244aadca5dd0","6186fb1cc52d38b480598eb7","6187384b4893130c4d002824","1177.2000000011176","","d","true","[[526,496],[595,245],[441,35],[181,24],[10,220],[57,476],[287,599]]","true","7","","","img/Fire_Up_Target.gif","[""img/Fire_Down_Distractor.gif"",""img/Fire_Down_Distractor.gif"",""img/Fire_Down_Distractor.gif"",""img/Fire_Down_Distractor.gif"",""img/Fire_Down_Distractor.gif"",""img/Fire_Down_Distractor.gif"",""img/Fire_Down_Distractor.gif"",""img/Fire_Down_Distractor.gif"",""img/Fire_Down_Distractor.gif"",""img/Fire_Down_Distractor.gif"",""img/Fire_Down_Distractor.gif"",""img/Fire_Down_Distractor.gif""]","targetUp_distractorsDown"
"","","","","","html-keyboard-response","64","190800","0.0-14.0-0.0-0.25","6111b4c15650244aadca5dd0","6186fb1cc52d38b480598eb7","6187384b4893130c4d002824","null","","null","","","","","fixation","","","",""
"","","","","","visual-search-circle","65","192693","0.0-14.0-0.0-1.25","6111b4c15650244aadca5dd0","6186fb1cc52d38b480598eb7","6187384b4893130c4d002824","882.0999999996275","","d","true","[[136,551],[436,567],[599,315],[463,48],[163,32],[0,284]]","true","6","","","img/Fire_Up_Target.gif","[""img/Fire_Down_Distractor.gif"",""img/Fire_Down_Distractor.gif"",""img/Fire_Down_Distractor.gif"",""img/Fire_Down_Distractor.gif"",""img/Fire_Down_Distractor.gif"",""img/Fire_Down_Distractor.gif"",""img/Fire_Down_Distractor.gif"",""img/Fire_Down_Distractor.gif"",""img/Fire_Down_Distractor.gif"",""img/Fire_Down_Distractor.gif"",""img/Fire_Down_Distractor.gif"",""img/Fire_Down_Distractor.gif""]","targetUp_distractorsDown"
"","","","","","html-keyboard-response","66","192696","0.0-14.0-0.0-0.26","6111b4c15650244aadca5dd0","6186fb1cc52d38b480598eb7","6187384b4893130c4d002824","null","","null","","","","","fixation","","","",""
"","","","","","visual-search-circle","67","194808","0.0-14.0-0.0-1.26","6111b4c15650244aadca5dd0","6186fb1cc52d38b480598eb7","6187384b4893130c4d002824","1090.5","","s","false","[[299,600],[559,450],[559,150],[300,0],[40,150],[40,449]]","true","6","","","img/Fire_Up_Target.gif","[""img/Fire_Down_Distractor.gif"",""img/Fire_Down_Distractor.gif"",""img/Fire_Down_Distractor.gif"",""img/Fire_Down_Distractor.gif"",""img/Fire_Down_Distractor.gif"",""img/Fire_Down_Distractor.gif"",""img/Fire_Down_Distractor.gif"",""img/Fire_Down_Distractor.gif"",""img/Fire_Down_Distractor.gif"",""img/Fire_Down_Distractor.gif"",""img/Fire_Down_Distractor.gif"",""img/Fire_Down_Distractor.gif""]","targetUp_distractorsDown"
"","","","","","html-keyboard-response","68","194810","0.0-14.0-0.0-0.27","6111b4c15650244aadca5dd0","6186fb1cc52d38b480598eb7","6187384b4893130c4d002824","null","","null","","","","","fixation","","","",""
"","","","","","visual-search-circle","69","196891","0.0-14.0-0.0-1.27","6111b4c15650244aadca5dd0","6186fb1cc52d38b480598eb7","6187384b4893130c4d002824","1066.5999999996275","","d","true","[[436,32],[207,14],[32,163],[14,392],[163,567],[392,585],[567,436],[585,207]]","true","8","","","img/Fire_Down_Target.gif","[""img/Fire_Up_Distractor.gif"",""img/Fire_Up_Distractor.gif"",""img/Fire_Up_Distractor.gif"",""img/Fire_Up_Distractor.gif"",""img/Fire_Up_Distractor.gif"",""img/Fire_Up_Distractor.gif"",""img/Fire_Up_Distractor.gif"",""img/Fire_Up_Distractor.gif"",""img/Fire_Up_Distractor.gif"",""img/Fire_Up_Distractor.gif"",""img/Fire_Up_Distractor.gif"",""img/Fire_Up_Distractor.gif""]","targetDown_distractorsUp"
"","","","","","html-keyboard-response","70","196895","0.0-14.0-0.0-0.28","6111b4c15650244aadca5dd0","6186fb1cc52d38b480598eb7","6187384b4893130c4d002824","null","","null","","","","","fixation","","","",""
"","","","","","visual-search-circle","71","198954","0.0-14.0-0.0-1.28","6111b4c15650244aadca5dd0","6186fb1cc52d38b480598eb7","6187384b4893130c4d002824","1045.0999999996275","","s","true","[[289,599],[581,402],[484,63],[132,51],[11,382]]","false","5","","","img/Fire_Down_Target.gif","[""img/Fire_Up_Distractor.gif"",""img/Fire_Up_Distractor.gif"",""img/Fire_Up_Distractor.gif"",""img/Fire_Up_Distractor.gif"",""img/Fire_Up_Distractor.gif"",""img/Fire_Up_Distractor.gif"",""img/Fire_Up_Distractor.gif"",""img/Fire_Up_Distractor.gif"",""img/Fire_Up_Distractor.gif"",""img/Fire_Up_Distractor.gif"",""img/Fire_Up_Distractor.gif"",""img/Fire_Up_Distractor.gif""]","targetDown_distractorsUp"
"","","","","","html-keyboard-response","72","198955","0.0-14.0-0.0-0.29","6111b4c15650244aadca5dd0","6186fb1cc52d38b480598eb7","6187384b4893130c4d002824","null","","null","","","","","fixation","","","",""
"","","","","","visual-search-circle","73","201271","0.0-14.0-0.0-1.29","6111b4c15650244aadca5dd0","6186fb1cc52d38b480598eb7","6187384b4893130c4d002824","1308.800000000745","","d","false","[[66,111],[19,407],[253,596],[533,488],[580,192],[346,3]]","false","6","","","img/Fire_Up_Target.gif","[""img/Fire_Down_Distractor.gif"",""img/Fire_Down_Distractor.gif"",""img/Fire_Down_Distractor.gif"",""img/Fire_Down_Distractor.gif"",""img/Fire_Down_Distractor.gif"",""img/Fire_Down_Distractor.gif"",""img/Fire_Down_Distractor.gif"",""img/Fire_Down_Distractor.gif"",""img/Fire_Down_Distractor.gif"",""img/Fire_Down_Distractor.gif"",""img/Fire_Down_Distractor.gif"",""img/Fire_Down_Distractor.gif""]","targetUp_distractorsDown"
"","","","","","html-keyboard-response","74","201273","0.0-14.0-0.0-0.30","6111b4c15650244aadca5dd0","6186fb1cc52d38b480598eb7","6187384b4893130c4d002824","null","","null","","","","","fixation","","","",""
"","","","","","visual-search-circle","75","203189","0.0-14.0-0.0-1.30","6111b4c15650244aadca5dd0","6186fb1cc52d38b480598eb7","6187384b4893130c4d002824","908.6999999992549","","d","false","[[91,515],[338,597],[556,455],[581,195],[394,15],[135,48],[1,271]]","false","7","","","img/Fire_Down_Target.gif","[""img/Fire_Up_Distractor.gif"",""img/Fire_Up_Distractor.gif"",""img/Fire_Up_Distractor.gif"",""img/Fire_Up_Distractor.gif"",""img/Fire_Up_Distractor.gif"",""img/Fire_Up_Distractor.gif"",""img/Fire_Up_Distractor.gif"",""img/Fire_Up_Distractor.gif"",""img/Fire_Up_Distractor.gif"",""img/Fire_Up_Distractor.gif"",""img/Fire_Up_Distractor.gif"",""img/Fire_Up_Distractor.gif""]","targetDown_distractorsUp"
"","","","","","html-keyboard-response","76","203207","0.0-14.0-0.0-0.31","6111b4c15650244aadca5dd0","6186fb1cc52d38b480598eb7","6187384b4893130c4d002824","null","","null","","","","","fixation","","","",""
"","","","","","visual-search-circle","77","205181","0.0-14.0-0.0-1.31","6111b4c15650244aadca5dd0","6186fb1cc52d38b480598eb7","6187384b4893130c4d002824","947.7999999988824","","d","false","[[310,0],[18,197],[115,536],[467,548],[588,217]]","false","5","","","img/Fire_Up_Target.gif","[""img/Fire_Down_Distractor.gif"",""img/Fire_Down_Distractor.gif"",""img/Fire_Down_Distractor.gif"",""img/Fire_Down_Distractor.gif"",""img/Fire_Down_Distractor.gif"",""img/Fire_Down_Distractor.gif"",""img/Fire_Down_Distractor.gif"",""img/Fire_Down_Distractor.gif"",""img/Fire_Down_Distractor.gif"",""img/Fire_Down_Distractor.gif"",""img/Fire_Down_Distractor.gif"",""img/Fire_Down_Distractor.gif""]","targetUp_distractorsDown"
"","","","","","html-keyboard-response","78","205182","0.0-14.0-0.0-0.32","6111b4c15650244aadca5dd0","6186fb1cc52d38b480598eb7","6187384b4893130c4d002824","null","","null","","","","","fixation","","","",""
"","","","","","visual-search-circle","79","207316","0.0-14.0-0.0-1.32","6111b4c15650244aadca5dd0","6186fb1cc52d38b480598eb7","6187384b4893130c4d002824","1115.800000000745","","s","true","[[173,28],[28,426],[426,571],[571,173]]","false","4","","","img/Fire_Down_Target.gif","[""img/Fire_Up_Distractor.gif"",""img/Fire_Up_Distractor.gif"",""img/Fire_Up_Distractor.gif"",""img/Fire_Up_Distractor.gif"",""img/Fire_Up_Distractor.gif"",""img/Fire_Up_Distractor.gif"",""img/Fire_Up_Distractor.gif"",""img/Fire_Up_Distractor.gif"",""img/Fire_Up_Distractor.gif"",""img/Fire_Up_Distractor.gif"",""img/Fire_Up_Distractor.gif"",""img/Fire_Up_Distractor.gif""]","targetDown_distractorsUp"
"","","","","","html-keyboard-response","80","207318","0.0-14.0-0.0-0.33","6111b4c15650244aadca5dd0","6186fb1cc52d38b480598eb7","6187384b4893130c4d002824","null","","null","","","","","fixation","","","",""
"","","","","","visual-search-circle","81","209105","0.0-14.0-0.0-1.33","6111b4c15650244aadca5dd0","6186fb1cc52d38b480598eb7","6187384b4893130c4d002824","769.9000000003725","","d","true","[[562,445],[519,95],[173,28],[2,336],[242,594]]","true","5","","","img/Fire_Down_Target.gif","[""img/Fire_Up_Distractor.gif"",""img/Fire_Up_Distractor.gif"",""img/Fire_Up_Distractor.gif"",""img/Fire_Up_Distractor.gif"",""img/Fire_Up_Distractor.gif"",""img/Fire_Up_Distractor.gif"",""img/Fire_Up_Distractor.gif"",""img/Fire_Up_Distractor.gif"",""img/Fire_Up_Distractor.gif"",""img/Fire_Up_Distractor.gif"",""img/Fire_Up_Distractor.gif"",""img/Fire_Up_Distractor.gif""]","targetDown_distractorsUp"
"","","","","","html-keyboard-response","82","209107","0.0-14.0-0.0-0.34","6111b4c15650244aadca5dd0","6186fb1cc52d38b480598eb7","6187384b4893130c4d002824","null","","null","","","","","fixation","","","",""
"","","","","","visual-search-circle","83","210995","0.0-14.0-0.0-1.34","6111b4c15650244aadca5dd0","6186fb1cc52d38b480598eb7","6187384b4893130c4d002824","875.9000000003725","","s","true","[[488,66],[136,48],[10,377],[284,599],[580,407]]","false","5","","","img/Fire_Down_Target.gif","[""img/Fire_Up_Distractor.gif"",""img/Fire_Up_Distractor.gif"",""img/Fire_Up_Distractor.gif"",""img/Fire_Up_Distractor.gif"",""img/Fire_Up_Distractor.gif"",""img/Fire_Up_Distractor.gif"",""img/Fire_Up_Distractor.gif"",""img/Fire_Up_Distractor.gif"",""img/Fire_Up_Distractor.gif"",""img/Fire_Up_Distractor.gif"",""img/Fire_Up_Distractor.gif"",""img/Fire_Up_Distractor.gif""]","targetDown_distractorsUp"
"","","","","","html-keyboard-response","84","210997","0.0-14.0-0.0-0.35","6111b4c15650244aadca5dd0","6186fb1cc52d38b480598eb7","6187384b4893130c4d002824","null","","null","","","","","fixation","","","",""
"","","","","","visual-search-circle","85","213011","0.0-14.0-0.0-1.35","6111b4c15650244aadca5dd0","6186fb1cc52d38b480598eb7","6187384b4893130c4d002824","999.9000000003725","","s","true","[[367,592],[554,458],[592,232],[458,45],[232,7],[45,141],[7,367],[141,554]]","false","8","","","img/Fire_Down_Target.gif","[""img/Fire_Up_Distractor.gif"",""img/Fire_Up_Distractor.gif"",""img/Fire_Up_Distractor.gif"",""img/Fire_Up_Distractor.gif"",""img/Fire_Up_Distractor.gif"",""img/Fire_Up_Distractor.gif"",""img/Fire_Up_Distractor.gif"",""img/Fire_Up_Distractor.gif"",""img/Fire_Up_Distractor.gif"",""img/Fire_Up_Distractor.gif"",""img/Fire_Up_Distractor.gif"",""img/Fire_Up_Distractor.gif""]","targetDown_distractorsUp"
"","","","","","html-keyboard-response","86","213013","0.0-14.0-0.0-0.36","6111b4c15650244aadca5dd0","6186fb1cc52d38b480598eb7","6187384b4893130c4d002824","null","","null","","","","","fixation","","","",""
"","","","","","visual-search-circle","87","214849","0.0-14.0-0.0-1.36","6111b4c15650244aadca5dd0","6186fb1cc52d38b480598eb7","6187384b4893130c4d002824","832.1999999992549","","d","true","[[569,168],[168,30],[30,431],[431,569]]","true","4","","","img/Fire_Down_Target.gif","[""img/Fire_Up_Distractor.gif"",""img/Fire_Up_Distractor.gif"",""img/Fire_Up_Distractor.gif"",""img/Fire_Up_Distractor.gif"",""img/Fire_Up_Distractor.gif"",""img/Fire_Up_Distractor.gif"",""img/Fire_Up_Distractor.gif"",""img/Fire_Up_Distractor.gif"",""img/Fire_Up_Distractor.gif"",""img/Fire_Up_Distractor.gif"",""img/Fire_Up_Distractor.gif"",""img/Fire_Up_Distractor.gif""]","targetDown_distractorsUp"
"","","","","","html-keyboard-response","88","214851","0.0-14.0-0.0-0.37","6111b4c15650244aadca5dd0","6186fb1cc52d38b480598eb7","6187384b4893130c4d002824","null","","null","","","","","fixation","","","",""
"","","","","","visual-search-circle","89","217191","0.0-14.0-0.0-1.37","6111b4c15650244aadca5dd0","6186fb1cc52d38b480598eb7","6187384b4893130c4d002824","1334.7999999988824","","d","true","[[51,467],[382,588],[599,310],[402,18],[63,115]]","true","5","","","img/Fire_Down_Target.gif","[""img/Fire_Up_Distractor.gif"",""img/Fire_Up_Distractor.gif"",""img/Fire_Up_Distractor.gif"",""img/Fire_Up_Distractor.gif"",""img/Fire_Up_Distractor.gif"",""img/Fire_Up_Distractor.gif"",""img/Fire_Up_Distractor.gif"",""img/Fire_Up_Distractor.gif"",""img/Fire_Up_Distractor.gif"",""img/Fire_Up_Distractor.gif"",""img/Fire_Up_Distractor.gif"",""img/Fire_Up_Distractor.gif""]","targetDown_distractorsUp"
"","","","","","html-keyboard-response","90","217192","0.0-14.0-0.0-0.38","6111b4c15650244aadca5dd0","6186fb1cc52d38b480598eb7","6187384b4893130c4d002824","null","","null","","","","","fixation","","","",""
"","","","","","visual-search-circle","91","219244","0.0-14.0-0.0-1.38","6111b4c15650244aadca5dd0","6186fb1cc52d38b480598eb7","6187384b4893130c4d002824","1033.9000000003725","","s","false","[[1,273],[70,492],[273,598],[492,529],[598,326],[529,107],[326,1],[107,70]]","true","8","","","img/Fire_Down_Target.gif","[""img/Fire_Up_Distractor.gif"",""img/Fire_Up_Distractor.gif"",""img/Fire_Up_Distractor.gif"",""img/Fire_Up_Distractor.gif"",""img/Fire_Up_Distractor.gif"",""img/Fire_Up_Distractor.gif"",""img/Fire_Up_Distractor.gif"",""img/Fire_Up_Distractor.gif"",""img/Fire_Up_Distractor.gif"",""img/Fire_Up_Distractor.gif"",""img/Fire_Up_Distractor.gif"",""img/Fire_Up_Distractor.gif""]","targetDown_distractorsUp"
"","","","","","html-keyboard-response","92","240991","0.0-14.0-0.0-0.39","6111b4c15650244aadca5dd0","6186fb1cc52d38b480598eb7","6187384b4893130c4d002824","21746.300000000745","Wow! You've completed 40 out of 120 trials! </p> <p>  </p><p> Take a quick break, then press any key when you're ready to continue."," ","","","","","fixation","","","",""
"","","","","","visual-search-circle","93","242724","0.0-14.0-0.0-1.39","6111b4c15650244aadca5dd0","6186fb1cc52d38b480598eb7","6187384b4893130c4d002824","726.6000000014901","","d","true","[[484,63],[187,21],[2,258],[115,536],[412,578],[597,341]]","true","6","","","img/Fire_Up_Target.gif","[""img/Fire_Down_Distractor.gif"",""img/Fire_Down_Distractor.gif"",""img/Fire_Down_Distractor.gif"",""img/Fire_Down_Distractor.gif"",""img/Fire_Down_Distractor.gif"",""img/Fire_Down_Distractor.gif"",""img/Fire_Down_Distractor.gif"",""img/Fire_Down_Distractor.gif"",""img/Fire_Down_Distractor.gif"",""img/Fire_Down_Distractor.gif"",""img/Fire_Down_Distractor.gif"",""img/Fire_Down_Distractor.gif""]","targetUp_distractorsDown"
"","","","","","html-keyboard-response","94","242726","0.0-14.0-0.0-0.40","6111b4c15650244aadca5dd0","6186fb1cc52d38b480598eb7","6187384b4893130c4d002824","null","","null","","","","","fixation","","","",""
"","","","","","visual-search-circle","95","244785","0.0-14.0-0.0-1.40","6111b4c15650244aadca5dd0","6186fb1cc52d38b480598eb7","6187384b4893130c4d002824","1048.199999999255","","s","true","[[377,589],[574,419],[565,159],[355,5],[104,72],[0,311],[121,541]]","false","7","","","img/Fire_Down_Target.gif","[""img/Fire_Up_Distractor.gif"",""img/Fire_Up_Distractor.gif"",""img/Fire_Up_Distractor.gif"",""img/Fire_Up_Distractor.gif"",""img/Fire_Up_Distractor.gif"",""img/Fire_Up_Distractor.gif"",""img/Fire_Up_Distractor.gif"",""img/Fire_Up_Distractor.gif"",""img/Fire_Up_Distractor.gif"",""img/Fire_Up_Distractor.gif"",""img/Fire_Up_Distractor.gif"",""img/Fire_Up_Distractor.gif""]","targetDown_distractorsUp"
"","","","","","html-keyboard-response","96","244787","0.0-14.0-0.0-0.41","6111b4c15650244aadca5dd0","6186fb1cc52d38b480598eb7","6187384b4893130c4d002824","null","","null","","","","","fixation","","","",""
"","","","","","visual-search-circle","97","246908","0.0-14.0-0.0-1.41","6111b4c15650244aadca5dd0","6186fb1cc52d38b480598eb7","6187384b4893130c4d002824","1113.2000000011176","","s","true","[[154,37],[11,217],[37,445],[217,588],[445,562],[588,382],[562,154],[382,11]]","false","8","","","img/Fire_Up_Target.gif","[""img/Fire_Down_Distractor.gif"",""img/Fire_Down_Distractor.gif"",""img/Fire_Down_Distractor.gif"",""img/Fire_Down_Distractor.gif"",""img/Fire_Down_Distractor.gif"",""img/Fire_Down_Distractor.gif"",""img/Fire_Down_Distractor.gif"",""img/Fire_Down_Distractor.gif"",""img/Fire_Down_Distractor.gif"",""img/Fire_Down_Distractor.gif"",""img/Fire_Down_Distractor.gif"",""img/Fire_Down_Distractor.gif""]","targetUp_distractorsDown"
"","","","","","html-keyboard-response","98","246910","0.0-14.0-0.0-0.42","6111b4c15650244aadca5dd0","6186fb1cc52d38b480598eb7","6187384b4893130c4d002824","null","","null","","","","","fixation","","","",""
"","","","","","visual-search-circle","99","248776","0.0-14.0-0.0-1.42","6111b4c15650244aadca5dd0","6186fb1cc52d38b480598eb7","6187384b4893130c4d002824","852.2999999988824","","d","true","[[35,440],[289,599],[554,458],[564,159],[310,0],[45,141]]","true","6","","","img/Fire_Up_Target.gif","[""img/Fire_Down_Distractor.gif"",""img/Fire_Down_Distractor.gif"",""img/Fire_Down_Distractor.gif"",""img/Fire_Down_Distractor.gif"",""img/Fire_Down_Distractor.gif"",""img/Fire_Down_Distractor.gif"",""img/Fire_Down_Distractor.gif"",""img/Fire_Down_Distractor.gif"",""img/Fire_Down_Distractor.gif"",""img/Fire_Down_Distractor.gif"",""img/Fire_Down_Distractor.gif"",""img/Fire_Down_Distractor.gif""]","targetUp_distractorsDown"
"","","","","","html-keyboard-response","100","248780","0.0-14.0-0.0-0.43","6111b4c15650244aadca5dd0","6186fb1cc52d38b480598eb7","6187384b4893130c4d002824","null","","null","","","","","fixation","","","",""
"","","","","","visual-search-circle","101","250640","0.0-14.0-0.0-1.43","6111b4c15650244aadca5dd0","6186fb1cc52d38b480598eb7","6187384b4893130c4d002824","841.6000000014901","","d","true","[[136,551],[362,593],[551,463],[593,237],[463,48],[237,6],[48,136],[6,362]]","true","8","","","img/Fire_Down_Target.gif","[""img/Fire_Up_Distractor.gif"",""img/Fire_Up_Distractor.gif"",""img/Fire_Up_Distractor.gif"",""img/Fire_Up_Distractor.gif"",""img/Fire_Up_Distractor.gif"",""img/Fire_Up_Distractor.gif"",""img/Fire_Up_Distractor.gif"",""img/Fire_Up_Distractor.gif"",""img/Fire_Up_Distractor.gif"",""img/Fire_Up_Distractor.gif"",""img/Fire_Up_Distractor.gif"",""img/Fire_Up_Distractor.gif""]","targetDown_distractorsUp"
"","","","","","html-keyboard-response","102","250642","0.0-14.0-0.0-0.44","6111b4c15650244aadca5dd0","6186fb1cc52d38b480598eb7","6187384b4893130c4d002824","null","","null","","","","","fixation","","","",""
"","","","","","visual-search-circle","103","252366","0.0-14.0-0.0-1.44","6111b4c15650244aadca5dd0","6186fb1cc52d38b480598eb7","6187384b4893130c4d002824","716.0999999996275","","d","true","[[341,597],[595,352],[440,35],[91,84],[30,431]]","true","5","","","img/Fire_Down_Target.gif","[""img/Fire_Up_Distractor.gif"",""img/Fire_Up_Distractor.gif"",""img/Fire_Up_Distractor.gif"",""img/Fire_Up_Distractor.gif"",""img/Fire_Up_Distractor.gif"",""img/Fire_Up_Distractor.gif"",""img/Fire_Up_Distractor.gif"",""img/Fire_Up_Distractor.gif"",""img/Fire_Up_Distractor.gif"",""img/Fire_Up_Distractor.gif"",""img/Fire_Up_Distractor.gif"",""img/Fire_Up_Distractor.gif""]","targetDown_distractorsUp"
"","","","","","html-keyboard-response","104","252368","0.0-14.0-0.0-0.45","6111b4c15650244aadca5dd0","6186fb1cc52d38b480598eb7","6187384b4893130c4d002824","null","","null","","","","","fixation","","","",""
"","","","","","visual-search-circle","105","254441","0.0-14.0-0.0-1.45","6111b4c15650244aadca5dd0","6186fb1cc52d38b480598eb7","6187384b4893130c4d002824","1068.5999999996275","","d","true","[[103,73],[73,496],[496,526],[526,103]]","true","4","","","img/Fire_Up_Target.gif","[""img/Fire_Down_Distractor.gif"",""img/Fire_Down_Distractor.gif"",""img/Fire_Down_Distractor.gif"",""img/Fire_Down_Distractor.gif"",""img/Fire_Down_Distractor.gif"",""img/Fire_Down_Distractor.gif"",""img/Fire_Down_Distractor.gif"",""img/Fire_Down_Distractor.gif"",""img/Fire_Down_Distractor.gif"",""img/Fire_Down_Distractor.gif"",""img/Fire_Down_Distractor.gif"",""img/Fire_Down_Distractor.gif""]","targetUp_distractorsDown"
"","","","","","html-keyboard-response","106","254444","0.0-14.0-0.0-0.46","6111b4c15650244aadca5dd0","6186fb1cc52d38b480598eb7","6187384b4893130c4d002824","null","","null","","","","","fixation","","","",""
"","","","","","visual-search-circle","107","256663","0.0-14.0-0.0-1.46","6111b4c15650244aadca5dd0","6186fb1cc52d38b480598eb7","6187384b4893130c4d002824","1208.199999999255","","s","false","[[571,173],[402,18],[173,28],[18,197],[28,426],[197,581],[426,571],[581,402]]","true","8","","","img/Fire_Down_Target.gif","[""img/Fire_Up_Distractor.gif"",""img/Fire_Up_Distractor.gif"",""img/Fire_Up_Distractor.gif"",""img/Fire_Up_Distractor.gif"",""img/Fire_Up_Distractor.gif"",""img/Fire_Up_Distractor.gif"",""img/Fire_Up_Distractor.gif"",""img/Fire_Up_Distractor.gif"",""img/Fire_Up_Distractor.gif"",""img/Fire_Up_Distractor.gif"",""img/Fire_Up_Distractor.gif"",""img/Fire_Up_Distractor.gif""]","targetDown_distractorsUp"
"","","","","","html-keyboard-response","108","256673","0.0-14.0-0.0-0.47","6111b4c15650244aadca5dd0","6186fb1cc52d38b480598eb7","6187384b4893130c4d002824","null","","null","","","","","fixation","","","",""
"","","","","","visual-search-circle","109","258540","0.0-14.0-0.0-1.47","6111b4c15650244aadca5dd0","6186fb1cc52d38b480598eb7","6187384b4893130c4d002824","857.5","","s","true","[[372,591],[599,320],[412,21],[70,107],[45,458]]","false","5","","","img/Fire_Down_Target.gif","[""img/Fire_Up_Distractor.gif"",""img/Fire_Up_Distractor.gif"",""img/Fire_Up_Distractor.gif"",""img/Fire_Up_Distractor.gif"",""img/Fire_Up_Distractor.gif"",""img/Fire_Up_Distractor.gif"",""img/Fire_Up_Distractor.gif"",""img/Fire_Up_Distractor.gif"",""img/Fire_Up_Distractor.gif"",""img/Fire_Up_Distractor.gif"",""img/Fire_Up_Distractor.gif"",""img/Fire_Up_Distractor.gif""]","targetDown_distractorsUp"
"","","","","","html-keyboard-response","110","258542","0.0-14.0-0.0-0.48","6111b4c15650244aadca5dd0","6186fb1cc52d38b480598eb7","6187384b4893130c4d002824","null","","null","","","","","fixation","","","",""
"","","","","","visual-search-circle","111","260473","0.0-14.0-0.0-1.48","6111b4c15650244aadca5dd0","6186fb1cc52d38b480598eb7","6187384b4893130c4d002824","921.9000000003725","","s","true","[[91,84],[30,431],[341,597],[595,352],[440,35]]","false","5","","","img/Fire_Up_Target.gif","[""img/Fire_Down_Distractor.gif"",""img/Fire_Down_Distractor.gif"",""img/Fire_Down_Distractor.gif"",""img/Fire_Down_Distractor.gif"",""img/Fire_Down_Distractor.gif"",""img/Fire_Down_Distractor.gif"",""img/Fire_Down_Distractor.gif"",""img/Fire_Down_Distractor.gif"",""img/Fire_Down_Distractor.gif"",""img/Fire_Down_Distractor.gif"",""img/Fire_Down_Distractor.gif"",""img/Fire_Down_Distractor.gif""]","targetUp_distractorsDown"
"","","","","","html-keyboard-response","112","260474","0.0-14.0-0.0-0.49","6111b4c15650244aadca5dd0","6186fb1cc52d38b480598eb7","6187384b4893130c4d002824","null","","null","","","","","fixation","","","",""
"","","","","","visual-search-circle","113","262482","0.0-14.0-0.0-1.49","6111b4c15650244aadca5dd0","6186fb1cc52d38b480598eb7","6187384b4893130c4d002824","1001.1999999992549","","s","true","[[168,30],[7,234],[66,488],[301,599],[535,485],[592,231],[428,29]]","false","7","","","img/Fire_Up_Target.gif","[""img/Fire_Down_Distractor.gif"",""img/Fire_Down_Distractor.gif"",""img/Fire_Down_Distractor.gif"",""img/Fire_Down_Distractor.gif"",""img/Fire_Down_Distractor.gif"",""img/Fire_Down_Distractor.gif"",""img/Fire_Down_Distractor.gif"",""img/Fire_Down_Distractor.gif"",""img/Fire_Down_Distractor.gif"",""img/Fire_Down_Distractor.gif"",""img/Fire_Down_Distractor.gif"",""img/Fire_Down_Distractor.gif""]","targetUp_distractorsDown"
"","","","","","html-keyboard-response","114","262484","0.0-14.0-0.0-0.50","6111b4c15650244aadca5dd0","6186fb1cc52d38b480598eb7","6187384b4893130c4d002824","null","","null","","","","","fixation","","","",""
"","","","","","visual-search-circle","115","264679","0.0-14.0-0.0-1.50","6111b4c15650244aadca5dd0","6186fb1cc52d38b480598eb7","6187384b4893130c4d002824","1176.4000000003725","","s","true","[[539,119],[341,2],[119,60],[2,258],[60,480],[258,597],[480,539],[597,341]]","false","8","","","img/Fire_Up_Target.gif","[""img/Fire_Down_Distractor.gif"",""img/Fire_Down_Distractor.gif"",""img/Fire_Down_Distractor.gif"",""img/Fire_Down_Distractor.gif"",""img/Fire_Down_Distractor.gif"",""img/Fire_Down_Distractor.gif"",""img/Fire_Down_Distractor.gif"",""img/Fire_Down_Distractor.gif"",""img/Fire_Down_Distractor.gif"",""img/Fire_Down_Distractor.gif"",""img/Fire_Down_Distractor.gif"",""img/Fire_Down_Distractor.gif""]","targetUp_distractorsDown"
"","","","","","html-keyboard-response","116","264682","0.0-14.0-0.0-0.51","6111b4c15650244aadca5dd0","6186fb1cc52d38b480598eb7","6187384b4893130c4d002824","null","","null","","","","","fixation","","","",""
"","","","","","visual-search-circle","117","266906","0.0-14.0-0.0-1.51","6111b4c15650244aadca5dd0","6186fb1cc52d38b480598eb7","6187384b4893130c4d002824","1218.2999999988824","","s","true","[[212,586],[586,387],[387,13],[13,212]]","false","4","","","img/Fire_Down_Target.gif","[""img/Fire_Up_Distractor.gif"",""img/Fire_Up_Distractor.gif"",""img/Fire_Up_Distractor.gif"",""img/Fire_Up_Distractor.gif"",""img/Fire_Up_Distractor.gif"",""img/Fire_Up_Distractor.gif"",""img/Fire_Up_Distractor.gif"",""img/Fire_Up_Distractor.gif"",""img/Fire_Up_Distractor.gif"",""img/Fire_Up_Distractor.gif"",""img/Fire_Up_Distractor.gif"",""img/Fire_Up_Distractor.gif""]","targetDown_distractorsUp"
"","","","","","html-keyboard-response","118","266917","0.0-14.0-0.0-0.52","6111b4c15650244aadca5dd0","6186fb1cc52d38b480598eb7","6187384b4893130c4d002824","null","","null","","","","","fixation","","","",""
"","","","","","visual-search-circle","119","268691","0.0-14.0-0.0-1.52","6111b4c15650244aadca5dd0","6186fb1cc52d38b480598eb7","6187384b4893130c4d002824","766.5","","d","true","[[11,217],[132,548],[484,536],[581,197],[289,0]]","true","5","","","img/Fire_Up_Target.gif","[""img/Fire_Down_Distractor.gif"",""img/Fire_Down_Distractor.gif"",""img/Fire_Down_Distractor.gif"",""img/Fire_Down_Distractor.gif"",""img/Fire_Down_Distractor.gif"",""img/Fire_Down_Distractor.gif"",""img/Fire_Down_Distractor.gif"",""img/Fire_Down_Distractor.gif"",""img/Fire_Down_Distractor.gif"",""img/Fire_Down_Distractor.gif"",""img/Fire_Down_Distractor.gif"",""img/Fire_Down_Distractor.gif""]","targetUp_distractorsDown"
"","","","","","html-keyboard-response","120","268693","0.0-14.0-0.0-0.53","6111b4c15650244aadca5dd0","6186fb1cc52d38b480598eb7","6187384b4893130c4d002824","null","","null","","","","","fixation","","","",""
"","","","","","visual-search-circle","121","270527","0.0-14.0-0.0-1.53","6111b4c15650244aadca5dd0","6186fb1cc52d38b480598eb7","6187384b4893130c4d002824","821.6999999992549","","d","true","[[581,402],[555,143],[337,2],[90,85],[1,329],[137,552],[395,584]]","true","7","","","img/Fire_Up_Target.gif","[""img/Fire_Down_Distractor.gif"",""img/Fire_Down_Distractor.gif"",""img/Fire_Down_Distractor.gif"",""img/Fire_Down_Distractor.gif"",""img/Fire_Down_Distractor.gif"",""img/Fire_Down_Distractor.gif"",""img/Fire_Down_Distractor.gif"",""img/Fire_Down_Distractor.gif"",""img/Fire_Down_Distractor.gif"",""img/Fire_Down_Distractor.gif"",""img/Fire_Down_Distractor.gif"",""img/Fire_Down_Distractor.gif""]","targetUp_distractorsDown"
"","","","","","html-keyboard-response","122","270529","0.0-14.0-0.0-0.54","6111b4c15650244aadca5dd0","6186fb1cc52d38b480598eb7","6187384b4893130c4d002824","null","","null","","","","","fixation","","","",""
"","","","","","visual-search-circle","123","272471","0.0-14.0-0.0-1.54","6111b4c15650244aadca5dd0","6186fb1cc52d38b480598eb7","6187384b4893130c4d002824","926.3000000007451","","s","false","[[597,258],[258,2],[2,341],[341,597]]","true","4","","","img/Fire_Up_Target.gif","[""img/Fire_Down_Distractor.gif"",""img/Fire_Down_Distractor.gif"",""img/Fire_Down_Distractor.gif"",""img/Fire_Down_Distractor.gif"",""img/Fire_Down_Distractor.gif"",""img/Fire_Down_Distractor.gif"",""img/Fire_Down_Distractor.gif"",""img/Fire_Down_Distractor.gif"",""img/Fire_Down_Distractor.gif"",""img/Fire_Down_Distractor.gif"",""img/Fire_Down_Distractor.gif"",""img/Fire_Down_Distractor.gif""]","targetUp_distractorsDown"
"","","","","","html-keyboard-response","124","272472","0.0-14.0-0.0-0.55","6111b4c15650244aadca5dd0","6186fb1cc52d38b480598eb7","6187384b4893130c4d002824","null","","null","","","","","fixation","","","",""
"","","","","","visual-search-circle","125","274372","0.0-14.0-0.0-1.55","6111b4c15650244aadca5dd0","6186fb1cc52d38b480598eb7","6187384b4893130c4d002824","871.5999999996275","","s","true","[[310,0],[45,141],[35,440],[289,599],[554,458],[564,159]]","false","6","","","img/Fire_Up_Target.gif","[""img/Fire_Down_Distractor.gif"",""img/Fire_Down_Distractor.gif"",""img/Fire_Down_Distractor.gif"",""img/Fire_Down_Distractor.gif"",""img/Fire_Down_Distractor.gif"",""img/Fire_Down_Distractor.gif"",""img/Fire_Down_Distractor.gif"",""img/Fire_Down_Distractor.gif"",""img/Fire_Down_Distractor.gif"",""img/Fire_Down_Distractor.gif"",""img/Fire_Down_Distractor.gif"",""img/Fire_Down_Distractor.gif""]","targetUp_distractorsDown"
"","","","","","html-keyboard-response","126","274373","0.0-14.0-0.0-0.56","6111b4c15650244aadca5dd0","6186fb1cc52d38b480598eb7","6187384b4893130c4d002824","null","","null","","","","","fixation","","","",""
"","","","","","visual-search-circle","127","276428","0.0-14.0-0.0-1.56","6111b4c15650244aadca5dd0","6186fb1cc52d38b480598eb7","6187384b4893130c4d002824","1047.9000000003725","","d","true","[[454,42],[195,18],[14,206],[49,464],[272,598],[516,507],[597,260]]","true","7","","","img/Fire_Down_Target.gif","[""img/Fire_Up_Distractor.gif"",""img/Fire_Up_Distractor.gif"",""img/Fire_Up_Distractor.gif"",""img/Fire_Up_Distractor.gif"",""img/Fire_Up_Distractor.gif"",""img/Fire_Up_Distractor.gif"",""img/Fire_Up_Distractor.gif"",""img/Fire_Up_Distractor.gif"",""img/Fire_Up_Distractor.gif"",""img/Fire_Up_Distractor.gif"",""img/Fire_Up_Distractor.gif"",""img/Fire_Up_Distractor.gif""]","targetDown_distractorsUp"
"","","","","","html-keyboard-response","128","276430","0.0-14.0-0.0-0.57","6111b4c15650244aadca5dd0","6186fb1cc52d38b480598eb7","6187384b4893130c4d002824","null","","null","","","","","fixation","","","",""
"","","","","","visual-search-circle","129","278235","0.0-14.0-0.0-1.57","6111b4c15650244aadca5dd0","6186fb1cc52d38b480598eb7","6187384b4893130c4d002824","785.5","","s","true","[[63,115],[21,412],[258,597],[536,484],[578,187],[341,2]]","false","6","","","img/Fire_Up_Target.gif","[""img/Fire_Down_Distractor.gif"",""img/Fire_Down_Distractor.gif"",""img/Fire_Down_Distractor.gif"",""img/Fire_Down_Distractor.gif"",""img/Fire_Down_Distractor.gif"",""img/Fire_Down_Distractor.gif"",""img/Fire_Down_Distractor.gif"",""img/Fire_Down_Distractor.gif"",""img/Fire_Down_Distractor.gif"",""img/Fire_Down_Distractor.gif"",""img/Fire_Down_Distractor.gif"",""img/Fire_Down_Distractor.gif""]","targetUp_distractorsDown"
"","","","","","html-keyboard-response","130","278238","0.0-14.0-0.0-0.58","6111b4c15650244aadca5dd0","6186fb1cc52d38b480598eb7","6187384b4893130c4d002824","null","","null","","","","","fixation","","","",""
"","","","","","visual-search-circle","131","280012","0.0-14.0-0.0-1.58","6111b4c15650244aadca5dd0","6186fb1cc52d38b480598eb7","6187384b4893130c4d002824","754","","d","true","[[263,597],[510,514],[598,269],[462,47],[203,15],[17,198],[44,457]]","true","7","","","img/Fire_Down_Target.gif","[""img/Fire_Up_Distractor.gif"",""img/Fire_Up_Distractor.gif"",""img/Fire_Up_Distractor.gif"",""img/Fire_Up_Distractor.gif"",""img/Fire_Up_Distractor.gif"",""img/Fire_Up_Distractor.gif"",""img/Fire_Up_Distractor.gif"",""img/Fire_Up_Distractor.gif"",""img/Fire_Up_Distractor.gif"",""img/Fire_Up_Distractor.gif"",""img/Fire_Up_Distractor.gif"",""img/Fire_Up_Distractor.gif""]","targetDown_distractorsUp"
"","","","","","html-keyboard-response","132","286940","0.0-14.0-0.0-0.59","6111b4c15650244aadca5dd0","6186fb1cc52d38b480598eb7","6187384b4893130c4d002824","6927.699999999255","Wow! You've completed 60 out of 120 trials! </p> <p>  </p><p> Take a quick break, then press any key when you're ready to continue."," ","","","","","fixation","","","",""
"","","","","","visual-search-circle","133","290128","0.0-14.0-0.0-1.59","6111b4c15650244aadca5dd0","6186fb1cc52d38b480598eb7","6187384b4893130c4d002824","2184.9000000003725","","s","true","[[569,168],[168,30],[30,431],[431,569]]","false","4","","","img/Fire_Up_Target.gif","[""img/Fire_Down_Distractor.gif"",""img/Fire_Down_Distractor.gif"",""img/Fire_Down_Distractor.gif"",""img/Fire_Down_Distractor.gif"",""img/Fire_Down_Distractor.gif"",""img/Fire_Down_Distractor.gif"",""img/Fire_Down_Distractor.gif"",""img/Fire_Down_Distractor.gif"",""img/Fire_Down_Distractor.gif"",""img/Fire_Down_Distractor.gif"",""img/Fire_Down_Distractor.gif"",""img/Fire_Down_Distractor.gif""]","targetUp_distractorsDown"
"","","","","","html-keyboard-response","134","290130","0.0-14.0-0.0-0.60","6111b4c15650244aadca5dd0","6186fb1cc52d38b480598eb7","6187384b4893130c4d002824","null","","null","","","","","fixation","","","",""
"","","","","","visual-search-circle","135","292501","0.0-14.0-0.0-1.60","6111b4c15650244aadca5dd0","6186fb1cc52d38b480598eb7","6187384b4893130c4d002824","1354.800000000745","","s","true","[[284,0],[0,315],[315,599],[599,284]]","false","4","","","img/Fire_Down_Target.gif","[""img/Fire_Up_Distractor.gif"",""img/Fire_Up_Distractor.gif"",""img/Fire_Up_Distractor.gif"",""img/Fire_Up_Distractor.gif"",""img/Fire_Up_Distractor.gif"",""img/Fire_Up_Distractor.gif"",""img/Fire_Up_Distractor.gif"",""img/Fire_Up_Distractor.gif"",""img/Fire_Up_Distractor.gif"",""img/Fire_Up_Distractor.gif"",""img/Fire_Up_Distractor.gif"",""img/Fire_Up_Distractor.gif""]","targetDown_distractorsUp"
"","","","","","html-keyboard-response","136","292503","0.0-14.0-0.0-0.61","6111b4c15650244aadca5dd0","6186fb1cc52d38b480598eb7","6187384b4893130c4d002824","null","","null","","","","","fixation","","","",""
"","","","","","visual-search-circle","137","294475","0.0-14.0-0.0-1.61","6111b4c15650244aadca5dd0","6186fb1cc52d38b480598eb7","6187384b4893130c4d002824","957.3000000007451","","s","true","[[177,574],[574,422],[422,25],[25,177]]","false","4","","","img/Fire_Down_Target.gif","[""img/Fire_Up_Distractor.gif"",""img/Fire_Up_Distractor.gif"",""img/Fire_Up_Distractor.gif"",""img/Fire_Up_Distractor.gif"",""img/Fire_Up_Distractor.gif"",""img/Fire_Up_Distractor.gif"",""img/Fire_Up_Distractor.gif"",""img/Fire_Up_Distractor.gif"",""img/Fire_Up_Distractor.gif"",""img/Fire_Up_Distractor.gif"",""img/Fire_Up_Distractor.gif"",""img/Fire_Up_Distractor.gif""]","targetDown_distractorsUp"
"","","","","","html-keyboard-response","138","294477","0.0-14.0-0.0-0.62","6111b4c15650244aadca5dd0","6186fb1cc52d38b480598eb7","6187384b4893130c4d002824","null","","null","","","","","fixation","","","",""
"","","","","","visual-search-circle","139","296593","0.0-14.0-0.0-1.62","6111b4c15650244aadca5dd0","6186fb1cc52d38b480598eb7","6187384b4893130c4d002824","1103.7000000011176","","s","true","[[268,598],[488,533],[598,331],[533,111],[331,1],[111,66],[1,268],[66,488]]","false","8","","","img/Fire_Up_Target.gif","[""img/Fire_Down_Distractor.gif"",""img/Fire_Down_Distractor.gif"",""img/Fire_Down_Distractor.gif"",""img/Fire_Down_Distractor.gif"",""img/Fire_Down_Distractor.gif"",""img/Fire_Down_Distractor.gif"",""img/Fire_Down_Distractor.gif"",""img/Fire_Down_Distractor.gif"",""img/Fire_Down_Distractor.gif"",""img/Fire_Down_Distractor.gif"",""img/Fire_Down_Distractor.gif"",""img/Fire_Down_Distractor.gif""]","targetUp_distractorsDown"
"","","","","","html-keyboard-response","140","296595","0.0-14.0-0.0-0.63","6111b4c15650244aadca5dd0","6186fb1cc52d38b480598eb7","6187384b4893130c4d002824","null","","null","","","","","fixation","","","",""
"","","","","","visual-search-circle","141","298847","0.0-14.0-0.0-1.63","6111b4c15650244aadca5dd0","6186fb1cc52d38b480598eb7","6187384b4893130c4d002824","1234.300000000745","","s","true","[[472,54],[54,127],[127,545],[545,472]]","false","4","","","img/Fire_Up_Target.gif","[""img/Fire_Down_Distractor.gif"",""img/Fire_Down_Distractor.gif"",""img/Fire_Down_Distractor.gif"",""img/Fire_Down_Distractor.gif"",""img/Fire_Down_Distractor.gif"",""img/Fire_Down_Distractor.gif"",""img/Fire_Down_Distractor.gif"",""img/Fire_Down_Distractor.gif"",""img/Fire_Down_Distractor.gif"",""img/Fire_Down_Distractor.gif"",""img/Fire_Down_Distractor.gif"",""img/Fire_Down_Distractor.gif""]","targetUp_distractorsDown"
"","","","","","html-keyboard-response","142","298849","0.0-14.0-0.0-0.64","6111b4c15650244aadca5dd0","6186fb1cc52d38b480598eb7","6187384b4893130c4d002824","null","","null","","","","","fixation","","","",""
"","","","","","visual-search-circle","143","301005","0.0-14.0-0.0-1.64","6111b4c15650244aadca5dd0","6186fb1cc52d38b480598eb7","6187384b4893130c4d002824","1150.5","","s","true","[[559,450],[559,150],[300,0],[40,150],[40,449],[299,600]]","false","6","","","img/Fire_Down_Target.gif","[""img/Fire_Up_Distractor.gif"",""img/Fire_Up_Distractor.gif"",""img/Fire_Up_Distractor.gif"",""img/Fire_Up_Distractor.gif"",""img/Fire_Up_Distractor.gif"",""img/Fire_Up_Distractor.gif"",""img/Fire_Up_Distractor.gif"",""img/Fire_Up_Distractor.gif"",""img/Fire_Up_Distractor.gif"",""img/Fire_Up_Distractor.gif"",""img/Fire_Up_Distractor.gif"",""img/Fire_Up_Distractor.gif""]","targetDown_distractorsUp"
"","","","","","html-keyboard-response","144","301008","0.0-14.0-0.0-0.65","6111b4c15650244aadca5dd0","6186fb1cc52d38b480598eb7","6187384b4893130c4d002824","null","","null","","","","","fixation","","","",""
"","","","","","visual-search-circle","145","303327","0.0-14.0-0.0-1.65","6111b4c15650244aadca5dd0","6186fb1cc52d38b480598eb7","6187384b4893130c4d002824","1306","","s","true","[[591,372],[372,8],[8,227],[227,591]]","false","4","","","img/Fire_Up_Target.gif","[""img/Fire_Down_Distractor.gif"",""img/Fire_Down_Distractor.gif"",""img/Fire_Down_Distractor.gif"",""img/Fire_Down_Distractor.gif"",""img/Fire_Down_Distractor.gif"",""img/Fire_Down_Distractor.gif"",""img/Fire_Down_Distractor.gif"",""img/Fire_Down_Distractor.gif"",""img/Fire_Down_Distractor.gif"",""img/Fire_Down_Distractor.gif"",""img/Fire_Down_Distractor.gif"",""img/Fire_Down_Distractor.gif""]","targetUp_distractorsDown"
"","","","","","html-keyboard-response","146","303330","0.0-14.0-0.0-0.66","6111b4c15650244aadca5dd0","6186fb1cc52d38b480598eb7","6187384b4893130c4d002824","null","","null","","","","","fixation","","","",""
"","","","","","visual-search-circle","147","306471","0.0-14.0-0.0-1.66","6111b4c15650244aadca5dd0","6186fb1cc52d38b480598eb7","6187384b4893130c4d002824","2126.39999999851","","s","true","[[127,54],[13,387],[294,599],[583,397],[480,60]]","false","5","","","img/Fire_Down_Target.gif","[""img/Fire_Up_Distractor.gif"",""img/Fire_Up_Distractor.gif"",""img/Fire_Up_Distractor.gif"",""img/Fire_Up_Distractor.gif"",""img/Fire_Up_Distractor.gif"",""img/Fire_Up_Distractor.gif"",""img/Fire_Up_Distractor.gif"",""img/Fire_Up_Distractor.gif"",""img/Fire_Up_Distractor.gif"",""img/Fire_Up_Distractor.gif"",""img/Fire_Up_Distractor.gif"",""img/Fire_Up_Distractor.gif""]","targetDown_distractorsUp"
"","","","","","html-keyboard-response","148","306473","0.0-14.0-0.0-0.67","6111b4c15650244aadca5dd0","6186fb1cc52d38b480598eb7","6187384b4893130c4d002824","null","","null","","","","","fixation","","","",""
"","","","","","visual-search-circle","149","308195","0.0-14.0-0.0-1.67","6111b4c15650244aadca5dd0","6186fb1cc52d38b480598eb7","6187384b4893130c4d002824","702.9000000003725","","d","true","[[95,519],[519,504],[504,80],[80,95]]","true","4","","","img/Fire_Up_Target.gif","[""img/Fire_Down_Distractor.gif"",""img/Fire_Down_Distractor.gif"",""img/Fire_Down_Distractor.gif"",""img/Fire_Down_Distractor.gif"",""img/Fire_Down_Distractor.gif"",""img/Fire_Down_Distractor.gif"",""img/Fire_Down_Distractor.gif"",""img/Fire_Down_Distractor.gif"",""img/Fire_Down_Distractor.gif"",""img/Fire_Down_Distractor.gif"",""img/Fire_Down_Distractor.gif"",""img/Fire_Down_Distractor.gif""]","targetUp_distractorsDown"
"","","","","","html-keyboard-response","150","308196","0.0-14.0-0.0-0.68","6111b4c15650244aadca5dd0","6186fb1cc52d38b480598eb7","6187384b4893130c4d002824","null","","null","","","","","fixation","","","",""
"","","","","","visual-search-circle","151","310177","0.0-14.0-0.0-1.68","6111b4c15650244aadca5dd0","6186fb1cc52d38b480598eb7","6187384b4893130c4d002824","960.8000000007451","","s","true","[[599,289],[440,35],[141,45],[0,310],[159,564],[458,554]]","false","6","","","img/Fire_Down_Target.gif","[""img/Fire_Up_Distractor.gif"",""img/Fire_Up_Distractor.gif"",""img/Fire_Up_Distractor.gif"",""img/Fire_Up_Distractor.gif"",""img/Fire_Up_Distractor.gif"",""img/Fire_Up_Distractor.gif"",""img/Fire_Up_Distractor.gif"",""img/Fire_Up_Distractor.gif"",""img/Fire_Up_Distractor.gif"",""img/Fire_Up_Distractor.gif"",""img/Fire_Up_Distractor.gif"",""img/Fire_Up_Distractor.gif""]","targetDown_distractorsUp"
"","","","","","html-keyboard-response","152","310179","0.0-14.0-0.0-0.69","6111b4c15650244aadca5dd0","6186fb1cc52d38b480598eb7","6187384b4893130c4d002824","null","","null","","","","","fixation","","","",""
"","","","","","visual-search-circle","153","312111","0.0-14.0-0.0-1.69","6111b4c15650244aadca5dd0","6186fb1cc52d38b480598eb7","6187384b4893130c4d002824","925.1000000014901","","d","true","[[599,305],[515,91],[305,0],[91,84],[0,294],[84,508],[294,599],[508,515]]","true","8","","","img/Fire_Up_Target.gif","[""img/Fire_Down_Distractor.gif"",""img/Fire_Down_Distractor.gif"",""img/Fire_Down_Distractor.gif"",""img/Fire_Down_Distractor.gif"",""img/Fire_Down_Distractor.gif"",""img/Fire_Down_Distractor.gif"",""img/Fire_Down_Distractor.gif"",""img/Fire_Down_Distractor.gif"",""img/Fire_Down_Distractor.gif"",""img/Fire_Down_Distractor.gif"",""img/Fire_Down_Distractor.gif"",""img/Fire_Down_Distractor.gif""]","targetUp_distractorsDown"
"","","","","","html-keyboard-response","154","312113","0.0-14.0-0.0-0.70","6111b4c15650244aadca5dd0","6186fb1cc52d38b480598eb7","6187384b4893130c4d002824","null","","null","","","","","fixation","","","",""
"","","","","","visual-search-circle","155","314177","0.0-14.0-0.0-1.70","6111b4c15650244aadca5dd0","6186fb1cc52d38b480598eb7","6187384b4893130c4d002824","1059.5999999996275","","s","true","[[574,177],[331,1],[57,123],[25,422],[268,598],[542,476]]","false","6","","","img/Fire_Down_Target.gif","[""img/Fire_Up_Distractor.gif"",""img/Fire_Up_Distractor.gif"",""img/Fire_Up_Distractor.gif"",""img/Fire_Up_Distractor.gif"",""img/Fire_Up_Distractor.gif"",""img/Fire_Up_Distractor.gif"",""img/Fire_Up_Distractor.gif"",""img/Fire_Up_Distractor.gif"",""img/Fire_Up_Distractor.gif"",""img/Fire_Up_Distractor.gif"",""img/Fire_Up_Distractor.gif"",""img/Fire_Up_Distractor.gif""]","targetDown_distractorsUp"
"","","","","","html-keyboard-response","156","314178","0.0-14.0-0.0-0.71","6111b4c15650244aadca5dd0","6186fb1cc52d38b480598eb7","6187384b4893130c4d002824","null","","null","","","","","fixation","","","",""
"","","","","","visual-search-circle","157","316059","0.0-14.0-0.0-1.71","6111b4c15650244aadca5dd0","6186fb1cc52d38b480598eb7","6187384b4893130c4d002824","869.3000000007451","","d","true","[[87,512],[333,598],[554,459],[583,200],[399,16],[140,45],[1,266]]","true","7","","","img/Fire_Down_Target.gif","[""img/Fire_Up_Distractor.gif"",""img/Fire_Up_Distractor.gif"",""img/Fire_Up_Distractor.gif"",""img/Fire_Up_Distractor.gif"",""img/Fire_Up_Distractor.gif"",""img/Fire_Up_Distractor.gif"",""img/Fire_Up_Distractor.gif"",""img/Fire_Up_Distractor.gif"",""img/Fire_Up_Distractor.gif"",""img/Fire_Up_Distractor.gif"",""img/Fire_Up_Distractor.gif"",""img/Fire_Up_Distractor.gif""]","targetDown_distractorsUp"
"","","","","","html-keyboard-response","158","316061","0.0-14.0-0.0-0.72","6111b4c15650244aadca5dd0","6186fb1cc52d38b480598eb7","6187384b4893130c4d002824","null","","null","","","","","fixation","","","",""
"","","","","","visual-search-circle","159","317853","0.0-14.0-0.0-1.72","6111b4c15650244aadca5dd0","6186fb1cc52d38b480598eb7","6187384b4893130c4d002824","774.9000000003725","","d","true","[[222,589],[450,559],[589,377],[559,150],[377,10],[150,40],[10,222],[40,449]]","true","8","","","img/Fire_Down_Target.gif","[""img/Fire_Up_Distractor.gif"",""img/Fire_Up_Distractor.gif"",""img/Fire_Up_Distractor.gif"",""img/Fire_Up_Distractor.gif"",""img/Fire_Up_Distractor.gif"",""img/Fire_Up_Distractor.gif"",""img/Fire_Up_Distractor.gif"",""img/Fire_Up_Distractor.gif"",""img/Fire_Up_Distractor.gif"",""img/Fire_Up_Distractor.gif"",""img/Fire_Up_Distractor.gif"",""img/Fire_Up_Distractor.gif""]","targetDown_distractorsUp"
"","","","","","html-keyboard-response","160","317855","0.0-14.0-0.0-0.73","6111b4c15650244aadca5dd0","6186fb1cc52d38b480598eb7","6187384b4893130c4d002824","null","","null","","","","","fixation","","","",""
"","","","","","visual-search-circle","161","320544","0.0-14.0-0.0-1.73","6111b4c15650244aadca5dd0","6186fb1cc52d38b480598eb7","6187384b4893130c4d002824","1680.2999999988824","","d","true","[[440,35],[180,24],[10,221],[58,477],[288,599],[526,496],[594,244]]","true","7","","","img/Fire_Up_Target.gif","[""img/Fire_Down_Distractor.gif"",""img/Fire_Down_Distractor.gif"",""img/Fire_Down_Distractor.gif"",""img/Fire_Down_Distractor.gif"",""img/Fire_Down_Distractor.gif"",""img/Fire_Down_Distractor.gif"",""img/Fire_Down_Distractor.gif"",""img/Fire_Down_Distractor.gif"",""img/Fire_Down_Distractor.gif"",""img/Fire_Down_Distractor.gif"",""img/Fire_Down_Distractor.gif"",""img/Fire_Down_Distractor.gif""]","targetUp_distractorsDown"
"","","","","","html-keyboard-response","162","320551","0.0-14.0-0.0-0.74","6111b4c15650244aadca5dd0","6186fb1cc52d38b480598eb7","6187384b4893130c4d002824","null","","null","","","","","fixation","","","",""
"","","","","","visual-search-circle","163","322557","0.0-14.0-0.0-1.74","6111b4c15650244aadca5dd0","6186fb1cc52d38b480598eb7","6187384b4893130c4d002824","990.6999999992549","","s","true","[[515,91],[271,1],[48,135],[15,394],[195,581],[455,556],[597,338]]","false","7","","","img/Fire_Down_Target.gif","[""img/Fire_Up_Distractor.gif"",""img/Fire_Up_Distractor.gif"",""img/Fire_Up_Distractor.gif"",""img/Fire_Up_Distractor.gif"",""img/Fire_Up_Distractor.gif"",""img/Fire_Up_Distractor.gif"",""img/Fire_Up_Distractor.gif"",""img/Fire_Up_Distractor.gif"",""img/Fire_Up_Distractor.gif"",""img/Fire_Up_Distractor.gif"",""img/Fire_Up_Distractor.gif"",""img/Fire_Up_Distractor.gif""]","targetDown_distractorsUp"
"","","","","","html-keyboard-response","164","322559","0.0-14.0-0.0-0.75","6111b4c15650244aadca5dd0","6186fb1cc52d38b480598eb7","6187384b4893130c4d002824","null","","null","","","","","fixation","","","",""
"","","","","","visual-search-circle","165","324713","0.0-14.0-0.0-1.75","6111b4c15650244aadca5dd0","6186fb1cc52d38b480598eb7","6187384b4893130c4d002824","1141.0999999996275","","s","true","[[593,237],[434,31],[173,27],[8,228],[62,483],[295,599],[531,490]]","false","7","","","img/Fire_Down_Target.gif","[""img/Fire_Up_Distractor.gif"",""img/Fire_Up_Distractor.gif"",""img/Fire_Up_Distractor.gif"",""img/Fire_Up_Distractor.gif"",""img/Fire_Up_Distractor.gif"",""img/Fire_Up_Distractor.gif"",""img/Fire_Up_Distractor.gif"",""img/Fire_Up_Distractor.gif"",""img/Fire_Up_Distractor.gif"",""img/Fire_Up_Distractor.gif"",""img/Fire_Up_Distractor.gif"",""img/Fire_Up_Distractor.gif""]","targetDown_distractorsUp"
"","","","","","html-keyboard-response","166","324715","0.0-14.0-0.0-0.76","6111b4c15650244aadca5dd0","6186fb1cc52d38b480598eb7","6187384b4893130c4d002824","null","","null","","","","","fixation","","","",""
"","","","","","visual-search-circle","167","326863","0.0-14.0-0.0-1.76","6111b4c15650244aadca5dd0","6186fb1cc52d38b480598eb7","6187384b4893130c4d002824","1129.7999999988824","","s","true","[[397,16],[16,202],[202,583],[583,397]]","false","4","","","img/Fire_Up_Target.gif","[""img/Fire_Down_Distractor.gif"",""img/Fire_Down_Distractor.gif"",""img/Fire_Down_Distractor.gif"",""img/Fire_Down_Distractor.gif"",""img/Fire_Down_Distractor.gif"",""img/Fire_Down_Distractor.gif"",""img/Fire_Down_Distractor.gif"",""img/Fire_Down_Distractor.gif"",""img/Fire_Down_Distractor.gif"",""img/Fire_Down_Distractor.gif"",""img/Fire_Down_Distractor.gif"",""img/Fire_Down_Distractor.gif""]","targetUp_distractorsDown"
"","","","","","html-keyboard-response","168","326865","0.0-14.0-0.0-0.77","6111b4c15650244aadca5dd0","6186fb1cc52d38b480598eb7","6187384b4893130c4d002824","null","","null","","","","","fixation","","","",""
"","","","","","visual-search-circle","169","329261","0.0-14.0-0.0-1.77","6111b4c15650244aadca5dd0","6186fb1cc52d38b480598eb7","6187384b4893130c4d002824","1385.5","","s","true","[[512,512],[512,87],[87,87],[87,512]]","false","4","","","img/Fire_Up_Target.gif","[""img/Fire_Down_Distractor.gif"",""img/Fire_Down_Distractor.gif"",""img/Fire_Down_Distractor.gif"",""img/Fire_Down_Distractor.gif"",""img/Fire_Down_Distractor.gif"",""img/Fire_Down_Distractor.gif"",""img/Fire_Down_Distractor.gif"",""img/Fire_Down_Distractor.gif"",""img/Fire_Down_Distractor.gif"",""img/Fire_Down_Distractor.gif"",""img/Fire_Down_Distractor.gif"",""img/Fire_Down_Distractor.gif""]","targetUp_distractorsDown"
"","","","","","html-keyboard-response","170","329264","0.0-14.0-0.0-0.78","6111b4c15650244aadca5dd0","6186fb1cc52d38b480598eb7","6187384b4893130c4d002824","null","","null","","","","","fixation","","","",""
"","","","","","visual-search-circle","171","331416","0.0-14.0-0.0-1.78","6111b4c15650244aadca5dd0","6186fb1cc52d38b480598eb7","6187384b4893130c4d002824","1128.699999999255","","s","true","[[458,554],[592,367],[554,141],[367,7],[141,45],[7,232],[45,458],[232,592]]","false","8","","","img/Fire_Down_Target.gif","[""img/Fire_Up_Distractor.gif"",""img/Fire_Up_Distractor.gif"",""img/Fire_Up_Distractor.gif"",""img/Fire_Up_Distractor.gif"",""img/Fire_Up_Distractor.gif"",""img/Fire_Up_Distractor.gif"",""img/Fire_Up_Distractor.gif"",""img/Fire_Up_Distractor.gif"",""img/Fire_Up_Distractor.gif"",""img/Fire_Up_Distractor.gif"",""img/Fire_Up_Distractor.gif"",""img/Fire_Up_Distractor.gif""]","targetDown_distractorsUp"
"","","","","","html-keyboard-response","172","332518","0.0-14.0-0.0-0.79","6111b4c15650244aadca5dd0","6186fb1cc52d38b480598eb7","6187384b4893130c4d002824","1101.7000000011176","Wow! You've completed 80 out of 120 trials! </p> <p>  </p><p> Take a quick break, then press any key when you're ready to continue."," ","","","","","fixation","","","",""
"","","","","","visual-search-circle","173","334603","0.0-14.0-0.0-1.79","6111b4c15650244aadca5dd0","6186fb1cc52d38b480598eb7","6187384b4893130c4d002824","1059","","d","true","[[1,331],[111,533],[331,598],[533,488],[598,268],[488,66],[268,1],[66,111]]","true","8","","","img/Fire_Down_Target.gif","[""img/Fire_Up_Distractor.gif"",""img/Fire_Up_Distractor.gif"",""img/Fire_Up_Distractor.gif"",""img/Fire_Up_Distractor.gif"",""img/Fire_Up_Distractor.gif"",""img/Fire_Up_Distractor.gif"",""img/Fire_Up_Distractor.gif"",""img/Fire_Up_Distractor.gif"",""img/Fire_Up_Distractor.gif"",""img/Fire_Up_Distractor.gif"",""img/Fire_Up_Distractor.gif"",""img/Fire_Up_Distractor.gif""]","targetDown_distractorsUp"
"","","","","","html-keyboard-response","174","334605","0.0-14.0-0.0-0.80","6111b4c15650244aadca5dd0","6186fb1cc52d38b480598eb7","6187384b4893130c4d002824","null","","null","","","","","fixation","","","",""
"","","","","","visual-search-circle","175","336451","0.0-14.0-0.0-1.80","6111b4c15650244aadca5dd0","6186fb1cc52d38b480598eb7","6187384b4893130c4d002824","843.2000000011176","","d","true","[[154,562],[562,445],[445,37],[37,154]]","true","4","","","img/Fire_Up_Target.gif","[""img/Fire_Down_Distractor.gif"",""img/Fire_Down_Distractor.gif"",""img/Fire_Down_Distractor.gif"",""img/Fire_Down_Distractor.gif"",""img/Fire_Down_Distractor.gif"",""img/Fire_Down_Distractor.gif"",""img/Fire_Down_Distractor.gif"",""img/Fire_Down_Distractor.gif"",""img/Fire_Down_Distractor.gif"",""img/Fire_Down_Distractor.gif"",""img/Fire_Down_Distractor.gif"",""img/Fire_Down_Distractor.gif""]","targetUp_distractorsDown"
"","","","","","html-keyboard-response","176","336453","0.0-14.0-0.0-0.81","6111b4c15650244aadca5dd0","6186fb1cc52d38b480598eb7","6187384b4893130c4d002824","null","","null","","","","","fixation","","","",""
"","","","","","visual-search-circle","177","338431","0.0-14.0-0.0-1.81","6111b4c15650244aadca5dd0","6186fb1cc52d38b480598eb7","6187384b4893130c4d002824","966","","d","true","[[571,173],[370,8],[115,63],[0,296],[110,532],[363,593],[568,433]]","true","7","","","img/Fire_Up_Target.gif","[""img/Fire_Down_Distractor.gif"",""img/Fire_Down_Distractor.gif"",""img/Fire_Down_Distractor.gif"",""img/Fire_Down_Distractor.gif"",""img/Fire_Down_Distractor.gif"",""img/Fire_Down_Distractor.gif"",""img/Fire_Down_Distractor.gif"",""img/Fire_Down_Distractor.gif"",""img/Fire_Down_Distractor.gif"",""img/Fire_Down_Distractor.gif"",""img/Fire_Down_Distractor.gif"",""img/Fire_Down_Distractor.gif""]","targetUp_distractorsDown"
"","","","","","html-keyboard-response","178","338439","0.0-14.0-0.0-0.82","6111b4c15650244aadca5dd0","6186fb1cc52d38b480598eb7","6187384b4893130c4d002824","null","","null","","","","","fixation","","","",""
"","","","","","visual-search-circle","179","340562","0.0-14.0-0.0-1.82","6111b4c15650244aadca5dd0","6186fb1cc52d38b480598eb7","6187384b4893130c4d002824","1107.7999999988824","","d","true","[[597,258],[412,21],[115,63],[2,341],[187,578],[484,536]]","true","6","","","img/Fire_Down_Target.gif","[""img/Fire_Up_Distractor.gif"",""img/Fire_Up_Distractor.gif"",""img/Fire_Up_Distractor.gif"",""img/Fire_Up_Distractor.gif"",""img/Fire_Up_Distractor.gif"",""img/Fire_Up_Distractor.gif"",""img/Fire_Up_Distractor.gif"",""img/Fire_Up_Distractor.gif"",""img/Fire_Up_Distractor.gif"",""img/Fire_Up_Distractor.gif"",""img/Fire_Up_Distractor.gif"",""img/Fire_Up_Distractor.gif""]","targetDown_distractorsUp"
"","","","","","html-keyboard-response","180","340570","0.0-14.0-0.0-0.83","6111b4c15650244aadca5dd0","6186fb1cc52d38b480598eb7","6187384b4893130c4d002824","null","","null","","","","","fixation","","","",""
"","","","","","visual-search-circle","181","342596","0.0-14.0-0.0-1.83","6111b4c15650244aadca5dd0","6186fb1cc52d38b480598eb7","6187384b4893130c4d002824","1012","","d","true","[[60,480],[336,597],[576,417],[539,119],[263,2],[23,182]]","true","6","","","img/Fire_Down_Target.gif","[""img/Fire_Up_Distractor.gif"",""img/Fire_Up_Distractor.gif"",""img/Fire_Up_Distractor.gif"",""img/Fire_Up_Distractor.gif"",""img/Fire_Up_Distractor.gif"",""img/Fire_Up_Distractor.gif"",""img/Fire_Up_Distractor.gif"",""img/Fire_Up_Distractor.gif"",""img/Fire_Up_Distractor.gif"",""img/Fire_Up_Distractor.gif"",""img/Fire_Up_Distractor.gif"",""img/Fire_Up_Distractor.gif""]","targetDown_distractorsUp"
"","","","","","html-keyboard-response","182","342605","0.0-14.0-0.0-0.84","6111b4c15650244aadca5dd0","6186fb1cc52d38b480598eb7","6187384b4893130c4d002824","null","","null","","","","","fixation","","","",""
"","","","","","visual-search-circle","183","344677","0.0-14.0-0.0-1.84","6111b4c15650244aadca5dd0","6186fb1cc52d38b480598eb7","6187384b4893130c4d002824","1053.3999999985099","","s","true","[[21,187],[38,447],[252,596],[501,521],[599,280],[471,53],[214,12]]","false","7","","","img/Fire_Down_Target.gif","[""img/Fire_Up_Distractor.gif"",""img/Fire_Up_Distractor.gif"",""img/Fire_Up_Distractor.gif"",""img/Fire_Up_Distractor.gif"",""img/Fire_Up_Distractor.gif"",""img/Fire_Up_Distractor.gif"",""img/Fire_Up_Distractor.gif"",""img/Fire_Up_Distractor.gif"",""img/Fire_Up_Distractor.gif"",""img/Fire_Up_Distractor.gif"",""img/Fire_Up_Distractor.gif"",""img/Fire_Up_Distractor.gif""]","targetDown_distractorsUp"
"","","","","","html-keyboard-response","184","344678","0.0-14.0-0.0-0.85","6111b4c15650244aadca5dd0","6186fb1cc52d38b480598eb7","6187384b4893130c4d002824","null","","null","","","","","fixation","","","",""
"","","","","","visual-search-circle","185","346601","0.0-14.0-0.0-1.85","6111b4c15650244aadca5dd0","6186fb1cc52d38b480598eb7","6187384b4893130c4d002824","903.3999999985099","","s","true","[[35,159],[13,387],[159,564],[387,586],[564,440],[586,212],[440,35],[212,13]]","false","8","","","img/Fire_Down_Target.gif","[""img/Fire_Up_Distractor.gif"",""img/Fire_Up_Distractor.gif"",""img/Fire_Up_Distractor.gif"",""img/Fire_Up_Distractor.gif"",""img/Fire_Up_Distractor.gif"",""img/Fire_Up_Distractor.gif"",""img/Fire_Up_Distractor.gif"",""img/Fire_Up_Distractor.gif"",""img/Fire_Up_Distractor.gif"",""img/Fire_Up_Distractor.gif"",""img/Fire_Up_Distractor.gif"",""img/Fire_Up_Distractor.gif""]","targetDown_distractorsUp"
"","","","","","html-keyboard-response","186","346604","0.0-14.0-0.0-0.86","6111b4c15650244aadca5dd0","6186fb1cc52d38b480598eb7","6187384b4893130c4d002824","null","","null","","","","","fixation","","","",""
"","","","","","visual-search-circle","187","349661","0.0-14.0-0.0-1.86","6111b4c15650244aadca5dd0","6186fb1cc52d38b480598eb7","6187384b4893130c4d002824","2044.5","","d","true","[[589,377],[377,10],[10,222],[222,589]]","true","4","","","img/Fire_Down_Target.gif","[""img/Fire_Up_Distractor.gif"",""img/Fire_Up_Distractor.gif"",""img/Fire_Up_Distractor.gif"",""img/Fire_Up_Distractor.gif"",""img/Fire_Up_Distractor.gif"",""img/Fire_Up_Distractor.gif"",""img/Fire_Up_Distractor.gif"",""img/Fire_Up_Distractor.gif"",""img/Fire_Up_Distractor.gif"",""img/Fire_Up_Distractor.gif"",""img/Fire_Up_Distractor.gif"",""img/Fire_Up_Distractor.gif""]","targetDown_distractorsUp"
"","","","","","html-keyboard-response","188","349663","0.0-14.0-0.0-0.87","6111b4c15650244aadca5dd0","6186fb1cc52d38b480598eb7","6187384b4893130c4d002824","null","","null","","","","","fixation","","","",""
"","","","","","visual-search-circle","189","351543","0.0-14.0-0.0-1.87","6111b4c15650244aadca5dd0","6186fb1cc52d38b480598eb7","6187384b4893130c4d002824","856.5999999996275","","s","true","[[66,111],[1,331],[111,533],[331,598],[533,488],[598,268],[488,66],[268,1]]","false","8","","","img/Fire_Up_Target.gif","[""img/Fire_Down_Distractor.gif"",""img/Fire_Down_Distractor.gif"",""img/Fire_Down_Distractor.gif"",""img/Fire_Down_Distractor.gif"",""img/Fire_Down_Distractor.gif"",""img/Fire_Down_Distractor.gif"",""img/Fire_Down_Distractor.gif"",""img/Fire_Down_Distractor.gif"",""img/Fire_Down_Distractor.gif"",""img/Fire_Down_Distractor.gif"",""img/Fire_Down_Distractor.gif"",""img/Fire_Down_Distractor.gif""]","targetUp_distractorsDown"
"","","","","","html-keyboard-response","190","351546","0.0-14.0-0.0-0.88","6111b4c15650244aadca5dd0","6186fb1cc52d38b480598eb7","6187384b4893130c4d002824","null","","null","","","","","fixation","","","",""
"","","","","","visual-search-circle","191","353627","0.0-14.0-0.0-1.88","6111b4c15650244aadca5dd0","6186fb1cc52d38b480598eb7","6187384b4893130c4d002824","1069.7000000011176","","d","true","[[73,103],[0,320],[103,526],[320,599],[526,496],[599,279],[496,73],[279,0]]","true","8","","","img/Fire_Up_Target.gif","[""img/Fire_Down_Distractor.gif"",""img/Fire_Down_Distractor.gif"",""img/Fire_Down_Distractor.gif"",""img/Fire_Down_Distractor.gif"",""img/Fire_Down_Distractor.gif"",""img/Fire_Down_Distractor.gif"",""img/Fire_Down_Distractor.gif"",""img/Fire_Down_Distractor.gif"",""img/Fire_Down_Distractor.gif"",""img/Fire_Down_Distractor.gif"",""img/Fire_Down_Distractor.gif"",""img/Fire_Down_Distractor.gif""]","targetUp_distractorsDown"
"","","","","","html-keyboard-response","192","353629","0.0-14.0-0.0-0.89","6111b4c15650244aadca5dd0","6186fb1cc52d38b480598eb7","6187384b4893130c4d002824","null","","null","","","","","fixation","","","",""
"","","","","","visual-search-circle","193","355826","0.0-14.0-0.0-1.89","6111b4c15650244aadca5dd0","6186fb1cc52d38b480598eb7","6187384b4893130c4d002824","1182.0999999996275","","d","true","[[412,578],[597,341],[484,63],[187,21],[2,258],[115,536]]","true","6","","","img/Fire_Down_Target.gif","[""img/Fire_Up_Distractor.gif"",""img/Fire_Up_Distractor.gif"",""img/Fire_Up_Distractor.gif"",""img/Fire_Up_Distractor.gif"",""img/Fire_Up_Distractor.gif"",""img/Fire_Up_Distractor.gif"",""img/Fire_Up_Distractor.gif"",""img/Fire_Up_Distractor.gif"",""img/Fire_Up_Distractor.gif"",""img/Fire_Up_Distractor.gif"",""img/Fire_Up_Distractor.gif"",""img/Fire_Up_Distractor.gif""]","targetDown_distractorsUp"
"","","","","","html-keyboard-response","194","355829","0.0-14.0-0.0-0.90","6111b4c15650244aadca5dd0","6186fb1cc52d38b480598eb7","6187384b4893130c4d002824","null","","null","","","","","fixation","","","",""
"","","","","","visual-search-circle","195","357699","0.0-14.0-0.0-1.90","6111b4c15650244aadca5dd0","6186fb1cc52d38b480598eb7","6187384b4893130c4d002824","857.7999999988824","","s","false","[[192,19],[3,253],[111,533],[407,580],[596,346],[488,66]]","true","6","","","img/Fire_Down_Target.gif","[""img/Fire_Up_Distractor.gif"",""img/Fire_Up_Distractor.gif"",""img/Fire_Up_Distractor.gif"",""img/Fire_Up_Distractor.gif"",""img/Fire_Up_Distractor.gif"",""img/Fire_Up_Distractor.gif"",""img/Fire_Up_Distractor.gif"",""img/Fire_Up_Distractor.gif"",""img/Fire_Up_Distractor.gif"",""img/Fire_Up_Distractor.gif"",""img/Fire_Up_Distractor.gif"",""img/Fire_Up_Distractor.gif""]","targetDown_distractorsUp"
"","","","","","html-keyboard-response","196","357701","0.0-14.0-0.0-0.91","6111b4c15650244aadca5dd0","6186fb1cc52d38b480598eb7","6187384b4893130c4d002824","null","","null","","","","","fixation","","","",""
"","","","","","visual-search-circle","197","359575","0.0-14.0-0.0-1.91","6111b4c15650244aadca5dd0","6186fb1cc52d38b480598eb7","6187384b4893130c4d002824","862.5","","s","true","[[533,488],[592,235],[432,30],[171,28],[8,231],[64,485],[297,599]]","false","7","","","img/Fire_Up_Target.gif","[""img/Fire_Down_Distractor.gif"",""img/Fire_Down_Distractor.gif"",""img/Fire_Down_Distractor.gif"",""img/Fire_Down_Distractor.gif"",""img/Fire_Down_Distractor.gif"",""img/Fire_Down_Distractor.gif"",""img/Fire_Down_Distractor.gif"",""img/Fire_Down_Distractor.gif"",""img/Fire_Down_Distractor.gif"",""img/Fire_Down_Distractor.gif"",""img/Fire_Down_Distractor.gif"",""img/Fire_Down_Distractor.gif""]","targetUp_distractorsDown"
"","","","","","html-keyboard-response","198","359577","0.0-14.0-0.0-0.92","6111b4c15650244aadca5dd0","6186fb1cc52d38b480598eb7","6187384b4893130c4d002824","null","","null","","","","","fixation","","","",""
"","","","","","visual-search-circle","199","362239","0.0-14.0-0.0-1.92","6111b4c15650244aadca5dd0","6186fb1cc52d38b480598eb7","6187384b4893130c4d002824","1652.800000000745","","s","true","[[0,315],[222,589],[551,463],[533,111],[192,19]]","false","5","","","img/Fire_Down_Target.gif","[""img/Fire_Up_Distractor.gif"",""img/Fire_Up_Distractor.gif"",""img/Fire_Up_Distractor.gif"",""img/Fire_Up_Distractor.gif"",""img/Fire_Up_Distractor.gif"",""img/Fire_Up_Distractor.gif"",""img/Fire_Up_Distractor.gif"",""img/Fire_Up_Distractor.gif"",""img/Fire_Up_Distractor.gif"",""img/Fire_Up_Distractor.gif"",""img/Fire_Up_Distractor.gif"",""img/Fire_Up_Distractor.gif""]","targetDown_distractorsUp"
"","","","","","html-keyboard-response","200","362254","0.0-14.0-0.0-0.93","6111b4c15650244aadca5dd0","6186fb1cc52d38b480598eb7","6187384b4893130c4d002824","null","","null","","","","","fixation","","","",""
"","","","","","visual-search-circle","201","364019","0.0-14.0-0.0-1.93","6111b4c15650244aadca5dd0","6186fb1cc52d38b480598eb7","6187384b4893130c4d002824","754.4000000003725","","d","true","[[472,545],[598,273],[426,28],[127,54],[1,326],[173,571]]","true","6","","","img/Fire_Up_Target.gif","[""img/Fire_Down_Distractor.gif"",""img/Fire_Down_Distractor.gif"",""img/Fire_Down_Distractor.gif"",""img/Fire_Down_Distractor.gif"",""img/Fire_Down_Distractor.gif"",""img/Fire_Down_Distractor.gif"",""img/Fire_Down_Distractor.gif"",""img/Fire_Down_Distractor.gif"",""img/Fire_Down_Distractor.gif"",""img/Fire_Down_Distractor.gif"",""img/Fire_Down_Distractor.gif"",""img/Fire_Down_Distractor.gif""]","targetUp_distractorsDown"
"","","","","","html-keyboard-response","202","364022","0.0-14.0-0.0-0.94","6111b4c15650244aadca5dd0","6186fb1cc52d38b480598eb7","6187384b4893130c4d002824","null","","null","","","","","fixation","","","",""
"","","","","","visual-search-circle","203","365718","0.0-14.0-0.0-1.94","6111b4c15650244aadca5dd0","6186fb1cc52d38b480598eb7","6187384b4893130c4d002824","688.4000000003725","","s","true","[[32,436],[207,585],[436,567],[585,392],[567,163],[392,14],[163,32],[14,207]]","false","8","","","img/Fire_Up_Target.gif","[""img/Fire_Down_Distractor.gif"",""img/Fire_Down_Distractor.gif"",""img/Fire_Down_Distractor.gif"",""img/Fire_Down_Distractor.gif"",""img/Fire_Down_Distractor.gif"",""img/Fire_Down_Distractor.gif"",""img/Fire_Down_Distractor.gif"",""img/Fire_Down_Distractor.gif"",""img/Fire_Down_Distractor.gif"",""img/Fire_Down_Distractor.gif"",""img/Fire_Down_Distractor.gif"",""img/Fire_Down_Distractor.gif""]","targetUp_distractorsDown"
"","","","","","html-keyboard-response","204","365720","0.0-14.0-0.0-0.95","6111b4c15650244aadca5dd0","6186fb1cc52d38b480598eb7","6187384b4893130c4d002824","null","","null","","","","","fixation","","","",""
"","","","","","visual-search-circle","205","367461","0.0-14.0-0.0-1.95","6111b4c15650244aadca5dd0","6186fb1cc52d38b480598eb7","6187384b4893130c4d002824","735.7999999988824","","s","true","[[77,99],[40,450],[362,593],[598,331],[422,25]]","false","5","","","img/Fire_Up_Target.gif","[""img/Fire_Down_Distractor.gif"",""img/Fire_Down_Distractor.gif"",""img/Fire_Down_Distractor.gif"",""img/Fire_Down_Distractor.gif"",""img/Fire_Down_Distractor.gif"",""img/Fire_Down_Distractor.gif"",""img/Fire_Down_Distractor.gif"",""img/Fire_Down_Distractor.gif"",""img/Fire_Down_Distractor.gif"",""img/Fire_Down_Distractor.gif"",""img/Fire_Down_Distractor.gif"",""img/Fire_Down_Distractor.gif""]","targetUp_distractorsDown"
"","","","","","html-keyboard-response","206","367464","0.0-14.0-0.0-0.96","6111b4c15650244aadca5dd0","6186fb1cc52d38b480598eb7","6187384b4893130c4d002824","null","","null","","","","","fixation","","","",""
"","","","","","visual-search-circle","207","369249","0.0-14.0-0.0-1.96","6111b4c15650244aadca5dd0","6186fb1cc52d38b480598eb7","6187384b4893130c4d002824","778.3000000007451","","s","false","[[8,372],[145,557],[372,591],[557,454],[591,227],[454,42],[227,8],[42,145]]","true","8","","","img/Fire_Up_Target.gif","[""img/Fire_Down_Distractor.gif"",""img/Fire_Down_Distractor.gif"",""img/Fire_Down_Distractor.gif"",""img/Fire_Down_Distractor.gif"",""img/Fire_Down_Distractor.gif"",""img/Fire_Down_Distractor.gif"",""img/Fire_Down_Distractor.gif"",""img/Fire_Down_Distractor.gif"",""img/Fire_Down_Distractor.gif"",""img/Fire_Down_Distractor.gif"",""img/Fire_Down_Distractor.gif"",""img/Fire_Down_Distractor.gif""]","targetUp_distractorsDown"
"","","","","","html-keyboard-response","208","369251","0.0-14.0-0.0-0.97","6111b4c15650244aadca5dd0","6186fb1cc52d38b480598eb7","6187384b4893130c4d002824","null","","null","","","","","fixation","","","",""
"","","","","","visual-search-circle","209","371114","0.0-14.0-0.0-1.97","6111b4c15650244aadca5dd0","6186fb1cc52d38b480598eb7","6187384b4893130c4d002824","857.2999999988824","","s","true","[[177,25],[1,331],[237,593],[559,450],[522,99]]","false","5","","","img/Fire_Up_Target.gif","[""img/Fire_Down_Distractor.gif"",""img/Fire_Down_Distractor.gif"",""img/Fire_Down_Distractor.gif"",""img/Fire_Down_Distractor.gif"",""img/Fire_Down_Distractor.gif"",""img/Fire_Down_Distractor.gif"",""img/Fire_Down_Distractor.gif"",""img/Fire_Down_Distractor.gif"",""img/Fire_Down_Distractor.gif"",""img/Fire_Down_Distractor.gif"",""img/Fire_Down_Distractor.gif"",""img/Fire_Down_Distractor.gif""]","targetUp_distractorsDown"
"","","","","","html-keyboard-response","210","371117","0.0-14.0-0.0-0.98","6111b4c15650244aadca5dd0","6186fb1cc52d38b480598eb7","6187384b4893130c4d002824","null","","null","","","","","fixation","","","",""
"","","","","","visual-search-circle","211","372894","0.0-14.0-0.0-1.98","6111b4c15650244aadca5dd0","6186fb1cc52d38b480598eb7","6187384b4893130c4d002824","760.7999999988824","","d","true","[[91,515],[305,599],[515,508],[599,294],[508,84],[294,0],[84,91],[0,305]]","true","8","","","img/Fire_Up_Target.gif","[""img/Fire_Down_Distractor.gif"",""img/Fire_Down_Distractor.gif"",""img/Fire_Down_Distractor.gif"",""img/Fire_Down_Distractor.gif"",""img/Fire_Down_Distractor.gif"",""img/Fire_Down_Distractor.gif"",""img/Fire_Down_Distractor.gif"",""img/Fire_Down_Distractor.gif"",""img/Fire_Down_Distractor.gif"",""img/Fire_Down_Distractor.gif"",""img/Fire_Down_Distractor.gif"",""img/Fire_Down_Distractor.gif""]","targetUp_distractorsDown"
"","","","","","html-keyboard-response","212","374220","0.0-14.0-0.0-0.99","6111b4c15650244aadca5dd0","6186fb1cc52d38b480598eb7","6187384b4893130c4d002824","1325.4000000003725","Wow! You've completed 100 out of 120 trials! </p> <p>  </p><p> Take a quick break, then press any key when you're ready to continue."," ","","","","","fixation","","","",""
"","","","","","visual-search-circle","213","376030","0.0-14.0-0.0-1.99","6111b4c15650244aadca5dd0","6186fb1cc52d38b480598eb7","6187384b4893130c4d002824","799.5","","d","false","[[2,258],[60,480],[258,597],[480,539],[597,341],[539,119],[341,2],[119,60]]","false","8","","","img/Fire_Down_Target.gif","[""img/Fire_Up_Distractor.gif"",""img/Fire_Up_Distractor.gif"",""img/Fire_Up_Distractor.gif"",""img/Fire_Up_Distractor.gif"",""img/Fire_Up_Distractor.gif"",""img/Fire_Up_Distractor.gif"",""img/Fire_Up_Distractor.gif"",""img/Fire_Up_Distractor.gif"",""img/Fire_Up_Distractor.gif"",""img/Fire_Up_Distractor.gif"",""img/Fire_Up_Distractor.gif"",""img/Fire_Up_Distractor.gif""]","targetDown_distractorsUp"
"","","","","","html-keyboard-response","214","376032","0.0-14.0-0.0-0.100","6111b4c15650244aadca5dd0","6186fb1cc52d38b480598eb7","6187384b4893130c4d002824","null","","null","","","","","fixation","","","",""
"","","","","","visual-search-circle","215","378161","0.0-14.0-0.0-1.100","6111b4c15650244aadca5dd0","6186fb1cc52d38b480598eb7","6187384b4893130c4d002824","1122.0999999996275","","s","true","[[177,25],[9,224],[59,479],[291,599],[528,493],[594,242],[438,33]]","false","7","","","img/Fire_Down_Target.gif","[""img/Fire_Up_Distractor.gif"",""img/Fire_Up_Distractor.gif"",""img/Fire_Up_Distractor.gif"",""img/Fire_Up_Distractor.gif"",""img/Fire_Up_Distractor.gif"",""img/Fire_Up_Distractor.gif"",""img/Fire_Up_Distractor.gif"",""img/Fire_Up_Distractor.gif"",""img/Fire_Up_Distractor.gif"",""img/Fire_Up_Distractor.gif"",""img/Fire_Up_Distractor.gif"",""img/Fire_Up_Distractor.gif""]","targetDown_distractorsUp"
"","","","","","html-keyboard-response","216","378169","0.0-14.0-0.0-0.101","6111b4c15650244aadca5dd0","6186fb1cc52d38b480598eb7","6187384b4893130c4d002824","null","","null","","","","","fixation","","","",""
"","","","","","visual-search-circle","217","379899","0.0-14.0-0.0-1.101","6111b4c15650244aadca5dd0","6186fb1cc52d38b480598eb7","6187384b4893130c4d002824","712.9000000003725","","d","true","[[45,458],[265,598],[511,512],[598,267],[460,46],[201,16],[17,200]]","true","7","","","img/Fire_Down_Target.gif","[""img/Fire_Up_Distractor.gif"",""img/Fire_Up_Distractor.gif"",""img/Fire_Up_Distractor.gif"",""img/Fire_Up_Distractor.gif"",""img/Fire_Up_Distractor.gif"",""img/Fire_Up_Distractor.gif"",""img/Fire_Up_Distractor.gif"",""img/Fire_Up_Distractor.gif"",""img/Fire_Up_Distractor.gif"",""img/Fire_Up_Distractor.gif"",""img/Fire_Up_Distractor.gif"",""img/Fire_Up_Distractor.gif""]","targetDown_distractorsUp"
"","","","","","html-keyboard-response","218","379900","0.0-14.0-0.0-0.102","6111b4c15650244aadca5dd0","6186fb1cc52d38b480598eb7","6187384b4893130c4d002824","null","","null","","","","","fixation","","","",""
"","","","","","visual-search-circle","219","381727","0.0-14.0-0.0-1.102","6111b4c15650244aadca5dd0","6186fb1cc52d38b480598eb7","6187384b4893130c4d002824","820","","s","true","[[387,13],[159,35],[13,212],[35,440],[212,586],[440,564],[586,387],[564,159]]","false","8","","","img/Fire_Up_Target.gif","[""img/Fire_Down_Distractor.gif"",""img/Fire_Down_Distractor.gif"",""img/Fire_Down_Distractor.gif"",""img/Fire_Down_Distractor.gif"",""img/Fire_Down_Distractor.gif"",""img/Fire_Down_Distractor.gif"",""img/Fire_Down_Distractor.gif"",""img/Fire_Down_Distractor.gif"",""img/Fire_Down_Distractor.gif"",""img/Fire_Down_Distractor.gif"",""img/Fire_Down_Distractor.gif"",""img/Fire_Down_Distractor.gif""]","targetUp_distractorsDown"
"","","","","","html-keyboard-response","220","381729","0.0-14.0-0.0-0.103","6111b4c15650244aadca5dd0","6186fb1cc52d38b480598eb7","6187384b4893130c4d002824","null","","null","","","","","fixation","","","",""
"","","","","","visual-search-circle","221","383603","0.0-14.0-0.0-1.103","6111b4c15650244aadca5dd0","6186fb1cc52d38b480598eb7","6187384b4893130c4d002824","856.4000000003725","","d","true","[[476,542],[599,313],[497,74],[246,4],[35,157],[24,417],[220,589]]","true","7","","","img/Fire_Down_Target.gif","[""img/Fire_Up_Distractor.gif"",""img/Fire_Up_Distractor.gif"",""img/Fire_Up_Distractor.gif"",""img/Fire_Up_Distractor.gif"",""img/Fire_Up_Distractor.gif"",""img/Fire_Up_Distractor.gif"",""img/Fire_Up_Distractor.gif"",""img/Fire_Up_Distractor.gif"",""img/Fire_Up_Distractor.gif"",""img/Fire_Up_Distractor.gif"",""img/Fire_Up_Distractor.gif"",""img/Fire_Up_Distractor.gif""]","targetDown_distractorsUp"
