"success","timeout","failed_images","failed_audio","failed_video","trial_type","trial_index","time_elapsed","internal_node_id","subject_id","study_id","session_id","rt","stimulus","response","correct","locations","target_present","set_size","task","correct_response","target","foilCM","searchCondition"
"true","false","[]","[]","[]","preload","0","32490","0.0-0.0","6151e6a0397a519cc56745e6","6186fb1cc52d38b480598eb7","6187385be49ad3961d53bd6c","","","","","","","","","","","",""
"true","","","","","fullscreen","1","38015","0.0-1.0","6151e6a0397a519cc56745e6","6186fb1cc52d38b480598eb7","6187385be49ad3961d53bd6c","","","","","","","","","","","",""
"","","","","","html-keyboard-response","2","75341","0.0-2.0","6151e6a0397a519cc56745e6","6186fb1cc52d38b480598eb7","6187385be49ad3961d53bd6c","37325.2999997139","What a beautiful Saturday to do some awesome science! </p> <p>  </p><p> </p>
    By completing this survey or questionnaire, you are consenting to be in this research study. </p>
    Your participation is voluntary and you can stop at any time.
    <p> [Press any key to continue.] </p>
    
    "," ","","","","","","","","",""
"","","","","","video-keyboard-response","3","99197","0.0-3.0","6151e6a0397a519cc56745e6","6186fb1cc52d38b480598eb7","6187385be49ad3961d53bd6c","23854.5","[""video/TaskInstructions.mp4""]"," ","","","","","","","","",""
"","","","","","html-keyboard-response","4","105589","0.0-4.0","6151e6a0397a519cc56745e6","6186fb1cc52d38b480598eb7","6187385be49ad3961d53bd6c","6390.800000190735","
    <p>First, we're going to do a few practice trials to make sure you understand the task. You will recieve feedback on each trial. </p>

    <p>[Press any key to begin the familiarization phase.]</p>
    "," ","","","","","","","","",""
"","","","","","visual-search-circle","5","118334","0.0-5.0-0.0","6151e6a0397a519cc56745e6","6186fb1cc52d38b480598eb7","6187385be49ad3961d53bd6c","11690.5","","d","true","[[273,1],[1,326],[326,598],[598,273]]","true","4","training","d","","",""
"","","","","","html-keyboard-response","6","120549","0.0-6.0","6151e6a0397a519cc56745e6","6186fb1cc52d38b480598eb7","6187385be49ad3961d53bd6c","2214.7999997138977"," <div style='float: center; '><img src='img/feedbackRight.png'></img> </div> "," ","","","","","","","","",""
"","","","","","visual-search-circle","7","127157","0.0-7.0-0.0","6151e6a0397a519cc56745e6","6186fb1cc52d38b480598eb7","6187385be49ad3961d53bd6c","5605.199999809265","","s","true","[[591,372],[372,8],[8,227],[227,591]]","false","4","training","s","","",""
"","","","","","html-keyboard-response","8","128541","0.0-8.0","6151e6a0397a519cc56745e6","6186fb1cc52d38b480598eb7","6187385be49ad3961d53bd6c","1384.1999998092651"," <div style='float: center; '><img src='img/feedbackRight.png'></img> </div> "," ","","","","","","","","",""
"","","","","","visual-search-circle","9","133413","0.0-9.0-0.0","6151e6a0397a519cc56745e6","6186fb1cc52d38b480598eb7","6187385be49ad3961d53bd6c","3867.9000000953674","","s","true","[[397,583],[594,357],[496,73],[202,16],[5,242],[103,526]]","false","6","training","s","","",""
"","","","","","html-keyboard-response","10","134653","0.0-10.0","6151e6a0397a519cc56745e6","6186fb1cc52d38b480598eb7","6187385be49ad3961d53bd6c","1239.6999998092651"," <div style='float: center; '><img src='img/feedbackRight.png'></img> </div> "," ","","","","","","","","",""
"","","","","","visual-search-circle","11","137549","0.0-11.0-0.0","6151e6a0397a519cc56745e6","6186fb1cc52d38b480598eb7","6187385be49ad3961d53bd6c","1891.9000000953674","","d","true","[[6,237],[48,463],[237,593],[463,551],[593,362],[551,136],[362,6],[136,48]]","true","8","training","d","","",""
"","","","","","html-keyboard-response","12","138381","0.0-12.0","6151e6a0397a519cc56745e6","6186fb1cc52d38b480598eb7","6187385be49ad3961d53bd6c","831.4000000953674"," <div style='float: center; '><img src='img/feedbackRight.png'></img> </div> "," ","","","","","","","","",""
"","","","","","video-keyboard-response","13","141941","0.0-13.0","6151e6a0397a519cc56745e6","6186fb1cc52d38b480598eb7","6187385be49ad3961d53bd6c","3560","[""video/endTraining.mp4""]"," ","","","","","","","","",""
"","","","","","html-keyboard-response","14","141943","0.0-14.0-0.0-0.0","6151e6a0397a519cc56745e6","6186fb1cc52d38b480598eb7","6187385be49ad3961d53bd6c","null","","null","","","","","fixation","","","",""
"","","","","","visual-search-circle","15","145044","0.0-14.0-0.0-1.0","6151e6a0397a519cc56745e6","6186fb1cc52d38b480598eb7","6187385be49ad3961d53bd6c","2097.0999999046326","","d","true","[[258,2],[4,247],[159,564],[508,515],[569,168]]","true","5","","","img/Fire_Down_Target.gif","[""img/Fire_Up_Distractor.gif"",""img/Fire_Up_Distractor.gif"",""img/Fire_Up_Distractor.gif"",""img/Fire_Up_Distractor.gif"",""img/Fire_Up_Distractor.gif"",""img/Fire_Up_Distractor.gif"",""img/Fire_Up_Distractor.gif"",""img/Fire_Up_Distractor.gif"",""img/Fire_Up_Distractor.gif"",""img/Fire_Up_Distractor.gif"",""img/Fire_Up_Distractor.gif"",""img/Fire_Up_Distractor.gif""]","targetDown_distractorsUp"
"","","","","","html-keyboard-response","16","145053","0.0-14.0-0.0-0.1","6151e6a0397a519cc56745e6","6186fb1cc52d38b480598eb7","6187385be49ad3961d53bd6c","null","","null","","","","","fixation","","","",""
"","","","","","visual-search-circle","17","148277","0.0-14.0-0.0-1.1","6151e6a0397a519cc56745e6","6186fb1cc52d38b480598eb7","6187385be49ad3961d53bd6c","2221.2999997138977","","s","true","[[484,536],[536,115],[115,63],[63,484]]","false","4","","","img/Fire_Down_Target.gif","[""img/Fire_Up_Distractor.gif"",""img/Fire_Up_Distractor.gif"",""img/Fire_Up_Distractor.gif"",""img/Fire_Up_Distractor.gif"",""img/Fire_Up_Distractor.gif"",""img/Fire_Up_Distractor.gif"",""img/Fire_Up_Distractor.gif"",""img/Fire_Up_Distractor.gif"",""img/Fire_Up_Distractor.gif"",""img/Fire_Up_Distractor.gif"",""img/Fire_Up_Distractor.gif"",""img/Fire_Up_Distractor.gif""]","targetDown_distractorsUp"
"","","","","","html-keyboard-response","18","148282","0.0-14.0-0.0-0.2","6151e6a0397a519cc56745e6","6186fb1cc52d38b480598eb7","6187385be49ad3961d53bd6c","null","","null","","","","","fixation","","","",""
"","","","","","visual-search-circle","19","151349","0.0-14.0-0.0-1.2","6151e6a0397a519cc56745e6","6186fb1cc52d38b480598eb7","6187385be49ad3961d53bd6c","2063.0999999046326","","s","false","[[445,562],[588,382],[562,154],[382,11],[154,37],[11,217],[37,445],[217,588]]","true","8","","","img/Fire_Up_Target.gif","[""img/Fire_Down_Distractor.gif"",""img/Fire_Down_Distractor.gif"",""img/Fire_Down_Distractor.gif"",""img/Fire_Down_Distractor.gif"",""img/Fire_Down_Distractor.gif"",""img/Fire_Down_Distractor.gif"",""img/Fire_Down_Distractor.gif"",""img/Fire_Down_Distractor.gif"",""img/Fire_Down_Distractor.gif"",""img/Fire_Down_Distractor.gif"",""img/Fire_Down_Distractor.gif"",""img/Fire_Down_Distractor.gif""]","targetUp_distractorsDown"
"","","","","","html-keyboard-response","20","151352","0.0-14.0-0.0-0.3","6151e6a0397a519cc56745e6","6186fb1cc52d38b480598eb7","6187385be49ad3961d53bd6c","null","","null","","","","","fixation","","","",""
"","","","","","visual-search-circle","21","153717","0.0-14.0-0.0-1.3","6151e6a0397a519cc56745e6","6186fb1cc52d38b480598eb7","6187385be49ad3961d53bd6c","1362.3999996185303","","d","true","[[40,150],[40,450],[299,600],[559,450],[559,150],[300,0]]","true","6","","","img/Fire_Down_Target.gif","[""img/Fire_Up_Distractor.gif"",""img/Fire_Up_Distractor.gif"",""img/Fire_Up_Distractor.gif"",""img/Fire_Up_Distractor.gif"",""img/Fire_Up_Distractor.gif"",""img/Fire_Up_Distractor.gif"",""img/Fire_Up_Distractor.gif"",""img/Fire_Up_Distractor.gif"",""img/Fire_Up_Distractor.gif"",""img/Fire_Up_Distractor.gif"",""img/Fire_Up_Distractor.gif"",""img/Fire_Up_Distractor.gif""]","targetDown_distractorsUp"
"","","","","","html-keyboard-response","22","153720","0.0-14.0-0.0-0.4","6151e6a0397a519cc56745e6","6186fb1cc52d38b480598eb7","6187385be49ad3961d53bd6c","null","","null","","","","","fixation","","","",""
"","","","","","visual-search-circle","23","156741","0.0-14.0-0.0-1.4","6151e6a0397a519cc56745e6","6186fb1cc52d38b480598eb7","6187385be49ad3961d53bd6c","2018.3999996185303","","s","true","[[227,591],[482,538],[599,305],[491,69],[239,6],[32,164],[27,424]]","false","7","","","img/Fire_Down_Target.gif","[""img/Fire_Up_Distractor.gif"",""img/Fire_Up_Distractor.gif"",""img/Fire_Up_Distractor.gif"",""img/Fire_Up_Distractor.gif"",""img/Fire_Up_Distractor.gif"",""img/Fire_Up_Distractor.gif"",""img/Fire_Up_Distractor.gif"",""img/Fire_Up_Distractor.gif"",""img/Fire_Up_Distractor.gif"",""img/Fire_Up_Distractor.gif"",""img/Fire_Up_Distractor.gif"",""img/Fire_Up_Distractor.gif""]","targetDown_distractorsUp"
"","","","","","html-keyboard-response","24","156752","0.0-14.0-0.0-0.5","6151e6a0397a519cc56745e6","6186fb1cc52d38b480598eb7","6187385be49ad3961d53bd6c","null","","null","","","","","fixation","","","",""
"","","","","","visual-search-circle","25","160588","0.0-14.0-0.0-1.5","6151e6a0397a519cc56745e6","6186fb1cc52d38b480598eb7","6187385be49ad3961d53bd6c","2833.5","","s","true","[[300,0],[0,299],[299,600],[600,300]]","false","4","","","img/Fire_Down_Target.gif","[""img/Fire_Up_Distractor.gif"",""img/Fire_Up_Distractor.gif"",""img/Fire_Up_Distractor.gif"",""img/Fire_Up_Distractor.gif"",""img/Fire_Up_Distractor.gif"",""img/Fire_Up_Distractor.gif"",""img/Fire_Up_Distractor.gif"",""img/Fire_Up_Distractor.gif"",""img/Fire_Up_Distractor.gif"",""img/Fire_Up_Distractor.gif"",""img/Fire_Up_Distractor.gif"",""img/Fire_Up_Distractor.gif""]","targetDown_distractorsUp"
"","","","","","html-keyboard-response","26","160590","0.0-14.0-0.0-0.6","6151e6a0397a519cc56745e6","6186fb1cc52d38b480598eb7","6187385be49ad3961d53bd6c","null","","null","","","","","fixation","","","",""
"","","","","","visual-search-circle","27","164205","0.0-14.0-0.0-1.6","6151e6a0397a519cc56745e6","6186fb1cc52d38b480598eb7","6187385be49ad3961d53bd6c","2611.1000003814697","","d","true","[[10,377],[377,589],[589,222],[222,10]]","true","4","","","img/Fire_Up_Target.gif","[""img/Fire_Down_Distractor.gif"",""img/Fire_Down_Distractor.gif"",""img/Fire_Down_Distractor.gif"",""img/Fire_Down_Distractor.gif"",""img/Fire_Down_Distractor.gif"",""img/Fire_Down_Distractor.gif"",""img/Fire_Down_Distractor.gif"",""img/Fire_Down_Distractor.gif"",""img/Fire_Down_Distractor.gif"",""img/Fire_Down_Distractor.gif"",""img/Fire_Down_Distractor.gif"",""img/Fire_Down_Distractor.gif""]","targetUp_distractorsDown"
"","","","","","html-keyboard-response","28","164206","0.0-14.0-0.0-0.7","6151e6a0397a519cc56745e6","6186fb1cc52d38b480598eb7","6187385be49ad3961d53bd6c","null","","null","","","","","fixation","","","",""
"","","","","","visual-search-circle","29","167572","0.0-14.0-0.0-1.7","6151e6a0397a519cc56745e6","6186fb1cc52d38b480598eb7","6187385be49ad3961d53bd6c","2362.199999809265","","d","true","[[422,25],[192,19],[25,177],[19,407],[177,574],[407,580],[574,422],[580,192]]","true","8","","","img/Fire_Down_Target.gif","[""img/Fire_Up_Distractor.gif"",""img/Fire_Up_Distractor.gif"",""img/Fire_Up_Distractor.gif"",""img/Fire_Up_Distractor.gif"",""img/Fire_Up_Distractor.gif"",""img/Fire_Up_Distractor.gif"",""img/Fire_Up_Distractor.gif"",""img/Fire_Up_Distractor.gif"",""img/Fire_Up_Distractor.gif"",""img/Fire_Up_Distractor.gif"",""img/Fire_Up_Distractor.gif"",""img/Fire_Up_Distractor.gif""]","targetDown_distractorsUp"
"","","","","","html-keyboard-response","30","167574","0.0-14.0-0.0-0.8","6151e6a0397a519cc56745e6","6186fb1cc52d38b480598eb7","6187385be49ad3961d53bd6c","null","","null","","","","","fixation","","","",""
"","","","","","visual-search-circle","31","170717","0.0-14.0-0.0-1.8","6151e6a0397a519cc56745e6","6186fb1cc52d38b480598eb7","6187385be49ad3961d53bd6c","2139.5","","d","true","[[331,598],[533,488],[598,268],[488,66],[268,1],[66,111],[1,331],[111,533]]","true","8","","","img/Fire_Down_Target.gif","[""img/Fire_Up_Distractor.gif"",""img/Fire_Up_Distractor.gif"",""img/Fire_Up_Distractor.gif"",""img/Fire_Up_Distractor.gif"",""img/Fire_Up_Distractor.gif"",""img/Fire_Up_Distractor.gif"",""img/Fire_Up_Distractor.gif"",""img/Fire_Up_Distractor.gif"",""img/Fire_Up_Distractor.gif"",""img/Fire_Up_Distractor.gif"",""img/Fire_Up_Distractor.gif"",""img/Fire_Up_Distractor.gif""]","targetDown_distractorsUp"
"","","","","","html-keyboard-response","32","170719","0.0-14.0-0.0-0.9","6151e6a0397a519cc56745e6","6186fb1cc52d38b480598eb7","6187385be49ad3961d53bd6c","null","","null","","","","","fixation","","","",""
"","","","","","visual-search-circle","33","173972","0.0-14.0-0.0-1.9","6151e6a0397a519cc56745e6","6186fb1cc52d38b480598eb7","6187385be49ad3961d53bd6c","2251.4000000953674","","d","true","[[341,2],[2,258],[258,597],[597,341]]","true","4","","","img/Fire_Down_Target.gif","[""img/Fire_Up_Distractor.gif"",""img/Fire_Up_Distractor.gif"",""img/Fire_Up_Distractor.gif"",""img/Fire_Up_Distractor.gif"",""img/Fire_Up_Distractor.gif"",""img/Fire_Up_Distractor.gif"",""img/Fire_Up_Distractor.gif"",""img/Fire_Up_Distractor.gif"",""img/Fire_Up_Distractor.gif"",""img/Fire_Up_Distractor.gif"",""img/Fire_Up_Distractor.gif"",""img/Fire_Up_Distractor.gif""]","targetDown_distractorsUp"
"","","","","","html-keyboard-response","34","173974","0.0-14.0-0.0-0.10","6151e6a0397a519cc56745e6","6186fb1cc52d38b480598eb7","6187385be49ad3961d53bd6c","null","","null","","","","","fixation","","","",""
"","","","","","visual-search-circle","35","176525","0.0-14.0-0.0-1.10","6151e6a0397a519cc56745e6","6186fb1cc52d38b480598eb7","6187385be49ad3961d53bd6c","1547.1999998092651","","d","true","[[273,1],[28,173],[54,472],[326,598],[571,426],[545,127]]","true","6","","","img/Fire_Down_Target.gif","[""img/Fire_Up_Distractor.gif"",""img/Fire_Up_Distractor.gif"",""img/Fire_Up_Distractor.gif"",""img/Fire_Up_Distractor.gif"",""img/Fire_Up_Distractor.gif"",""img/Fire_Up_Distractor.gif"",""img/Fire_Up_Distractor.gif"",""img/Fire_Up_Distractor.gif"",""img/Fire_Up_Distractor.gif"",""img/Fire_Up_Distractor.gif"",""img/Fire_Up_Distractor.gif"",""img/Fire_Up_Distractor.gif""]","targetDown_distractorsUp"
"","","","","","html-keyboard-response","36","176527","0.0-14.0-0.0-0.11","6151e6a0397a519cc56745e6","6186fb1cc52d38b480598eb7","6187385be49ad3961d53bd6c","null","","null","","","","","fixation","","","",""
"","","","","","visual-search-circle","37","178732","0.0-14.0-0.0-1.11","6151e6a0397a519cc56745e6","6186fb1cc52d38b480598eb7","6187385be49ad3961d53bd6c","1202.0999999046326","","d","true","[[557,145],[339,2],[92,83],[1,327],[135,550],[393,585],[581,404]]","true","7","","","img/Fire_Up_Target.gif","[""img/Fire_Down_Distractor.gif"",""img/Fire_Down_Distractor.gif"",""img/Fire_Down_Distractor.gif"",""img/Fire_Down_Distractor.gif"",""img/Fire_Down_Distractor.gif"",""img/Fire_Down_Distractor.gif"",""img/Fire_Down_Distractor.gif"",""img/Fire_Down_Distractor.gif"",""img/Fire_Down_Distractor.gif"",""img/Fire_Down_Distractor.gif"",""img/Fire_Down_Distractor.gif"",""img/Fire_Down_Distractor.gif""]","targetUp_distractorsDown"
"","","","","","html-keyboard-response","38","178735","0.0-14.0-0.0-0.12","6151e6a0397a519cc56745e6","6186fb1cc52d38b480598eb7","6187385be49ad3961d53bd6c","null","","null","","","","","fixation","","","",""
"","","","","","visual-search-circle","39","181980","0.0-14.0-0.0-1.12","6151e6a0397a519cc56745e6","6186fb1cc52d38b480598eb7","6187385be49ad3961d53bd6c","2243.4000000953674","","s","true","[[519,95],[173,28],[2,336],[242,594],[562,445]]","false","5","","","img/Fire_Down_Target.gif","[""img/Fire_Up_Distractor.gif"",""img/Fire_Up_Distractor.gif"",""img/Fire_Up_Distractor.gif"",""img/Fire_Up_Distractor.gif"",""img/Fire_Up_Distractor.gif"",""img/Fire_Up_Distractor.gif"",""img/Fire_Up_Distractor.gif"",""img/Fire_Up_Distractor.gif"",""img/Fire_Up_Distractor.gif"",""img/Fire_Up_Distractor.gif"",""img/Fire_Up_Distractor.gif"",""img/Fire_Up_Distractor.gif""]","targetDown_distractorsUp"
"","","","","","html-keyboard-response","40","181983","0.0-14.0-0.0-0.13","6151e6a0397a519cc56745e6","6186fb1cc52d38b480598eb7","6187385be49ad3961d53bd6c","null","","null","","","","","fixation","","","",""
"","","","","","visual-search-circle","41","185157","0.0-14.0-0.0-1.13","6151e6a0397a519cc56745e6","6186fb1cc52d38b480598eb7","6187385be49ad3961d53bd6c","2170.5","","s","true","[[187,578],[578,412],[412,21],[21,187]]","false","4","","","img/Fire_Down_Target.gif","[""img/Fire_Up_Distractor.gif"",""img/Fire_Up_Distractor.gif"",""img/Fire_Up_Distractor.gif"",""img/Fire_Up_Distractor.gif"",""img/Fire_Up_Distractor.gif"",""img/Fire_Up_Distractor.gif"",""img/Fire_Up_Distractor.gif"",""img/Fire_Up_Distractor.gif"",""img/Fire_Up_Distractor.gif"",""img/Fire_Up_Distractor.gif"",""img/Fire_Up_Distractor.gif"",""img/Fire_Up_Distractor.gif""]","targetDown_distractorsUp"
"","","","","","html-keyboard-response","42","185158","0.0-14.0-0.0-0.14","6151e6a0397a519cc56745e6","6186fb1cc52d38b480598eb7","6187385be49ad3961d53bd6c","null","","null","","","","","fixation","","","",""
"","","","","","visual-search-circle","43","188533","0.0-14.0-0.0-1.14","6151e6a0397a519cc56745e6","6186fb1cc52d38b480598eb7","6187385be49ad3961d53bd6c","2372.2999997138977","","s","true","[[232,7],[29,170],[30,430],[233,592],[487,534],[599,299],[486,64]]","false","7","","","img/Fire_Down_Target.gif","[""img/Fire_Up_Distractor.gif"",""img/Fire_Up_Distractor.gif"",""img/Fire_Up_Distractor.gif"",""img/Fire_Up_Distractor.gif"",""img/Fire_Up_Distractor.gif"",""img/Fire_Up_Distractor.gif"",""img/Fire_Up_Distractor.gif"",""img/Fire_Up_Distractor.gif"",""img/Fire_Up_Distractor.gif"",""img/Fire_Up_Distractor.gif"",""img/Fire_Up_Distractor.gif"",""img/Fire_Up_Distractor.gif""]","targetDown_distractorsUp"
"","","","","","html-keyboard-response","44","188535","0.0-14.0-0.0-0.15","6151e6a0397a519cc56745e6","6186fb1cc52d38b480598eb7","6187385be49ad3961d53bd6c","null","","null","","","","","fixation","","","",""
"","","","","","visual-search-circle","45","192556","0.0-14.0-0.0-1.15","6151e6a0397a519cc56745e6","6186fb1cc52d38b480598eb7","6187385be49ad3961d53bd6c","3018.6000003814697","","d","true","[[192,19],[0,315],[222,589],[551,463],[533,111]]","true","5","","","img/Fire_Down_Target.gif","[""img/Fire_Up_Distractor.gif"",""img/Fire_Up_Distractor.gif"",""img/Fire_Up_Distractor.gif"",""img/Fire_Up_Distractor.gif"",""img/Fire_Up_Distractor.gif"",""img/Fire_Up_Distractor.gif"",""img/Fire_Up_Distractor.gif"",""img/Fire_Up_Distractor.gif"",""img/Fire_Up_Distractor.gif"",""img/Fire_Up_Distractor.gif"",""img/Fire_Up_Distractor.gif"",""img/Fire_Up_Distractor.gif""]","targetDown_distractorsUp"
"","","","","","html-keyboard-response","46","192559","0.0-14.0-0.0-0.16","6151e6a0397a519cc56745e6","6186fb1cc52d38b480598eb7","6187385be49ad3961d53bd6c","null","","null","","","","","fixation","","","",""
"","","","","","visual-search-circle","47","196012","0.0-14.0-0.0-1.16","6151e6a0397a519cc56745e6","6186fb1cc52d38b480598eb7","6187385be49ad3961d53bd6c","2451.2000002861023","","d","true","[[504,519],[592,232],[387,13],[95,80],[7,367],[212,586]]","true","6","","","img/Fire_Up_Target.gif","[""img/Fire_Down_Distractor.gif"",""img/Fire_Down_Distractor.gif"",""img/Fire_Down_Distractor.gif"",""img/Fire_Down_Distractor.gif"",""img/Fire_Down_Distractor.gif"",""img/Fire_Down_Distractor.gif"",""img/Fire_Down_Distractor.gif"",""img/Fire_Down_Distractor.gif"",""img/Fire_Down_Distractor.gif"",""img/Fire_Down_Distractor.gif"",""img/Fire_Down_Distractor.gif"",""img/Fire_Down_Distractor.gif""]","targetUp_distractorsDown"
"","","","","","html-keyboard-response","48","196015","0.0-14.0-0.0-0.17","6151e6a0397a519cc56745e6","6186fb1cc52d38b480598eb7","6187385be49ad3961d53bd6c","null","","null","","","","","fixation","","","",""
"","","","","","visual-search-circle","49","200173","0.0-14.0-0.0-1.17","6151e6a0397a519cc56745e6","6186fb1cc52d38b480598eb7","6187385be49ad3961d53bd6c","3154.5","","d","false","[[578,187],[385,12],[128,53],[0,280],[98,521],[347,596],[561,447]]","false","7","","","img/Fire_Down_Target.gif","[""img/Fire_Up_Distractor.gif"",""img/Fire_Up_Distractor.gif"",""img/Fire_Up_Distractor.gif"",""img/Fire_Up_Distractor.gif"",""img/Fire_Up_Distractor.gif"",""img/Fire_Up_Distractor.gif"",""img/Fire_Up_Distractor.gif"",""img/Fire_Up_Distractor.gif"",""img/Fire_Up_Distractor.gif"",""img/Fire_Up_Distractor.gif"",""img/Fire_Up_Distractor.gif"",""img/Fire_Up_Distractor.gif""]","targetDown_distractorsUp"
"","","","","","html-keyboard-response","50","200174","0.0-14.0-0.0-0.18","6151e6a0397a519cc56745e6","6186fb1cc52d38b480598eb7","6187385be49ad3961d53bd6c","null","","null","","","","","fixation","","","",""
"","","","","","visual-search-circle","51","204820","0.0-14.0-0.0-1.18","6151e6a0397a519cc56745e6","6186fb1cc52d38b480598eb7","6187385be49ad3961d53bd6c","3643.0999999046326","","s","true","[[341,2],[63,115],[21,412],[258,597],[536,484],[578,187]]","false","6","","","img/Fire_Up_Target.gif","[""img/Fire_Down_Distractor.gif"",""img/Fire_Down_Distractor.gif"",""img/Fire_Down_Distractor.gif"",""img/Fire_Down_Distractor.gif"",""img/Fire_Down_Distractor.gif"",""img/Fire_Down_Distractor.gif"",""img/Fire_Down_Distractor.gif"",""img/Fire_Down_Distractor.gif"",""img/Fire_Down_Distractor.gif"",""img/Fire_Down_Distractor.gif"",""img/Fire_Down_Distractor.gif"",""img/Fire_Down_Distractor.gif""]","targetUp_distractorsDown"
"","","","","","html-keyboard-response","52","211445","0.0-14.0-0.0-0.19","6151e6a0397a519cc56745e6","6186fb1cc52d38b480598eb7","6187385be49ad3961d53bd6c","6623.900000095367","Wow! You've completed 20 out of 120 trials! </p> <p>  </p><p> Take a quick break, then press any key when you're ready to continue."," ","","","","","fixation","","","",""
"","","","","","visual-search-circle","53","215581","0.0-14.0-0.0-1.19","6151e6a0397a519cc56745e6","6186fb1cc52d38b480598eb7","6187385be49ad3961d53bd6c","3132.2999997138977","","s","true","[[284,0],[55,125],[11,381],[184,576],[444,563],[595,351],[524,100]]","false","7","","","img/Fire_Up_Target.gif","[""img/Fire_Down_Distractor.gif"",""img/Fire_Down_Distractor.gif"",""img/Fire_Down_Distractor.gif"",""img/Fire_Down_Distractor.gif"",""img/Fire_Down_Distractor.gif"",""img/Fire_Down_Distractor.gif"",""img/Fire_Down_Distractor.gif"",""img/Fire_Down_Distractor.gif"",""img/Fire_Down_Distractor.gif"",""img/Fire_Down_Distractor.gif"",""img/Fire_Down_Distractor.gif"",""img/Fire_Down_Distractor.gif""]","targetUp_distractorsDown"
"","","","","","html-keyboard-response","54","215582","0.0-14.0-0.0-0.20","6151e6a0397a519cc56745e6","6186fb1cc52d38b480598eb7","6187385be49ad3961d53bd6c","null","","null","","","","","fixation","","","",""
"","","","","","visual-search-circle","55","217980","0.0-14.0-0.0-1.20","6151e6a0397a519cc56745e6","6186fb1cc52d38b480598eb7","6187385be49ad3961d53bd6c","1394.5","","d","true","[[91,515],[305,599],[515,508],[599,294],[508,84],[294,0],[84,91],[0,305]]","true","8","","","img/Fire_Up_Target.gif","[""img/Fire_Down_Distractor.gif"",""img/Fire_Down_Distractor.gif"",""img/Fire_Down_Distractor.gif"",""img/Fire_Down_Distractor.gif"",""img/Fire_Down_Distractor.gif"",""img/Fire_Down_Distractor.gif"",""img/Fire_Down_Distractor.gif"",""img/Fire_Down_Distractor.gif"",""img/Fire_Down_Distractor.gif"",""img/Fire_Down_Distractor.gif"",""img/Fire_Down_Distractor.gif"",""img/Fire_Down_Distractor.gif""]","targetUp_distractorsDown"
"","","","","","html-keyboard-response","56","217983","0.0-14.0-0.0-0.21","6151e6a0397a519cc56745e6","6186fb1cc52d38b480598eb7","6187385be49ad3961d53bd6c","null","","null","","","","","fixation","","","",""
"","","","","","visual-search-circle","57","222669","0.0-14.0-0.0-1.21","6151e6a0397a519cc56745e6","6186fb1cc52d38b480598eb7","6187385be49ad3961d53bd6c","3682.699999809265","","s","true","[[426,571],[597,263],[357,5],[37,154],[80,504]]","false","5","","","img/Fire_Up_Target.gif","[""img/Fire_Down_Distractor.gif"",""img/Fire_Down_Distractor.gif"",""img/Fire_Down_Distractor.gif"",""img/Fire_Down_Distractor.gif"",""img/Fire_Down_Distractor.gif"",""img/Fire_Down_Distractor.gif"",""img/Fire_Down_Distractor.gif"",""img/Fire_Down_Distractor.gif"",""img/Fire_Down_Distractor.gif"",""img/Fire_Down_Distractor.gif"",""img/Fire_Down_Distractor.gif"",""img/Fire_Down_Distractor.gif""]","targetUp_distractorsDown"
"","","","","","html-keyboard-response","58","222671","0.0-14.0-0.0-0.22","6151e6a0397a519cc56745e6","6186fb1cc52d38b480598eb7","6187385be49ad3961d53bd6c","null","","null","","","","","fixation","","","",""
"","","","","","visual-search-circle","59","225868","0.0-14.0-0.0-1.22","6151e6a0397a519cc56745e6","6186fb1cc52d38b480598eb7","6187385be49ad3961d53bd6c","2192.5","","s","true","[[352,595],[563,443],[576,183],[381,11],[124,56],[0,285],[101,524]]","false","7","","","img/Fire_Up_Target.gif","[""img/Fire_Down_Distractor.gif"",""img/Fire_Down_Distractor.gif"",""img/Fire_Down_Distractor.gif"",""img/Fire_Down_Distractor.gif"",""img/Fire_Down_Distractor.gif"",""img/Fire_Down_Distractor.gif"",""img/Fire_Down_Distractor.gif"",""img/Fire_Down_Distractor.gif"",""img/Fire_Down_Distractor.gif"",""img/Fire_Down_Distractor.gif"",""img/Fire_Down_Distractor.gif"",""img/Fire_Down_Distractor.gif""]","targetUp_distractorsDown"
"","","","","","html-keyboard-response","60","225870","0.0-14.0-0.0-0.23","6151e6a0397a519cc56745e6","6186fb1cc52d38b480598eb7","6187385be49ad3961d53bd6c","null","","null","","","","","fixation","","","",""
"","","","","","visual-search-circle","61","227924","0.0-14.0-0.0-1.23","6151e6a0397a519cc56745e6","6186fb1cc52d38b480598eb7","6187385be49ad3961d53bd6c","1052.5","","d","true","[[574,422],[542,123],[268,1],[25,177],[57,476],[331,598]]","true","6","","","img/Fire_Down_Target.gif","[""img/Fire_Up_Distractor.gif"",""img/Fire_Up_Distractor.gif"",""img/Fire_Up_Distractor.gif"",""img/Fire_Up_Distractor.gif"",""img/Fire_Up_Distractor.gif"",""img/Fire_Up_Distractor.gif"",""img/Fire_Up_Distractor.gif"",""img/Fire_Up_Distractor.gif"",""img/Fire_Up_Distractor.gif"",""img/Fire_Up_Distractor.gif"",""img/Fire_Up_Distractor.gif"",""img/Fire_Up_Distractor.gif""]","targetDown_distractorsUp"
"","","","","","html-keyboard-response","62","227932","0.0-14.0-0.0-0.24","6151e6a0397a519cc56745e6","6186fb1cc52d38b480598eb7","6187385be49ad3961d53bd6c","null","","null","","","","","fixation","","","",""
"","","","","","visual-search-circle","63","231140","0.0-14.0-0.0-1.24","6151e6a0397a519cc56745e6","6186fb1cc52d38b480598eb7","6187385be49ad3961d53bd6c","2206","","d","true","[[392,14],[14,207],[207,585],[585,392]]","true","4","","","img/Fire_Up_Target.gif","[""img/Fire_Down_Distractor.gif"",""img/Fire_Down_Distractor.gif"",""img/Fire_Down_Distractor.gif"",""img/Fire_Down_Distractor.gif"",""img/Fire_Down_Distractor.gif"",""img/Fire_Down_Distractor.gif"",""img/Fire_Down_Distractor.gif"",""img/Fire_Down_Distractor.gif"",""img/Fire_Down_Distractor.gif"",""img/Fire_Down_Distractor.gif"",""img/Fire_Down_Distractor.gif"",""img/Fire_Down_Distractor.gif""]","targetUp_distractorsDown"
"","","","","","html-keyboard-response","64","231158","0.0-14.0-0.0-0.25","6151e6a0397a519cc56745e6","6186fb1cc52d38b480598eb7","6187385be49ad3961d53bd6c","null","","null","","","","","fixation","","","",""
"","","","","","visual-search-circle","65","234277","0.0-14.0-0.0-1.25","6151e6a0397a519cc56745e6","6186fb1cc52d38b480598eb7","6187385be49ad3961d53bd6c","2115.5","","d","true","[[57,123],[57,476],[392,585],[600,300],[392,14]]","true","5","","","img/Fire_Up_Target.gif","[""img/Fire_Down_Distractor.gif"",""img/Fire_Down_Distractor.gif"",""img/Fire_Down_Distractor.gif"",""img/Fire_Down_Distractor.gif"",""img/Fire_Down_Distractor.gif"",""img/Fire_Down_Distractor.gif"",""img/Fire_Down_Distractor.gif"",""img/Fire_Down_Distractor.gif"",""img/Fire_Down_Distractor.gif"",""img/Fire_Down_Distractor.gif"",""img/Fire_Down_Distractor.gif"",""img/Fire_Down_Distractor.gif""]","targetUp_distractorsDown"
"","","","","","html-keyboard-response","66","234278","0.0-14.0-0.0-0.26","6151e6a0397a519cc56745e6","6186fb1cc52d38b480598eb7","6187385be49ad3961d53bd6c","null","","null","","","","","fixation","","","",""
"","","","","","visual-search-circle","67","237604","0.0-14.0-0.0-1.26","6151e6a0397a519cc56745e6","6186fb1cc52d38b480598eb7","6187385be49ad3961d53bd6c","2324.0999999046326","","s","false","[[467,51],[115,63],[18,402],[310,599],[588,382]]","true","5","","","img/Fire_Down_Target.gif","[""img/Fire_Up_Distractor.gif"",""img/Fire_Up_Distractor.gif"",""img/Fire_Up_Distractor.gif"",""img/Fire_Up_Distractor.gif"",""img/Fire_Up_Distractor.gif"",""img/Fire_Up_Distractor.gif"",""img/Fire_Up_Distractor.gif"",""img/Fire_Up_Distractor.gif"",""img/Fire_Up_Distractor.gif"",""img/Fire_Up_Distractor.gif"",""img/Fire_Up_Distractor.gif"",""img/Fire_Up_Distractor.gif""]","targetDown_distractorsUp"
"","","","","","html-keyboard-response","68","237607","0.0-14.0-0.0-0.27","6151e6a0397a519cc56745e6","6186fb1cc52d38b480598eb7","6187385be49ad3961d53bd6c","null","","null","","","","","fixation","","","",""
"","","","","","visual-search-circle","69","240772","0.0-14.0-0.0-1.27","6151e6a0397a519cc56745e6","6186fb1cc52d38b480598eb7","6187385be49ad3961d53bd6c","2161.5999999046326","","d","true","[[362,6],[77,99],[14,392],[237,593],[522,500],[585,207]]","true","6","","","img/Fire_Up_Target.gif","[""img/Fire_Down_Distractor.gif"",""img/Fire_Down_Distractor.gif"",""img/Fire_Down_Distractor.gif"",""img/Fire_Down_Distractor.gif"",""img/Fire_Down_Distractor.gif"",""img/Fire_Down_Distractor.gif"",""img/Fire_Down_Distractor.gif"",""img/Fire_Down_Distractor.gif"",""img/Fire_Down_Distractor.gif"",""img/Fire_Down_Distractor.gif"",""img/Fire_Down_Distractor.gif"",""img/Fire_Down_Distractor.gif""]","targetUp_distractorsDown"
"","","","","","html-keyboard-response","70","240775","0.0-14.0-0.0-0.28","6151e6a0397a519cc56745e6","6186fb1cc52d38b480598eb7","6187385be49ad3961d53bd6c","null","","null","","","","","fixation","","","",""
"","","","","","visual-search-circle","71","243684","0.0-14.0-0.0-1.28","6151e6a0397a519cc56745e6","6186fb1cc52d38b480598eb7","6187385be49ad3961d53bd6c","1907.0999999046326","","s","true","[[422,574],[598,268],[362,6],[40,150],[77,500]]","false","5","","","img/Fire_Down_Target.gif","[""img/Fire_Up_Distractor.gif"",""img/Fire_Up_Distractor.gif"",""img/Fire_Up_Distractor.gif"",""img/Fire_Up_Distractor.gif"",""img/Fire_Up_Distractor.gif"",""img/Fire_Up_Distractor.gif"",""img/Fire_Up_Distractor.gif"",""img/Fire_Up_Distractor.gif"",""img/Fire_Up_Distractor.gif"",""img/Fire_Up_Distractor.gif"",""img/Fire_Up_Distractor.gif"",""img/Fire_Up_Distractor.gif""]","targetDown_distractorsUp"
"","","","","","html-keyboard-response","72","243687","0.0-14.0-0.0-0.29","6151e6a0397a519cc56745e6","6186fb1cc52d38b480598eb7","6187385be49ad3961d53bd6c","null","","null","","","","","fixation","","","",""
"","","","","","visual-search-circle","73","248660","0.0-14.0-0.0-1.29","6151e6a0397a519cc56745e6","6186fb1cc52d38b480598eb7","6187385be49ad3961d53bd6c","3971.9000000953674","","s","true","[[103,73],[73,496],[496,526],[526,103]]","false","4","","","img/Fire_Up_Target.gif","[""img/Fire_Down_Distractor.gif"",""img/Fire_Down_Distractor.gif"",""img/Fire_Down_Distractor.gif"",""img/Fire_Down_Distractor.gif"",""img/Fire_Down_Distractor.gif"",""img/Fire_Down_Distractor.gif"",""img/Fire_Down_Distractor.gif"",""img/Fire_Down_Distractor.gif"",""img/Fire_Down_Distractor.gif"",""img/Fire_Down_Distractor.gif"",""img/Fire_Down_Distractor.gif"",""img/Fire_Down_Distractor.gif""]","targetUp_distractorsDown"
"","","","","","html-keyboard-response","74","248663","0.0-14.0-0.0-0.30","6151e6a0397a519cc56745e6","6186fb1cc52d38b480598eb7","6187385be49ad3961d53bd6c","null","","null","","","","","fixation","","","",""
"","","","","","visual-search-circle","75","251436","0.0-14.0-0.0-1.30","6151e6a0397a519cc56745e6","6186fb1cc52d38b480598eb7","6187385be49ad3961d53bd6c","1769.3000001907349","","s","true","[[80,95],[0,310],[95,519],[310,599],[519,504],[599,289],[504,80],[289,0]]","false","8","","","img/Fire_Down_Target.gif","[""img/Fire_Up_Distractor.gif"",""img/Fire_Up_Distractor.gif"",""img/Fire_Up_Distractor.gif"",""img/Fire_Up_Distractor.gif"",""img/Fire_Up_Distractor.gif"",""img/Fire_Up_Distractor.gif"",""img/Fire_Up_Distractor.gif"",""img/Fire_Up_Distractor.gif"",""img/Fire_Up_Distractor.gif"",""img/Fire_Up_Distractor.gif"",""img/Fire_Up_Distractor.gif"",""img/Fire_Up_Distractor.gif""]","targetDown_distractorsUp"
"","","","","","html-keyboard-response","76","251438","0.0-14.0-0.0-0.31","6151e6a0397a519cc56745e6","6186fb1cc52d38b480598eb7","6187385be49ad3961d53bd6c","null","","null","","","","","fixation","","","",""
"","","","","","visual-search-circle","77","254844","0.0-14.0-0.0-1.31","6151e6a0397a519cc56745e6","6186fb1cc52d38b480598eb7","6187385be49ad3961d53bd6c","2404.300000190735","","s","true","[[2,263],[63,484],[263,597],[484,536],[597,336],[536,115],[336,2],[115,63]]","false","8","","","img/Fire_Down_Target.gif","[""img/Fire_Up_Distractor.gif"",""img/Fire_Up_Distractor.gif"",""img/Fire_Up_Distractor.gif"",""img/Fire_Up_Distractor.gif"",""img/Fire_Up_Distractor.gif"",""img/Fire_Up_Distractor.gif"",""img/Fire_Up_Distractor.gif"",""img/Fire_Up_Distractor.gif"",""img/Fire_Up_Distractor.gif"",""img/Fire_Up_Distractor.gif"",""img/Fire_Up_Distractor.gif"",""img/Fire_Up_Distractor.gif""]","targetDown_distractorsUp"
"","","","","","html-keyboard-response","78","254846","0.0-14.0-0.0-0.32","6151e6a0397a519cc56745e6","6186fb1cc52d38b480598eb7","6187385be49ad3961d53bd6c","null","","null","","","","","fixation","","","",""
"","","","","","visual-search-circle","79","257396","0.0-14.0-0.0-1.32","6151e6a0397a519cc56745e6","6186fb1cc52d38b480598eb7","6187385be49ad3961d53bd6c","1546.2000002861023","","s","true","[[331,598],[533,488],[598,268],[488,66],[268,1],[66,111],[1,331],[111,533]]","false","8","","","img/Fire_Down_Target.gif","[""img/Fire_Up_Distractor.gif"",""img/Fire_Up_Distractor.gif"",""img/Fire_Up_Distractor.gif"",""img/Fire_Up_Distractor.gif"",""img/Fire_Up_Distractor.gif"",""img/Fire_Up_Distractor.gif"",""img/Fire_Up_Distractor.gif"",""img/Fire_Up_Distractor.gif"",""img/Fire_Up_Distractor.gif"",""img/Fire_Up_Distractor.gif"",""img/Fire_Up_Distractor.gif"",""img/Fire_Up_Distractor.gif""]","targetDown_distractorsUp"
"","","","","","html-keyboard-response","80","257397","0.0-14.0-0.0-0.33","6151e6a0397a519cc56745e6","6186fb1cc52d38b480598eb7","6187385be49ad3961d53bd6c","null","","null","","","","","fixation","","","",""
"","","","","","visual-search-circle","81","260333","0.0-14.0-0.0-1.33","6151e6a0397a519cc56745e6","6186fb1cc52d38b480598eb7","6187385be49ad3961d53bd6c","1931.9000000953674","","s","true","[[207,585],[436,567],[585,392],[567,163],[392,14],[163,32],[14,207],[32,436]]","false","8","","","img/Fire_Up_Target.gif","[""img/Fire_Down_Distractor.gif"",""img/Fire_Down_Distractor.gif"",""img/Fire_Down_Distractor.gif"",""img/Fire_Down_Distractor.gif"",""img/Fire_Down_Distractor.gif"",""img/Fire_Down_Distractor.gif"",""img/Fire_Down_Distractor.gif"",""img/Fire_Down_Distractor.gif"",""img/Fire_Down_Distractor.gif"",""img/Fire_Down_Distractor.gif"",""img/Fire_Down_Distractor.gif"",""img/Fire_Down_Distractor.gif""]","targetUp_distractorsDown"
"","","","","","html-keyboard-response","82","260335","0.0-14.0-0.0-0.34","6151e6a0397a519cc56745e6","6186fb1cc52d38b480598eb7","6187385be49ad3961d53bd6c","null","","null","","","","","fixation","","","",""
"","","","","","visual-search-circle","83","262764","0.0-14.0-0.0-1.34","6151e6a0397a519cc56745e6","6186fb1cc52d38b480598eb7","6187385be49ad3961d53bd6c","1426.9000000953674","","s","true","[[533,488],[580,192],[346,3],[66,111],[19,407],[253,596]]","false","6","","","img/Fire_Down_Target.gif","[""img/Fire_Up_Distractor.gif"",""img/Fire_Up_Distractor.gif"",""img/Fire_Up_Distractor.gif"",""img/Fire_Up_Distractor.gif"",""img/Fire_Up_Distractor.gif"",""img/Fire_Up_Distractor.gif"",""img/Fire_Up_Distractor.gif"",""img/Fire_Up_Distractor.gif"",""img/Fire_Up_Distractor.gif"",""img/Fire_Up_Distractor.gif"",""img/Fire_Up_Distractor.gif"",""img/Fire_Up_Distractor.gif""]","targetDown_distractorsUp"
"","","","","","html-keyboard-response","84","262765","0.0-14.0-0.0-0.35","6151e6a0397a519cc56745e6","6186fb1cc52d38b480598eb7","6187385be49ad3961d53bd6c","null","","null","","","","","fixation","","","",""
"","","","","","visual-search-circle","85","265300","0.0-14.0-0.0-1.35","6151e6a0397a519cc56745e6","6186fb1cc52d38b480598eb7","6187385be49ad3961d53bd6c","1531.5999999046326","","s","true","[[583,202],[294,0],[13,212],[127,545],[480,539]]","false","5","","","img/Fire_Down_Target.gif","[""img/Fire_Up_Distractor.gif"",""img/Fire_Up_Distractor.gif"",""img/Fire_Up_Distractor.gif"",""img/Fire_Up_Distractor.gif"",""img/Fire_Up_Distractor.gif"",""img/Fire_Up_Distractor.gif"",""img/Fire_Up_Distractor.gif"",""img/Fire_Up_Distractor.gif"",""img/Fire_Up_Distractor.gif"",""img/Fire_Up_Distractor.gif"",""img/Fire_Up_Distractor.gif"",""img/Fire_Up_Distractor.gif""]","targetDown_distractorsUp"
"","","","","","html-keyboard-response","86","265303","0.0-14.0-0.0-0.36","6151e6a0397a519cc56745e6","6186fb1cc52d38b480598eb7","6187385be49ad3961d53bd6c","null","","null","","","","","fixation","","","",""
"","","","","","visual-search-circle","87","268564","0.0-14.0-0.0-1.36","6151e6a0397a519cc56745e6","6186fb1cc52d38b480598eb7","6187385be49ad3961d53bd6c","2260.0999999046326","","s","true","[[207,585],[585,392],[392,14],[14,207]]","false","4","","","img/Fire_Down_Target.gif","[""img/Fire_Up_Distractor.gif"",""img/Fire_Up_Distractor.gif"",""img/Fire_Up_Distractor.gif"",""img/Fire_Up_Distractor.gif"",""img/Fire_Up_Distractor.gif"",""img/Fire_Up_Distractor.gif"",""img/Fire_Up_Distractor.gif"",""img/Fire_Up_Distractor.gif"",""img/Fire_Up_Distractor.gif"",""img/Fire_Up_Distractor.gif"",""img/Fire_Up_Distractor.gif"",""img/Fire_Up_Distractor.gif""]","targetDown_distractorsUp"
"","","","","","html-keyboard-response","88","268566","0.0-14.0-0.0-0.37","6151e6a0397a519cc56745e6","6186fb1cc52d38b480598eb7","6187385be49ad3961d53bd6c","null","","null","","","","","fixation","","","",""
"","","","","","visual-search-circle","89","271300","0.0-14.0-0.0-1.37","6151e6a0397a519cc56745e6","6186fb1cc52d38b480598eb7","6187385be49ad3961d53bd6c","1731.7000002861023","","s","true","[[237,6],[14,207],[77,500],[362,593],[585,392],[522,99]]","false","6","","","img/Fire_Up_Target.gif","[""img/Fire_Down_Distractor.gif"",""img/Fire_Down_Distractor.gif"",""img/Fire_Down_Distractor.gif"",""img/Fire_Down_Distractor.gif"",""img/Fire_Down_Distractor.gif"",""img/Fire_Down_Distractor.gif"",""img/Fire_Down_Distractor.gif"",""img/Fire_Down_Distractor.gif"",""img/Fire_Down_Distractor.gif"",""img/Fire_Down_Distractor.gif"",""img/Fire_Down_Distractor.gif"",""img/Fire_Down_Distractor.gif""]","targetUp_distractorsDown"
"","","","","","html-keyboard-response","90","271304","0.0-14.0-0.0-0.38","6151e6a0397a519cc56745e6","6186fb1cc52d38b480598eb7","6187385be49ad3961d53bd6c","null","","null","","","","","fixation","","","",""
"","","","","","visual-search-circle","91","273988","0.0-14.0-0.0-1.38","6151e6a0397a519cc56745e6","6186fb1cc52d38b480598eb7","6187385be49ad3961d53bd6c","1682","","s","true","[[197,581],[456,555],[597,337],[514,90],[270,1],[47,137],[15,395]]","false","7","","","img/Fire_Up_Target.gif","[""img/Fire_Down_Distractor.gif"",""img/Fire_Down_Distractor.gif"",""img/Fire_Down_Distractor.gif"",""img/Fire_Down_Distractor.gif"",""img/Fire_Down_Distractor.gif"",""img/Fire_Down_Distractor.gif"",""img/Fire_Down_Distractor.gif"",""img/Fire_Down_Distractor.gif"",""img/Fire_Down_Distractor.gif"",""img/Fire_Down_Distractor.gif"",""img/Fire_Down_Distractor.gif"",""img/Fire_Down_Distractor.gif""]","targetUp_distractorsDown"
"","","","","","html-keyboard-response","92","280212","0.0-14.0-0.0-0.39","6151e6a0397a519cc56745e6","6186fb1cc52d38b480598eb7","6187385be49ad3961d53bd6c","6223.800000190735","Wow! You've completed 40 out of 120 trials! </p> <p>  </p><p> Take a quick break, then press any key when you're ready to continue."," ","","","","","fixation","","","",""
"","","","","","visual-search-circle","93","282357","0.0-14.0-0.0-1.39","6151e6a0397a519cc56745e6","6186fb1cc52d38b480598eb7","6187385be49ad3961d53bd6c","1141.6000003814697","","d","true","[[14,392],[194,580],[453,557],[597,340],[516,92],[273,1],[49,134]]","true","7","","","img/Fire_Down_Target.gif","[""img/Fire_Up_Distractor.gif"",""img/Fire_Up_Distractor.gif"",""img/Fire_Up_Distractor.gif"",""img/Fire_Up_Distractor.gif"",""img/Fire_Up_Distractor.gif"",""img/Fire_Up_Distractor.gif"",""img/Fire_Up_Distractor.gif"",""img/Fire_Up_Distractor.gif"",""img/Fire_Up_Distractor.gif"",""img/Fire_Up_Distractor.gif"",""img/Fire_Up_Distractor.gif"",""img/Fire_Up_Distractor.gif""]","targetDown_distractorsUp"
"","","","","","html-keyboard-response","94","282358","0.0-14.0-0.0-0.40","6151e6a0397a519cc56745e6","6186fb1cc52d38b480598eb7","6187385be49ad3961d53bd6c","null","","null","","","","","fixation","","","",""
"","","","","","visual-search-circle","95","284404","0.0-14.0-0.0-1.40","6151e6a0397a519cc56745e6","6186fb1cc52d38b480598eb7","6187385be49ad3961d53bd6c","1043.3000001907349","","s","true","[[599,284],[284,0],[0,315],[315,599]]","false","4","","","img/Fire_Up_Target.gif","[""img/Fire_Down_Distractor.gif"",""img/Fire_Down_Distractor.gif"",""img/Fire_Down_Distractor.gif"",""img/Fire_Down_Distractor.gif"",""img/Fire_Down_Distractor.gif"",""img/Fire_Down_Distractor.gif"",""img/Fire_Down_Distractor.gif"",""img/Fire_Down_Distractor.gif"",""img/Fire_Down_Distractor.gif"",""img/Fire_Down_Distractor.gif"",""img/Fire_Down_Distractor.gif"",""img/Fire_Down_Distractor.gif""]","targetUp_distractorsDown"
"","","","","","html-keyboard-response","96","284407","0.0-14.0-0.0-0.41","6151e6a0397a519cc56745e6","6186fb1cc52d38b480598eb7","6187385be49ad3961d53bd6c","null","","null","","","","","fixation","","","",""
"","","","","","visual-search-circle","97","286884","0.0-14.0-0.0-1.41","6151e6a0397a519cc56745e6","6186fb1cc52d38b480598eb7","6187385be49ad3961d53bd6c","1474.1000003814697","","s","true","[[562,154],[382,11],[154,37],[11,217],[37,445],[217,588],[445,562],[588,382]]","false","8","","","img/Fire_Down_Target.gif","[""img/Fire_Up_Distractor.gif"",""img/Fire_Up_Distractor.gif"",""img/Fire_Up_Distractor.gif"",""img/Fire_Up_Distractor.gif"",""img/Fire_Up_Distractor.gif"",""img/Fire_Up_Distractor.gif"",""img/Fire_Up_Distractor.gif"",""img/Fire_Up_Distractor.gif"",""img/Fire_Up_Distractor.gif"",""img/Fire_Up_Distractor.gif"",""img/Fire_Up_Distractor.gif"",""img/Fire_Up_Distractor.gif""]","targetDown_distractorsUp"
"","","","","","html-keyboard-response","98","286886","0.0-14.0-0.0-0.42","6151e6a0397a519cc56745e6","6186fb1cc52d38b480598eb7","6187385be49ad3961d53bd6c","null","","null","","","","","fixation","","","",""
"","","","","","visual-search-circle","99","289645","0.0-14.0-0.0-1.42","6151e6a0397a519cc56745e6","6186fb1cc52d38b480598eb7","6187385be49ad3961d53bd6c","1755.8000001907349","","d","true","[[217,11],[8,227],[91,515],[382,588],[591,372],[508,84]]","true","6","","","img/Fire_Up_Target.gif","[""img/Fire_Down_Distractor.gif"",""img/Fire_Down_Distractor.gif"",""img/Fire_Down_Distractor.gif"",""img/Fire_Down_Distractor.gif"",""img/Fire_Down_Distractor.gif"",""img/Fire_Down_Distractor.gif"",""img/Fire_Down_Distractor.gif"",""img/Fire_Down_Distractor.gif"",""img/Fire_Down_Distractor.gif"",""img/Fire_Down_Distractor.gif"",""img/Fire_Down_Distractor.gif"",""img/Fire_Down_Distractor.gif""]","targetUp_distractorsDown"
"","","","","","html-keyboard-response","100","289646","0.0-14.0-0.0-0.43","6151e6a0397a519cc56745e6","6186fb1cc52d38b480598eb7","6187385be49ad3961d53bd6c","null","","null","","","","","fixation","","","",""
"","","","","","visual-search-circle","101","291836","0.0-14.0-0.0-1.43","6151e6a0397a519cc56745e6","6186fb1cc52d38b480598eb7","6187385be49ad3961d53bd6c","1187.5999999046326","","d","true","[[512,512],[589,222],[377,10],[87,87],[10,377],[222,589]]","true","6","","","img/Fire_Down_Target.gif","[""img/Fire_Up_Distractor.gif"",""img/Fire_Up_Distractor.gif"",""img/Fire_Up_Distractor.gif"",""img/Fire_Up_Distractor.gif"",""img/Fire_Up_Distractor.gif"",""img/Fire_Up_Distractor.gif"",""img/Fire_Up_Distractor.gif"",""img/Fire_Up_Distractor.gif"",""img/Fire_Up_Distractor.gif"",""img/Fire_Up_Distractor.gif"",""img/Fire_Up_Distractor.gif"",""img/Fire_Up_Distractor.gif""]","targetDown_distractorsUp"
"","","","","","html-keyboard-response","102","291839","0.0-14.0-0.0-0.44","6151e6a0397a519cc56745e6","6186fb1cc52d38b480598eb7","6187385be49ad3961d53bd6c","null","","null","","","","","fixation","","","",""
"","","","","","visual-search-circle","103","293812","0.0-14.0-0.0-1.44","6151e6a0397a519cc56745e6","6186fb1cc52d38b480598eb7","6187385be49ad3961d53bd6c","969.5999999046326","","d","true","[[87,512],[333,598],[554,459],[583,200],[399,16],[140,45],[1,266]]","true","7","","","img/Fire_Down_Target.gif","[""img/Fire_Up_Distractor.gif"",""img/Fire_Up_Distractor.gif"",""img/Fire_Up_Distractor.gif"",""img/Fire_Up_Distractor.gif"",""img/Fire_Up_Distractor.gif"",""img/Fire_Up_Distractor.gif"",""img/Fire_Up_Distractor.gif"",""img/Fire_Up_Distractor.gif"",""img/Fire_Up_Distractor.gif"",""img/Fire_Up_Distractor.gif"",""img/Fire_Up_Distractor.gif"",""img/Fire_Up_Distractor.gif""]","targetDown_distractorsUp"
"","","","","","html-keyboard-response","104","293815","0.0-14.0-0.0-0.45","6151e6a0397a519cc56745e6","6186fb1cc52d38b480598eb7","6187385be49ad3961d53bd6c","null","","null","","","","","fixation","","","",""
"","","","","","visual-search-circle","105","295868","0.0-14.0-0.0-1.45","6151e6a0397a519cc56745e6","6186fb1cc52d38b480598eb7","6187385be49ad3961d53bd6c","1050.4000000953674","","s","true","[[320,599],[599,279],[279,0],[0,320]]","false","4","","","img/Fire_Down_Target.gif","[""img/Fire_Up_Distractor.gif"",""img/Fire_Up_Distractor.gif"",""img/Fire_Up_Distractor.gif"",""img/Fire_Up_Distractor.gif"",""img/Fire_Up_Distractor.gif"",""img/Fire_Up_Distractor.gif"",""img/Fire_Up_Distractor.gif"",""img/Fire_Up_Distractor.gif"",""img/Fire_Up_Distractor.gif"",""img/Fire_Up_Distractor.gif"",""img/Fire_Up_Distractor.gif"",""img/Fire_Up_Distractor.gif""]","targetDown_distractorsUp"
"","","","","","html-keyboard-response","106","295871","0.0-14.0-0.0-0.46","6151e6a0397a519cc56745e6","6186fb1cc52d38b480598eb7","6187385be49ad3961d53bd6c","null","","null","","","","","fixation","","","",""
"","","","","","visual-search-circle","107","299116","0.0-14.0-0.0-1.46","6151e6a0397a519cc56745e6","6186fb1cc52d38b480598eb7","6187385be49ad3961d53bd6c","2243.2999997138977","","d","true","[[529,107],[107,70],[70,492],[492,529]]","true","4","","","img/Fire_Up_Target.gif","[""img/Fire_Down_Distractor.gif"",""img/Fire_Down_Distractor.gif"",""img/Fire_Down_Distractor.gif"",""img/Fire_Down_Distractor.gif"",""img/Fire_Down_Distractor.gif"",""img/Fire_Down_Distractor.gif"",""img/Fire_Down_Distractor.gif"",""img/Fire_Down_Distractor.gif"",""img/Fire_Down_Distractor.gif"",""img/Fire_Down_Distractor.gif"",""img/Fire_Down_Distractor.gif"",""img/Fire_Down_Distractor.gif""]","targetUp_distractorsDown"
"","","","","","html-keyboard-response","108","299119","0.0-14.0-0.0-0.47","6151e6a0397a519cc56745e6","6186fb1cc52d38b480598eb7","6187385be49ad3961d53bd6c","null","","null","","","","","fixation","","","",""
"","","","","","visual-search-circle","109","301068","0.0-14.0-0.0-1.47","6151e6a0397a519cc56745e6","6186fb1cc52d38b480598eb7","6187385be49ad3961d53bd6c","945.4000000953674","","d","true","[[426,28],[197,18],[28,173],[18,402],[173,571],[402,581],[571,426],[581,197]]","true","8","","","img/Fire_Up_Target.gif","[""img/Fire_Down_Distractor.gif"",""img/Fire_Down_Distractor.gif"",""img/Fire_Down_Distractor.gif"",""img/Fire_Down_Distractor.gif"",""img/Fire_Down_Distractor.gif"",""img/Fire_Down_Distractor.gif"",""img/Fire_Down_Distractor.gif"",""img/Fire_Down_Distractor.gif"",""img/Fire_Down_Distractor.gif"",""img/Fire_Down_Distractor.gif"",""img/Fire_Down_Distractor.gif"",""img/Fire_Down_Distractor.gif""]","targetUp_distractorsDown"
"","","","","","html-keyboard-response","110","301070","0.0-14.0-0.0-0.48","6151e6a0397a519cc56745e6","6186fb1cc52d38b480598eb7","6187385be49ad3961d53bd6c","null","","null","","","","","fixation","","","",""
"","","","","","visual-search-circle","111","303708","0.0-14.0-0.0-1.48","6151e6a0397a519cc56745e6","6186fb1cc52d38b480598eb7","6187385be49ad3961d53bd6c","1634.4000000953674","","d","true","[[599,289],[478,59],[223,10],[25,179],[34,439],[243,594],[495,527]]","true","7","","","img/Fire_Up_Target.gif","[""img/Fire_Down_Distractor.gif"",""img/Fire_Down_Distractor.gif"",""img/Fire_Down_Distractor.gif"",""img/Fire_Down_Distractor.gif"",""img/Fire_Down_Distractor.gif"",""img/Fire_Down_Distractor.gif"",""img/Fire_Down_Distractor.gif"",""img/Fire_Down_Distractor.gif"",""img/Fire_Down_Distractor.gif"",""img/Fire_Down_Distractor.gif"",""img/Fire_Down_Distractor.gif"",""img/Fire_Down_Distractor.gif""]","targetUp_distractorsDown"
"","","","","","html-keyboard-response","112","303711","0.0-14.0-0.0-0.49","6151e6a0397a519cc56745e6","6186fb1cc52d38b480598eb7","6187385be49ad3961d53bd6c","null","","null","","","","","fixation","","","",""
"","","","","","visual-search-circle","113","306573","0.0-14.0-0.0-1.49","6151e6a0397a519cc56745e6","6186fb1cc52d38b480598eb7","6187385be49ad3961d53bd6c","1858.6999998092651","","s","true","[[212,13],[0,294],[202,583],[539,480],[545,127]]","false","5","","","img/Fire_Up_Target.gif","[""img/Fire_Down_Distractor.gif"",""img/Fire_Down_Distractor.gif"",""img/Fire_Down_Distractor.gif"",""img/Fire_Down_Distractor.gif"",""img/Fire_Down_Distractor.gif"",""img/Fire_Down_Distractor.gif"",""img/Fire_Down_Distractor.gif"",""img/Fire_Down_Distractor.gif"",""img/Fire_Down_Distractor.gif"",""img/Fire_Down_Distractor.gif"",""img/Fire_Down_Distractor.gif"",""img/Fire_Down_Distractor.gif""]","targetUp_distractorsDown"
"","","","","","html-keyboard-response","114","306574","0.0-14.0-0.0-0.50","6151e6a0397a519cc56745e6","6186fb1cc52d38b480598eb7","6187385be49ad3961d53bd6c","null","","null","","","","","fixation","","","",""
"","","","","","visual-search-circle","115","308596","0.0-14.0-0.0-1.50","6151e6a0397a519cc56745e6","6186fb1cc52d38b480598eb7","6187385be49ad3961d53bd6c","1018.0999999046326","","s","true","[[77,99],[4,349],[153,562],[413,577],[587,384],[545,127],[317,0]]","false","7","","","img/Fire_Up_Target.gif","[""img/Fire_Down_Distractor.gif"",""img/Fire_Down_Distractor.gif"",""img/Fire_Down_Distractor.gif"",""img/Fire_Down_Distractor.gif"",""img/Fire_Down_Distractor.gif"",""img/Fire_Down_Distractor.gif"",""img/Fire_Down_Distractor.gif"",""img/Fire_Down_Distractor.gif"",""img/Fire_Down_Distractor.gif"",""img/Fire_Down_Distractor.gif"",""img/Fire_Down_Distractor.gif"",""img/Fire_Down_Distractor.gif""]","targetUp_distractorsDown"
"","","","","","html-keyboard-response","116","308599","0.0-14.0-0.0-0.51","6151e6a0397a519cc56745e6","6186fb1cc52d38b480598eb7","6187385be49ad3961d53bd6c","null","","null","","","","","fixation","","","",""
"","","","","","visual-search-circle","117","311348","0.0-14.0-0.0-1.51","6151e6a0397a519cc56745e6","6186fb1cc52d38b480598eb7","6187385be49ad3961d53bd6c","1746.7999997138977","","s","true","[[545,472],[472,54],[54,127],[127,545]]","false","4","","","img/Fire_Down_Target.gif","[""img/Fire_Up_Distractor.gif"",""img/Fire_Up_Distractor.gif"",""img/Fire_Up_Distractor.gif"",""img/Fire_Up_Distractor.gif"",""img/Fire_Up_Distractor.gif"",""img/Fire_Up_Distractor.gif"",""img/Fire_Up_Distractor.gif"",""img/Fire_Up_Distractor.gif"",""img/Fire_Up_Distractor.gif"",""img/Fire_Up_Distractor.gif"",""img/Fire_Up_Distractor.gif"",""img/Fire_Up_Distractor.gif""]","targetDown_distractorsUp"
"","","","","","html-keyboard-response","118","311350","0.0-14.0-0.0-0.52","6151e6a0397a519cc56745e6","6186fb1cc52d38b480598eb7","6187385be49ad3961d53bd6c","null","","null","","","","","fixation","","","",""
"","","","","","visual-search-circle","119","313756","0.0-14.0-0.0-1.52","6151e6a0397a519cc56745e6","6186fb1cc52d38b480598eb7","6187385be49ad3961d53bd6c","1403.4000000953674","","s","true","[[0,294],[84,508],[294,599],[508,515],[599,305],[515,91],[305,0],[91,84]]","false","8","","","img/Fire_Up_Target.gif","[""img/Fire_Down_Distractor.gif"",""img/Fire_Down_Distractor.gif"",""img/Fire_Down_Distractor.gif"",""img/Fire_Down_Distractor.gif"",""img/Fire_Down_Distractor.gif"",""img/Fire_Down_Distractor.gif"",""img/Fire_Down_Distractor.gif"",""img/Fire_Down_Distractor.gif"",""img/Fire_Down_Distractor.gif"",""img/Fire_Down_Distractor.gif"",""img/Fire_Down_Distractor.gif"",""img/Fire_Down_Distractor.gif""]","targetUp_distractorsDown"
"","","","","","html-keyboard-response","120","313758","0.0-14.0-0.0-0.53","6151e6a0397a519cc56745e6","6186fb1cc52d38b480598eb7","6187385be49ad3961d53bd6c","null","","null","","","","","fixation","","","",""
"","","","","","visual-search-circle","121","317069","0.0-14.0-0.0-1.53","6151e6a0397a519cc56745e6","6186fb1cc52d38b480598eb7","6187385be49ad3961d53bd6c","2308","","d","true","[[594,357],[496,73],[202,16],[5,242],[103,526],[397,583]]","true","6","","","img/Fire_Up_Target.gif","[""img/Fire_Down_Distractor.gif"",""img/Fire_Down_Distractor.gif"",""img/Fire_Down_Distractor.gif"",""img/Fire_Down_Distractor.gif"",""img/Fire_Down_Distractor.gif"",""img/Fire_Down_Distractor.gif"",""img/Fire_Down_Distractor.gif"",""img/Fire_Down_Distractor.gif"",""img/Fire_Down_Distractor.gif"",""img/Fire_Down_Distractor.gif"",""img/Fire_Down_Distractor.gif"",""img/Fire_Down_Distractor.gif""]","targetUp_distractorsDown"
"","","","","","html-keyboard-response","122","317071","0.0-14.0-0.0-0.54","6151e6a0397a519cc56745e6","6186fb1cc52d38b480598eb7","6187385be49ad3961d53bd6c","null","","null","","","","","fixation","","","",""
"","","","","","visual-search-circle","123","319596","0.0-14.0-0.0-1.54","6151e6a0397a519cc56745e6","6186fb1cc52d38b480598eb7","6187385be49ad3961d53bd6c","1521","","s","true","[[149,559],[450,559],[600,300],[449,40],[150,40],[0,299]]","false","6","","","img/Fire_Up_Target.gif","[""img/Fire_Down_Distractor.gif"",""img/Fire_Down_Distractor.gif"",""img/Fire_Down_Distractor.gif"",""img/Fire_Down_Distractor.gif"",""img/Fire_Down_Distractor.gif"",""img/Fire_Down_Distractor.gif"",""img/Fire_Down_Distractor.gif"",""img/Fire_Down_Distractor.gif"",""img/Fire_Down_Distractor.gif"",""img/Fire_Down_Distractor.gif"",""img/Fire_Down_Distractor.gif"",""img/Fire_Down_Distractor.gif""]","targetUp_distractorsDown"
"","","","","","html-keyboard-response","124","319598","0.0-14.0-0.0-0.55","6151e6a0397a519cc56745e6","6186fb1cc52d38b480598eb7","6187385be49ad3961d53bd6c","null","","null","","","","","fixation","","","",""
"","","","","","visual-search-circle","125","322284","0.0-14.0-0.0-1.55","6151e6a0397a519cc56745e6","6186fb1cc52d38b480598eb7","6187385be49ad3961d53bd6c","1683.0999999046326","","s","true","[[559,450],[579,190],[388,13],[131,52],[0,277],[95,519],[344,596]]","false","7","","","img/Fire_Down_Target.gif","[""img/Fire_Up_Distractor.gif"",""img/Fire_Up_Distractor.gif"",""img/Fire_Up_Distractor.gif"",""img/Fire_Up_Distractor.gif"",""img/Fire_Up_Distractor.gif"",""img/Fire_Up_Distractor.gif"",""img/Fire_Up_Distractor.gif"",""img/Fire_Up_Distractor.gif"",""img/Fire_Up_Distractor.gif"",""img/Fire_Up_Distractor.gif"",""img/Fire_Up_Distractor.gif"",""img/Fire_Up_Distractor.gif""]","targetDown_distractorsUp"
"","","","","","html-keyboard-response","126","322285","0.0-14.0-0.0-0.56","6151e6a0397a519cc56745e6","6186fb1cc52d38b480598eb7","6187385be49ad3961d53bd6c","null","","null","","","","","fixation","","","",""
"","","","","","visual-search-circle","127","325524","0.0-14.0-0.0-1.56","6151e6a0397a519cc56745e6","6186fb1cc52d38b480598eb7","6187385be49ad3961d53bd6c","2236.0999999046326","","s","true","[[177,25],[1,331],[237,593],[559,450],[522,99]]","false","5","","","img/Fire_Up_Target.gif","[""img/Fire_Down_Distractor.gif"",""img/Fire_Down_Distractor.gif"",""img/Fire_Down_Distractor.gif"",""img/Fire_Down_Distractor.gif"",""img/Fire_Down_Distractor.gif"",""img/Fire_Down_Distractor.gif"",""img/Fire_Down_Distractor.gif"",""img/Fire_Down_Distractor.gif"",""img/Fire_Down_Distractor.gif"",""img/Fire_Down_Distractor.gif"",""img/Fire_Down_Distractor.gif"",""img/Fire_Down_Distractor.gif""]","targetUp_distractorsDown"
"","","","","","html-keyboard-response","128","325527","0.0-14.0-0.0-0.57","6151e6a0397a519cc56745e6","6186fb1cc52d38b480598eb7","6187385be49ad3961d53bd6c","null","","null","","","","","fixation","","","",""
"","","","","","visual-search-circle","129","327845","0.0-14.0-0.0-1.57","6151e6a0397a519cc56745e6","6186fb1cc52d38b480598eb7","6187385be49ad3961d53bd6c","1314.0999999046326","","d","true","[[529,107],[292,0],[60,118],[9,374],[176,573],[436,566],[594,359]]","true","7","","","img/Fire_Down_Target.gif","[""img/Fire_Up_Distractor.gif"",""img/Fire_Up_Distractor.gif"",""img/Fire_Up_Distractor.gif"",""img/Fire_Up_Distractor.gif"",""img/Fire_Up_Distractor.gif"",""img/Fire_Up_Distractor.gif"",""img/Fire_Up_Distractor.gif"",""img/Fire_Up_Distractor.gif"",""img/Fire_Up_Distractor.gif"",""img/Fire_Up_Distractor.gif"",""img/Fire_Up_Distractor.gif"",""img/Fire_Up_Distractor.gif""]","targetDown_distractorsUp"
"","","","","","html-keyboard-response","130","327848","0.0-14.0-0.0-0.58","6151e6a0397a519cc56745e6","6186fb1cc52d38b480598eb7","6187385be49ad3961d53bd6c","null","","null","","","","","fixation","","","",""
"","","","","","visual-search-circle","131","329900","0.0-14.0-0.0-1.58","6151e6a0397a519cc56745e6","6186fb1cc52d38b480598eb7","6187385be49ad3961d53bd6c","1048.5999999046326","","d","true","[[247,595],[472,545],[595,352],[545,127],[352,4],[127,54],[4,247],[54,472]]","true","8","","","img/Fire_Down_Target.gif","[""img/Fire_Up_Distractor.gif"",""img/Fire_Up_Distractor.gif"",""img/Fire_Up_Distractor.gif"",""img/Fire_Up_Distractor.gif"",""img/Fire_Up_Distractor.gif"",""img/Fire_Up_Distractor.gif"",""img/Fire_Up_Distractor.gif"",""img/Fire_Up_Distractor.gif"",""img/Fire_Up_Distractor.gif"",""img/Fire_Up_Distractor.gif"",""img/Fire_Up_Distractor.gif"",""img/Fire_Up_Distractor.gif""]","targetDown_distractorsUp"
"","","","","","html-keyboard-response","132","353308","0.0-14.0-0.0-0.59","6151e6a0397a519cc56745e6","6186fb1cc52d38b480598eb7","6187385be49ad3961d53bd6c","23408.099999904633","Wow! You've completed 60 out of 120 trials! </p> <p>  </p><p> Take a quick break, then press any key when you're ready to continue."," ","","","","","fixation","","","",""
"","","","","","visual-search-circle","133","356164","0.0-14.0-0.0-1.59","6151e6a0397a519cc56745e6","6186fb1cc52d38b480598eb7","6187385be49ad3961d53bd6c","1852.5","","s","true","[[436,32],[87,87],[32,436],[346,596],[596,346]]","false","5","","","img/Fire_Down_Target.gif","[""img/Fire_Up_Distractor.gif"",""img/Fire_Up_Distractor.gif"",""img/Fire_Up_Distractor.gif"",""img/Fire_Up_Distractor.gif"",""img/Fire_Up_Distractor.gif"",""img/Fire_Up_Distractor.gif"",""img/Fire_Up_Distractor.gif"",""img/Fire_Up_Distractor.gif"",""img/Fire_Up_Distractor.gif"",""img/Fire_Up_Distractor.gif"",""img/Fire_Up_Distractor.gif"",""img/Fire_Up_Distractor.gif""]","targetDown_distractorsUp"
"","","","","","html-keyboard-response","134","356166","0.0-14.0-0.0-0.60","6151e6a0397a519cc56745e6","6186fb1cc52d38b480598eb7","6187385be49ad3961d53bd6c","null","","null","","","","","fixation","","","",""
"","","","","","visual-search-circle","135","358204","0.0-14.0-0.0-1.60","6151e6a0397a519cc56745e6","6186fb1cc52d38b480598eb7","6187385be49ad3961d53bd6c","1035.8000001907349","","d","true","[[150,40],[6,362],[268,598],[574,422],[500,77]]","true","5","","","img/Fire_Up_Target.gif","[""img/Fire_Down_Distractor.gif"",""img/Fire_Down_Distractor.gif"",""img/Fire_Down_Distractor.gif"",""img/Fire_Down_Distractor.gif"",""img/Fire_Down_Distractor.gif"",""img/Fire_Down_Distractor.gif"",""img/Fire_Down_Distractor.gif"",""img/Fire_Down_Distractor.gif"",""img/Fire_Down_Distractor.gif"",""img/Fire_Down_Distractor.gif"",""img/Fire_Down_Distractor.gif"",""img/Fire_Down_Distractor.gif""]","targetUp_distractorsDown"
"","","","","","html-keyboard-response","136","358206","0.0-14.0-0.0-0.61","6151e6a0397a519cc56745e6","6186fb1cc52d38b480598eb7","6187385be49ad3961d53bd6c","null","","null","","","","","fixation","","","",""
"","","","","","visual-search-circle","137","360164","0.0-14.0-0.0-1.61","6151e6a0397a519cc56745e6","6186fb1cc52d38b480598eb7","6187385be49ad3961d53bd6c","954.8000001907349","","d","true","[[554,141],[141,45],[45,458],[458,554]]","true","4","","","img/Fire_Down_Target.gif","[""img/Fire_Up_Distractor.gif"",""img/Fire_Up_Distractor.gif"",""img/Fire_Up_Distractor.gif"",""img/Fire_Up_Distractor.gif"",""img/Fire_Up_Distractor.gif"",""img/Fire_Up_Distractor.gif"",""img/Fire_Up_Distractor.gif"",""img/Fire_Up_Distractor.gif"",""img/Fire_Up_Distractor.gif"",""img/Fire_Up_Distractor.gif"",""img/Fire_Up_Distractor.gif"",""img/Fire_Up_Distractor.gif""]","targetDown_distractorsUp"
"","","","","","html-keyboard-response","138","360167","0.0-14.0-0.0-0.62","6151e6a0397a519cc56745e6","6186fb1cc52d38b480598eb7","6187385be49ad3961d53bd6c","null","","null","","","","","fixation","","","",""
"","","","","","visual-search-circle","139","362388","0.0-14.0-0.0-1.62","6151e6a0397a519cc56745e6","6186fb1cc52d38b480598eb7","6187385be49ad3961d53bd6c","1218.0999999046326","","d","true","[[127,54],[4,247],[54,472],[247,595],[472,545],[595,352],[545,127],[352,4]]","true","8","","","img/Fire_Down_Target.gif","[""img/Fire_Up_Distractor.gif"",""img/Fire_Up_Distractor.gif"",""img/Fire_Up_Distractor.gif"",""img/Fire_Up_Distractor.gif"",""img/Fire_Up_Distractor.gif"",""img/Fire_Up_Distractor.gif"",""img/Fire_Up_Distractor.gif"",""img/Fire_Up_Distractor.gif"",""img/Fire_Up_Distractor.gif"",""img/Fire_Up_Distractor.gif"",""img/Fire_Up_Distractor.gif"",""img/Fire_Up_Distractor.gif""]","targetDown_distractorsUp"
"","","","","","html-keyboard-response","140","362389","0.0-14.0-0.0-0.63","6151e6a0397a519cc56745e6","6186fb1cc52d38b480598eb7","6187385be49ad3961d53bd6c","null","","null","","","","","fixation","","","",""
"","","","","","visual-search-circle","141","364220","0.0-14.0-0.0-1.63","6151e6a0397a519cc56745e6","6186fb1cc52d38b480598eb7","6187385be49ad3961d53bd6c","828.6999998092651","","d","true","[[331,1],[1,268],[268,598],[598,331]]","true","4","","","img/Fire_Down_Target.gif","[""img/Fire_Up_Distractor.gif"",""img/Fire_Up_Distractor.gif"",""img/Fire_Up_Distractor.gif"",""img/Fire_Up_Distractor.gif"",""img/Fire_Up_Distractor.gif"",""img/Fire_Up_Distractor.gif"",""img/Fire_Up_Distractor.gif"",""img/Fire_Up_Distractor.gif"",""img/Fire_Up_Distractor.gif"",""img/Fire_Up_Distractor.gif"",""img/Fire_Up_Distractor.gif"",""img/Fire_Up_Distractor.gif""]","targetDown_distractorsUp"
"","","","","","html-keyboard-response","142","364223","0.0-14.0-0.0-0.64","6151e6a0397a519cc56745e6","6186fb1cc52d38b480598eb7","6187385be49ad3961d53bd6c","null","","null","","","","","fixation","","","",""
"","","","","","visual-search-circle","143","366612","0.0-14.0-0.0-1.64","6151e6a0397a519cc56745e6","6186fb1cc52d38b480598eb7","6187385be49ad3961d53bd6c","1386.0999999046326","","d","true","[[0,299],[299,600],[600,300],[300,0]]","true","4","","","img/Fire_Down_Target.gif","[""img/Fire_Up_Distractor.gif"",""img/Fire_Up_Distractor.gif"",""img/Fire_Up_Distractor.gif"",""img/Fire_Up_Distractor.gif"",""img/Fire_Up_Distractor.gif"",""img/Fire_Up_Distractor.gif"",""img/Fire_Up_Distractor.gif"",""img/Fire_Up_Distractor.gif"",""img/Fire_Up_Distractor.gif"",""img/Fire_Up_Distractor.gif"",""img/Fire_Up_Distractor.gif"",""img/Fire_Up_Distractor.gif""]","targetDown_distractorsUp"
"","","","","","html-keyboard-response","144","366614","0.0-14.0-0.0-0.65","6151e6a0397a519cc56745e6","6186fb1cc52d38b480598eb7","6187385be49ad3961d53bd6c","null","","null","","","","","fixation","","","",""
"","","","","","visual-search-circle","145","368668","0.0-14.0-0.0-1.65","6151e6a0397a519cc56745e6","6186fb1cc52d38b480598eb7","6187385be49ad3961d53bd6c","1050.1000003814697","","d","true","[[150,40],[3,255],[80,504],[322,599],[547,468],[586,211],[409,20]]","true","7","","","img/Fire_Up_Target.gif","[""img/Fire_Down_Distractor.gif"",""img/Fire_Down_Distractor.gif"",""img/Fire_Down_Distractor.gif"",""img/Fire_Down_Distractor.gif"",""img/Fire_Down_Distractor.gif"",""img/Fire_Down_Distractor.gif"",""img/Fire_Down_Distractor.gif"",""img/Fire_Down_Distractor.gif"",""img/Fire_Down_Distractor.gif"",""img/Fire_Down_Distractor.gif"",""img/Fire_Down_Distractor.gif"",""img/Fire_Down_Distractor.gif""]","targetUp_distractorsDown"
"","","","","","html-keyboard-response","146","368670","0.0-14.0-0.0-0.66","6151e6a0397a519cc56745e6","6186fb1cc52d38b480598eb7","6187385be49ad3961d53bd6c","null","","null","","","","","fixation","","","",""
"","","","","","visual-search-circle","147","370516","0.0-14.0-0.0-1.66","6151e6a0397a519cc56745e6","6186fb1cc52d38b480598eb7","6187385be49ad3961d53bd6c","843.5","","s","true","[[25,177],[177,574],[574,422],[422,25]]","false","4","","","img/Fire_Up_Target.gif","[""img/Fire_Down_Distractor.gif"",""img/Fire_Down_Distractor.gif"",""img/Fire_Down_Distractor.gif"",""img/Fire_Down_Distractor.gif"",""img/Fire_Down_Distractor.gif"",""img/Fire_Down_Distractor.gif"",""img/Fire_Down_Distractor.gif"",""img/Fire_Down_Distractor.gif"",""img/Fire_Down_Distractor.gif"",""img/Fire_Down_Distractor.gif"",""img/Fire_Down_Distractor.gif"",""img/Fire_Down_Distractor.gif""]","targetUp_distractorsDown"
"","","","","","html-keyboard-response","148","370518","0.0-14.0-0.0-0.67","6151e6a0397a519cc56745e6","6186fb1cc52d38b480598eb7","6187385be49ad3961d53bd6c","null","","null","","","","","fixation","","","",""
"","","","","","visual-search-circle","149","372556","0.0-14.0-0.0-1.67","6151e6a0397a519cc56745e6","6186fb1cc52d38b480598eb7","6187385be49ad3961d53bd6c","1035.9000000953674","","s","true","[[382,588],[588,217],[217,11],[11,382]]","false","4","","","img/Fire_Up_Target.gif","[""img/Fire_Down_Distractor.gif"",""img/Fire_Down_Distractor.gif"",""img/Fire_Down_Distractor.gif"",""img/Fire_Down_Distractor.gif"",""img/Fire_Down_Distractor.gif"",""img/Fire_Down_Distractor.gif"",""img/Fire_Down_Distractor.gif"",""img/Fire_Down_Distractor.gif"",""img/Fire_Down_Distractor.gif"",""img/Fire_Down_Distractor.gif"",""img/Fire_Down_Distractor.gif"",""img/Fire_Down_Distractor.gif""]","targetUp_distractorsDown"
"","","","","","html-keyboard-response","150","372558","0.0-14.0-0.0-0.68","6151e6a0397a519cc56745e6","6186fb1cc52d38b480598eb7","6187385be49ad3961d53bd6c","null","","null","","","","","fixation","","","",""
"","","","","","visual-search-circle","151","375852","0.0-14.0-0.0-1.68","6151e6a0397a519cc56745e6","6186fb1cc52d38b480598eb7","6187385be49ad3961d53bd6c","2292.5","","d","true","[[217,588],[588,382],[382,11],[11,217]]","true","4","","","img/Fire_Up_Target.gif","[""img/Fire_Down_Distractor.gif"",""img/Fire_Down_Distractor.gif"",""img/Fire_Down_Distractor.gif"",""img/Fire_Down_Distractor.gif"",""img/Fire_Down_Distractor.gif"",""img/Fire_Down_Distractor.gif"",""img/Fire_Down_Distractor.gif"",""img/Fire_Down_Distractor.gif"",""img/Fire_Down_Distractor.gif"",""img/Fire_Down_Distractor.gif"",""img/Fire_Down_Distractor.gif"",""img/Fire_Down_Distractor.gif""]","targetUp_distractorsDown"
"","","","","","html-keyboard-response","152","375855","0.0-14.0-0.0-0.69","6151e6a0397a519cc56745e6","6186fb1cc52d38b480598eb7","6187385be49ad3961d53bd6c","null","","null","","","","","fixation","","","",""
"","","","","","visual-search-circle","153","378180","0.0-14.0-0.0-1.69","6151e6a0397a519cc56745e6","6186fb1cc52d38b480598eb7","6187385be49ad3961d53bd6c","1320.1999998092651","","s","true","[[588,382],[562,154],[382,11],[154,37],[11,217],[37,445],[217,588],[445,562]]","false","8","","","img/Fire_Down_Target.gif","[""img/Fire_Up_Distractor.gif"",""img/Fire_Up_Distractor.gif"",""img/Fire_Up_Distractor.gif"",""img/Fire_Up_Distractor.gif"",""img/Fire_Up_Distractor.gif"",""img/Fire_Up_Distractor.gif"",""img/Fire_Up_Distractor.gif"",""img/Fire_Up_Distractor.gif"",""img/Fire_Up_Distractor.gif"",""img/Fire_Up_Distractor.gif"",""img/Fire_Up_Distractor.gif"",""img/Fire_Up_Distractor.gif""]","targetDown_distractorsUp"
"","","","","","html-keyboard-response","154","378182","0.0-14.0-0.0-0.70","6151e6a0397a519cc56745e6","6186fb1cc52d38b480598eb7","6187385be49ad3961d53bd6c","null","","null","","","","","fixation","","","",""
"","","","","","visual-search-circle","155","380732","0.0-14.0-0.0-1.70","6151e6a0397a519cc56745e6","6186fb1cc52d38b480598eb7","6187385be49ad3961d53bd6c","1547","","d","true","[[387,13],[13,212],[212,586],[586,387]]","true","4","","","img/Fire_Up_Target.gif","[""img/Fire_Down_Distractor.gif"",""img/Fire_Down_Distractor.gif"",""img/Fire_Down_Distractor.gif"",""img/Fire_Down_Distractor.gif"",""img/Fire_Down_Distractor.gif"",""img/Fire_Down_Distractor.gif"",""img/Fire_Down_Distractor.gif"",""img/Fire_Down_Distractor.gif"",""img/Fire_Down_Distractor.gif"",""img/Fire_Down_Distractor.gif"",""img/Fire_Down_Distractor.gif"",""img/Fire_Down_Distractor.gif""]","targetUp_distractorsDown"
"","","","","","html-keyboard-response","156","380735","0.0-14.0-0.0-0.71","6151e6a0397a519cc56745e6","6186fb1cc52d38b480598eb7","6187385be49ad3961d53bd6c","null","","null","","","","","fixation","","","",""
"","","","","","visual-search-circle","157","383732","0.0-14.0-0.0-1.71","6151e6a0397a519cc56745e6","6186fb1cc52d38b480598eb7","6187385be49ad3961d53bd6c","1993.8000001907349","","d","true","[[279,599],[496,526],[599,320],[526,103],[320,0],[103,73],[0,279],[73,496]]","true","8","","","img/Fire_Up_Target.gif","[""img/Fire_Down_Distractor.gif"",""img/Fire_Down_Distractor.gif"",""img/Fire_Down_Distractor.gif"",""img/Fire_Down_Distractor.gif"",""img/Fire_Down_Distractor.gif"",""img/Fire_Down_Distractor.gif"",""img/Fire_Down_Distractor.gif"",""img/Fire_Down_Distractor.gif"",""img/Fire_Down_Distractor.gif"",""img/Fire_Down_Distractor.gif"",""img/Fire_Down_Distractor.gif"",""img/Fire_Down_Distractor.gif""]","targetUp_distractorsDown"
"","","","","","html-keyboard-response","158","383735","0.0-14.0-0.0-0.72","6151e6a0397a519cc56745e6","6186fb1cc52d38b480598eb7","6187385be49ad3961d53bd6c","null","","null","","","","","fixation","","","",""
"","","","","","visual-search-circle","159","386981","0.0-14.0-0.0-1.72","6151e6a0397a519cc56745e6","6186fb1cc52d38b480598eb7","6187385be49ad3961d53bd6c","2242.9000000953674","","d","true","[[232,592],[519,504],[586,212],[367,7],[80,95],[13,387]]","true","6","","","img/Fire_Up_Target.gif","[""img/Fire_Down_Distractor.gif"",""img/Fire_Down_Distractor.gif"",""img/Fire_Down_Distractor.gif"",""img/Fire_Down_Distractor.gif"",""img/Fire_Down_Distractor.gif"",""img/Fire_Down_Distractor.gif"",""img/Fire_Down_Distractor.gif"",""img/Fire_Down_Distractor.gif"",""img/Fire_Down_Distractor.gif"",""img/Fire_Down_Distractor.gif"",""img/Fire_Down_Distractor.gif"",""img/Fire_Down_Distractor.gif""]","targetUp_distractorsDown"
"","","","","","html-keyboard-response","160","386983","0.0-14.0-0.0-0.73","6151e6a0397a519cc56745e6","6186fb1cc52d38b480598eb7","6187385be49ad3961d53bd6c","null","","null","","","","","fixation","","","",""
"","","","","","visual-search-circle","161","389692","0.0-14.0-0.0-1.73","6151e6a0397a519cc56745e6","6186fb1cc52d38b480598eb7","6187385be49ad3961d53bd6c","1706.5999999046326","","s","true","[[436,32],[136,48],[0,315],[163,567],[463,551],[599,284]]","false","6","","","img/Fire_Up_Target.gif","[""img/Fire_Down_Distractor.gif"",""img/Fire_Down_Distractor.gif"",""img/Fire_Down_Distractor.gif"",""img/Fire_Down_Distractor.gif"",""img/Fire_Down_Distractor.gif"",""img/Fire_Down_Distractor.gif"",""img/Fire_Down_Distractor.gif"",""img/Fire_Down_Distractor.gif"",""img/Fire_Down_Distractor.gif"",""img/Fire_Down_Distractor.gif"",""img/Fire_Down_Distractor.gif"",""img/Fire_Down_Distractor.gif""]","targetUp_distractorsDown"
"","","","","","html-keyboard-response","162","389694","0.0-14.0-0.0-0.74","6151e6a0397a519cc56745e6","6186fb1cc52d38b480598eb7","6187385be49ad3961d53bd6c","null","","null","","","","","fixation","","","",""
"","","","","","visual-search-circle","163","394324","0.0-14.0-0.0-1.74","6151e6a0397a519cc56745e6","6186fb1cc52d38b480598eb7","6187385be49ad3961d53bd6c","3627.5","","s","true","[[107,70],[21,412],[320,599],[591,372],[458,45]]","false","5","","","img/Fire_Up_Target.gif","[""img/Fire_Down_Distractor.gif"",""img/Fire_Down_Distractor.gif"",""img/Fire_Down_Distractor.gif"",""img/Fire_Down_Distractor.gif"",""img/Fire_Down_Distractor.gif"",""img/Fire_Down_Distractor.gif"",""img/Fire_Down_Distractor.gif"",""img/Fire_Down_Distractor.gif"",""img/Fire_Down_Distractor.gif"",""img/Fire_Down_Distractor.gif"",""img/Fire_Down_Distractor.gif"",""img/Fire_Down_Distractor.gif""]","targetUp_distractorsDown"
"","","","","","html-keyboard-response","164","394326","0.0-14.0-0.0-0.75","6151e6a0397a519cc56745e6","6186fb1cc52d38b480598eb7","6187385be49ad3961d53bd6c","null","","null","","","","","fixation","","","",""
"","","","","","visual-search-circle","165","397412","0.0-14.0-0.0-1.75","6151e6a0397a519cc56745e6","6186fb1cc52d38b480598eb7","6187385be49ad3961d53bd6c","2082.5","","d","true","[[10,377],[149,559],[377,589],[559,450],[589,222],[449,40],[222,10],[40,150]]","true","8","","","img/Fire_Up_Target.gif","[""img/Fire_Down_Distractor.gif"",""img/Fire_Down_Distractor.gif"",""img/Fire_Down_Distractor.gif"",""img/Fire_Down_Distractor.gif"",""img/Fire_Down_Distractor.gif"",""img/Fire_Down_Distractor.gif"",""img/Fire_Down_Distractor.gif"",""img/Fire_Down_Distractor.gif"",""img/Fire_Down_Distractor.gif"",""img/Fire_Down_Distractor.gif"",""img/Fire_Down_Distractor.gif"",""img/Fire_Down_Distractor.gif""]","targetUp_distractorsDown"
"","","","","","html-keyboard-response","166","397414","0.0-14.0-0.0-0.76","6151e6a0397a519cc56745e6","6186fb1cc52d38b480598eb7","6187385be49ad3961d53bd6c","null","","null","","","","","fixation","","","",""
"","","","","","visual-search-circle","167","399412","0.0-14.0-0.0-1.76","6151e6a0397a519cc56745e6","6186fb1cc52d38b480598eb7","6187385be49ad3961d53bd6c","994.9000000953674","","d","true","[[436,32],[136,48],[0,315],[163,567],[463,551],[599,284]]","true","6","","","img/Fire_Down_Target.gif","[""img/Fire_Up_Distractor.gif"",""img/Fire_Up_Distractor.gif"",""img/Fire_Up_Distractor.gif"",""img/Fire_Up_Distractor.gif"",""img/Fire_Up_Distractor.gif"",""img/Fire_Up_Distractor.gif"",""img/Fire_Up_Distractor.gif"",""img/Fire_Up_Distractor.gif"",""img/Fire_Up_Distractor.gif"",""img/Fire_Up_Distractor.gif"",""img/Fire_Up_Distractor.gif"",""img/Fire_Up_Distractor.gif""]","targetDown_distractorsUp"
"","","","","","html-keyboard-response","168","399415","0.0-14.0-0.0-0.77","6151e6a0397a519cc56745e6","6186fb1cc52d38b480598eb7","6187385be49ad3961d53bd6c","null","","null","","","","","fixation","","","",""
"","","","","","visual-search-circle","169","404084","0.0-14.0-0.0-1.77","6151e6a0397a519cc56745e6","6186fb1cc52d38b480598eb7","6187385be49ad3961d53bd6c","3666.4000000953674","","d","true","[[284,0],[32,163],[48,463],[315,599],[567,436],[551,136]]","true","6","","","img/Fire_Up_Target.gif","[""img/Fire_Down_Distractor.gif"",""img/Fire_Down_Distractor.gif"",""img/Fire_Down_Distractor.gif"",""img/Fire_Down_Distractor.gif"",""img/Fire_Down_Distractor.gif"",""img/Fire_Down_Distractor.gif"",""img/Fire_Down_Distractor.gif"",""img/Fire_Down_Distractor.gif"",""img/Fire_Down_Distractor.gif"",""img/Fire_Down_Distractor.gif"",""img/Fire_Down_Distractor.gif"",""img/Fire_Down_Distractor.gif""]","targetUp_distractorsDown"
"","","","","","html-keyboard-response","170","404085","0.0-14.0-0.0-0.78","6151e6a0397a519cc56745e6","6186fb1cc52d38b480598eb7","6187385be49ad3961d53bd6c","null","","null","","","","","fixation","","","",""
"","","","","","visual-search-circle","171","406284","0.0-14.0-0.0-1.78","6151e6a0397a519cc56745e6","6186fb1cc52d38b480598eb7","6187385be49ad3961d53bd6c","1196.1000003814697","","d","true","[[467,51],[115,63],[18,402],[310,599],[588,382]]","true","5","","","img/Fire_Down_Target.gif","[""img/Fire_Up_Distractor.gif"",""img/Fire_Up_Distractor.gif"",""img/Fire_Up_Distractor.gif"",""img/Fire_Up_Distractor.gif"",""img/Fire_Up_Distractor.gif"",""img/Fire_Up_Distractor.gif"",""img/Fire_Up_Distractor.gif"",""img/Fire_Up_Distractor.gif"",""img/Fire_Up_Distractor.gif"",""img/Fire_Up_Distractor.gif"",""img/Fire_Up_Distractor.gif"",""img/Fire_Up_Distractor.gif""]","targetDown_distractorsUp"
"","","","","","html-keyboard-response","172","418357","0.0-14.0-0.0-0.79","6151e6a0397a519cc56745e6","6186fb1cc52d38b480598eb7","6187385be49ad3961d53bd6c","12072.099999904633","Wow! You've completed 80 out of 120 trials! </p> <p>  </p><p> Take a quick break, then press any key when you're ready to continue."," ","","","","","fixation","","","",""
"","","","","","visual-search-circle","173","420973","0.0-14.0-0.0-1.79","6151e6a0397a519cc56745e6","6186fb1cc52d38b480598eb7","6187385be49ad3961d53bd6c","1612.0999999046326","","s","true","[[341,597],[558,452],[580,193],[391,14],[133,50],[1,274],[93,517]]","false","7","","","img/Fire_Down_Target.gif","[""img/Fire_Up_Distractor.gif"",""img/Fire_Up_Distractor.gif"",""img/Fire_Up_Distractor.gif"",""img/Fire_Up_Distractor.gif"",""img/Fire_Up_Distractor.gif"",""img/Fire_Up_Distractor.gif"",""img/Fire_Up_Distractor.gif"",""img/Fire_Up_Distractor.gif"",""img/Fire_Up_Distractor.gif"",""img/Fire_Up_Distractor.gif"",""img/Fire_Up_Distractor.gif"",""img/Fire_Up_Distractor.gif""]","targetDown_distractorsUp"
"","","","","","html-keyboard-response","174","420975","0.0-14.0-0.0-0.80","6151e6a0397a519cc56745e6","6186fb1cc52d38b480598eb7","6187385be49ad3961d53bd6c","null","","null","","","","","fixation","","","",""
"","","","","","visual-search-circle","175","422965","0.0-14.0-0.0-1.80","6151e6a0397a519cc56745e6","6186fb1cc52d38b480598eb7","6187385be49ad3961d53bd6c","986.0999999046326","","d","true","[[1,268],[268,598],[598,331],[331,1]]","true","4","","","img/Fire_Up_Target.gif","[""img/Fire_Down_Distractor.gif"",""img/Fire_Down_Distractor.gif"",""img/Fire_Down_Distractor.gif"",""img/Fire_Down_Distractor.gif"",""img/Fire_Down_Distractor.gif"",""img/Fire_Down_Distractor.gif"",""img/Fire_Down_Distractor.gif"",""img/Fire_Down_Distractor.gif"",""img/Fire_Down_Distractor.gif"",""img/Fire_Down_Distractor.gif"",""img/Fire_Down_Distractor.gif"",""img/Fire_Down_Distractor.gif""]","targetUp_distractorsDown"
"","","","","","html-keyboard-response","176","422966","0.0-14.0-0.0-0.81","6151e6a0397a519cc56745e6","6186fb1cc52d38b480598eb7","6187385be49ad3961d53bd6c","null","","null","","","","","fixation","","","",""
"","","","","","visual-search-circle","177","427773","0.0-14.0-0.0-1.81","6151e6a0397a519cc56745e6","6186fb1cc52d38b480598eb7","6187385be49ad3961d53bd6c","3803.800000190735","","s","true","[[562,154],[305,0],[42,145],[37,445],[294,599],[557,454]]","false","6","","","img/Fire_Down_Target.gif","[""img/Fire_Up_Distractor.gif"",""img/Fire_Up_Distractor.gif"",""img/Fire_Up_Distractor.gif"",""img/Fire_Up_Distractor.gif"",""img/Fire_Up_Distractor.gif"",""img/Fire_Up_Distractor.gif"",""img/Fire_Up_Distractor.gif"",""img/Fire_Up_Distractor.gif"",""img/Fire_Up_Distractor.gif"",""img/Fire_Up_Distractor.gif"",""img/Fire_Up_Distractor.gif"",""img/Fire_Up_Distractor.gif""]","targetDown_distractorsUp"
"","","","","","html-keyboard-response","178","427776","0.0-14.0-0.0-0.82","6151e6a0397a519cc56745e6","6186fb1cc52d38b480598eb7","6187385be49ad3961d53bd6c","null","","null","","","","","fixation","","","",""
"","","","","","visual-search-circle","179","430029","0.0-14.0-0.0-1.82","6151e6a0397a519cc56745e6","6186fb1cc52d38b480598eb7","6187385be49ad3961d53bd6c","1250.6999998092651","","d","true","[[598,268],[362,6],[40,150],[77,500],[422,574]]","true","5","","","img/Fire_Up_Target.gif","[""img/Fire_Down_Distractor.gif"",""img/Fire_Down_Distractor.gif"",""img/Fire_Down_Distractor.gif"",""img/Fire_Down_Distractor.gif"",""img/Fire_Down_Distractor.gif"",""img/Fire_Down_Distractor.gif"",""img/Fire_Down_Distractor.gif"",""img/Fire_Down_Distractor.gif"",""img/Fire_Down_Distractor.gif"",""img/Fire_Down_Distractor.gif"",""img/Fire_Down_Distractor.gif"",""img/Fire_Down_Distractor.gif""]","targetUp_distractorsDown"
"","","","","","html-keyboard-response","180","430032","0.0-14.0-0.0-0.83","6151e6a0397a519cc56745e6","6186fb1cc52d38b480598eb7","6187385be49ad3961d53bd6c","null","","null","","","","","fixation","","","",""
"","","","","","visual-search-circle","181","434573","0.0-14.0-0.0-1.83","6151e6a0397a519cc56745e6","6186fb1cc52d38b480598eb7","6187385be49ad3961d53bd6c","3538.0999999046326","","s","true","[[548,467],[569,168],[320,0],[51,132],[30,431],[279,599]]","false","6","","","img/Fire_Up_Target.gif","[""img/Fire_Down_Distractor.gif"",""img/Fire_Down_Distractor.gif"",""img/Fire_Down_Distractor.gif"",""img/Fire_Down_Distractor.gif"",""img/Fire_Down_Distractor.gif"",""img/Fire_Down_Distractor.gif"",""img/Fire_Down_Distractor.gif"",""img/Fire_Down_Distractor.gif"",""img/Fire_Down_Distractor.gif"",""img/Fire_Down_Distractor.gif"",""img/Fire_Down_Distractor.gif"",""img/Fire_Down_Distractor.gif""]","targetUp_distractorsDown"
"","","","","","html-keyboard-response","182","434575","0.0-14.0-0.0-0.84","6151e6a0397a519cc56745e6","6186fb1cc52d38b480598eb7","6187385be49ad3961d53bd6c","null","","null","","","","","fixation","","","",""
"","","","","","visual-search-circle","183","437773","0.0-14.0-0.0-1.84","6151e6a0397a519cc56745e6","6186fb1cc52d38b480598eb7","6187385be49ad3961d53bd6c","2195.5","","d","true","[[80,95],[37,445],[357,594],[597,336],[426,28]]","true","5","","","img/Fire_Up_Target.gif","[""img/Fire_Down_Distractor.gif"",""img/Fire_Down_Distractor.gif"",""img/Fire_Down_Distractor.gif"",""img/Fire_Down_Distractor.gif"",""img/Fire_Down_Distractor.gif"",""img/Fire_Down_Distractor.gif"",""img/Fire_Down_Distractor.gif"",""img/Fire_Down_Distractor.gif"",""img/Fire_Down_Distractor.gif"",""img/Fire_Down_Distractor.gif"",""img/Fire_Down_Distractor.gif"",""img/Fire_Down_Distractor.gif""]","targetUp_distractorsDown"
"","","","","","html-keyboard-response","184","437776","0.0-14.0-0.0-0.85","6151e6a0397a519cc56745e6","6186fb1cc52d38b480598eb7","6187385be49ad3961d53bd6c","null","","null","","","","","fixation","","","",""
"","","","","","visual-search-circle","185","440309","0.0-14.0-0.0-1.85","6151e6a0397a519cc56745e6","6186fb1cc52d38b480598eb7","6187385be49ad3961d53bd6c","1530","","s","true","[[16,397],[242,594],[526,496],[583,202],[357,5],[73,103]]","false","6","","","img/Fire_Down_Target.gif","[""img/Fire_Up_Distractor.gif"",""img/Fire_Up_Distractor.gif"",""img/Fire_Up_Distractor.gif"",""img/Fire_Up_Distractor.gif"",""img/Fire_Up_Distractor.gif"",""img/Fire_Up_Distractor.gif"",""img/Fire_Up_Distractor.gif"",""img/Fire_Up_Distractor.gif"",""img/Fire_Up_Distractor.gif"",""img/Fire_Up_Distractor.gif"",""img/Fire_Up_Distractor.gif"",""img/Fire_Up_Distractor.gif""]","targetDown_distractorsUp"
"","","","","","html-keyboard-response","186","440311","0.0-14.0-0.0-0.86","6151e6a0397a519cc56745e6","6186fb1cc52d38b480598eb7","6187385be49ad3961d53bd6c","null","","null","","","","","fixation","","","",""
"","","","","","visual-search-circle","187","442989","0.0-14.0-0.0-1.86","6151e6a0397a519cc56745e6","6186fb1cc52d38b480598eb7","6187385be49ad3961d53bd6c","1674.5999999046326","","s","true","[[426,571],[591,370],[536,115],[303,0],[67,110],[6,363],[166,568]]","false","7","","","img/Fire_Up_Target.gif","[""img/Fire_Down_Distractor.gif"",""img/Fire_Down_Distractor.gif"",""img/Fire_Down_Distractor.gif"",""img/Fire_Down_Distractor.gif"",""img/Fire_Down_Distractor.gif"",""img/Fire_Down_Distractor.gif"",""img/Fire_Down_Distractor.gif"",""img/Fire_Down_Distractor.gif"",""img/Fire_Down_Distractor.gif"",""img/Fire_Down_Distractor.gif"",""img/Fire_Down_Distractor.gif"",""img/Fire_Down_Distractor.gif""]","targetUp_distractorsDown"
"","","","","","html-keyboard-response","188","442991","0.0-14.0-0.0-0.87","6151e6a0397a519cc56745e6","6186fb1cc52d38b480598eb7","6187385be49ad3961d53bd6c","null","","null","","","","","fixation","","","",""
"","","","","","visual-search-circle","189","447173","0.0-14.0-0.0-1.87","6151e6a0397a519cc56745e6","6186fb1cc52d38b480598eb7","6187385be49ad3961d53bd6c","3176.5","","s","true","[[0,305],[91,515],[305,599],[515,508],[599,294],[508,84],[294,0],[84,91]]","false","8","","","img/Fire_Up_Target.gif","[""img/Fire_Down_Distractor.gif"",""img/Fire_Down_Distractor.gif"",""img/Fire_Down_Distractor.gif"",""img/Fire_Down_Distractor.gif"",""img/Fire_Down_Distractor.gif"",""img/Fire_Down_Distractor.gif"",""img/Fire_Down_Distractor.gif"",""img/Fire_Down_Distractor.gif"",""img/Fire_Down_Distractor.gif"",""img/Fire_Down_Distractor.gif"",""img/Fire_Down_Distractor.gif"",""img/Fire_Down_Distractor.gif""]","targetUp_distractorsDown"
"","","","","","html-keyboard-response","190","447175","0.0-14.0-0.0-0.88","6151e6a0397a519cc56745e6","6186fb1cc52d38b480598eb7","6187385be49ad3961d53bd6c","null","","null","","","","","fixation","","","",""
"","","","","","visual-search-circle","191","449757","0.0-14.0-0.0-1.88","6151e6a0397a519cc56745e6","6186fb1cc52d38b480598eb7","6187385be49ad3961d53bd6c","1576.2000002861023","","d","true","[[258,2],[60,119],[2,341],[119,539],[341,597],[539,480],[597,258],[480,60]]","true","8","","","img/Fire_Down_Target.gif","[""img/Fire_Up_Distractor.gif"",""img/Fire_Up_Distractor.gif"",""img/Fire_Up_Distractor.gif"",""img/Fire_Up_Distractor.gif"",""img/Fire_Up_Distractor.gif"",""img/Fire_Up_Distractor.gif"",""img/Fire_Up_Distractor.gif"",""img/Fire_Up_Distractor.gif"",""img/Fire_Up_Distractor.gif"",""img/Fire_Up_Distractor.gif"",""img/Fire_Up_Distractor.gif"",""img/Fire_Up_Distractor.gif""]","targetDown_distractorsUp"
"","","","","","html-keyboard-response","192","449758","0.0-14.0-0.0-0.89","6151e6a0397a519cc56745e6","6186fb1cc52d38b480598eb7","6187385be49ad3961d53bd6c","null","","null","","","","","fixation","","","",""
"","","","","","visual-search-circle","193","452053","0.0-14.0-0.0-1.89","6151e6a0397a519cc56745e6","6186fb1cc52d38b480598eb7","6187385be49ad3961d53bd6c","1291.7000002861023","","s","true","[[127,545],[352,595],[545,472],[595,247],[472,54],[247,4],[54,127],[4,352]]","false","8","","","img/Fire_Up_Target.gif","[""img/Fire_Down_Distractor.gif"",""img/Fire_Down_Distractor.gif"",""img/Fire_Down_Distractor.gif"",""img/Fire_Down_Distractor.gif"",""img/Fire_Down_Distractor.gif"",""img/Fire_Down_Distractor.gif"",""img/Fire_Down_Distractor.gif"",""img/Fire_Down_Distractor.gif"",""img/Fire_Down_Distractor.gif"",""img/Fire_Down_Distractor.gif"",""img/Fire_Down_Distractor.gif"",""img/Fire_Down_Distractor.gif""]","targetUp_distractorsDown"
"","","","","","html-keyboard-response","194","452054","0.0-14.0-0.0-0.90","6151e6a0397a519cc56745e6","6186fb1cc52d38b480598eb7","6187385be49ad3961d53bd6c","null","","null","","","","","fixation","","","",""
"","","","","","visual-search-circle","195","454244","0.0-14.0-0.0-1.90","6151e6a0397a519cc56745e6","6186fb1cc52d38b480598eb7","6187385be49ad3961d53bd6c","1187.6999998092651","","d","true","[[580,192],[192,19],[19,407],[407,580]]","true","4","","","img/Fire_Down_Target.gif","[""img/Fire_Up_Distractor.gif"",""img/Fire_Up_Distractor.gif"",""img/Fire_Up_Distractor.gif"",""img/Fire_Up_Distractor.gif"",""img/Fire_Up_Distractor.gif"",""img/Fire_Up_Distractor.gif"",""img/Fire_Up_Distractor.gif"",""img/Fire_Up_Distractor.gif"",""img/Fire_Up_Distractor.gif"",""img/Fire_Up_Distractor.gif"",""img/Fire_Up_Distractor.gif"",""img/Fire_Up_Distractor.gif""]","targetDown_distractorsUp"
"","","","","","html-keyboard-response","196","454247","0.0-14.0-0.0-0.91","6151e6a0397a519cc56745e6","6186fb1cc52d38b480598eb7","6187385be49ad3961d53bd6c","null","","null","","","","","fixation","","","",""
"","","","","","visual-search-circle","197","457613","0.0-14.0-0.0-1.91","6151e6a0397a519cc56745e6","6186fb1cc52d38b480598eb7","6187385be49ad3961d53bd6c","2362.4000000953674","","s","true","[[576,182],[380,11],[124,56],[0,285],[102,525],[352,595],[563,442]]","false","7","","","img/Fire_Down_Target.gif","[""img/Fire_Up_Distractor.gif"",""img/Fire_Up_Distractor.gif"",""img/Fire_Up_Distractor.gif"",""img/Fire_Up_Distractor.gif"",""img/Fire_Up_Distractor.gif"",""img/Fire_Up_Distractor.gif"",""img/Fire_Up_Distractor.gif"",""img/Fire_Up_Distractor.gif"",""img/Fire_Up_Distractor.gif"",""img/Fire_Up_Distractor.gif"",""img/Fire_Up_Distractor.gif"",""img/Fire_Up_Distractor.gif""]","targetDown_distractorsUp"
"","","","","","html-keyboard-response","198","457615","0.0-14.0-0.0-0.92","6151e6a0397a519cc56745e6","6186fb1cc52d38b480598eb7","6187385be49ad3961d53bd6c","null","","null","","","","","fixation","","","",""
"","","","","","visual-search-circle","199","460524","0.0-14.0-0.0-1.92","6151e6a0397a519cc56745e6","6186fb1cc52d38b480598eb7","6187385be49ad3961d53bd6c","1907.5","","s","true","[[484,63],[132,51],[11,382],[289,599],[581,402]]","false","5","","","img/Fire_Down_Target.gif","[""img/Fire_Up_Distractor.gif"",""img/Fire_Up_Distractor.gif"",""img/Fire_Up_Distractor.gif"",""img/Fire_Up_Distractor.gif"",""img/Fire_Up_Distractor.gif"",""img/Fire_Up_Distractor.gif"",""img/Fire_Up_Distractor.gif"",""img/Fire_Up_Distractor.gif"",""img/Fire_Up_Distractor.gif"",""img/Fire_Up_Distractor.gif"",""img/Fire_Up_Distractor.gif"",""img/Fire_Up_Distractor.gif""]","targetDown_distractorsUp"
"","","","","","html-keyboard-response","200","460528","0.0-14.0-0.0-0.93","6151e6a0397a519cc56745e6","6186fb1cc52d38b480598eb7","6187385be49ad3961d53bd6c","null","","null","","","","","fixation","","","",""
"","","","","","visual-search-circle","201","464477","0.0-14.0-0.0-1.93","6151e6a0397a519cc56745e6","6186fb1cc52d38b480598eb7","6187385be49ad3961d53bd6c","2945.800000190735","","d","true","[[111,533],[364,592],[569,432],[571,171],[368,8],[114,64],[0,297]]","true","7","","","img/Fire_Up_Target.gif","[""img/Fire_Down_Distractor.gif"",""img/Fire_Down_Distractor.gif"",""img/Fire_Down_Distractor.gif"",""img/Fire_Down_Distractor.gif"",""img/Fire_Down_Distractor.gif"",""img/Fire_Down_Distractor.gif"",""img/Fire_Down_Distractor.gif"",""img/Fire_Down_Distractor.gif"",""img/Fire_Down_Distractor.gif"",""img/Fire_Down_Distractor.gif"",""img/Fire_Down_Distractor.gif"",""img/Fire_Down_Distractor.gif""]","targetUp_distractorsDown"
"","","","","","html-keyboard-response","202","464479","0.0-14.0-0.0-0.94","6151e6a0397a519cc56745e6","6186fb1cc52d38b480598eb7","6187385be49ad3961d53bd6c","null","","null","","","","","fixation","","","",""
"","","","","","visual-search-circle","203","467661","0.0-14.0-0.0-1.94","6151e6a0397a519cc56745e6","6186fb1cc52d38b480598eb7","6187385be49ad3961d53bd6c","2178.7000002861023","","d","true","[[387,13],[159,35],[13,212],[35,440],[212,586],[440,564],[586,387],[564,159]]","true","8","","","img/Fire_Up_Target.gif","[""img/Fire_Down_Distractor.gif"",""img/Fire_Down_Distractor.gif"",""img/Fire_Down_Distractor.gif"",""img/Fire_Down_Distractor.gif"",""img/Fire_Down_Distractor.gif"",""img/Fire_Down_Distractor.gif"",""img/Fire_Down_Distractor.gif"",""img/Fire_Down_Distractor.gif"",""img/Fire_Down_Distractor.gif"",""img/Fire_Down_Distractor.gif"",""img/Fire_Down_Distractor.gif"",""img/Fire_Down_Distractor.gif""]","targetUp_distractorsDown"
"","","","","","html-keyboard-response","204","467662","0.0-14.0-0.0-0.95","6151e6a0397a519cc56745e6","6186fb1cc52d38b480598eb7","6187385be49ad3961d53bd6c","null","","null","","","","","fixation","","","",""
"","","","","","visual-search-circle","205","469893","0.0-14.0-0.0-1.95","6151e6a0397a519cc56745e6","6186fb1cc52d38b480598eb7","6187385be49ad3961d53bd6c","1227.3000001907349","","s","true","[[593,362],[551,136],[362,6],[136,48],[6,237],[48,463],[237,593],[463,551]]","false","8","","","img/Fire_Up_Target.gif","[""img/Fire_Down_Distractor.gif"",""img/Fire_Down_Distractor.gif"",""img/Fire_Down_Distractor.gif"",""img/Fire_Down_Distractor.gif"",""img/Fire_Down_Distractor.gif"",""img/Fire_Down_Distractor.gif"",""img/Fire_Down_Distractor.gif"",""img/Fire_Down_Distractor.gif"",""img/Fire_Down_Distractor.gif"",""img/Fire_Down_Distractor.gif"",""img/Fire_Down_Distractor.gif"",""img/Fire_Down_Distractor.gif""]","targetUp_distractorsDown"
"","","","","","html-keyboard-response","206","469896","0.0-14.0-0.0-0.96","6151e6a0397a519cc56745e6","6186fb1cc52d38b480598eb7","6187385be49ad3961d53bd6c","null","","null","","","","","fixation","","","",""
"","","","","","visual-search-circle","207","472748","0.0-14.0-0.0-1.96","6151e6a0397a519cc56745e6","6186fb1cc52d38b480598eb7","6187385be49ad3961d53bd6c","1850.7999997138977","","d","true","[[5,357],[202,583],[496,526],[594,242],[397,16],[103,73]]","true","6","","","img/Fire_Down_Target.gif","[""img/Fire_Up_Distractor.gif"",""img/Fire_Up_Distractor.gif"",""img/Fire_Up_Distractor.gif"",""img/Fire_Up_Distractor.gif"",""img/Fire_Up_Distractor.gif"",""img/Fire_Up_Distractor.gif"",""img/Fire_Up_Distractor.gif"",""img/Fire_Up_Distractor.gif"",""img/Fire_Up_Distractor.gif"",""img/Fire_Up_Distractor.gif"",""img/Fire_Up_Distractor.gif"",""img/Fire_Up_Distractor.gif""]","targetDown_distractorsUp"
"","","","","","html-keyboard-response","208","472750","0.0-14.0-0.0-0.97","6151e6a0397a519cc56745e6","6186fb1cc52d38b480598eb7","6187385be49ad3961d53bd6c","null","","null","","","","","fixation","","","",""
"","","","","","visual-search-circle","209","475341","0.0-14.0-0.0-1.97","6151e6a0397a519cc56745e6","6186fb1cc52d38b480598eb7","6187385be49ad3961d53bd6c","1588.1999998092651","","s","true","[[440,564],[595,247],[341,2],[30,168],[91,515]]","false","5","","","img/Fire_Up_Target.gif","[""img/Fire_Down_Distractor.gif"",""img/Fire_Down_Distractor.gif"",""img/Fire_Down_Distractor.gif"",""img/Fire_Down_Distractor.gif"",""img/Fire_Down_Distractor.gif"",""img/Fire_Down_Distractor.gif"",""img/Fire_Down_Distractor.gif"",""img/Fire_Down_Distractor.gif"",""img/Fire_Down_Distractor.gif"",""img/Fire_Down_Distractor.gif"",""img/Fire_Down_Distractor.gif"",""img/Fire_Down_Distractor.gif""]","targetUp_distractorsDown"
"","","","","","html-keyboard-response","210","475343","0.0-14.0-0.0-0.98","6151e6a0397a519cc56745e6","6186fb1cc52d38b480598eb7","6187385be49ad3961d53bd6c","null","","null","","","","","fixation","","","",""
"","","","","","visual-search-circle","211","477965","0.0-14.0-0.0-1.98","6151e6a0397a519cc56745e6","6186fb1cc52d38b480598eb7","6187385be49ad3961d53bd6c","1617.7999997138977","","s","true","[[542,476],[596,253],[476,57],[253,3],[57,123],[3,346],[123,542],[346,596]]","false","8","","","img/Fire_Up_Target.gif","[""img/Fire_Down_Distractor.gif"",""img/Fire_Down_Distractor.gif"",""img/Fire_Down_Distractor.gif"",""img/Fire_Down_Distractor.gif"",""img/Fire_Down_Distractor.gif"",""img/Fire_Down_Distractor.gif"",""img/Fire_Down_Distractor.gif"",""img/Fire_Down_Distractor.gif"",""img/Fire_Down_Distractor.gif"",""img/Fire_Down_Distractor.gif"",""img/Fire_Down_Distractor.gif"",""img/Fire_Down_Distractor.gif""]","targetUp_distractorsDown"
"","","","","","html-keyboard-response","212","483116","0.0-14.0-0.0-0.99","6151e6a0397a519cc56745e6","6186fb1cc52d38b480598eb7","6187385be49ad3961d53bd6c","5151.60000038147","Wow! You've completed 100 out of 120 trials! </p> <p>  </p><p> Take a quick break, then press any key when you're ready to continue."," ","","","","","fixation","","","",""
"","","","","","visual-search-circle","213","485764","0.0-14.0-0.0-1.99","6151e6a0397a519cc56745e6","6186fb1cc52d38b480598eb7","6187385be49ad3961d53bd6c","1645.6999998092651","","s","false","[[529,107],[292,0],[60,118],[9,374],[176,573],[436,566],[594,359]]","true","7","","","img/Fire_Up_Target.gif","[""img/Fire_Down_Distractor.gif"",""img/Fire_Down_Distractor.gif"",""img/Fire_Down_Distractor.gif"",""img/Fire_Down_Distractor.gif"",""img/Fire_Down_Distractor.gif"",""img/Fire_Down_Distractor.gif"",""img/Fire_Down_Distractor.gif"",""img/Fire_Down_Distractor.gif"",""img/Fire_Down_Distractor.gif"",""img/Fire_Down_Distractor.gif"",""img/Fire_Down_Distractor.gif"",""img/Fire_Down_Distractor.gif""]","targetUp_distractorsDown"
"","","","","","html-keyboard-response","214","485767","0.0-14.0-0.0-0.100","6151e6a0397a519cc56745e6","6186fb1cc52d38b480598eb7","6187385be49ad3961d53bd6c","null","","null","","","","","fixation","","","",""
"","","","","","visual-search-circle","215","487748","0.0-14.0-0.0-1.100","6151e6a0397a519cc56745e6","6186fb1cc52d38b480598eb7","6187385be49ad3961d53bd6c","977.7999997138977","","s","false","[[583,202],[400,17],[141,45],[2,264],[86,511],[332,598],[553,460]]","true","7","","","img/Fire_Down_Target.gif","[""img/Fire_Up_Distractor.gif"",""img/Fire_Up_Distractor.gif"",""img/Fire_Up_Distractor.gif"",""img/Fire_Up_Distractor.gif"",""img/Fire_Up_Distractor.gif"",""img/Fire_Up_Distractor.gif"",""img/Fire_Up_Distractor.gif"",""img/Fire_Up_Distractor.gif"",""img/Fire_Up_Distractor.gif"",""img/Fire_Up_Distractor.gif"",""img/Fire_Up_Distractor.gif"",""img/Fire_Up_Distractor.gif""]","targetDown_distractorsUp"
"","","","","","html-keyboard-response","216","487749","0.0-14.0-0.0-0.101","6151e6a0397a519cc56745e6","6186fb1cc52d38b480598eb7","6187385be49ad3961d53bd6c","null","","null","","","","","fixation","","","",""
"","","","","","visual-search-circle","217","490116","0.0-14.0-0.0-1.101","6151e6a0397a519cc56745e6","6186fb1cc52d38b480598eb7","6187385be49ad3961d53bd6c","1363.7999997138977","","s","true","[[500,522],[593,237],[392,14],[99,77],[6,362],[207,585]]","false","6","","","img/Fire_Down_Target.gif","[""img/Fire_Up_Distractor.gif"",""img/Fire_Up_Distractor.gif"",""img/Fire_Up_Distractor.gif"",""img/Fire_Up_Distractor.gif"",""img/Fire_Up_Distractor.gif"",""img/Fire_Up_Distractor.gif"",""img/Fire_Up_Distractor.gif"",""img/Fire_Up_Distractor.gif"",""img/Fire_Up_Distractor.gif"",""img/Fire_Up_Distractor.gif"",""img/Fire_Up_Distractor.gif"",""img/Fire_Up_Distractor.gif""]","targetDown_distractorsUp"
"","","","","","html-keyboard-response","218","490118","0.0-14.0-0.0-0.102","6151e6a0397a519cc56745e6","6186fb1cc52d38b480598eb7","6187385be49ad3961d53bd6c","null","","null","","","","","fixation","","","",""
"","","","","","visual-search-circle","219","492284","0.0-14.0-0.0-1.102","6151e6a0397a519cc56745e6","6186fb1cc52d38b480598eb7","6187385be49ad3961d53bd6c","1164.0999999046326","","d","true","[[168,569],[515,508],[564,159],[247,4],[2,258]]","true","5","","","img/Fire_Up_Target.gif","[""img/Fire_Down_Distractor.gif"",""img/Fire_Down_Distractor.gif"",""img/Fire_Down_Distractor.gif"",""img/Fire_Down_Distractor.gif"",""img/Fire_Down_Distractor.gif"",""img/Fire_Down_Distractor.gif"",""img/Fire_Down_Distractor.gif"",""img/Fire_Down_Distractor.gif"",""img/Fire_Down_Distractor.gif"",""img/Fire_Down_Distractor.gif"",""img/Fire_Down_Distractor.gif"",""img/Fire_Down_Distractor.gif""]","targetUp_distractorsDown"
"","","","","","html-keyboard-response","220","492285","0.0-14.0-0.0-0.103","6151e6a0397a519cc56745e6","6186fb1cc52d38b480598eb7","6187385be49ad3961d53bd6c","null","","null","","","","","fixation","","","",""
"","","","","","visual-search-circle","221","495052","0.0-14.0-0.0-1.103","6151e6a0397a519cc56745e6","6186fb1cc52d38b480598eb7","6187385be49ad3961d53bd6c","1763.5999999046326","","d","false","[[320,0],[51,132],[30,431],[279,599],[548,467],[569,168]]","false","6","","","img/Fire_Up_Target.gif","[""img/Fire_Down_Distractor.gif"",""img/Fire_Down_Distractor.gif"",""img/Fire_Down_Distractor.gif"",""img/Fire_Down_Distractor.gif"",""img/Fire_Down_Distractor.gif"",""img/Fire_Down_Distractor.gif"",""img/Fire_Down_Distractor.gif"",""img/Fire_Down_Distractor.gif"",""img/Fire_Down_Distractor.gif"",""img/Fire_Down_Distractor.gif"",""img/Fire_Down_Distractor.gif"",""img/Fire_Down_Distractor.gif""]","targetUp_distractorsDown"
