"success","timeout","failed_images","failed_audio","failed_video","trial_type","trial_index","time_elapsed","internal_node_id","subject_id","study_id","session_id","rt","stimulus","response","correct","locations","target_present","set_size","task","correct_response","target","foilCM","searchCondition"
"true","false","[]","[]","[]","preload","0","6978","0.0-0.0","6156878f1a73eec2378ae3bd","6186fb1cc52d38b480598eb7","618731a5ad3fdffde6315ecd","","","","","","","","","","","",""
"true","","","","","fullscreen","1","9653","0.0-1.0","6156878f1a73eec2378ae3bd","6186fb1cc52d38b480598eb7","618731a5ad3fdffde6315ecd","","","","","","","","","","","",""
"","","","","","html-keyboard-response","2","16648","0.0-2.0","6156878f1a73eec2378ae3bd","6186fb1cc52d38b480598eb7","618731a5ad3fdffde6315ecd","6994.800000071526","What a beautiful Saturday to do some awesome science! </p> <p>  </p><p> </p>
    By completing this survey or questionnaire, you are consenting to be in this research study. </p>
    Your participation is voluntary and you can stop at any time.
    <p> [Press any key to continue.] </p>
    
    "," ","","","","","","","","",""
"","","","","","video-keyboard-response","3","51752","0.0-3.0","6156878f1a73eec2378ae3bd","6186fb1cc52d38b480598eb7","618731a5ad3fdffde6315ecd","35102.300000071526","[""video/TaskInstructions.mp4""]"," ","","","","","","","","",""
"","","","","","html-keyboard-response","4","54892","0.0-4.0","6156878f1a73eec2378ae3bd","6186fb1cc52d38b480598eb7","618731a5ad3fdffde6315ecd","3139","
    <p>First, we're going to do a few practice trials to make sure you understand the task. You will recieve feedback on each trial. </p>

    <p>[Press any key to begin the familiarization phase.]</p>
    "," ","","","","","","","","",""
"","","","","","visual-search-circle","5","59598","0.0-5.0-0.0","6156878f1a73eec2378ae3bd","6186fb1cc52d38b480598eb7","618731a5ad3fdffde6315ecd","3627.2999999523163","","s","false","[[341,2],[2,258],[258,597],[597,341]]","true","4","training","d","","",""
"","","","","","html-keyboard-response","6","63903","0.0-6.0","6156878f1a73eec2378ae3bd","6186fb1cc52d38b480598eb7","618731a5ad3fdffde6315ecd","4304.799999952316"," <div style='float: center;'><img src='img/feedbackWrong.png'></img> </div> ","d","","","","","","","","",""
"","","","","","visual-search-circle","7","66445","0.0-7.0-0.0","6156878f1a73eec2378ae3bd","6186fb1cc52d38b480598eb7","618731a5ad3fdffde6315ecd","1539","","s","true","[[500,77],[77,99],[99,522],[522,500]]","false","4","training","s","","",""
"","","","","","html-keyboard-response","8","68201","0.0-8.0","6156878f1a73eec2378ae3bd","6186fb1cc52d38b480598eb7","618731a5ad3fdffde6315ecd","1756.1999999284744"," <div style='float: center; '><img src='img/feedbackRight.png'></img> </div> "," ","","","","","","","","",""
"","","","","","visual-search-circle","9","71071","0.0-9.0-0.0","6156878f1a73eec2378ae3bd","6186fb1cc52d38b480598eb7","618731a5ad3fdffde6315ecd","1866.3999999761581","","d","false","[[599,315],[463,48],[163,32],[0,284],[136,551],[436,567]]","false","6","training","s","","",""
"","","","","","html-keyboard-response","10","71923","0.0-10.0","6156878f1a73eec2378ae3bd","6186fb1cc52d38b480598eb7","618731a5ad3fdffde6315ecd","851.3000000715256"," <div style='float: center;'><img src='img/feedbackWrong.png'></img> </div> "," ","","","","","","","","",""
"","","","","","visual-search-circle","11","74480","0.0-11.0-0.0","6156878f1a73eec2378ae3bd","6186fb1cc52d38b480598eb7","618731a5ad3fdffde6315ecd","1540.8999999761581","","d","true","[[492,529],[598,326],[529,107],[326,1],[107,70],[1,273],[70,492],[273,598]]","true","8","training","d","","",""
"","","","","","html-keyboard-response","12","76527","0.0-12.0","6156878f1a73eec2378ae3bd","6186fb1cc52d38b480598eb7","618731a5ad3fdffde6315ecd","2046.3999999761581"," <div style='float: center; '><img src='img/feedbackRight.png'></img> </div> "," ","","","","","","","","",""
"","","","","","video-keyboard-response","13","78336","0.0-13.0","6156878f1a73eec2378ae3bd","6186fb1cc52d38b480598eb7","618731a5ad3fdffde6315ecd","1808.1000000238419","[""video/endTraining.mp4""]"," ","","","","","","","","",""
"","","","","","html-keyboard-response","14","78338","0.0-14.0-0.0-0.0","6156878f1a73eec2378ae3bd","6186fb1cc52d38b480598eb7","618731a5ad3fdffde6315ecd","null","","null","","","","","fixation","","","",""
"","","","","","visual-search-circle","15","82175","0.0-14.0-0.0-1.0","6156878f1a73eec2378ae3bd","6186fb1cc52d38b480598eb7","618731a5ad3fdffde6315ecd","2828.100000023842","","d","false","[[597,341],[484,63],[187,21],[2,258],[115,536],[412,578]]","false","6","","","img/Fire_Up_Target.gif","[""img/Fire_Down_Distractor.gif"",""img/Fire_Down_Distractor.gif"",""img/Fire_Down_Distractor.gif"",""img/Fire_Down_Distractor.gif"",""img/Fire_Down_Distractor.gif"",""img/Fire_Down_Distractor.gif"",""img/Fire_Down_Distractor.gif"",""img/Fire_Down_Distractor.gif"",""img/Fire_Down_Distractor.gif"",""img/Fire_Down_Distractor.gif"",""img/Fire_Down_Distractor.gif"",""img/Fire_Down_Distractor.gif""]","targetUp_distractorsDown"
"","","","","","html-keyboard-response","16","82177","0.0-14.0-0.0-0.1","6156878f1a73eec2378ae3bd","6186fb1cc52d38b480598eb7","618731a5ad3fdffde6315ecd","null","","null","","","","","fixation","","","",""
"","","","","","visual-search-circle","17","84641","0.0-14.0-0.0-1.1","6156878f1a73eec2378ae3bd","6186fb1cc52d38b480598eb7","618731a5ad3fdffde6315ecd","1450.1000000238419","","s","true","[[23,417],[263,597],[539,480],[576,182],[336,2],[60,119]]","false","6","","","img/Fire_Down_Target.gif","[""img/Fire_Up_Distractor.gif"",""img/Fire_Up_Distractor.gif"",""img/Fire_Up_Distractor.gif"",""img/Fire_Up_Distractor.gif"",""img/Fire_Up_Distractor.gif"",""img/Fire_Up_Distractor.gif"",""img/Fire_Up_Distractor.gif"",""img/Fire_Up_Distractor.gif"",""img/Fire_Up_Distractor.gif"",""img/Fire_Up_Distractor.gif"",""img/Fire_Up_Distractor.gif"",""img/Fire_Up_Distractor.gif""]","targetDown_distractorsUp"
"","","","","","html-keyboard-response","18","84643","0.0-14.0-0.0-0.2","6156878f1a73eec2378ae3bd","6186fb1cc52d38b480598eb7","618731a5ad3fdffde6315ecd","null","","null","","","","","fixation","","","",""
"","","","","","visual-search-circle","19","86617","0.0-14.0-0.0-1.2","6156878f1a73eec2378ae3bd","6186fb1cc52d38b480598eb7","618731a5ad3fdffde6315ecd","958.4000000953674","","d","true","[[583,397],[480,60],[127,54],[13,387],[294,599]]","true","5","","","img/Fire_Down_Target.gif","[""img/Fire_Up_Distractor.gif"",""img/Fire_Up_Distractor.gif"",""img/Fire_Up_Distractor.gif"",""img/Fire_Up_Distractor.gif"",""img/Fire_Up_Distractor.gif"",""img/Fire_Up_Distractor.gif"",""img/Fire_Up_Distractor.gif"",""img/Fire_Up_Distractor.gif"",""img/Fire_Up_Distractor.gif"",""img/Fire_Up_Distractor.gif"",""img/Fire_Up_Distractor.gif"",""img/Fire_Up_Distractor.gif""]","targetDown_distractorsUp"
"","","","","","html-keyboard-response","20","86619","0.0-14.0-0.0-0.3","6156878f1a73eec2378ae3bd","6186fb1cc52d38b480598eb7","618731a5ad3fdffde6315ecd","null","","null","","","","","fixation","","","",""
"","","","","","visual-search-circle","21","88579","0.0-14.0-0.0-1.3","6156878f1a73eec2378ae3bd","6186fb1cc52d38b480598eb7","618731a5ad3fdffde6315ecd","952.1000000238419","","s","true","[[357,594],[597,336],[426,28],[80,95],[37,445]]","false","5","","","img/Fire_Down_Target.gif","[""img/Fire_Up_Distractor.gif"",""img/Fire_Up_Distractor.gif"",""img/Fire_Up_Distractor.gif"",""img/Fire_Up_Distractor.gif"",""img/Fire_Up_Distractor.gif"",""img/Fire_Up_Distractor.gif"",""img/Fire_Up_Distractor.gif"",""img/Fire_Up_Distractor.gif"",""img/Fire_Up_Distractor.gif"",""img/Fire_Up_Distractor.gif"",""img/Fire_Up_Distractor.gif"",""img/Fire_Up_Distractor.gif""]","targetDown_distractorsUp"
"","","","","","html-keyboard-response","22","88582","0.0-14.0-0.0-0.4","6156878f1a73eec2378ae3bd","6186fb1cc52d38b480598eb7","618731a5ad3fdffde6315ecd","null","","null","","","","","fixation","","","",""
"","","","","","visual-search-circle","23","91114","0.0-14.0-0.0-1.4","6156878f1a73eec2378ae3bd","6186fb1cc52d38b480598eb7","618731a5ad3fdffde6315ecd","1516.7999999523163","","s","true","[[576,182],[412,21],[182,23],[21,187],[23,417],[187,578],[417,576],[578,412]]","false","8","","","img/Fire_Up_Target.gif","[""img/Fire_Down_Distractor.gif"",""img/Fire_Down_Distractor.gif"",""img/Fire_Down_Distractor.gif"",""img/Fire_Down_Distractor.gif"",""img/Fire_Down_Distractor.gif"",""img/Fire_Down_Distractor.gif"",""img/Fire_Down_Distractor.gif"",""img/Fire_Down_Distractor.gif"",""img/Fire_Down_Distractor.gif"",""img/Fire_Down_Distractor.gif"",""img/Fire_Down_Distractor.gif"",""img/Fire_Down_Distractor.gif""]","targetUp_distractorsDown"
"","","","","","html-keyboard-response","24","91115","0.0-14.0-0.0-0.5","6156878f1a73eec2378ae3bd","6186fb1cc52d38b480598eb7","618731a5ad3fdffde6315ecd","null","","null","","","","","fixation","","","",""
"","","","","","visual-search-circle","25","93829","0.0-14.0-0.0-1.5","6156878f1a73eec2378ae3bd","6186fb1cc52d38b480598eb7","618731a5ad3fdffde6315ecd","1702.6999999284744","","s","true","[[476,57],[220,10],[24,182],[35,442],[246,595],[497,525],[599,286]]","false","7","","","img/Fire_Down_Target.gif","[""img/Fire_Up_Distractor.gif"",""img/Fire_Up_Distractor.gif"",""img/Fire_Up_Distractor.gif"",""img/Fire_Up_Distractor.gif"",""img/Fire_Up_Distractor.gif"",""img/Fire_Up_Distractor.gif"",""img/Fire_Up_Distractor.gif"",""img/Fire_Up_Distractor.gif"",""img/Fire_Up_Distractor.gif"",""img/Fire_Up_Distractor.gif"",""img/Fire_Up_Distractor.gif"",""img/Fire_Up_Distractor.gif""]","targetDown_distractorsUp"
"","","","","","html-keyboard-response","26","93831","0.0-14.0-0.0-0.6","6156878f1a73eec2378ae3bd","6186fb1cc52d38b480598eb7","618731a5ad3fdffde6315ecd","null","","null","","","","","fixation","","","",""
"","","","","","visual-search-circle","27","95824","0.0-14.0-0.0-1.6","6156878f1a73eec2378ae3bd","6186fb1cc52d38b480598eb7","618731a5ad3fdffde6315ecd","978.5","","d","true","[[289,599],[599,310],[310,0],[0,289]]","true","4","","","img/Fire_Down_Target.gif","[""img/Fire_Up_Distractor.gif"",""img/Fire_Up_Distractor.gif"",""img/Fire_Up_Distractor.gif"",""img/Fire_Up_Distractor.gif"",""img/Fire_Up_Distractor.gif"",""img/Fire_Up_Distractor.gif"",""img/Fire_Up_Distractor.gif"",""img/Fire_Up_Distractor.gif"",""img/Fire_Up_Distractor.gif"",""img/Fire_Up_Distractor.gif"",""img/Fire_Up_Distractor.gif"",""img/Fire_Up_Distractor.gif""]","targetDown_distractorsUp"
"","","","","","html-keyboard-response","28","95825","0.0-14.0-0.0-0.7","6156878f1a73eec2378ae3bd","6186fb1cc52d38b480598eb7","618731a5ad3fdffde6315ecd","null","","null","","","","","fixation","","","",""
"","","","","","visual-search-circle","29","98172","0.0-14.0-0.0-1.7","6156878f1a73eec2378ae3bd","6186fb1cc52d38b480598eb7","618731a5ad3fdffde6315ecd","1344.8999999761581","","s","false","[[13,212],[212,586],[586,387],[387,13]]","true","4","","","img/Fire_Down_Target.gif","[""img/Fire_Up_Distractor.gif"",""img/Fire_Up_Distractor.gif"",""img/Fire_Up_Distractor.gif"",""img/Fire_Up_Distractor.gif"",""img/Fire_Up_Distractor.gif"",""img/Fire_Up_Distractor.gif"",""img/Fire_Up_Distractor.gif"",""img/Fire_Up_Distractor.gif"",""img/Fire_Up_Distractor.gif"",""img/Fire_Up_Distractor.gif"",""img/Fire_Up_Distractor.gif"",""img/Fire_Up_Distractor.gif""]","targetDown_distractorsUp"
"","","","","","html-keyboard-response","30","98176","0.0-14.0-0.0-0.8","6156878f1a73eec2378ae3bd","6186fb1cc52d38b480598eb7","618731a5ad3fdffde6315ecd","null","","null","","","","","fixation","","","",""
"","","","","","visual-search-circle","31","100374","0.0-14.0-0.0-1.8","6156878f1a73eec2378ae3bd","6186fb1cc52d38b480598eb7","618731a5ad3fdffde6315ecd","1184.2999999523163","","d","true","[[357,594],[594,242],[242,5],[5,357]]","true","4","","","img/Fire_Up_Target.gif","[""img/Fire_Down_Distractor.gif"",""img/Fire_Down_Distractor.gif"",""img/Fire_Down_Distractor.gif"",""img/Fire_Down_Distractor.gif"",""img/Fire_Down_Distractor.gif"",""img/Fire_Down_Distractor.gif"",""img/Fire_Down_Distractor.gif"",""img/Fire_Down_Distractor.gif"",""img/Fire_Down_Distractor.gif"",""img/Fire_Down_Distractor.gif"",""img/Fire_Down_Distractor.gif"",""img/Fire_Down_Distractor.gif""]","targetUp_distractorsDown"
"","","","","","html-keyboard-response","32","100376","0.0-14.0-0.0-0.9","6156878f1a73eec2378ae3bd","6186fb1cc52d38b480598eb7","618731a5ad3fdffde6315ecd","null","","null","","","","","fixation","","","",""
"","","","","","visual-search-circle","33","103171","0.0-14.0-0.0-1.9","6156878f1a73eec2378ae3bd","6186fb1cc52d38b480598eb7","618731a5ad3fdffde6315ecd","1780.1000000238419","","s","true","[[569,168],[258,2],[4,247],[159,564],[508,515]]","false","5","","","img/Fire_Down_Target.gif","[""img/Fire_Up_Distractor.gif"",""img/Fire_Up_Distractor.gif"",""img/Fire_Up_Distractor.gif"",""img/Fire_Up_Distractor.gif"",""img/Fire_Up_Distractor.gif"",""img/Fire_Up_Distractor.gif"",""img/Fire_Up_Distractor.gif"",""img/Fire_Up_Distractor.gif"",""img/Fire_Up_Distractor.gif"",""img/Fire_Up_Distractor.gif"",""img/Fire_Up_Distractor.gif"",""img/Fire_Up_Distractor.gif""]","targetDown_distractorsUp"
"","","","","","html-keyboard-response","34","103174","0.0-14.0-0.0-0.10","6156878f1a73eec2378ae3bd","6186fb1cc52d38b480598eb7","618731a5ad3fdffde6315ecd","null","","null","","","","","fixation","","","",""
"","","","","","visual-search-circle","35","106142","0.0-14.0-0.0-1.10","6156878f1a73eec2378ae3bd","6186fb1cc52d38b480598eb7","618731a5ad3fdffde6315ecd","1952.3999999761581","","s","true","[[168,569],[569,431],[431,30],[30,168]]","false","4","","","img/Fire_Down_Target.gif","[""img/Fire_Up_Distractor.gif"",""img/Fire_Up_Distractor.gif"",""img/Fire_Up_Distractor.gif"",""img/Fire_Up_Distractor.gif"",""img/Fire_Up_Distractor.gif"",""img/Fire_Up_Distractor.gif"",""img/Fire_Up_Distractor.gif"",""img/Fire_Up_Distractor.gif"",""img/Fire_Up_Distractor.gif"",""img/Fire_Up_Distractor.gif"",""img/Fire_Up_Distractor.gif"",""img/Fire_Up_Distractor.gif""]","targetDown_distractorsUp"
"","","","","","html-keyboard-response","36","106144","0.0-14.0-0.0-0.11","6156878f1a73eec2378ae3bd","6186fb1cc52d38b480598eb7","618731a5ad3fdffde6315ecd","null","","null","","","","","fixation","","","",""
"","","","","","visual-search-circle","37","108795","0.0-14.0-0.0-1.11","6156878f1a73eec2378ae3bd","6186fb1cc52d38b480598eb7","618731a5ad3fdffde6315ecd","1639.0999999046326","","d","false","[[512,87],[87,87],[87,512],[512,512]]","false","4","","","img/Fire_Up_Target.gif","[""img/Fire_Down_Distractor.gif"",""img/Fire_Down_Distractor.gif"",""img/Fire_Down_Distractor.gif"",""img/Fire_Down_Distractor.gif"",""img/Fire_Down_Distractor.gif"",""img/Fire_Down_Distractor.gif"",""img/Fire_Down_Distractor.gif"",""img/Fire_Down_Distractor.gif"",""img/Fire_Down_Distractor.gif"",""img/Fire_Down_Distractor.gif"",""img/Fire_Down_Distractor.gif"",""img/Fire_Down_Distractor.gif""]","targetUp_distractorsDown"
"","","","","","html-keyboard-response","38","108797","0.0-14.0-0.0-0.12","6156878f1a73eec2378ae3bd","6186fb1cc52d38b480598eb7","618731a5ad3fdffde6315ecd","null","","null","","","","","fixation","","","",""
"","","","","","visual-search-circle","39","111476","0.0-14.0-0.0-1.12","6156878f1a73eec2378ae3bd","6186fb1cc52d38b480598eb7","618731a5ad3fdffde6315ecd","1676.2999999523163","","s","true","[[123,57],[0,286],[102,525],[353,595],[564,442],[575,182],[379,10]]","false","7","","","img/Fire_Down_Target.gif","[""img/Fire_Up_Distractor.gif"",""img/Fire_Up_Distractor.gif"",""img/Fire_Up_Distractor.gif"",""img/Fire_Up_Distractor.gif"",""img/Fire_Up_Distractor.gif"",""img/Fire_Up_Distractor.gif"",""img/Fire_Up_Distractor.gif"",""img/Fire_Up_Distractor.gif"",""img/Fire_Up_Distractor.gif"",""img/Fire_Up_Distractor.gif"",""img/Fire_Up_Distractor.gif"",""img/Fire_Up_Distractor.gif""]","targetDown_distractorsUp"
"","","","","","html-keyboard-response","40","111478","0.0-14.0-0.0-0.13","6156878f1a73eec2378ae3bd","6186fb1cc52d38b480598eb7","618731a5ad3fdffde6315ecd","null","","null","","","","","fixation","","","",""
"","","","","","visual-search-circle","41","113557","0.0-14.0-0.0-1.13","6156878f1a73eec2378ae3bd","6186fb1cc52d38b480598eb7","618731a5ad3fdffde6315ecd","1070.1000000238419","","d","true","[[87,512],[377,589],[589,377],[512,87],[222,10],[10,222]]","true","6","","","img/Fire_Down_Target.gif","[""img/Fire_Up_Distractor.gif"",""img/Fire_Up_Distractor.gif"",""img/Fire_Up_Distractor.gif"",""img/Fire_Up_Distractor.gif"",""img/Fire_Up_Distractor.gif"",""img/Fire_Up_Distractor.gif"",""img/Fire_Up_Distractor.gif"",""img/Fire_Up_Distractor.gif"",""img/Fire_Up_Distractor.gif"",""img/Fire_Up_Distractor.gif"",""img/Fire_Up_Distractor.gif"",""img/Fire_Up_Distractor.gif""]","targetDown_distractorsUp"
"","","","","","html-keyboard-response","42","113559","0.0-14.0-0.0-0.14","6156878f1a73eec2378ae3bd","6186fb1cc52d38b480598eb7","618731a5ad3fdffde6315ecd","null","","null","","","","","fixation","","","",""
"","","","","","visual-search-circle","43","116364","0.0-14.0-0.0-1.14","6156878f1a73eec2378ae3bd","6186fb1cc52d38b480598eb7","618731a5ad3fdffde6315ecd","1798.2999999523163","","d","false","[[23,182],[60,480],[336,597],[576,417],[539,119],[263,2]]","false","6","","","img/Fire_Up_Target.gif","[""img/Fire_Down_Distractor.gif"",""img/Fire_Down_Distractor.gif"",""img/Fire_Down_Distractor.gif"",""img/Fire_Down_Distractor.gif"",""img/Fire_Down_Distractor.gif"",""img/Fire_Down_Distractor.gif"",""img/Fire_Down_Distractor.gif"",""img/Fire_Down_Distractor.gif"",""img/Fire_Down_Distractor.gif"",""img/Fire_Down_Distractor.gif"",""img/Fire_Down_Distractor.gif"",""img/Fire_Down_Distractor.gif""]","targetUp_distractorsDown"
"","","","","","html-keyboard-response","44","116366","0.0-14.0-0.0-0.15","6156878f1a73eec2378ae3bd","6186fb1cc52d38b480598eb7","618731a5ad3fdffde6315ecd","null","","null","","","","","fixation","","","",""
"","","","","","visual-search-circle","45","119594","0.0-14.0-0.0-1.15","6156878f1a73eec2378ae3bd","6186fb1cc52d38b480598eb7","618731a5ad3fdffde6315ecd","2217.3000000715256","","d","false","[[596,253],[476,57],[253,3],[57,123],[3,346],[123,542],[346,596],[542,476]]","false","8","","","img/Fire_Up_Target.gif","[""img/Fire_Down_Distractor.gif"",""img/Fire_Down_Distractor.gif"",""img/Fire_Down_Distractor.gif"",""img/Fire_Down_Distractor.gif"",""img/Fire_Down_Distractor.gif"",""img/Fire_Down_Distractor.gif"",""img/Fire_Down_Distractor.gif"",""img/Fire_Down_Distractor.gif"",""img/Fire_Down_Distractor.gif"",""img/Fire_Down_Distractor.gif"",""img/Fire_Down_Distractor.gif"",""img/Fire_Down_Distractor.gif""]","targetUp_distractorsDown"
"","","","","","html-keyboard-response","46","119596","0.0-14.0-0.0-0.16","6156878f1a73eec2378ae3bd","6186fb1cc52d38b480598eb7","618731a5ad3fdffde6315ecd","null","","null","","","","","fixation","","","",""
"","","","","","visual-search-circle","47","123098","0.0-14.0-0.0-1.16","6156878f1a73eec2378ae3bd","6186fb1cc52d38b480598eb7","618731a5ad3fdffde6315ecd","2491.2999999523163","","d","true","[[372,591],[572,424],[567,164],[360,6],[108,69],[0,305],[117,538]]","true","7","","","img/Fire_Down_Target.gif","[""img/Fire_Up_Distractor.gif"",""img/Fire_Up_Distractor.gif"",""img/Fire_Up_Distractor.gif"",""img/Fire_Up_Distractor.gif"",""img/Fire_Up_Distractor.gif"",""img/Fire_Up_Distractor.gif"",""img/Fire_Up_Distractor.gif"",""img/Fire_Up_Distractor.gif"",""img/Fire_Up_Distractor.gif"",""img/Fire_Up_Distractor.gif"",""img/Fire_Up_Distractor.gif"",""img/Fire_Up_Distractor.gif""]","targetDown_distractorsUp"
"","","","","","html-keyboard-response","48","123103","0.0-14.0-0.0-0.17","6156878f1a73eec2378ae3bd","6186fb1cc52d38b480598eb7","618731a5ad3fdffde6315ecd","null","","null","","","","","fixation","","","",""
"","","","","","visual-search-circle","49","125081","0.0-14.0-0.0-1.17","6156878f1a73eec2378ae3bd","6186fb1cc52d38b480598eb7","618731a5ad3fdffde6315ecd","969.7999999523163","","s","true","[[237,593],[490,531],[599,295],[483,62],[228,8],[27,173],[31,434]]","false","7","","","img/Fire_Down_Target.gif","[""img/Fire_Up_Distractor.gif"",""img/Fire_Up_Distractor.gif"",""img/Fire_Up_Distractor.gif"",""img/Fire_Up_Distractor.gif"",""img/Fire_Up_Distractor.gif"",""img/Fire_Up_Distractor.gif"",""img/Fire_Up_Distractor.gif"",""img/Fire_Up_Distractor.gif"",""img/Fire_Up_Distractor.gif"",""img/Fire_Up_Distractor.gif"",""img/Fire_Up_Distractor.gif"",""img/Fire_Up_Distractor.gif""]","targetDown_distractorsUp"
"","","","","","html-keyboard-response","50","125083","0.0-14.0-0.0-0.18","6156878f1a73eec2378ae3bd","6186fb1cc52d38b480598eb7","618731a5ad3fdffde6315ecd","null","","null","","","","","fixation","","","",""
"","","","","","visual-search-circle","51","127542","0.0-14.0-0.0-1.18","6156878f1a73eec2378ae3bd","6186fb1cc52d38b480598eb7","618731a5ad3fdffde6315ecd","1445.7999999523163","","s","true","[[591,372],[458,45],[107,70],[21,412],[320,599]]","false","5","","","img/Fire_Down_Target.gif","[""img/Fire_Up_Distractor.gif"",""img/Fire_Up_Distractor.gif"",""img/Fire_Up_Distractor.gif"",""img/Fire_Up_Distractor.gif"",""img/Fire_Up_Distractor.gif"",""img/Fire_Up_Distractor.gif"",""img/Fire_Up_Distractor.gif"",""img/Fire_Up_Distractor.gif"",""img/Fire_Up_Distractor.gif"",""img/Fire_Up_Distractor.gif"",""img/Fire_Up_Distractor.gif"",""img/Fire_Up_Distractor.gif""]","targetDown_distractorsUp"
"","","","","","html-keyboard-response","52","129962","0.0-14.0-0.0-0.19","6156878f1a73eec2378ae3bd","6186fb1cc52d38b480598eb7","618731a5ad3fdffde6315ecd","2419.1999999284744","Wow! You've completed 20 out of 120 trials! </p> <p>  </p><p> Take a quick break, then press any key when you're ready to continue."," ","","","","","fixation","","","",""
"","","","","","visual-search-circle","53","134061","0.0-14.0-0.0-1.19","6156878f1a73eec2378ae3bd","6186fb1cc52d38b480598eb7","618731a5ad3fdffde6315ecd","3092.100000023842","","d","false","[[115,536],[369,591],[571,427],[568,167],[363,6],[110,67],[0,302]]","false","7","","","img/Fire_Up_Target.gif","[""img/Fire_Down_Distractor.gif"",""img/Fire_Down_Distractor.gif"",""img/Fire_Down_Distractor.gif"",""img/Fire_Down_Distractor.gif"",""img/Fire_Down_Distractor.gif"",""img/Fire_Down_Distractor.gif"",""img/Fire_Down_Distractor.gif"",""img/Fire_Down_Distractor.gif"",""img/Fire_Down_Distractor.gif"",""img/Fire_Down_Distractor.gif"",""img/Fire_Down_Distractor.gif"",""img/Fire_Down_Distractor.gif""]","targetUp_distractorsDown"
"","","","","","html-keyboard-response","54","134064","0.0-14.0-0.0-0.20","6156878f1a73eec2378ae3bd","6186fb1cc52d38b480598eb7","618731a5ad3fdffde6315ecd","null","","null","","","","","fixation","","","",""
"","","","","","visual-search-circle","55","135979","0.0-14.0-0.0-1.20","6156878f1a73eec2378ae3bd","6186fb1cc52d38b480598eb7","618731a5ad3fdffde6315ecd","902.6000000238419","","d","false","[[37,154],[154,562],[562,445],[445,37]]","false","4","","","img/Fire_Up_Target.gif","[""img/Fire_Down_Distractor.gif"",""img/Fire_Down_Distractor.gif"",""img/Fire_Down_Distractor.gif"",""img/Fire_Down_Distractor.gif"",""img/Fire_Down_Distractor.gif"",""img/Fire_Down_Distractor.gif"",""img/Fire_Down_Distractor.gif"",""img/Fire_Down_Distractor.gif"",""img/Fire_Down_Distractor.gif"",""img/Fire_Down_Distractor.gif"",""img/Fire_Down_Distractor.gif"",""img/Fire_Down_Distractor.gif""]","targetUp_distractorsDown"
"","","","","","html-keyboard-response","56","135985","0.0-14.0-0.0-0.21","6156878f1a73eec2378ae3bd","6186fb1cc52d38b480598eb7","618731a5ad3fdffde6315ecd","null","","null","","","","","fixation","","","",""
"","","","","","visual-search-circle","57","138935","0.0-14.0-0.0-1.21","6156878f1a73eec2378ae3bd","6186fb1cc52d38b480598eb7","618731a5ad3fdffde6315ecd","1932.7999999523163","","d","false","[[127,54],[13,387],[294,599],[583,397],[480,60]]","false","5","","","img/Fire_Up_Target.gif","[""img/Fire_Down_Distractor.gif"",""img/Fire_Down_Distractor.gif"",""img/Fire_Down_Distractor.gif"",""img/Fire_Down_Distractor.gif"",""img/Fire_Down_Distractor.gif"",""img/Fire_Down_Distractor.gif"",""img/Fire_Down_Distractor.gif"",""img/Fire_Down_Distractor.gif"",""img/Fire_Down_Distractor.gif"",""img/Fire_Down_Distractor.gif"",""img/Fire_Down_Distractor.gif"",""img/Fire_Down_Distractor.gif""]","targetUp_distractorsDown"
"","","","","","html-keyboard-response","58","138937","0.0-14.0-0.0-0.22","6156878f1a73eec2378ae3bd","6186fb1cc52d38b480598eb7","618731a5ad3fdffde6315ecd","null","","null","","","","","fixation","","","",""
"","","","","","visual-search-circle","59","141556","0.0-14.0-0.0-1.22","6156878f1a73eec2378ae3bd","6186fb1cc52d38b480598eb7","618731a5ad3fdffde6315ecd","1602.6999999284744","","d","true","[[545,127],[212,13],[0,294],[202,583],[539,480]]","true","5","","","img/Fire_Down_Target.gif","[""img/Fire_Up_Distractor.gif"",""img/Fire_Up_Distractor.gif"",""img/Fire_Up_Distractor.gif"",""img/Fire_Up_Distractor.gif"",""img/Fire_Up_Distractor.gif"",""img/Fire_Up_Distractor.gif"",""img/Fire_Up_Distractor.gif"",""img/Fire_Up_Distractor.gif"",""img/Fire_Up_Distractor.gif"",""img/Fire_Up_Distractor.gif"",""img/Fire_Up_Distractor.gif"",""img/Fire_Up_Distractor.gif""]","targetDown_distractorsUp"
"","","","","","html-keyboard-response","60","141559","0.0-14.0-0.0-0.23","6156878f1a73eec2378ae3bd","6186fb1cc52d38b480598eb7","618731a5ad3fdffde6315ecd","null","","null","","","","","fixation","","","",""
"","","","","","visual-search-circle","61","143083","0.0-14.0-0.0-1.23","6156878f1a73eec2378ae3bd","6186fb1cc52d38b480598eb7","618731a5ad3fdffde6315ecd","518.6999999284744","","s","true","[[557,145],[294,0],[37,154],[42,454],[305,599],[562,445]]","false","6","","","img/Fire_Down_Target.gif","[""img/Fire_Up_Distractor.gif"",""img/Fire_Up_Distractor.gif"",""img/Fire_Up_Distractor.gif"",""img/Fire_Up_Distractor.gif"",""img/Fire_Up_Distractor.gif"",""img/Fire_Up_Distractor.gif"",""img/Fire_Up_Distractor.gif"",""img/Fire_Up_Distractor.gif"",""img/Fire_Up_Distractor.gif"",""img/Fire_Up_Distractor.gif"",""img/Fire_Up_Distractor.gif"",""img/Fire_Up_Distractor.gif""]","targetDown_distractorsUp"
"","","","","","html-keyboard-response","62","143085","0.0-14.0-0.0-0.24","6156878f1a73eec2378ae3bd","6186fb1cc52d38b480598eb7","618731a5ad3fdffde6315ecd","null","","null","","","","","fixation","","","",""
"","","","","","visual-search-circle","63","145023","0.0-14.0-0.0-1.24","6156878f1a73eec2378ae3bd","6186fb1cc52d38b480598eb7","618731a5ad3fdffde6315ecd","926.7999999523163","","s","true","[[533,488],[551,136],[222,10],[0,284],[192,580]]","false","5","","","img/Fire_Down_Target.gif","[""img/Fire_Up_Distractor.gif"",""img/Fire_Up_Distractor.gif"",""img/Fire_Up_Distractor.gif"",""img/Fire_Up_Distractor.gif"",""img/Fire_Up_Distractor.gif"",""img/Fire_Up_Distractor.gif"",""img/Fire_Up_Distractor.gif"",""img/Fire_Up_Distractor.gif"",""img/Fire_Up_Distractor.gif"",""img/Fire_Up_Distractor.gif"",""img/Fire_Up_Distractor.gif"",""img/Fire_Up_Distractor.gif""]","targetDown_distractorsUp"
"","","","","","html-keyboard-response","64","145026","0.0-14.0-0.0-0.25","6156878f1a73eec2378ae3bd","6186fb1cc52d38b480598eb7","618731a5ad3fdffde6315ecd","null","","null","","","","","fixation","","","",""
"","","","","","visual-search-circle","65","146859","0.0-14.0-0.0-1.25","6156878f1a73eec2378ae3bd","6186fb1cc52d38b480598eb7","618731a5ad3fdffde6315ecd","822.4000000953674","","d","false","[[40,450],[299,600],[559,450],[559,150],[300,0],[40,150]]","false","6","","","img/Fire_Up_Target.gif","[""img/Fire_Down_Distractor.gif"",""img/Fire_Down_Distractor.gif"",""img/Fire_Down_Distractor.gif"",""img/Fire_Down_Distractor.gif"",""img/Fire_Down_Distractor.gif"",""img/Fire_Down_Distractor.gif"",""img/Fire_Down_Distractor.gif"",""img/Fire_Down_Distractor.gif"",""img/Fire_Down_Distractor.gif"",""img/Fire_Down_Distractor.gif"",""img/Fire_Down_Distractor.gif"",""img/Fire_Down_Distractor.gif""]","targetUp_distractorsDown"
"","","","","","html-keyboard-response","66","146860","0.0-14.0-0.0-0.26","6156878f1a73eec2378ae3bd","6186fb1cc52d38b480598eb7","618731a5ad3fdffde6315ecd","null","","null","","","","","fixation","","","",""
"","","","","","visual-search-circle","67","148612","0.0-14.0-0.0-1.26","6156878f1a73eec2378ae3bd","6186fb1cc52d38b480598eb7","618731a5ad3fdffde6315ecd","749.0999999046326","","d","true","[[21,187],[23,417],[187,578],[417,576],[578,412],[576,182],[412,21],[182,23]]","true","8","","","img/Fire_Up_Target.gif","[""img/Fire_Down_Distractor.gif"",""img/Fire_Down_Distractor.gif"",""img/Fire_Down_Distractor.gif"",""img/Fire_Down_Distractor.gif"",""img/Fire_Down_Distractor.gif"",""img/Fire_Down_Distractor.gif"",""img/Fire_Down_Distractor.gif"",""img/Fire_Down_Distractor.gif"",""img/Fire_Down_Distractor.gif"",""img/Fire_Down_Distractor.gif"",""img/Fire_Down_Distractor.gif"",""img/Fire_Down_Distractor.gif""]","targetUp_distractorsDown"
"","","","","","html-keyboard-response","68","148614","0.0-14.0-0.0-0.27","6156878f1a73eec2378ae3bd","6186fb1cc52d38b480598eb7","618731a5ad3fdffde6315ecd","null","","null","","","","","fixation","","","",""
"","","","","","visual-search-circle","69","151074","0.0-14.0-0.0-1.27","6156878f1a73eec2378ae3bd","6186fb1cc52d38b480598eb7","618731a5ad3fdffde6315ecd","1445.8999999761581","","d","true","[[40,450],[255,596],[504,519],[599,277],[468,52],[211,13],[20,190]]","true","7","","","img/Fire_Down_Target.gif","[""img/Fire_Up_Distractor.gif"",""img/Fire_Up_Distractor.gif"",""img/Fire_Up_Distractor.gif"",""img/Fire_Up_Distractor.gif"",""img/Fire_Up_Distractor.gif"",""img/Fire_Up_Distractor.gif"",""img/Fire_Up_Distractor.gif"",""img/Fire_Up_Distractor.gif"",""img/Fire_Up_Distractor.gif"",""img/Fire_Up_Distractor.gif"",""img/Fire_Up_Distractor.gif"",""img/Fire_Up_Distractor.gif""]","targetDown_distractorsUp"
"","","","","","html-keyboard-response","70","151078","0.0-14.0-0.0-0.28","6156878f1a73eec2378ae3bd","6186fb1cc52d38b480598eb7","618731a5ad3fdffde6315ecd","null","","null","","","","","fixation","","","",""
"","","","","","visual-search-circle","71","152721","0.0-14.0-0.0-1.28","6156878f1a73eec2378ae3bd","6186fb1cc52d38b480598eb7","618731a5ad3fdffde6315ecd","627.7999999523163","","s","false","[[480,60],[182,23],[2,263],[119,539],[417,576],[597,336]]","true","6","","","img/Fire_Down_Target.gif","[""img/Fire_Up_Distractor.gif"",""img/Fire_Up_Distractor.gif"",""img/Fire_Up_Distractor.gif"",""img/Fire_Up_Distractor.gif"",""img/Fire_Up_Distractor.gif"",""img/Fire_Up_Distractor.gif"",""img/Fire_Up_Distractor.gif"",""img/Fire_Up_Distractor.gif"",""img/Fire_Up_Distractor.gif"",""img/Fire_Up_Distractor.gif"",""img/Fire_Up_Distractor.gif"",""img/Fire_Up_Distractor.gif""]","targetDown_distractorsUp"
"","","","","","html-keyboard-response","72","152722","0.0-14.0-0.0-0.29","6156878f1a73eec2378ae3bd","6186fb1cc52d38b480598eb7","618731a5ad3fdffde6315ecd","null","","null","","","","","fixation","","","",""
"","","","","","visual-search-circle","73","155053","0.0-14.0-0.0-1.29","6156878f1a73eec2378ae3bd","6186fb1cc52d38b480598eb7","618731a5ad3fdffde6315ecd","1316.7999999523163","","d","true","[[504,80],[256,3],[40,149],[20,408],[210,586],[468,548],[599,323]]","true","7","","","img/Fire_Up_Target.gif","[""img/Fire_Down_Distractor.gif"",""img/Fire_Down_Distractor.gif"",""img/Fire_Down_Distractor.gif"",""img/Fire_Down_Distractor.gif"",""img/Fire_Down_Distractor.gif"",""img/Fire_Down_Distractor.gif"",""img/Fire_Down_Distractor.gif"",""img/Fire_Down_Distractor.gif"",""img/Fire_Down_Distractor.gif"",""img/Fire_Down_Distractor.gif"",""img/Fire_Down_Distractor.gif"",""img/Fire_Down_Distractor.gif""]","targetUp_distractorsDown"
"","","","","","html-keyboard-response","74","155055","0.0-14.0-0.0-0.30","6156878f1a73eec2378ae3bd","6186fb1cc52d38b480598eb7","618731a5ad3fdffde6315ecd","null","","null","","","","","fixation","","","",""
"","","","","","visual-search-circle","75","156963","0.0-14.0-0.0-1.30","6156878f1a73eec2378ae3bd","6186fb1cc52d38b480598eb7","618731a5ad3fdffde6315ecd","895.1000000238419","","d","true","[[357,594],[594,242],[242,5],[5,357]]","true","4","","","img/Fire_Down_Target.gif","[""img/Fire_Up_Distractor.gif"",""img/Fire_Up_Distractor.gif"",""img/Fire_Up_Distractor.gif"",""img/Fire_Up_Distractor.gif"",""img/Fire_Up_Distractor.gif"",""img/Fire_Up_Distractor.gif"",""img/Fire_Up_Distractor.gif"",""img/Fire_Up_Distractor.gif"",""img/Fire_Up_Distractor.gif"",""img/Fire_Up_Distractor.gif"",""img/Fire_Up_Distractor.gif"",""img/Fire_Up_Distractor.gif""]","targetDown_distractorsUp"
"","","","","","html-keyboard-response","76","156965","0.0-14.0-0.0-0.31","6156878f1a73eec2378ae3bd","6186fb1cc52d38b480598eb7","618731a5ad3fdffde6315ecd","null","","null","","","","","fixation","","","",""
"","","","","","visual-search-circle","77","160228","0.0-14.0-0.0-1.31","6156878f1a73eec2378ae3bd","6186fb1cc52d38b480598eb7","618731a5ad3fdffde6315ecd","2258","","s","true","[[557,454],[454,42],[42,145],[145,557]]","false","4","","","img/Fire_Up_Target.gif","[""img/Fire_Down_Distractor.gif"",""img/Fire_Down_Distractor.gif"",""img/Fire_Down_Distractor.gif"",""img/Fire_Down_Distractor.gif"",""img/Fire_Down_Distractor.gif"",""img/Fire_Down_Distractor.gif"",""img/Fire_Down_Distractor.gif"",""img/Fire_Down_Distractor.gif"",""img/Fire_Down_Distractor.gif"",""img/Fire_Down_Distractor.gif"",""img/Fire_Down_Distractor.gif"",""img/Fire_Down_Distractor.gif""]","targetUp_distractorsDown"
"","","","","","html-keyboard-response","78","160230","0.0-14.0-0.0-0.32","6156878f1a73eec2378ae3bd","6186fb1cc52d38b480598eb7","618731a5ad3fdffde6315ecd","null","","null","","","","","fixation","","","",""
"","","","","","visual-search-circle","79","164495","0.0-14.0-0.0-1.32","6156878f1a73eec2378ae3bd","6186fb1cc52d38b480598eb7","618731a5ad3fdffde6315ecd","3261.100000023842","","d","true","[[533,488],[551,136],[222,10],[0,284],[192,580]]","true","5","","","img/Fire_Up_Target.gif","[""img/Fire_Down_Distractor.gif"",""img/Fire_Down_Distractor.gif"",""img/Fire_Down_Distractor.gif"",""img/Fire_Down_Distractor.gif"",""img/Fire_Down_Distractor.gif"",""img/Fire_Down_Distractor.gif"",""img/Fire_Down_Distractor.gif"",""img/Fire_Down_Distractor.gif"",""img/Fire_Down_Distractor.gif"",""img/Fire_Down_Distractor.gif"",""img/Fire_Down_Distractor.gif"",""img/Fire_Down_Distractor.gif""]","targetUp_distractorsDown"
"","","","","","html-keyboard-response","80","164496","0.0-14.0-0.0-0.33","6156878f1a73eec2378ae3bd","6186fb1cc52d38b480598eb7","618731a5ad3fdffde6315ecd","null","","null","","","","","fixation","","","",""
"","","","","","visual-search-circle","81","166940","0.0-14.0-0.0-1.33","6156878f1a73eec2378ae3bd","6186fb1cc52d38b480598eb7","618731a5ad3fdffde6315ecd","1440.8999999761581","","s","true","[[237,6],[6,362],[362,593],[593,237]]","false","4","","","img/Fire_Up_Target.gif","[""img/Fire_Down_Distractor.gif"",""img/Fire_Down_Distractor.gif"",""img/Fire_Down_Distractor.gif"",""img/Fire_Down_Distractor.gif"",""img/Fire_Down_Distractor.gif"",""img/Fire_Down_Distractor.gif"",""img/Fire_Down_Distractor.gif"",""img/Fire_Down_Distractor.gif"",""img/Fire_Down_Distractor.gif"",""img/Fire_Down_Distractor.gif"",""img/Fire_Down_Distractor.gif"",""img/Fire_Down_Distractor.gif""]","targetUp_distractorsDown"
"","","","","","html-keyboard-response","82","166942","0.0-14.0-0.0-0.34","6156878f1a73eec2378ae3bd","6186fb1cc52d38b480598eb7","618731a5ad3fdffde6315ecd","null","","null","","","","","fixation","","","",""
"","","","","","visual-search-circle","83","168965","0.0-14.0-0.0-1.34","6156878f1a73eec2378ae3bd","6186fb1cc52d38b480598eb7","618731a5ad3fdffde6315ecd","1008.1000000238419","","d","true","[[242,5],[16,202],[73,496],[357,594],[583,397],[526,103]]","true","6","","","img/Fire_Up_Target.gif","[""img/Fire_Down_Distractor.gif"",""img/Fire_Down_Distractor.gif"",""img/Fire_Down_Distractor.gif"",""img/Fire_Down_Distractor.gif"",""img/Fire_Down_Distractor.gif"",""img/Fire_Down_Distractor.gif"",""img/Fire_Down_Distractor.gif"",""img/Fire_Down_Distractor.gif"",""img/Fire_Down_Distractor.gif"",""img/Fire_Down_Distractor.gif"",""img/Fire_Down_Distractor.gif"",""img/Fire_Down_Distractor.gif""]","targetUp_distractorsDown"
"","","","","","html-keyboard-response","84","168968","0.0-14.0-0.0-0.35","6156878f1a73eec2378ae3bd","6186fb1cc52d38b480598eb7","618731a5ad3fdffde6315ecd","null","","null","","","","","fixation","","","",""
"","","","","","visual-search-circle","85","171124","0.0-14.0-0.0-1.35","6156878f1a73eec2378ae3bd","6186fb1cc52d38b480598eb7","618731a5ad3fdffde6315ecd","1151.3000000715256","","d","true","[[551,136],[329,1],[84,91],[2,338],[144,556],[403,581],[584,394]]","true","7","","","img/Fire_Down_Target.gif","[""img/Fire_Up_Distractor.gif"",""img/Fire_Up_Distractor.gif"",""img/Fire_Up_Distractor.gif"",""img/Fire_Up_Distractor.gif"",""img/Fire_Up_Distractor.gif"",""img/Fire_Up_Distractor.gif"",""img/Fire_Up_Distractor.gif"",""img/Fire_Up_Distractor.gif"",""img/Fire_Up_Distractor.gif"",""img/Fire_Up_Distractor.gif"",""img/Fire_Up_Distractor.gif"",""img/Fire_Up_Distractor.gif""]","targetDown_distractorsUp"
"","","","","","html-keyboard-response","86","171126","0.0-14.0-0.0-0.36","6156878f1a73eec2378ae3bd","6186fb1cc52d38b480598eb7","618731a5ad3fdffde6315ecd","null","","null","","","","","fixation","","","",""
"","","","","","visual-search-circle","87","172768","0.0-14.0-0.0-1.36","6156878f1a73eec2378ae3bd","6186fb1cc52d38b480598eb7","618731a5ad3fdffde6315ecd","628.6999999284744","","s","true","[[571,426],[426,28],[28,173],[173,571]]","false","4","","","img/Fire_Down_Target.gif","[""img/Fire_Up_Distractor.gif"",""img/Fire_Up_Distractor.gif"",""img/Fire_Up_Distractor.gif"",""img/Fire_Up_Distractor.gif"",""img/Fire_Up_Distractor.gif"",""img/Fire_Up_Distractor.gif"",""img/Fire_Up_Distractor.gif"",""img/Fire_Up_Distractor.gif"",""img/Fire_Up_Distractor.gif"",""img/Fire_Up_Distractor.gif"",""img/Fire_Up_Distractor.gif"",""img/Fire_Up_Distractor.gif""]","targetDown_distractorsUp"
"","","","","","html-keyboard-response","88","172771","0.0-14.0-0.0-0.37","6156878f1a73eec2378ae3bd","6186fb1cc52d38b480598eb7","618731a5ad3fdffde6315ecd","null","","null","","","","","fixation","","","",""
"","","","","","visual-search-circle","89","174820","0.0-14.0-0.0-1.37","6156878f1a73eec2378ae3bd","6186fb1cc52d38b480598eb7","618731a5ad3fdffde6315ecd","1039.3000000715256","","d","true","[[585,207],[300,0],[14,207],[123,542],[476,542]]","true","5","","","img/Fire_Down_Target.gif","[""img/Fire_Up_Distractor.gif"",""img/Fire_Up_Distractor.gif"",""img/Fire_Up_Distractor.gif"",""img/Fire_Up_Distractor.gif"",""img/Fire_Up_Distractor.gif"",""img/Fire_Up_Distractor.gif"",""img/Fire_Up_Distractor.gif"",""img/Fire_Up_Distractor.gif"",""img/Fire_Up_Distractor.gif"",""img/Fire_Up_Distractor.gif"",""img/Fire_Up_Distractor.gif"",""img/Fire_Up_Distractor.gif""]","targetDown_distractorsUp"
"","","","","","html-keyboard-response","90","174822","0.0-14.0-0.0-0.38","6156878f1a73eec2378ae3bd","6186fb1cc52d38b480598eb7","618731a5ad3fdffde6315ecd","null","","null","","","","","fixation","","","",""
"","","","","","visual-search-circle","91","176591","0.0-14.0-0.0-1.38","6156878f1a73eec2378ae3bd","6186fb1cc52d38b480598eb7","618731a5ad3fdffde6315ecd","760","","d","true","[[431,30],[84,91],[35,440],[352,595],[597,341]]","true","5","","","img/Fire_Down_Target.gif","[""img/Fire_Up_Distractor.gif"",""img/Fire_Up_Distractor.gif"",""img/Fire_Up_Distractor.gif"",""img/Fire_Up_Distractor.gif"",""img/Fire_Up_Distractor.gif"",""img/Fire_Up_Distractor.gif"",""img/Fire_Up_Distractor.gif"",""img/Fire_Up_Distractor.gif"",""img/Fire_Up_Distractor.gif"",""img/Fire_Up_Distractor.gif"",""img/Fire_Up_Distractor.gif"",""img/Fire_Up_Distractor.gif""]","targetDown_distractorsUp"
"","","","","","html-keyboard-response","92","178887","0.0-14.0-0.0-0.39","6156878f1a73eec2378ae3bd","6186fb1cc52d38b480598eb7","618731a5ad3fdffde6315ecd","2295.7000000476837","Wow! You've completed 40 out of 120 trials! </p> <p>  </p><p> Take a quick break, then press any key when you're ready to continue."," ","","","","","fixation","","","",""
"","","","","","visual-search-circle","93","180589","0.0-14.0-0.0-1.39","6156878f1a73eec2378ae3bd","6186fb1cc52d38b480598eb7","618731a5ad3fdffde6315ecd","694.7999999523163","","d","true","[[1,273],[70,492],[273,598],[492,529],[598,326],[529,107],[326,1],[107,70]]","true","8","","","img/Fire_Down_Target.gif","[""img/Fire_Up_Distractor.gif"",""img/Fire_Up_Distractor.gif"",""img/Fire_Up_Distractor.gif"",""img/Fire_Up_Distractor.gif"",""img/Fire_Up_Distractor.gif"",""img/Fire_Up_Distractor.gif"",""img/Fire_Up_Distractor.gif"",""img/Fire_Up_Distractor.gif"",""img/Fire_Up_Distractor.gif"",""img/Fire_Up_Distractor.gif"",""img/Fire_Up_Distractor.gif"",""img/Fire_Up_Distractor.gif""]","targetDown_distractorsUp"
"","","","","","html-keyboard-response","94","180590","0.0-14.0-0.0-0.40","6156878f1a73eec2378ae3bd","6186fb1cc52d38b480598eb7","618731a5ad3fdffde6315ecd","null","","null","","","","","fixation","","","",""
"","","","","","visual-search-circle","95","182649","0.0-14.0-0.0-1.40","6156878f1a73eec2378ae3bd","6186fb1cc52d38b480598eb7","618731a5ad3fdffde6315ecd","1052.7000000476837","","s","true","[[10,377],[284,599],[580,407],[488,66],[136,48]]","false","5","","","img/Fire_Down_Target.gif","[""img/Fire_Up_Distractor.gif"",""img/Fire_Up_Distractor.gif"",""img/Fire_Up_Distractor.gif"",""img/Fire_Up_Distractor.gif"",""img/Fire_Up_Distractor.gif"",""img/Fire_Up_Distractor.gif"",""img/Fire_Up_Distractor.gif"",""img/Fire_Up_Distractor.gif"",""img/Fire_Up_Distractor.gif"",""img/Fire_Up_Distractor.gif"",""img/Fire_Up_Distractor.gif"",""img/Fire_Up_Distractor.gif""]","targetDown_distractorsUp"
"","","","","","html-keyboard-response","96","182651","0.0-14.0-0.0-0.41","6156878f1a73eec2378ae3bd","6186fb1cc52d38b480598eb7","618731a5ad3fdffde6315ecd","null","","null","","","","","fixation","","","",""
"","","","","","visual-search-circle","97","184439","0.0-14.0-0.0-1.41","6156878f1a73eec2378ae3bd","6186fb1cc52d38b480598eb7","618731a5ad3fdffde6315ecd","779.2999999523163","","d","true","[[484,63],[132,51],[11,382],[289,599],[581,402]]","true","5","","","img/Fire_Down_Target.gif","[""img/Fire_Up_Distractor.gif"",""img/Fire_Up_Distractor.gif"",""img/Fire_Up_Distractor.gif"",""img/Fire_Up_Distractor.gif"",""img/Fire_Up_Distractor.gif"",""img/Fire_Up_Distractor.gif"",""img/Fire_Up_Distractor.gif"",""img/Fire_Up_Distractor.gif"",""img/Fire_Up_Distractor.gif"",""img/Fire_Up_Distractor.gif"",""img/Fire_Up_Distractor.gif"",""img/Fire_Up_Distractor.gif""]","targetDown_distractorsUp"
"","","","","","html-keyboard-response","98","184441","0.0-14.0-0.0-0.42","6156878f1a73eec2378ae3bd","6186fb1cc52d38b480598eb7","618731a5ad3fdffde6315ecd","null","","null","","","","","fixation","","","",""
"","","","","","visual-search-circle","99","186474","0.0-14.0-0.0-1.42","6156878f1a73eec2378ae3bd","6186fb1cc52d38b480598eb7","618731a5ad3fdffde6315ecd","1017.3000000715256","","s","true","[[1,331],[138,552],[396,583],[582,401],[555,142],[335,2],[89,86]]","false","7","","","img/Fire_Up_Target.gif","[""img/Fire_Down_Distractor.gif"",""img/Fire_Down_Distractor.gif"",""img/Fire_Down_Distractor.gif"",""img/Fire_Down_Distractor.gif"",""img/Fire_Down_Distractor.gif"",""img/Fire_Down_Distractor.gif"",""img/Fire_Down_Distractor.gif"",""img/Fire_Down_Distractor.gif"",""img/Fire_Down_Distractor.gif"",""img/Fire_Down_Distractor.gif"",""img/Fire_Down_Distractor.gif"",""img/Fire_Down_Distractor.gif""]","targetUp_distractorsDown"
"","","","","","html-keyboard-response","100","186475","0.0-14.0-0.0-0.43","6156878f1a73eec2378ae3bd","6186fb1cc52d38b480598eb7","618731a5ad3fdffde6315ecd","null","","null","","","","","fixation","","","",""
"","","","","","visual-search-circle","101","190151","0.0-14.0-0.0-1.43","6156878f1a73eec2378ae3bd","6186fb1cc52d38b480598eb7","618731a5ad3fdffde6315ecd","2664.899999976158","","s","true","[[4,247],[159,564],[508,515],[569,168],[258,2]]","false","5","","","img/Fire_Up_Target.gif","[""img/Fire_Down_Distractor.gif"",""img/Fire_Down_Distractor.gif"",""img/Fire_Down_Distractor.gif"",""img/Fire_Down_Distractor.gif"",""img/Fire_Down_Distractor.gif"",""img/Fire_Down_Distractor.gif"",""img/Fire_Down_Distractor.gif"",""img/Fire_Down_Distractor.gif"",""img/Fire_Down_Distractor.gif"",""img/Fire_Down_Distractor.gif"",""img/Fire_Down_Distractor.gif"",""img/Fire_Down_Distractor.gif""]","targetUp_distractorsDown"
"","","","","","html-keyboard-response","102","190154","0.0-14.0-0.0-0.44","6156878f1a73eec2378ae3bd","6186fb1cc52d38b480598eb7","618731a5ad3fdffde6315ecd","null","","null","","","","","fixation","","","",""
"","","","","","visual-search-circle","103","191840","0.0-14.0-0.0-1.44","6156878f1a73eec2378ae3bd","6186fb1cc52d38b480598eb7","618731a5ad3fdffde6315ecd","668.3999999761581","","d","true","[[99,522],[522,500],[500,77],[77,99]]","true","4","","","img/Fire_Up_Target.gif","[""img/Fire_Down_Distractor.gif"",""img/Fire_Down_Distractor.gif"",""img/Fire_Down_Distractor.gif"",""img/Fire_Down_Distractor.gif"",""img/Fire_Down_Distractor.gif"",""img/Fire_Down_Distractor.gif"",""img/Fire_Down_Distractor.gif"",""img/Fire_Down_Distractor.gif"",""img/Fire_Down_Distractor.gif"",""img/Fire_Down_Distractor.gif"",""img/Fire_Down_Distractor.gif"",""img/Fire_Down_Distractor.gif""]","targetUp_distractorsDown"
"","","","","","html-keyboard-response","104","191844","0.0-14.0-0.0-0.45","6156878f1a73eec2378ae3bd","6186fb1cc52d38b480598eb7","618731a5ad3fdffde6315ecd","null","","null","","","","","fixation","","","",""
"","","","","","visual-search-circle","105","194032","0.0-14.0-0.0-1.45","6156878f1a73eec2378ae3bd","6186fb1cc52d38b480598eb7","618731a5ad3fdffde6315ecd","1185.3000000715256","","d","true","[[111,533],[533,488],[488,66],[66,111]]","true","4","","","img/Fire_Down_Target.gif","[""img/Fire_Up_Distractor.gif"",""img/Fire_Up_Distractor.gif"",""img/Fire_Up_Distractor.gif"",""img/Fire_Up_Distractor.gif"",""img/Fire_Up_Distractor.gif"",""img/Fire_Up_Distractor.gif"",""img/Fire_Up_Distractor.gif"",""img/Fire_Up_Distractor.gif"",""img/Fire_Up_Distractor.gif"",""img/Fire_Up_Distractor.gif"",""img/Fire_Up_Distractor.gif"",""img/Fire_Up_Distractor.gif""]","targetDown_distractorsUp"
"","","","","","html-keyboard-response","106","194034","0.0-14.0-0.0-0.46","6156878f1a73eec2378ae3bd","6186fb1cc52d38b480598eb7","618731a5ad3fdffde6315ecd","null","","null","","","","","fixation","","","",""
"","","","","","visual-search-circle","107","195804","0.0-14.0-0.0-1.46","6156878f1a73eec2378ae3bd","6186fb1cc52d38b480598eb7","618731a5ad3fdffde6315ecd","754.3999999761581","","s","true","[[3,346],[123,542],[346,596],[542,476],[596,253],[476,57],[253,3],[57,123]]","false","8","","","img/Fire_Up_Target.gif","[""img/Fire_Down_Distractor.gif"",""img/Fire_Down_Distractor.gif"",""img/Fire_Down_Distractor.gif"",""img/Fire_Down_Distractor.gif"",""img/Fire_Down_Distractor.gif"",""img/Fire_Down_Distractor.gif"",""img/Fire_Down_Distractor.gif"",""img/Fire_Down_Distractor.gif"",""img/Fire_Down_Distractor.gif"",""img/Fire_Down_Distractor.gif"",""img/Fire_Down_Distractor.gif"",""img/Fire_Down_Distractor.gif""]","targetUp_distractorsDown"
"","","","","","html-keyboard-response","108","195806","0.0-14.0-0.0-0.47","6156878f1a73eec2378ae3bd","6186fb1cc52d38b480598eb7","618731a5ad3fdffde6315ecd","null","","null","","","","","fixation","","","",""
"","","","","","visual-search-circle","109","197819","0.0-14.0-0.0-1.47","6156878f1a73eec2378ae3bd","6186fb1cc52d38b480598eb7","618731a5ad3fdffde6315ecd","1005.6000000238419","","s","true","[[127,54],[1,326],[173,571],[472,545],[598,273],[426,28]]","false","6","","","img/Fire_Up_Target.gif","[""img/Fire_Down_Distractor.gif"",""img/Fire_Down_Distractor.gif"",""img/Fire_Down_Distractor.gif"",""img/Fire_Down_Distractor.gif"",""img/Fire_Down_Distractor.gif"",""img/Fire_Down_Distractor.gif"",""img/Fire_Down_Distractor.gif"",""img/Fire_Down_Distractor.gif"",""img/Fire_Down_Distractor.gif"",""img/Fire_Down_Distractor.gif"",""img/Fire_Down_Distractor.gif"",""img/Fire_Down_Distractor.gif""]","targetUp_distractorsDown"
"","","","","","html-keyboard-response","110","197820","0.0-14.0-0.0-0.48","6156878f1a73eec2378ae3bd","6186fb1cc52d38b480598eb7","618731a5ad3fdffde6315ecd","null","","null","","","","","fixation","","","",""
"","","","","","visual-search-circle","111","199766","0.0-14.0-0.0-1.48","6156878f1a73eec2378ae3bd","6186fb1cc52d38b480598eb7","618731a5ad3fdffde6315ecd","935.2000000476837","","d","true","[[377,589],[574,419],[565,159],[355,5],[104,72],[0,311],[121,541]]","true","7","","","img/Fire_Up_Target.gif","[""img/Fire_Down_Distractor.gif"",""img/Fire_Down_Distractor.gif"",""img/Fire_Down_Distractor.gif"",""img/Fire_Down_Distractor.gif"",""img/Fire_Down_Distractor.gif"",""img/Fire_Down_Distractor.gif"",""img/Fire_Down_Distractor.gif"",""img/Fire_Down_Distractor.gif"",""img/Fire_Down_Distractor.gif"",""img/Fire_Down_Distractor.gif"",""img/Fire_Down_Distractor.gif"",""img/Fire_Down_Distractor.gif""]","targetUp_distractorsDown"
"","","","","","html-keyboard-response","112","199768","0.0-14.0-0.0-0.49","6156878f1a73eec2378ae3bd","6186fb1cc52d38b480598eb7","618731a5ad3fdffde6315ecd","null","","null","","","","","fixation","","","",""
"","","","","","visual-search-circle","113","201924","0.0-14.0-0.0-1.49","6156878f1a73eec2378ae3bd","6186fb1cc52d38b480598eb7","618731a5ad3fdffde6315ecd","1141.1000000238419","","d","true","[[463,48],[163,32],[0,284],[136,551],[436,567],[599,315]]","true","6","","","img/Fire_Down_Target.gif","[""img/Fire_Up_Distractor.gif"",""img/Fire_Up_Distractor.gif"",""img/Fire_Up_Distractor.gif"",""img/Fire_Up_Distractor.gif"",""img/Fire_Up_Distractor.gif"",""img/Fire_Up_Distractor.gif"",""img/Fire_Up_Distractor.gif"",""img/Fire_Up_Distractor.gif"",""img/Fire_Up_Distractor.gif"",""img/Fire_Up_Distractor.gif"",""img/Fire_Up_Distractor.gif"",""img/Fire_Up_Distractor.gif""]","targetDown_distractorsUp"
"","","","","","html-keyboard-response","114","201926","0.0-14.0-0.0-0.50","6156878f1a73eec2378ae3bd","6186fb1cc52d38b480598eb7","618731a5ad3fdffde6315ecd","null","","null","","","","","fixation","","","",""
"","","","","","visual-search-circle","115","205057","0.0-14.0-0.0-1.50","6156878f1a73eec2378ae3bd","6186fb1cc52d38b480598eb7","618731a5ad3fdffde6315ecd","2120.399999976158","","d","true","[[25,422],[268,598],[542,476],[574,177],[331,1],[57,123]]","true","6","","","img/Fire_Up_Target.gif","[""img/Fire_Down_Distractor.gif"",""img/Fire_Down_Distractor.gif"",""img/Fire_Down_Distractor.gif"",""img/Fire_Down_Distractor.gif"",""img/Fire_Down_Distractor.gif"",""img/Fire_Down_Distractor.gif"",""img/Fire_Down_Distractor.gif"",""img/Fire_Down_Distractor.gif"",""img/Fire_Down_Distractor.gif"",""img/Fire_Down_Distractor.gif"",""img/Fire_Down_Distractor.gif"",""img/Fire_Down_Distractor.gif""]","targetUp_distractorsDown"
"","","","","","html-keyboard-response","116","205059","0.0-14.0-0.0-0.51","6156878f1a73eec2378ae3bd","6186fb1cc52d38b480598eb7","618731a5ad3fdffde6315ecd","null","","null","","","","","fixation","","","",""
"","","","","","visual-search-circle","117","207542","0.0-14.0-0.0-1.51","6156878f1a73eec2378ae3bd","6186fb1cc52d38b480598eb7","618731a5ad3fdffde6315ecd","1479.7000000476837","","s","true","[[372,591],[599,320],[412,21],[70,107],[45,458]]","false","5","","","img/Fire_Up_Target.gif","[""img/Fire_Down_Distractor.gif"",""img/Fire_Down_Distractor.gif"",""img/Fire_Down_Distractor.gif"",""img/Fire_Down_Distractor.gif"",""img/Fire_Down_Distractor.gif"",""img/Fire_Down_Distractor.gif"",""img/Fire_Down_Distractor.gif"",""img/Fire_Down_Distractor.gif"",""img/Fire_Down_Distractor.gif"",""img/Fire_Down_Distractor.gif"",""img/Fire_Down_Distractor.gif"",""img/Fire_Down_Distractor.gif""]","targetUp_distractorsDown"
"","","","","","html-keyboard-response","118","207544","0.0-14.0-0.0-0.52","6156878f1a73eec2378ae3bd","6186fb1cc52d38b480598eb7","618731a5ad3fdffde6315ecd","null","","null","","","","","fixation","","","",""
"","","","","","visual-search-circle","119","210414","0.0-14.0-0.0-1.52","6156878f1a73eec2378ae3bd","6186fb1cc52d38b480598eb7","618731a5ad3fdffde6315ecd","1865.5","","s","true","[[2,258],[258,597],[597,341],[341,2]]","false","4","","","img/Fire_Up_Target.gif","[""img/Fire_Down_Distractor.gif"",""img/Fire_Down_Distractor.gif"",""img/Fire_Down_Distractor.gif"",""img/Fire_Down_Distractor.gif"",""img/Fire_Down_Distractor.gif"",""img/Fire_Down_Distractor.gif"",""img/Fire_Down_Distractor.gif"",""img/Fire_Down_Distractor.gif"",""img/Fire_Down_Distractor.gif"",""img/Fire_Down_Distractor.gif"",""img/Fire_Down_Distractor.gif"",""img/Fire_Down_Distractor.gif""]","targetUp_distractorsDown"
"","","","","","html-keyboard-response","120","210416","0.0-14.0-0.0-0.53","6156878f1a73eec2378ae3bd","6186fb1cc52d38b480598eb7","618731a5ad3fdffde6315ecd","null","","null","","","","","fixation","","","",""
"","","","","","visual-search-circle","121","212329","0.0-14.0-0.0-1.53","6156878f1a73eec2378ae3bd","6186fb1cc52d38b480598eb7","618731a5ad3fdffde6315ecd","910.4000000953674","","d","true","[[66,111],[111,533],[533,488],[488,66]]","true","4","","","img/Fire_Down_Target.gif","[""img/Fire_Up_Distractor.gif"",""img/Fire_Up_Distractor.gif"",""img/Fire_Up_Distractor.gif"",""img/Fire_Up_Distractor.gif"",""img/Fire_Up_Distractor.gif"",""img/Fire_Up_Distractor.gif"",""img/Fire_Up_Distractor.gif"",""img/Fire_Up_Distractor.gif"",""img/Fire_Up_Distractor.gif"",""img/Fire_Up_Distractor.gif"",""img/Fire_Up_Distractor.gif"",""img/Fire_Up_Distractor.gif""]","targetDown_distractorsUp"
"","","","","","html-keyboard-response","122","212331","0.0-14.0-0.0-0.54","6156878f1a73eec2378ae3bd","6186fb1cc52d38b480598eb7","618731a5ad3fdffde6315ecd","null","","null","","","","","fixation","","","",""
"","","","","","visual-search-circle","123","214292","0.0-14.0-0.0-1.54","6156878f1a73eec2378ae3bd","6186fb1cc52d38b480598eb7","618731a5ad3fdffde6315ecd","945.3999999761581","","s","true","[[599,320],[502,79],[253,3],[39,151],[21,410],[213,587],[470,547]]","false","7","","","img/Fire_Up_Target.gif","[""img/Fire_Down_Distractor.gif"",""img/Fire_Down_Distractor.gif"",""img/Fire_Down_Distractor.gif"",""img/Fire_Down_Distractor.gif"",""img/Fire_Down_Distractor.gif"",""img/Fire_Down_Distractor.gif"",""img/Fire_Down_Distractor.gif"",""img/Fire_Down_Distractor.gif"",""img/Fire_Down_Distractor.gif"",""img/Fire_Down_Distractor.gif"",""img/Fire_Down_Distractor.gif"",""img/Fire_Down_Distractor.gif""]","targetUp_distractorsDown"
"","","","","","html-keyboard-response","124","214295","0.0-14.0-0.0-0.55","6156878f1a73eec2378ae3bd","6186fb1cc52d38b480598eb7","618731a5ad3fdffde6315ecd","null","","null","","","","","fixation","","","",""
"","","","","","visual-search-circle","125","216555","0.0-14.0-0.0-1.55","6156878f1a73eec2378ae3bd","6186fb1cc52d38b480598eb7","618731a5ad3fdffde6315ecd","1257","","d","true","[[526,496],[557,145],[232,7],[1,273],[182,576]]","true","5","","","img/Fire_Up_Target.gif","[""img/Fire_Down_Distractor.gif"",""img/Fire_Down_Distractor.gif"",""img/Fire_Down_Distractor.gif"",""img/Fire_Down_Distractor.gif"",""img/Fire_Down_Distractor.gif"",""img/Fire_Down_Distractor.gif"",""img/Fire_Down_Distractor.gif"",""img/Fire_Down_Distractor.gif"",""img/Fire_Down_Distractor.gif"",""img/Fire_Down_Distractor.gif"",""img/Fire_Down_Distractor.gif"",""img/Fire_Down_Distractor.gif""]","targetUp_distractorsDown"
"","","","","","html-keyboard-response","126","216556","0.0-14.0-0.0-0.56","6156878f1a73eec2378ae3bd","6186fb1cc52d38b480598eb7","618731a5ad3fdffde6315ecd","null","","null","","","","","fixation","","","",""
"","","","","","visual-search-circle","127","219075","0.0-14.0-0.0-1.56","6156878f1a73eec2378ae3bd","6186fb1cc52d38b480598eb7","618731a5ad3fdffde6315ecd","1511.7000000476837","","d","true","[[488,66],[136,48],[10,377],[284,599],[580,407]]","true","5","","","img/Fire_Up_Target.gif","[""img/Fire_Down_Distractor.gif"",""img/Fire_Down_Distractor.gif"",""img/Fire_Down_Distractor.gif"",""img/Fire_Down_Distractor.gif"",""img/Fire_Down_Distractor.gif"",""img/Fire_Down_Distractor.gif"",""img/Fire_Down_Distractor.gif"",""img/Fire_Down_Distractor.gif"",""img/Fire_Down_Distractor.gif"",""img/Fire_Down_Distractor.gif"",""img/Fire_Down_Distractor.gif"",""img/Fire_Down_Distractor.gif""]","targetUp_distractorsDown"
"","","","","","html-keyboard-response","128","219077","0.0-14.0-0.0-0.57","6156878f1a73eec2378ae3bd","6186fb1cc52d38b480598eb7","618731a5ad3fdffde6315ecd","null","","null","","","","","fixation","","","",""
"","","","","","visual-search-circle","129","221173","0.0-14.0-0.0-1.57","6156878f1a73eec2378ae3bd","6186fb1cc52d38b480598eb7","618731a5ad3fdffde6315ecd","1092.1000000238419","","s","true","[[515,91],[227,8],[11,217],[84,508],[372,591],[588,382]]","false","6","","","img/Fire_Up_Target.gif","[""img/Fire_Down_Distractor.gif"",""img/Fire_Down_Distractor.gif"",""img/Fire_Down_Distractor.gif"",""img/Fire_Down_Distractor.gif"",""img/Fire_Down_Distractor.gif"",""img/Fire_Down_Distractor.gif"",""img/Fire_Down_Distractor.gif"",""img/Fire_Down_Distractor.gif"",""img/Fire_Down_Distractor.gif"",""img/Fire_Down_Distractor.gif"",""img/Fire_Down_Distractor.gif"",""img/Fire_Down_Distractor.gif""]","targetUp_distractorsDown"
"","","","","","html-keyboard-response","130","221175","0.0-14.0-0.0-0.58","6156878f1a73eec2378ae3bd","6186fb1cc52d38b480598eb7","618731a5ad3fdffde6315ecd","null","","null","","","","","fixation","","","",""
"","","","","","visual-search-circle","131","223176","0.0-14.0-0.0-1.58","6156878f1a73eec2378ae3bd","6186fb1cc52d38b480598eb7","618731a5ad3fdffde6315ecd","986.6999999284744","","s","true","[[599,320],[502,79],[253,3],[39,151],[21,410],[213,587],[470,547]]","false","7","","","img/Fire_Up_Target.gif","[""img/Fire_Down_Distractor.gif"",""img/Fire_Down_Distractor.gif"",""img/Fire_Down_Distractor.gif"",""img/Fire_Down_Distractor.gif"",""img/Fire_Down_Distractor.gif"",""img/Fire_Down_Distractor.gif"",""img/Fire_Down_Distractor.gif"",""img/Fire_Down_Distractor.gif"",""img/Fire_Down_Distractor.gif"",""img/Fire_Down_Distractor.gif"",""img/Fire_Down_Distractor.gif"",""img/Fire_Down_Distractor.gif""]","targetUp_distractorsDown"
"","","","","","html-keyboard-response","132","223994","0.0-14.0-0.0-0.59","6156878f1a73eec2378ae3bd","6186fb1cc52d38b480598eb7","618731a5ad3fdffde6315ecd","817.3000000715256","Wow! You've completed 60 out of 120 trials! </p> <p>  </p><p> Take a quick break, then press any key when you're ready to continue."," ","","","","","fixation","","","",""
"","","","","","visual-search-circle","133","225758","0.0-14.0-0.0-1.59","6156878f1a73eec2378ae3bd","6186fb1cc52d38b480598eb7","618731a5ad3fdffde6315ecd","750","","d","true","[[159,564],[419,575],[589,378],[541,122],[311,0],[73,103],[5,355]]","true","7","","","img/Fire_Up_Target.gif","[""img/Fire_Down_Distractor.gif"",""img/Fire_Down_Distractor.gif"",""img/Fire_Down_Distractor.gif"",""img/Fire_Down_Distractor.gif"",""img/Fire_Down_Distractor.gif"",""img/Fire_Down_Distractor.gif"",""img/Fire_Down_Distractor.gif"",""img/Fire_Down_Distractor.gif"",""img/Fire_Down_Distractor.gif"",""img/Fire_Down_Distractor.gif"",""img/Fire_Down_Distractor.gif"",""img/Fire_Down_Distractor.gif""]","targetUp_distractorsDown"
"","","","","","html-keyboard-response","134","225759","0.0-14.0-0.0-0.60","6156878f1a73eec2378ae3bd","6186fb1cc52d38b480598eb7","618731a5ad3fdffde6315ecd","null","","null","","","","","fixation","","","",""
"","","","","","visual-search-circle","135","227845","0.0-14.0-0.0-1.60","6156878f1a73eec2378ae3bd","6186fb1cc52d38b480598eb7","618731a5ad3fdffde6315ecd","1074.8000000715256","","s","true","[[352,4],[35,159],[84,508],[431,569],[597,258]]","false","5","","","img/Fire_Up_Target.gif","[""img/Fire_Down_Distractor.gif"",""img/Fire_Down_Distractor.gif"",""img/Fire_Down_Distractor.gif"",""img/Fire_Down_Distractor.gif"",""img/Fire_Down_Distractor.gif"",""img/Fire_Down_Distractor.gif"",""img/Fire_Down_Distractor.gif"",""img/Fire_Down_Distractor.gif"",""img/Fire_Down_Distractor.gif"",""img/Fire_Down_Distractor.gif"",""img/Fire_Down_Distractor.gif"",""img/Fire_Down_Distractor.gif""]","targetUp_distractorsDown"
"","","","","","html-keyboard-response","136","227847","0.0-14.0-0.0-0.61","6156878f1a73eec2378ae3bd","6186fb1cc52d38b480598eb7","618731a5ad3fdffde6315ecd","null","","null","","","","","fixation","","","",""
"","","","","","visual-search-circle","137","229529","0.0-14.0-0.0-1.61","6156878f1a73eec2378ae3bd","6186fb1cc52d38b480598eb7","618731a5ad3fdffde6315ecd","666.5","","d","true","[[25,422],[192,580],[422,574],[580,407],[574,177],[407,19],[177,25],[19,192]]","true","8","","","img/Fire_Up_Target.gif","[""img/Fire_Down_Distractor.gif"",""img/Fire_Down_Distractor.gif"",""img/Fire_Down_Distractor.gif"",""img/Fire_Down_Distractor.gif"",""img/Fire_Down_Distractor.gif"",""img/Fire_Down_Distractor.gif"",""img/Fire_Down_Distractor.gif"",""img/Fire_Down_Distractor.gif"",""img/Fire_Down_Distractor.gif"",""img/Fire_Down_Distractor.gif"",""img/Fire_Down_Distractor.gif"",""img/Fire_Down_Distractor.gif""]","targetUp_distractorsDown"
"","","","","","html-keyboard-response","138","229531","0.0-14.0-0.0-0.62","6156878f1a73eec2378ae3bd","6186fb1cc52d38b480598eb7","618731a5ad3fdffde6315ecd","null","","null","","","","","fixation","","","",""
"","","","","","visual-search-circle","139","231262","0.0-14.0-0.0-1.62","6156878f1a73eec2378ae3bd","6186fb1cc52d38b480598eb7","618731a5ad3fdffde6315ecd","713.7000000476837","","s","true","[[14,392],[194,580],[453,557],[597,340],[516,92],[273,1],[49,134]]","false","7","","","img/Fire_Down_Target.gif","[""img/Fire_Up_Distractor.gif"",""img/Fire_Up_Distractor.gif"",""img/Fire_Up_Distractor.gif"",""img/Fire_Up_Distractor.gif"",""img/Fire_Up_Distractor.gif"",""img/Fire_Up_Distractor.gif"",""img/Fire_Up_Distractor.gif"",""img/Fire_Up_Distractor.gif"",""img/Fire_Up_Distractor.gif"",""img/Fire_Up_Distractor.gif"",""img/Fire_Up_Distractor.gif"",""img/Fire_Up_Distractor.gif""]","targetDown_distractorsUp"
"","","","","","html-keyboard-response","140","231264","0.0-14.0-0.0-0.63","6156878f1a73eec2378ae3bd","6186fb1cc52d38b480598eb7","618731a5ad3fdffde6315ecd","null","","null","","","","","fixation","","","",""
"","","","","","visual-search-circle","141","232891","0.0-14.0-0.0-1.63","6156878f1a73eec2378ae3bd","6186fb1cc52d38b480598eb7","618731a5ad3fdffde6315ecd","623.3000000715256","","s","true","[[599,289],[440,35],[141,45],[0,310],[159,564],[458,554]]","false","6","","","img/Fire_Down_Target.gif","[""img/Fire_Up_Distractor.gif"",""img/Fire_Up_Distractor.gif"",""img/Fire_Up_Distractor.gif"",""img/Fire_Up_Distractor.gif"",""img/Fire_Up_Distractor.gif"",""img/Fire_Up_Distractor.gif"",""img/Fire_Up_Distractor.gif"",""img/Fire_Up_Distractor.gif"",""img/Fire_Up_Distractor.gif"",""img/Fire_Up_Distractor.gif"",""img/Fire_Up_Distractor.gif"",""img/Fire_Up_Distractor.gif""]","targetDown_distractorsUp"
"","","","","","html-keyboard-response","142","232895","0.0-14.0-0.0-0.64","6156878f1a73eec2378ae3bd","6186fb1cc52d38b480598eb7","618731a5ad3fdffde6315ecd","null","","null","","","","","fixation","","","",""
"","","","","","visual-search-circle","143","235069","0.0-14.0-0.0-1.64","6156878f1a73eec2378ae3bd","6186fb1cc52d38b480598eb7","618731a5ad3fdffde6315ecd","1159.3999999761581","","d","true","[[91,84],[8,372],[217,588],[508,515],[591,227],[382,11]]","true","6","","","img/Fire_Up_Target.gif","[""img/Fire_Down_Distractor.gif"",""img/Fire_Down_Distractor.gif"",""img/Fire_Down_Distractor.gif"",""img/Fire_Down_Distractor.gif"",""img/Fire_Down_Distractor.gif"",""img/Fire_Down_Distractor.gif"",""img/Fire_Down_Distractor.gif"",""img/Fire_Down_Distractor.gif"",""img/Fire_Down_Distractor.gif"",""img/Fire_Down_Distractor.gif"",""img/Fire_Down_Distractor.gif"",""img/Fire_Down_Distractor.gif""]","targetUp_distractorsDown"
"","","","","","html-keyboard-response","144","235071","0.0-14.0-0.0-0.65","6156878f1a73eec2378ae3bd","6186fb1cc52d38b480598eb7","618731a5ad3fdffde6315ecd","null","","null","","","","","fixation","","","",""
"","","","","","visual-search-circle","145","237932","0.0-14.0-0.0-1.65","6156878f1a73eec2378ae3bd","6186fb1cc52d38b480598eb7","618731a5ad3fdffde6315ecd","1850.6000000238419","","s","true","[[596,346],[521,97],[279,0],[53,129],[12,386],[188,578],[448,560]]","false","7","","","img/Fire_Up_Target.gif","[""img/Fire_Down_Distractor.gif"",""img/Fire_Down_Distractor.gif"",""img/Fire_Down_Distractor.gif"",""img/Fire_Down_Distractor.gif"",""img/Fire_Down_Distractor.gif"",""img/Fire_Down_Distractor.gif"",""img/Fire_Down_Distractor.gif"",""img/Fire_Down_Distractor.gif"",""img/Fire_Down_Distractor.gif"",""img/Fire_Down_Distractor.gif"",""img/Fire_Down_Distractor.gif"",""img/Fire_Down_Distractor.gif""]","targetUp_distractorsDown"
"","","","","","html-keyboard-response","146","237935","0.0-14.0-0.0-0.66","6156878f1a73eec2378ae3bd","6186fb1cc52d38b480598eb7","618731a5ad3fdffde6315ecd","null","","null","","","","","fixation","","","",""
"","","","","","visual-search-circle","147","239634","0.0-14.0-0.0-1.66","6156878f1a73eec2378ae3bd","6186fb1cc52d38b480598eb7","618731a5ad3fdffde6315ecd","694.8999999761581","","s","true","[[533,111],[331,1],[111,66],[1,268],[66,488],[268,598],[488,533],[598,331]]","false","8","","","img/Fire_Down_Target.gif","[""img/Fire_Up_Distractor.gif"",""img/Fire_Up_Distractor.gif"",""img/Fire_Up_Distractor.gif"",""img/Fire_Up_Distractor.gif"",""img/Fire_Up_Distractor.gif"",""img/Fire_Up_Distractor.gif"",""img/Fire_Up_Distractor.gif"",""img/Fire_Up_Distractor.gif"",""img/Fire_Up_Distractor.gif"",""img/Fire_Up_Distractor.gif"",""img/Fire_Up_Distractor.gif"",""img/Fire_Up_Distractor.gif""]","targetDown_distractorsUp"
"","","","","","html-keyboard-response","148","239636","0.0-14.0-0.0-0.67","6156878f1a73eec2378ae3bd","6186fb1cc52d38b480598eb7","618731a5ad3fdffde6315ecd","null","","null","","","","","fixation","","","",""
"","","","","","visual-search-circle","149","241588","0.0-14.0-0.0-1.67","6156878f1a73eec2378ae3bd","6186fb1cc52d38b480598eb7","618731a5ad3fdffde6315ecd","944.1000000238419","","s","true","[[37,154],[154,562],[562,445],[445,37]]","false","4","","","img/Fire_Down_Target.gif","[""img/Fire_Up_Distractor.gif"",""img/Fire_Up_Distractor.gif"",""img/Fire_Up_Distractor.gif"",""img/Fire_Up_Distractor.gif"",""img/Fire_Up_Distractor.gif"",""img/Fire_Up_Distractor.gif"",""img/Fire_Up_Distractor.gif"",""img/Fire_Up_Distractor.gif"",""img/Fire_Up_Distractor.gif"",""img/Fire_Up_Distractor.gif"",""img/Fire_Up_Distractor.gif"",""img/Fire_Up_Distractor.gif""]","targetDown_distractorsUp"
"","","","","","html-keyboard-response","150","241590","0.0-14.0-0.0-0.68","6156878f1a73eec2378ae3bd","6186fb1cc52d38b480598eb7","618731a5ad3fdffde6315ecd","null","","null","","","","","fixation","","","",""
"","","","","","visual-search-circle","151","243542","0.0-14.0-0.0-1.68","6156878f1a73eec2378ae3bd","6186fb1cc52d38b480598eb7","618731a5ad3fdffde6315ecd","947.8000000715256","","d","true","[[4,352],[197,581],[492,529],[595,247],[402,18],[107,70]]","true","6","","","img/Fire_Up_Target.gif","[""img/Fire_Down_Distractor.gif"",""img/Fire_Down_Distractor.gif"",""img/Fire_Down_Distractor.gif"",""img/Fire_Down_Distractor.gif"",""img/Fire_Down_Distractor.gif"",""img/Fire_Down_Distractor.gif"",""img/Fire_Down_Distractor.gif"",""img/Fire_Down_Distractor.gif"",""img/Fire_Down_Distractor.gif"",""img/Fire_Down_Distractor.gif"",""img/Fire_Down_Distractor.gif"",""img/Fire_Down_Distractor.gif""]","targetUp_distractorsDown"
"","","","","","html-keyboard-response","152","243544","0.0-14.0-0.0-0.69","6156878f1a73eec2378ae3bd","6186fb1cc52d38b480598eb7","618731a5ad3fdffde6315ecd","null","","null","","","","","fixation","","","",""
"","","","","","visual-search-circle","153","245865","0.0-14.0-0.0-1.69","6156878f1a73eec2378ae3bd","6186fb1cc52d38b480598eb7","618731a5ad3fdffde6315ecd","1316.3999999761581","","d","true","[[127,54],[0,281],[98,522],[348,596],[561,446],[577,186],[384,12]]","true","7","","","img/Fire_Down_Target.gif","[""img/Fire_Up_Distractor.gif"",""img/Fire_Up_Distractor.gif"",""img/Fire_Up_Distractor.gif"",""img/Fire_Up_Distractor.gif"",""img/Fire_Up_Distractor.gif"",""img/Fire_Up_Distractor.gif"",""img/Fire_Up_Distractor.gif"",""img/Fire_Up_Distractor.gif"",""img/Fire_Up_Distractor.gif"",""img/Fire_Up_Distractor.gif"",""img/Fire_Up_Distractor.gif"",""img/Fire_Up_Distractor.gif""]","targetDown_distractorsUp"
"","","","","","html-keyboard-response","154","245868","0.0-14.0-0.0-0.70","6156878f1a73eec2378ae3bd","6186fb1cc52d38b480598eb7","618731a5ad3fdffde6315ecd","null","","null","","","","","fixation","","","",""
"","","","","","visual-search-circle","155","247855","0.0-14.0-0.0-1.70","6156878f1a73eec2378ae3bd","6186fb1cc52d38b480598eb7","618731a5ad3fdffde6315ecd","975.2999999523163","","s","true","[[599,305],[397,16],[60,119],[54,472],[387,586]]","false","5","","","img/Fire_Up_Target.gif","[""img/Fire_Down_Distractor.gif"",""img/Fire_Down_Distractor.gif"",""img/Fire_Down_Distractor.gif"",""img/Fire_Down_Distractor.gif"",""img/Fire_Down_Distractor.gif"",""img/Fire_Down_Distractor.gif"",""img/Fire_Down_Distractor.gif"",""img/Fire_Down_Distractor.gif"",""img/Fire_Down_Distractor.gif"",""img/Fire_Down_Distractor.gif"",""img/Fire_Down_Distractor.gif"",""img/Fire_Down_Distractor.gif""]","targetUp_distractorsDown"
"","","","","","html-keyboard-response","156","247856","0.0-14.0-0.0-0.71","6156878f1a73eec2378ae3bd","6186fb1cc52d38b480598eb7","618731a5ad3fdffde6315ecd","null","","null","","","","","fixation","","","",""
"","","","","","visual-search-circle","157","249836","0.0-14.0-0.0-1.71","6156878f1a73eec2378ae3bd","6186fb1cc52d38b480598eb7","618731a5ad3fdffde6315ecd","974.2999999523163","","s","true","[[548,132],[323,0],[81,94],[3,343],[148,559],[408,579],[586,389]]","false","7","","","img/Fire_Down_Target.gif","[""img/Fire_Up_Distractor.gif"",""img/Fire_Up_Distractor.gif"",""img/Fire_Up_Distractor.gif"",""img/Fire_Up_Distractor.gif"",""img/Fire_Up_Distractor.gif"",""img/Fire_Up_Distractor.gif"",""img/Fire_Up_Distractor.gif"",""img/Fire_Up_Distractor.gif"",""img/Fire_Up_Distractor.gif"",""img/Fire_Up_Distractor.gif"",""img/Fire_Up_Distractor.gif"",""img/Fire_Up_Distractor.gif""]","targetDown_distractorsUp"
"","","","","","html-keyboard-response","158","249839","0.0-14.0-0.0-0.72","6156878f1a73eec2378ae3bd","6186fb1cc52d38b480598eb7","618731a5ad3fdffde6315ecd","null","","null","","","","","fixation","","","",""
"","","","","","visual-search-circle","159","251902","0.0-14.0-0.0-1.72","6156878f1a73eec2378ae3bd","6186fb1cc52d38b480598eb7","618731a5ad3fdffde6315ecd","1056","","d","true","[[8,372],[217,588],[508,515],[591,227],[382,11],[91,84]]","true","6","","","img/Fire_Up_Target.gif","[""img/Fire_Down_Distractor.gif"",""img/Fire_Down_Distractor.gif"",""img/Fire_Down_Distractor.gif"",""img/Fire_Down_Distractor.gif"",""img/Fire_Down_Distractor.gif"",""img/Fire_Down_Distractor.gif"",""img/Fire_Down_Distractor.gif"",""img/Fire_Down_Distractor.gif"",""img/Fire_Down_Distractor.gif"",""img/Fire_Down_Distractor.gif"",""img/Fire_Down_Distractor.gif"",""img/Fire_Down_Distractor.gif""]","targetUp_distractorsDown"
"","","","","","html-keyboard-response","160","251904","0.0-14.0-0.0-0.73","6156878f1a73eec2378ae3bd","6186fb1cc52d38b480598eb7","618731a5ad3fdffde6315ecd","null","","null","","","","","fixation","","","",""
"","","","","","visual-search-circle","161","253649","0.0-14.0-0.0-1.73","6156878f1a73eec2378ae3bd","6186fb1cc52d38b480598eb7","618731a5ad3fdffde6315ecd","738.7000000476837","","s","true","[[476,57],[253,3],[57,123],[3,346],[123,542],[346,596],[542,476],[596,253]]","false","8","","","img/Fire_Down_Target.gif","[""img/Fire_Up_Distractor.gif"",""img/Fire_Up_Distractor.gif"",""img/Fire_Up_Distractor.gif"",""img/Fire_Up_Distractor.gif"",""img/Fire_Up_Distractor.gif"",""img/Fire_Up_Distractor.gif"",""img/Fire_Up_Distractor.gif"",""img/Fire_Up_Distractor.gif"",""img/Fire_Up_Distractor.gif"",""img/Fire_Up_Distractor.gif"",""img/Fire_Up_Distractor.gif"",""img/Fire_Up_Distractor.gif""]","targetDown_distractorsUp"
"","","","","","html-keyboard-response","162","253651","0.0-14.0-0.0-0.74","6156878f1a73eec2378ae3bd","6186fb1cc52d38b480598eb7","618731a5ad3fdffde6315ecd","null","","null","","","","","fixation","","","",""
"","","","","","visual-search-circle","163","256409","0.0-14.0-0.0-1.74","6156878f1a73eec2378ae3bd","6186fb1cc52d38b480598eb7","618731a5ad3fdffde6315ecd","1751.8000000715256","","s","true","[[476,542],[596,346],[542,123],[346,3],[123,57],[3,253],[57,476],[253,596]]","false","8","","","img/Fire_Up_Target.gif","[""img/Fire_Down_Distractor.gif"",""img/Fire_Down_Distractor.gif"",""img/Fire_Down_Distractor.gif"",""img/Fire_Down_Distractor.gif"",""img/Fire_Down_Distractor.gif"",""img/Fire_Down_Distractor.gif"",""img/Fire_Down_Distractor.gif"",""img/Fire_Down_Distractor.gif"",""img/Fire_Down_Distractor.gif"",""img/Fire_Down_Distractor.gif"",""img/Fire_Down_Distractor.gif"",""img/Fire_Down_Distractor.gif""]","targetUp_distractorsDown"
"","","","","","html-keyboard-response","164","256411","0.0-14.0-0.0-0.75","6156878f1a73eec2378ae3bd","6186fb1cc52d38b480598eb7","618731a5ad3fdffde6315ecd","null","","null","","","","","fixation","","","",""
"","","","","","visual-search-circle","165","258376","0.0-14.0-0.0-1.75","6156878f1a73eec2378ae3bd","6186fb1cc52d38b480598eb7","618731a5ad3fdffde6315ecd","951.8000000715256","","d","true","[[539,119],[308,0],[70,106],[5,358],[162,566],[422,573],[590,374]]","true","7","","","img/Fire_Up_Target.gif","[""img/Fire_Down_Distractor.gif"",""img/Fire_Down_Distractor.gif"",""img/Fire_Down_Distractor.gif"",""img/Fire_Down_Distractor.gif"",""img/Fire_Down_Distractor.gif"",""img/Fire_Down_Distractor.gif"",""img/Fire_Down_Distractor.gif"",""img/Fire_Down_Distractor.gif"",""img/Fire_Down_Distractor.gif"",""img/Fire_Down_Distractor.gif"",""img/Fire_Down_Distractor.gif"",""img/Fire_Down_Distractor.gif""]","targetUp_distractorsDown"
"","","","","","html-keyboard-response","166","258378","0.0-14.0-0.0-0.76","6156878f1a73eec2378ae3bd","6186fb1cc52d38b480598eb7","618731a5ad3fdffde6315ecd","null","","null","","","","","fixation","","","",""
"","","","","","visual-search-circle","167","260867","0.0-14.0-0.0-1.76","6156878f1a73eec2378ae3bd","6186fb1cc52d38b480598eb7","618731a5ad3fdffde6315ecd","1474.3999999761581","","d","true","[[182,576],[576,417],[417,23],[23,182]]","true","4","","","img/Fire_Up_Target.gif","[""img/Fire_Down_Distractor.gif"",""img/Fire_Down_Distractor.gif"",""img/Fire_Down_Distractor.gif"",""img/Fire_Down_Distractor.gif"",""img/Fire_Down_Distractor.gif"",""img/Fire_Down_Distractor.gif"",""img/Fire_Down_Distractor.gif"",""img/Fire_Down_Distractor.gif"",""img/Fire_Down_Distractor.gif"",""img/Fire_Down_Distractor.gif"",""img/Fire_Down_Distractor.gif"",""img/Fire_Down_Distractor.gif""]","targetUp_distractorsDown"
"","","","","","html-keyboard-response","168","260868","0.0-14.0-0.0-0.77","6156878f1a73eec2378ae3bd","6186fb1cc52d38b480598eb7","618731a5ad3fdffde6315ecd","null","","null","","","","","fixation","","","",""
"","","","","","visual-search-circle","169","262688","0.0-14.0-0.0-1.77","6156878f1a73eec2378ae3bd","6186fb1cc52d38b480598eb7","618731a5ad3fdffde6315ecd","810.5","","s","true","[[492,70],[70,107],[107,529],[529,492]]","false","4","","","img/Fire_Down_Target.gif","[""img/Fire_Up_Distractor.gif"",""img/Fire_Up_Distractor.gif"",""img/Fire_Up_Distractor.gif"",""img/Fire_Up_Distractor.gif"",""img/Fire_Up_Distractor.gif"",""img/Fire_Up_Distractor.gif"",""img/Fire_Up_Distractor.gif"",""img/Fire_Up_Distractor.gif"",""img/Fire_Up_Distractor.gif"",""img/Fire_Up_Distractor.gif"",""img/Fire_Up_Distractor.gif"",""img/Fire_Up_Distractor.gif""]","targetDown_distractorsUp"
"","","","","","html-keyboard-response","170","262690","0.0-14.0-0.0-0.78","6156878f1a73eec2378ae3bd","6186fb1cc52d38b480598eb7","618731a5ad3fdffde6315ecd","null","","null","","","","","fixation","","","",""
"","","","","","visual-search-circle","171","265795","0.0-14.0-0.0-1.78","6156878f1a73eec2378ae3bd","6186fb1cc52d38b480598eb7","618731a5ad3fdffde6315ecd","2091","","d","true","[[91,515],[338,597],[556,455],[581,195],[394,15],[135,48],[1,271]]","true","7","","","img/Fire_Down_Target.gif","[""img/Fire_Up_Distractor.gif"",""img/Fire_Up_Distractor.gif"",""img/Fire_Up_Distractor.gif"",""img/Fire_Up_Distractor.gif"",""img/Fire_Up_Distractor.gif"",""img/Fire_Up_Distractor.gif"",""img/Fire_Up_Distractor.gif"",""img/Fire_Up_Distractor.gif"",""img/Fire_Up_Distractor.gif"",""img/Fire_Up_Distractor.gif"",""img/Fire_Up_Distractor.gif"",""img/Fire_Up_Distractor.gif""]","targetDown_distractorsUp"
"","","","","","html-keyboard-response","172","266750","0.0-14.0-0.0-0.79","6156878f1a73eec2378ae3bd","6186fb1cc52d38b480598eb7","618731a5ad3fdffde6315ecd","955.1000000238419","Wow! You've completed 80 out of 120 trials! </p> <p>  </p><p> Take a quick break, then press any key when you're ready to continue."," ","","","","","fixation","","","",""
"","","","","","visual-search-circle","173","268702","0.0-14.0-0.0-1.79","6156878f1a73eec2378ae3bd","6186fb1cc52d38b480598eb7","618731a5ad3fdffde6315ecd","935.2000000476837","","d","true","[[472,545],[545,127],[127,54],[54,472]]","true","4","","","img/Fire_Up_Target.gif","[""img/Fire_Down_Distractor.gif"",""img/Fire_Down_Distractor.gif"",""img/Fire_Down_Distractor.gif"",""img/Fire_Down_Distractor.gif"",""img/Fire_Down_Distractor.gif"",""img/Fire_Down_Distractor.gif"",""img/Fire_Down_Distractor.gif"",""img/Fire_Down_Distractor.gif"",""img/Fire_Down_Distractor.gif"",""img/Fire_Down_Distractor.gif"",""img/Fire_Down_Distractor.gif"",""img/Fire_Down_Distractor.gif""]","targetUp_distractorsDown"
"","","","","","html-keyboard-response","174","268704","0.0-14.0-0.0-0.80","6156878f1a73eec2378ae3bd","6186fb1cc52d38b480598eb7","618731a5ad3fdffde6315ecd","null","","null","","","","","fixation","","","",""
"","","","","","visual-search-circle","175","270356","0.0-14.0-0.0-1.80","6156878f1a73eec2378ae3bd","6186fb1cc52d38b480598eb7","618731a5ad3fdffde6315ecd","635.3000000715256","","s","true","[[284,0],[32,163],[48,463],[315,599],[567,436],[551,136]]","false","6","","","img/Fire_Down_Target.gif","[""img/Fire_Up_Distractor.gif"",""img/Fire_Up_Distractor.gif"",""img/Fire_Up_Distractor.gif"",""img/Fire_Up_Distractor.gif"",""img/Fire_Up_Distractor.gif"",""img/Fire_Up_Distractor.gif"",""img/Fire_Up_Distractor.gif"",""img/Fire_Up_Distractor.gif"",""img/Fire_Up_Distractor.gif"",""img/Fire_Up_Distractor.gif"",""img/Fire_Up_Distractor.gif"",""img/Fire_Up_Distractor.gif""]","targetDown_distractorsUp"
"","","","","","html-keyboard-response","176","270358","0.0-14.0-0.0-0.81","6156878f1a73eec2378ae3bd","6186fb1cc52d38b480598eb7","618731a5ad3fdffde6315ecd","null","","null","","","","","fixation","","","",""
"","","","","","visual-search-circle","177","272186","0.0-14.0-0.0-1.81","6156878f1a73eec2378ae3bd","6186fb1cc52d38b480598eb7","618731a5ad3fdffde6315ecd","824.8000000715256","","s","true","[[548,132],[357,5],[132,51],[5,242],[51,467],[242,594],[467,548],[594,357]]","false","8","","","img/Fire_Down_Target.gif","[""img/Fire_Up_Distractor.gif"",""img/Fire_Up_Distractor.gif"",""img/Fire_Up_Distractor.gif"",""img/Fire_Up_Distractor.gif"",""img/Fire_Up_Distractor.gif"",""img/Fire_Up_Distractor.gif"",""img/Fire_Up_Distractor.gif"",""img/Fire_Up_Distractor.gif"",""img/Fire_Up_Distractor.gif"",""img/Fire_Up_Distractor.gif"",""img/Fire_Up_Distractor.gif"",""img/Fire_Up_Distractor.gif""]","targetDown_distractorsUp"
"","","","","","html-keyboard-response","178","272188","0.0-14.0-0.0-0.82","6156878f1a73eec2378ae3bd","6186fb1cc52d38b480598eb7","618731a5ad3fdffde6315ecd","null","","null","","","","","fixation","","","",""
"","","","","","visual-search-circle","179","273866","0.0-14.0-0.0-1.82","6156878f1a73eec2378ae3bd","6186fb1cc52d38b480598eb7","618731a5ad3fdffde6315ecd","675.8999999761581","","d","true","[[1,326],[326,598],[598,273],[273,1]]","true","4","","","img/Fire_Up_Target.gif","[""img/Fire_Down_Distractor.gif"",""img/Fire_Down_Distractor.gif"",""img/Fire_Down_Distractor.gif"",""img/Fire_Down_Distractor.gif"",""img/Fire_Down_Distractor.gif"",""img/Fire_Down_Distractor.gif"",""img/Fire_Down_Distractor.gif"",""img/Fire_Down_Distractor.gif"",""img/Fire_Down_Distractor.gif"",""img/Fire_Down_Distractor.gif"",""img/Fire_Down_Distractor.gif"",""img/Fire_Down_Distractor.gif""]","targetUp_distractorsDown"
"","","","","","html-keyboard-response","180","273869","0.0-14.0-0.0-0.83","6156878f1a73eec2378ae3bd","6186fb1cc52d38b480598eb7","618731a5ad3fdffde6315ecd","null","","null","","","","","fixation","","","",""
"","","","","","visual-search-circle","181","275724","0.0-14.0-0.0-1.83","6156878f1a73eec2378ae3bd","6186fb1cc52d38b480598eb7","618731a5ad3fdffde6315ecd","844.6999999284744","","s","true","[[599,294],[482,62],[228,8],[27,174],[32,434],[238,593],[491,531]]","false","7","","","img/Fire_Down_Target.gif","[""img/Fire_Up_Distractor.gif"",""img/Fire_Up_Distractor.gif"",""img/Fire_Up_Distractor.gif"",""img/Fire_Up_Distractor.gif"",""img/Fire_Up_Distractor.gif"",""img/Fire_Up_Distractor.gif"",""img/Fire_Up_Distractor.gif"",""img/Fire_Up_Distractor.gif"",""img/Fire_Up_Distractor.gif"",""img/Fire_Up_Distractor.gif"",""img/Fire_Up_Distractor.gif"",""img/Fire_Up_Distractor.gif""]","targetDown_distractorsUp"
"","","","","","html-keyboard-response","182","275726","0.0-14.0-0.0-0.84","6156878f1a73eec2378ae3bd","6186fb1cc52d38b480598eb7","618731a5ad3fdffde6315ecd","null","","null","","","","","fixation","","","",""
"","","","","","visual-search-circle","183","277377","0.0-14.0-0.0-1.84","6156878f1a73eec2378ae3bd","6186fb1cc52d38b480598eb7","618731a5ad3fdffde6315ecd","641.0999999046326","","d","true","[[289,0],[80,95],[0,310],[95,519],[310,599],[519,504],[599,289],[504,80]]","true","8","","","img/Fire_Up_Target.gif","[""img/Fire_Down_Distractor.gif"",""img/Fire_Down_Distractor.gif"",""img/Fire_Down_Distractor.gif"",""img/Fire_Down_Distractor.gif"",""img/Fire_Down_Distractor.gif"",""img/Fire_Down_Distractor.gif"",""img/Fire_Down_Distractor.gif"",""img/Fire_Down_Distractor.gif"",""img/Fire_Down_Distractor.gif"",""img/Fire_Down_Distractor.gif"",""img/Fire_Down_Distractor.gif"",""img/Fire_Down_Distractor.gif""]","targetUp_distractorsDown"
"","","","","","html-keyboard-response","184","277380","0.0-14.0-0.0-0.85","6156878f1a73eec2378ae3bd","6186fb1cc52d38b480598eb7","618731a5ad3fdffde6315ecd","null","","null","","","","","fixation","","","",""
"","","","","","visual-search-circle","185","279146","0.0-14.0-0.0-1.85","6156878f1a73eec2378ae3bd","6186fb1cc52d38b480598eb7","618731a5ad3fdffde6315ecd","752.6999999284744","","s","true","[[16,202],[202,583],[583,397],[397,16]]","false","4","","","img/Fire_Up_Target.gif","[""img/Fire_Down_Distractor.gif"",""img/Fire_Down_Distractor.gif"",""img/Fire_Down_Distractor.gif"",""img/Fire_Down_Distractor.gif"",""img/Fire_Down_Distractor.gif"",""img/Fire_Down_Distractor.gif"",""img/Fire_Down_Distractor.gif"",""img/Fire_Down_Distractor.gif"",""img/Fire_Down_Distractor.gif"",""img/Fire_Down_Distractor.gif"",""img/Fire_Down_Distractor.gif"",""img/Fire_Down_Distractor.gif""]","targetUp_distractorsDown"
"","","","","","html-keyboard-response","186","279147","0.0-14.0-0.0-0.86","6156878f1a73eec2378ae3bd","6186fb1cc52d38b480598eb7","618731a5ad3fdffde6315ecd","null","","null","","","","","fixation","","","",""
"","","","","","visual-search-circle","187","281094","0.0-14.0-0.0-1.86","6156878f1a73eec2378ae3bd","6186fb1cc52d38b480598eb7","618731a5ad3fdffde6315ecd","935.1000000238419","","d","true","[[515,91],[305,0],[91,84],[0,294],[84,508],[294,599],[508,515],[599,305]]","true","8","","","img/Fire_Down_Target.gif","[""img/Fire_Up_Distractor.gif"",""img/Fire_Up_Distractor.gif"",""img/Fire_Up_Distractor.gif"",""img/Fire_Up_Distractor.gif"",""img/Fire_Up_Distractor.gif"",""img/Fire_Up_Distractor.gif"",""img/Fire_Up_Distractor.gif"",""img/Fire_Up_Distractor.gif"",""img/Fire_Up_Distractor.gif"",""img/Fire_Up_Distractor.gif"",""img/Fire_Up_Distractor.gif"",""img/Fire_Up_Distractor.gif""]","targetDown_distractorsUp"
"","","","","","html-keyboard-response","188","281096","0.0-14.0-0.0-0.87","6156878f1a73eec2378ae3bd","6186fb1cc52d38b480598eb7","618731a5ad3fdffde6315ecd","null","","null","","","","","fixation","","","",""
"","","","","","visual-search-circle","189","283113","0.0-14.0-0.0-1.87","6156878f1a73eec2378ae3bd","6186fb1cc52d38b480598eb7","618731a5ad3fdffde6315ecd","1002.8999999761581","","s","true","[[16,397],[242,594],[526,496],[583,202],[357,5],[73,103]]","false","6","","","img/Fire_Down_Target.gif","[""img/Fire_Up_Distractor.gif"",""img/Fire_Up_Distractor.gif"",""img/Fire_Up_Distractor.gif"",""img/Fire_Up_Distractor.gif"",""img/Fire_Up_Distractor.gif"",""img/Fire_Up_Distractor.gif"",""img/Fire_Up_Distractor.gif"",""img/Fire_Up_Distractor.gif"",""img/Fire_Up_Distractor.gif"",""img/Fire_Up_Distractor.gif"",""img/Fire_Up_Distractor.gif"",""img/Fire_Up_Distractor.gif""]","targetDown_distractorsUp"
"","","","","","html-keyboard-response","190","283115","0.0-14.0-0.0-0.88","6156878f1a73eec2378ae3bd","6186fb1cc52d38b480598eb7","618731a5ad3fdffde6315ecd","null","","null","","","","","fixation","","","",""
"","","","","","visual-search-circle","191","285664","0.0-14.0-0.0-1.88","6156878f1a73eec2378ae3bd","6186fb1cc52d38b480598eb7","618731a5ad3fdffde6315ecd","1536.2999999523163","","s","true","[[331,598],[533,488],[598,268],[488,66],[268,1],[66,111],[1,331],[111,533]]","false","8","","","img/Fire_Down_Target.gif","[""img/Fire_Up_Distractor.gif"",""img/Fire_Up_Distractor.gif"",""img/Fire_Up_Distractor.gif"",""img/Fire_Up_Distractor.gif"",""img/Fire_Up_Distractor.gif"",""img/Fire_Up_Distractor.gif"",""img/Fire_Up_Distractor.gif"",""img/Fire_Up_Distractor.gif"",""img/Fire_Up_Distractor.gif"",""img/Fire_Up_Distractor.gif"",""img/Fire_Up_Distractor.gif"",""img/Fire_Up_Distractor.gif""]","targetDown_distractorsUp"
"","","","","","html-keyboard-response","192","285666","0.0-14.0-0.0-0.89","6156878f1a73eec2378ae3bd","6186fb1cc52d38b480598eb7","618731a5ad3fdffde6315ecd","null","","null","","","","","fixation","","","",""
"","","","","","visual-search-circle","193","287316","0.0-14.0-0.0-1.89","6156878f1a73eec2378ae3bd","6186fb1cc52d38b480598eb7","618731a5ad3fdffde6315ecd","642.2999999523163","","s","true","[[594,242],[336,2],[28,173],[95,519],[445,562]]","false","5","","","img/Fire_Down_Target.gif","[""img/Fire_Up_Distractor.gif"",""img/Fire_Up_Distractor.gif"",""img/Fire_Up_Distractor.gif"",""img/Fire_Up_Distractor.gif"",""img/Fire_Up_Distractor.gif"",""img/Fire_Up_Distractor.gif"",""img/Fire_Up_Distractor.gif"",""img/Fire_Up_Distractor.gif"",""img/Fire_Up_Distractor.gif"",""img/Fire_Up_Distractor.gif"",""img/Fire_Up_Distractor.gif"",""img/Fire_Up_Distractor.gif""]","targetDown_distractorsUp"
"","","","","","html-keyboard-response","194","287318","0.0-14.0-0.0-0.90","6156878f1a73eec2378ae3bd","6186fb1cc52d38b480598eb7","618731a5ad3fdffde6315ecd","null","","null","","","","","fixation","","","",""
"","","","","","visual-search-circle","195","289005","0.0-14.0-0.0-1.90","6156878f1a73eec2378ae3bd","6186fb1cc52d38b480598eb7","618731a5ad3fdffde6315ecd","673.6999999284744","","s","true","[[595,352],[352,4],[4,247],[247,595]]","false","4","","","img/Fire_Down_Target.gif","[""img/Fire_Up_Distractor.gif"",""img/Fire_Up_Distractor.gif"",""img/Fire_Up_Distractor.gif"",""img/Fire_Up_Distractor.gif"",""img/Fire_Up_Distractor.gif"",""img/Fire_Up_Distractor.gif"",""img/Fire_Up_Distractor.gif"",""img/Fire_Up_Distractor.gif"",""img/Fire_Up_Distractor.gif"",""img/Fire_Up_Distractor.gif"",""img/Fire_Up_Distractor.gif"",""img/Fire_Up_Distractor.gif""]","targetDown_distractorsUp"
"","","","","","html-keyboard-response","196","289007","0.0-14.0-0.0-0.91","6156878f1a73eec2378ae3bd","6186fb1cc52d38b480598eb7","618731a5ad3fdffde6315ecd","null","","null","","","","","fixation","","","",""
"","","","","","visual-search-circle","197","292821","0.0-14.0-0.0-1.91","6156878f1a73eec2378ae3bd","6186fb1cc52d38b480598eb7","618731a5ad3fdffde6315ecd","2802.5","","s","true","[[387,586],[564,440],[586,212],[440,35],[212,13],[35,159],[13,387],[159,564]]","false","8","","","img/Fire_Up_Target.gif","[""img/Fire_Down_Distractor.gif"",""img/Fire_Down_Distractor.gif"",""img/Fire_Down_Distractor.gif"",""img/Fire_Down_Distractor.gif"",""img/Fire_Down_Distractor.gif"",""img/Fire_Down_Distractor.gif"",""img/Fire_Down_Distractor.gif"",""img/Fire_Down_Distractor.gif"",""img/Fire_Down_Distractor.gif"",""img/Fire_Down_Distractor.gif"",""img/Fire_Down_Distractor.gif"",""img/Fire_Down_Distractor.gif""]","targetUp_distractorsDown"
"","","","","","html-keyboard-response","198","292823","0.0-14.0-0.0-0.92","6156878f1a73eec2378ae3bd","6186fb1cc52d38b480598eb7","618731a5ad3fdffde6315ecd","null","","null","","","","","fixation","","","",""
"","","","","","visual-search-circle","199","294894","0.0-14.0-0.0-1.92","6156878f1a73eec2378ae3bd","6186fb1cc52d38b480598eb7","618731a5ad3fdffde6315ecd","1062.8999999761581","","d","true","[[268,1],[6,237],[149,559],[500,522],[574,177]]","true","5","","","img/Fire_Up_Target.gif","[""img/Fire_Down_Distractor.gif"",""img/Fire_Down_Distractor.gif"",""img/Fire_Down_Distractor.gif"",""img/Fire_Down_Distractor.gif"",""img/Fire_Down_Distractor.gif"",""img/Fire_Down_Distractor.gif"",""img/Fire_Down_Distractor.gif"",""img/Fire_Down_Distractor.gif"",""img/Fire_Down_Distractor.gif"",""img/Fire_Down_Distractor.gif"",""img/Fire_Down_Distractor.gif"",""img/Fire_Down_Distractor.gif""]","targetUp_distractorsDown"
"","","","","","html-keyboard-response","200","294896","0.0-14.0-0.0-0.93","6156878f1a73eec2378ae3bd","6186fb1cc52d38b480598eb7","618731a5ad3fdffde6315ecd","null","","null","","","","","fixation","","","",""
"","","","","","visual-search-circle","201","297597","0.0-14.0-0.0-1.93","6156878f1a73eec2378ae3bd","6186fb1cc52d38b480598eb7","618731a5ad3fdffde6315ecd","1690.8999999761581","","d","true","[[77,99],[0,315],[99,522],[315,599],[522,500],[599,284],[500,77],[284,0]]","true","8","","","img/Fire_Down_Target.gif","[""img/Fire_Up_Distractor.gif"",""img/Fire_Up_Distractor.gif"",""img/Fire_Up_Distractor.gif"",""img/Fire_Up_Distractor.gif"",""img/Fire_Up_Distractor.gif"",""img/Fire_Up_Distractor.gif"",""img/Fire_Up_Distractor.gif"",""img/Fire_Up_Distractor.gif"",""img/Fire_Up_Distractor.gif"",""img/Fire_Up_Distractor.gif"",""img/Fire_Up_Distractor.gif"",""img/Fire_Up_Distractor.gif""]","targetDown_distractorsUp"
"","","","","","html-keyboard-response","202","297600","0.0-14.0-0.0-0.94","6156878f1a73eec2378ae3bd","6186fb1cc52d38b480598eb7","618731a5ad3fdffde6315ecd","null","","null","","","","","fixation","","","",""
"","","","","","visual-search-circle","203","300269","0.0-14.0-0.0-1.94","6156878f1a73eec2378ae3bd","6186fb1cc52d38b480598eb7","618731a5ad3fdffde6315ecd","1661.5","","s","false","[[187,21],[21,412],[412,578],[578,187]]","true","4","","","img/Fire_Down_Target.gif","[""img/Fire_Up_Distractor.gif"",""img/Fire_Up_Distractor.gif"",""img/Fire_Up_Distractor.gif"",""img/Fire_Up_Distractor.gif"",""img/Fire_Up_Distractor.gif"",""img/Fire_Up_Distractor.gif"",""img/Fire_Up_Distractor.gif"",""img/Fire_Up_Distractor.gif"",""img/Fire_Up_Distractor.gif"",""img/Fire_Up_Distractor.gif"",""img/Fire_Up_Distractor.gif"",""img/Fire_Up_Distractor.gif""]","targetDown_distractorsUp"
"","","","","","html-keyboard-response","204","300271","0.0-14.0-0.0-0.95","6156878f1a73eec2378ae3bd","6186fb1cc52d38b480598eb7","618731a5ad3fdffde6315ecd","null","","null","","","","","fixation","","","",""
"","","","","","visual-search-circle","205","302622","0.0-14.0-0.0-1.95","6156878f1a73eec2378ae3bd","6186fb1cc52d38b480598eb7","618731a5ad3fdffde6315ecd","1339.7999999523163","","s","true","[[70,492],[352,595],[581,402],[529,107],[247,4],[18,197]]","false","6","","","img/Fire_Down_Target.gif","[""img/Fire_Up_Distractor.gif"",""img/Fire_Up_Distractor.gif"",""img/Fire_Up_Distractor.gif"",""img/Fire_Up_Distractor.gif"",""img/Fire_Up_Distractor.gif"",""img/Fire_Up_Distractor.gif"",""img/Fire_Up_Distractor.gif"",""img/Fire_Up_Distractor.gif"",""img/Fire_Up_Distractor.gif"",""img/Fire_Up_Distractor.gif"",""img/Fire_Up_Distractor.gif"",""img/Fire_Up_Distractor.gif""]","targetDown_distractorsUp"
"","","","","","html-keyboard-response","206","302624","0.0-14.0-0.0-0.96","6156878f1a73eec2378ae3bd","6186fb1cc52d38b480598eb7","618731a5ad3fdffde6315ecd","null","","null","","","","","fixation","","","",""
"","","","","","visual-search-circle","207","304714","0.0-14.0-0.0-1.96","6156878f1a73eec2378ae3bd","6186fb1cc52d38b480598eb7","618731a5ad3fdffde6315ecd","1073.1000000238419","","d","false","[[352,4],[4,247],[247,595],[595,352]]","false","4","","","img/Fire_Down_Target.gif","[""img/Fire_Up_Distractor.gif"",""img/Fire_Up_Distractor.gif"",""img/Fire_Up_Distractor.gif"",""img/Fire_Up_Distractor.gif"",""img/Fire_Up_Distractor.gif"",""img/Fire_Up_Distractor.gif"",""img/Fire_Up_Distractor.gif"",""img/Fire_Up_Distractor.gif"",""img/Fire_Up_Distractor.gif"",""img/Fire_Up_Distractor.gif"",""img/Fire_Up_Distractor.gif"",""img/Fire_Up_Distractor.gif""]","targetDown_distractorsUp"
"","","","","","html-keyboard-response","208","304716","0.0-14.0-0.0-0.97","6156878f1a73eec2378ae3bd","6186fb1cc52d38b480598eb7","618731a5ad3fdffde6315ecd","null","","null","","","","","fixation","","","",""
"","","","","","visual-search-circle","209","306550","0.0-14.0-0.0-1.97","6156878f1a73eec2378ae3bd","6186fb1cc52d38b480598eb7","618731a5ad3fdffde6315ecd","829.0999999046326","","d","true","[[289,599],[527,495],[594,243],[439,34],[179,25],[10,223],[59,478]]","true","7","","","img/Fire_Down_Target.gif","[""img/Fire_Up_Distractor.gif"",""img/Fire_Up_Distractor.gif"",""img/Fire_Up_Distractor.gif"",""img/Fire_Up_Distractor.gif"",""img/Fire_Up_Distractor.gif"",""img/Fire_Up_Distractor.gif"",""img/Fire_Up_Distractor.gif"",""img/Fire_Up_Distractor.gif"",""img/Fire_Up_Distractor.gif"",""img/Fire_Up_Distractor.gif"",""img/Fire_Up_Distractor.gif"",""img/Fire_Up_Distractor.gif""]","targetDown_distractorsUp"
"","","","","","html-keyboard-response","210","306556","0.0-14.0-0.0-0.98","6156878f1a73eec2378ae3bd","6186fb1cc52d38b480598eb7","618731a5ad3fdffde6315ecd","null","","null","","","","","fixation","","","",""
"","","","","","visual-search-circle","211","310666","0.0-14.0-0.0-1.98","6156878f1a73eec2378ae3bd","6186fb1cc52d38b480598eb7","618731a5ad3fdffde6315ecd","3102.2999999523163","","d","true","[[6,237],[149,559],[500,522],[574,177],[268,1]]","true","5","","","img/Fire_Down_Target.gif","[""img/Fire_Up_Distractor.gif"",""img/Fire_Up_Distractor.gif"",""img/Fire_Up_Distractor.gif"",""img/Fire_Up_Distractor.gif"",""img/Fire_Up_Distractor.gif"",""img/Fire_Up_Distractor.gif"",""img/Fire_Up_Distractor.gif"",""img/Fire_Up_Distractor.gif"",""img/Fire_Up_Distractor.gif"",""img/Fire_Up_Distractor.gif"",""img/Fire_Up_Distractor.gif"",""img/Fire_Up_Distractor.gif""]","targetDown_distractorsUp"
"","","","","","html-keyboard-response","212","311470","0.0-14.0-0.0-0.99","6156878f1a73eec2378ae3bd","6186fb1cc52d38b480598eb7","618731a5ad3fdffde6315ecd","803.1000000238419","Wow! You've completed 100 out of 120 trials! </p> <p>  </p><p> Take a quick break, then press any key when you're ready to continue."," ","","","","","fixation","","","",""
"","","","","","visual-search-circle","213","314122","0.0-14.0-0.0-1.99","6156878f1a73eec2378ae3bd","6186fb1cc52d38b480598eb7","618731a5ad3fdffde6315ecd","1635.6999999284744","","s","true","[[54,127],[4,352],[127,545],[352,595],[545,472],[595,247],[472,54],[247,4]]","false","8","","","img/Fire_Up_Target.gif","[""img/Fire_Down_Distractor.gif"",""img/Fire_Down_Distractor.gif"",""img/Fire_Down_Distractor.gif"",""img/Fire_Down_Distractor.gif"",""img/Fire_Down_Distractor.gif"",""img/Fire_Down_Distractor.gif"",""img/Fire_Down_Distractor.gif"",""img/Fire_Down_Distractor.gif"",""img/Fire_Down_Distractor.gif"",""img/Fire_Down_Distractor.gif"",""img/Fire_Down_Distractor.gif"",""img/Fire_Down_Distractor.gif""]","targetUp_distractorsDown"
"","","","","","html-keyboard-response","214","314124","0.0-14.0-0.0-0.100","6156878f1a73eec2378ae3bd","6186fb1cc52d38b480598eb7","618731a5ad3fdffde6315ecd","null","","null","","","","","fixation","","","",""
"","","","","","visual-search-circle","215","316004","0.0-14.0-0.0-1.100","6156878f1a73eec2378ae3bd","6186fb1cc52d38b480598eb7","618731a5ad3fdffde6315ecd","861.7000000476837","","s","true","[[6,362],[207,585],[500,522],[593,237],[392,14],[99,77]]","false","6","","","img/Fire_Up_Target.gif","[""img/Fire_Down_Distractor.gif"",""img/Fire_Down_Distractor.gif"",""img/Fire_Down_Distractor.gif"",""img/Fire_Down_Distractor.gif"",""img/Fire_Down_Distractor.gif"",""img/Fire_Down_Distractor.gif"",""img/Fire_Down_Distractor.gif"",""img/Fire_Down_Distractor.gif"",""img/Fire_Down_Distractor.gif"",""img/Fire_Down_Distractor.gif"",""img/Fire_Down_Distractor.gif"",""img/Fire_Down_Distractor.gif""]","targetUp_distractorsDown"
"","","","","","html-keyboard-response","216","316006","0.0-14.0-0.0-0.101","6156878f1a73eec2378ae3bd","6186fb1cc52d38b480598eb7","618731a5ad3fdffde6315ecd","null","","null","","","","","fixation","","","",""
"","","","","","visual-search-circle","217","318405","0.0-14.0-0.0-1.101","6156878f1a73eec2378ae3bd","6186fb1cc52d38b480598eb7","618731a5ad3fdffde6315ecd","1387.8999999761581","","d","true","[[599,289],[504,80],[289,0],[80,95],[0,310],[95,519],[310,599],[519,504]]","true","8","","","img/Fire_Down_Target.gif","[""img/Fire_Up_Distractor.gif"",""img/Fire_Up_Distractor.gif"",""img/Fire_Up_Distractor.gif"",""img/Fire_Up_Distractor.gif"",""img/Fire_Up_Distractor.gif"",""img/Fire_Up_Distractor.gif"",""img/Fire_Up_Distractor.gif"",""img/Fire_Up_Distractor.gif"",""img/Fire_Up_Distractor.gif"",""img/Fire_Up_Distractor.gif"",""img/Fire_Up_Distractor.gif"",""img/Fire_Up_Distractor.gif""]","targetDown_distractorsUp"
"","","","","","html-keyboard-response","218","318408","0.0-14.0-0.0-0.102","6156878f1a73eec2378ae3bd","6186fb1cc52d38b480598eb7","618731a5ad3fdffde6315ecd","null","","null","","","","","fixation","","","",""
"","","","","","visual-search-circle","219","321153","0.0-14.0-0.0-1.102","6156878f1a73eec2378ae3bd","6186fb1cc52d38b480598eb7","618731a5ad3fdffde6315ecd","1731","","d","true","[[539,480],[545,127],[212,13],[0,294],[202,583]]","true","5","","","img/Fire_Up_Target.gif","[""img/Fire_Down_Distractor.gif"",""img/Fire_Down_Distractor.gif"",""img/Fire_Down_Distractor.gif"",""img/Fire_Down_Distractor.gif"",""img/Fire_Down_Distractor.gif"",""img/Fire_Down_Distractor.gif"",""img/Fire_Down_Distractor.gif"",""img/Fire_Down_Distractor.gif"",""img/Fire_Down_Distractor.gif"",""img/Fire_Down_Distractor.gif"",""img/Fire_Down_Distractor.gif"",""img/Fire_Down_Distractor.gif""]","targetUp_distractorsDown"
"","","","","","html-keyboard-response","220","321155","0.0-14.0-0.0-0.103","6156878f1a73eec2378ae3bd","6186fb1cc52d38b480598eb7","618731a5ad3fdffde6315ecd","null","","null","","","","","fixation","","","",""
"","","","","","visual-search-circle","221","323544","0.0-14.0-0.0-1.103","6156878f1a73eec2378ae3bd","6186fb1cc52d38b480598eb7","618731a5ad3fdffde6315ecd","1371","","d","true","[[187,578],[484,536],[597,258],[412,21],[115,63],[2,341]]","true","6","","","img/Fire_Down_Target.gif","[""img/Fire_Up_Distractor.gif"",""img/Fire_Up_Distractor.gif"",""img/Fire_Up_Distractor.gif"",""img/Fire_Up_Distractor.gif"",""img/Fire_Up_Distractor.gif"",""img/Fire_Up_Distractor.gif"",""img/Fire_Up_Distractor.gif"",""img/Fire_Up_Distractor.gif"",""img/Fire_Up_Distractor.gif"",""img/Fire_Up_Distractor.gif"",""img/Fire_Up_Distractor.gif"",""img/Fire_Up_Distractor.gif""]","targetDown_distractorsUp"
"","","","","","html-keyboard-response","222","323546","0.0-14.0-0.0-0.104","6156878f1a73eec2378ae3bd","6186fb1cc52d38b480598eb7","618731a5ad3fdffde6315ecd","null","","null","","","","","fixation","","","",""
