"success","timeout","failed_images","failed_audio","failed_video","trial_type","trial_index","time_elapsed","internal_node_id","subject_id","study_id","session_id","rt","stimulus","response","correct","locations","target_present","set_size","task","correct_response","target","foilCM","searchCondition"
"true","false","[]","[]","[]","preload","0","4779","0.0-0.0","61645bc01c5b213c62ee0473","6186fb1cc52d38b480598eb7","618733cba8cce9010c72c0d2","","","","","","","","","","","",""
"true","","","","","fullscreen","1","8133","0.0-1.0","61645bc01c5b213c62ee0473","6186fb1cc52d38b480598eb7","618733cba8cce9010c72c0d2","","","","","","","","","","","",""
"","","","","","html-keyboard-response","2","15610","0.0-2.0","61645bc01c5b213c62ee0473","6186fb1cc52d38b480598eb7","618733cba8cce9010c72c0d2","7473","What a beautiful Saturday to do some awesome science! </p> <p>  </p><p> </p>
    By completing this survey or questionnaire, you are consenting to be in this research study. </p>
    Your participation is voluntary and you can stop at any time.
    <p> [Press any key to continue.] </p>
    
    ",";","","","","","","","","",""
"","","","","","video-keyboard-response","3","40150","0.0-3.0","61645bc01c5b213c62ee0473","6186fb1cc52d38b480598eb7","618733cba8cce9010c72c0d2","24430","[""video/TaskInstructions.mp4""]","d","","","","","","","","",""
"","","","","","html-keyboard-response","4","42861","0.0-4.0","61645bc01c5b213c62ee0473","6186fb1cc52d38b480598eb7","618733cba8cce9010c72c0d2","2710","
    <p>First, we're going to do a few practice trials to make sure you understand the task. You will recieve feedback on each trial. </p>

    <p>[Press any key to begin the familiarization phase.]</p>
    ","d","","","","","","","","",""
"","","","","","visual-search-circle","5","47006","0.0-5.0-0.0","61645bc01c5b213c62ee0473","6186fb1cc52d38b480598eb7","618733cba8cce9010c72c0d2","3085","","d","true","[[382,588],[588,217],[217,11],[11,382]]","true","4","training","d","","",""
"","","","","","html-keyboard-response","6","48544","0.0-6.0","61645bc01c5b213c62ee0473","6186fb1cc52d38b480598eb7","618733cba8cce9010c72c0d2","1535"," <div style='float: center; '><img src='img/feedbackRight.png'></img> </div> ","d","","","","","","","","",""
"","","","","","visual-search-circle","7","52507","0.0-7.0-0.0","61645bc01c5b213c62ee0473","6186fb1cc52d38b480598eb7","618733cba8cce9010c72c0d2","2959","","s","true","[[217,11],[11,382],[382,588],[588,217]]","false","4","training","s","","",""
"","","","","","html-keyboard-response","8","53749","0.0-8.0","61645bc01c5b213c62ee0473","6186fb1cc52d38b480598eb7","618733cba8cce9010c72c0d2","1241"," <div style='float: center; '><img src='img/feedbackRight.png'></img> </div> ","s","","","","","","","","",""
"","","","","","visual-search-circle","9","57145","0.0-9.0-0.0","61645bc01c5b213c62ee0473","6186fb1cc52d38b480598eb7","618733cba8cce9010c72c0d2","2386","","d","false","[[13,387],[232,592],[519,504],[586,212],[367,7],[80,95]]","false","6","training","s","","",""
"","","","","","html-keyboard-response","10","59980","0.0-10.0","61645bc01c5b213c62ee0473","6186fb1cc52d38b480598eb7","618733cba8cce9010c72c0d2","2833"," <div style='float: center;'><img src='img/feedbackWrong.png'></img> </div> ","d","","","","","","","","",""
"","","","","","visual-search-circle","11","64381","0.0-11.0-0.0","61645bc01c5b213c62ee0473","6186fb1cc52d38b480598eb7","618733cba8cce9010c72c0d2","3393","","d","true","[[551,463],[593,237],[463,48],[237,6],[48,136],[6,362],[136,551],[362,593]]","true","8","training","d","","",""
"","","","","","html-keyboard-response","12","65999","0.0-12.0","61645bc01c5b213c62ee0473","6186fb1cc52d38b480598eb7","618733cba8cce9010c72c0d2","1617"," <div style='float: center; '><img src='img/feedbackRight.png'></img> </div> ","d","","","","","","","","",""
"","","","","","video-keyboard-response","13","68038","0.0-13.0","61645bc01c5b213c62ee0473","6186fb1cc52d38b480598eb7","618733cba8cce9010c72c0d2","2037","[""video/endTraining.mp4""]","d","","","","","","","","",""
"","","","","","html-keyboard-response","14","68041","0.0-14.0-0.0-0.0","61645bc01c5b213c62ee0473","6186fb1cc52d38b480598eb7","618733cba8cce9010c72c0d2","null","","null","","","","","fixation","","","",""
"","","","","","visual-search-circle","15","71804","0.0-14.0-0.0-1.0","61645bc01c5b213c62ee0473","6186fb1cc52d38b480598eb7","618733cba8cce9010c72c0d2","2752","","d","true","[[504,519],[571,173],[263,2],[5,242],[154,562]]","true","5","","","img/Fire_Down_Target.gif","[""img/Fire_Up_Distractor.gif"",""img/Fire_Up_Distractor.gif"",""img/Fire_Up_Distractor.gif"",""img/Fire_Up_Distractor.gif"",""img/Fire_Up_Distractor.gif"",""img/Fire_Up_Distractor.gif"",""img/Fire_Up_Distractor.gif"",""img/Fire_Up_Distractor.gif"",""img/Fire_Up_Distractor.gif"",""img/Fire_Up_Distractor.gif"",""img/Fire_Up_Distractor.gif"",""img/Fire_Up_Distractor.gif""]","targetDown_distractorsUp"
"","","","","","html-keyboard-response","16","71806","0.0-14.0-0.0-0.1","61645bc01c5b213c62ee0473","6186fb1cc52d38b480598eb7","618733cba8cce9010c72c0d2","null","","null","","","","","fixation","","","",""
"","","","","","visual-search-circle","17","75030","0.0-14.0-0.0-1.1","61645bc01c5b213c62ee0473","6186fb1cc52d38b480598eb7","618733cba8cce9010c72c0d2","2215","","s","true","[[598,268],[488,66],[268,1],[66,111],[1,331],[111,533],[331,598],[533,488]]","false","8","","","img/Fire_Up_Target.gif","[""img/Fire_Down_Distractor.gif"",""img/Fire_Down_Distractor.gif"",""img/Fire_Down_Distractor.gif"",""img/Fire_Down_Distractor.gif"",""img/Fire_Down_Distractor.gif"",""img/Fire_Down_Distractor.gif"",""img/Fire_Down_Distractor.gif"",""img/Fire_Down_Distractor.gif"",""img/Fire_Down_Distractor.gif"",""img/Fire_Down_Distractor.gif"",""img/Fire_Down_Distractor.gif"",""img/Fire_Down_Distractor.gif""]","targetUp_distractorsDown"
"","","","","","html-keyboard-response","18","75031","0.0-14.0-0.0-0.2","61645bc01c5b213c62ee0473","6186fb1cc52d38b480598eb7","618733cba8cce9010c72c0d2","null","","null","","","","","fixation","","","",""
"","","","","","visual-search-circle","19","77800","0.0-14.0-0.0-1.2","61645bc01c5b213c62ee0473","6186fb1cc52d38b480598eb7","618733cba8cce9010c72c0d2","1759","","d","true","[[177,25],[25,422],[422,574],[574,177]]","true","4","","","img/Fire_Up_Target.gif","[""img/Fire_Down_Distractor.gif"",""img/Fire_Down_Distractor.gif"",""img/Fire_Down_Distractor.gif"",""img/Fire_Down_Distractor.gif"",""img/Fire_Down_Distractor.gif"",""img/Fire_Down_Distractor.gif"",""img/Fire_Down_Distractor.gif"",""img/Fire_Down_Distractor.gif"",""img/Fire_Down_Distractor.gif"",""img/Fire_Down_Distractor.gif"",""img/Fire_Down_Distractor.gif"",""img/Fire_Down_Distractor.gif""]","targetUp_distractorsDown"
"","","","","","html-keyboard-response","20","77800","0.0-14.0-0.0-0.3","61645bc01c5b213c62ee0473","6186fb1cc52d38b480598eb7","618733cba8cce9010c72c0d2","null","","null","","","","","fixation","","","",""
"","","","","","visual-search-circle","21","80211","0.0-14.0-0.0-1.3","61645bc01c5b213c62ee0473","6186fb1cc52d38b480598eb7","618733cba8cce9010c72c0d2","1405","","d","true","[[315,0],[19,192],[111,533],[463,551],[589,222]]","true","5","","","img/Fire_Down_Target.gif","[""img/Fire_Up_Distractor.gif"",""img/Fire_Up_Distractor.gif"",""img/Fire_Up_Distractor.gif"",""img/Fire_Up_Distractor.gif"",""img/Fire_Up_Distractor.gif"",""img/Fire_Up_Distractor.gif"",""img/Fire_Up_Distractor.gif"",""img/Fire_Up_Distractor.gif"",""img/Fire_Up_Distractor.gif"",""img/Fire_Up_Distractor.gif"",""img/Fire_Up_Distractor.gif"",""img/Fire_Up_Distractor.gif""]","targetDown_distractorsUp"
"","","","","","html-keyboard-response","22","80211","0.0-14.0-0.0-0.4","61645bc01c5b213c62ee0473","6186fb1cc52d38b480598eb7","618733cba8cce9010c72c0d2","null","","null","","","","","fixation","","","",""
"","","","","","visual-search-circle","23","83521","0.0-14.0-0.0-1.4","61645bc01c5b213c62ee0473","6186fb1cc52d38b480598eb7","618733cba8cce9010c72c0d2","2302","","s","false","[[458,554],[598,334],[512,88],[267,1],[46,139],[16,398],[200,582]]","true","7","","","img/Fire_Up_Target.gif","[""img/Fire_Down_Distractor.gif"",""img/Fire_Down_Distractor.gif"",""img/Fire_Down_Distractor.gif"",""img/Fire_Down_Distractor.gif"",""img/Fire_Down_Distractor.gif"",""img/Fire_Down_Distractor.gif"",""img/Fire_Down_Distractor.gif"",""img/Fire_Down_Distractor.gif"",""img/Fire_Down_Distractor.gif"",""img/Fire_Down_Distractor.gif"",""img/Fire_Down_Distractor.gif"",""img/Fire_Down_Distractor.gif""]","targetUp_distractorsDown"
"","","","","","html-keyboard-response","24","83523","0.0-14.0-0.0-0.5","61645bc01c5b213c62ee0473","6186fb1cc52d38b480598eb7","618733cba8cce9010c72c0d2","null","","null","","","","","fixation","","","",""
"","","","","","visual-search-circle","25","86520","0.0-14.0-0.0-1.5","61645bc01c5b213c62ee0473","6186fb1cc52d38b480598eb7","618733cba8cce9010c72c0d2","1990","","s","true","[[10,377],[149,559],[377,589],[559,450],[589,222],[450,40],[222,10],[40,150]]","false","8","","","img/Fire_Down_Target.gif","[""img/Fire_Up_Distractor.gif"",""img/Fire_Up_Distractor.gif"",""img/Fire_Up_Distractor.gif"",""img/Fire_Up_Distractor.gif"",""img/Fire_Up_Distractor.gif"",""img/Fire_Up_Distractor.gif"",""img/Fire_Up_Distractor.gif"",""img/Fire_Up_Distractor.gif"",""img/Fire_Up_Distractor.gif"",""img/Fire_Up_Distractor.gif"",""img/Fire_Up_Distractor.gif"",""img/Fire_Up_Distractor.gif""]","targetDown_distractorsUp"
"","","","","","html-keyboard-response","26","86521","0.0-14.0-0.0-0.6","61645bc01c5b213c62ee0473","6186fb1cc52d38b480598eb7","618733cba8cce9010c72c0d2","null","","null","","","","","fixation","","","",""
"","","","","","visual-search-circle","27","88754","0.0-14.0-0.0-1.6","61645bc01c5b213c62ee0473","6186fb1cc52d38b480598eb7","618733cba8cce9010c72c0d2","1228","","d","true","[[574,177],[331,1],[57,123],[25,422],[268,598],[542,476]]","true","6","","","img/Fire_Down_Target.gif","[""img/Fire_Up_Distractor.gif"",""img/Fire_Up_Distractor.gif"",""img/Fire_Up_Distractor.gif"",""img/Fire_Up_Distractor.gif"",""img/Fire_Up_Distractor.gif"",""img/Fire_Up_Distractor.gif"",""img/Fire_Up_Distractor.gif"",""img/Fire_Up_Distractor.gif"",""img/Fire_Up_Distractor.gif"",""img/Fire_Up_Distractor.gif"",""img/Fire_Up_Distractor.gif"",""img/Fire_Up_Distractor.gif""]","targetDown_distractorsUp"
"","","","","","html-keyboard-response","28","88755","0.0-14.0-0.0-0.7","61645bc01c5b213c62ee0473","6186fb1cc52d38b480598eb7","618733cba8cce9010c72c0d2","null","","null","","","","","fixation","","","",""
"","","","","","visual-search-circle","29","93958","0.0-14.0-0.0-1.7","61645bc01c5b213c62ee0473","6186fb1cc52d38b480598eb7","618733cba8cce9010c72c0d2","4193","","s","true","[[5,242],[242,594],[594,357],[357,5]]","false","4","","","img/Fire_Up_Target.gif","[""img/Fire_Down_Distractor.gif"",""img/Fire_Down_Distractor.gif"",""img/Fire_Down_Distractor.gif"",""img/Fire_Down_Distractor.gif"",""img/Fire_Down_Distractor.gif"",""img/Fire_Down_Distractor.gif"",""img/Fire_Down_Distractor.gif"",""img/Fire_Down_Distractor.gif"",""img/Fire_Down_Distractor.gif"",""img/Fire_Down_Distractor.gif"",""img/Fire_Down_Distractor.gif"",""img/Fire_Down_Distractor.gif""]","targetUp_distractorsDown"
"","","","","","html-keyboard-response","30","93959","0.0-14.0-0.0-0.8","61645bc01c5b213c62ee0473","6186fb1cc52d38b480598eb7","618733cba8cce9010c72c0d2","null","","null","","","","","fixation","","","",""
"","","","","","visual-search-circle","31","97608","0.0-14.0-0.0-1.8","61645bc01c5b213c62ee0473","6186fb1cc52d38b480598eb7","618733cba8cce9010c72c0d2","2642","","s","true","[[597,258],[452,41],[193,19],[14,208],[50,466],[274,598],[517,506]]","false","7","","","img/Fire_Down_Target.gif","[""img/Fire_Up_Distractor.gif"",""img/Fire_Up_Distractor.gif"",""img/Fire_Up_Distractor.gif"",""img/Fire_Up_Distractor.gif"",""img/Fire_Up_Distractor.gif"",""img/Fire_Up_Distractor.gif"",""img/Fire_Up_Distractor.gif"",""img/Fire_Up_Distractor.gif"",""img/Fire_Up_Distractor.gif"",""img/Fire_Up_Distractor.gif"",""img/Fire_Up_Distractor.gif"",""img/Fire_Up_Distractor.gif""]","targetDown_distractorsUp"
"","","","","","html-keyboard-response","32","97609","0.0-14.0-0.0-0.9","61645bc01c5b213c62ee0473","6186fb1cc52d38b480598eb7","618733cba8cce9010c72c0d2","null","","null","","","","","fixation","","","",""
"","","","","","visual-search-circle","33","101675","0.0-14.0-0.0-1.9","61645bc01c5b213c62ee0473","6186fb1cc52d38b480598eb7","618733cba8cce9010c72c0d2","3064","","s","true","[[599,320],[502,79],[253,3],[39,151],[21,410],[213,587],[470,547]]","false","7","","","img/Fire_Down_Target.gif","[""img/Fire_Up_Distractor.gif"",""img/Fire_Up_Distractor.gif"",""img/Fire_Up_Distractor.gif"",""img/Fire_Up_Distractor.gif"",""img/Fire_Up_Distractor.gif"",""img/Fire_Up_Distractor.gif"",""img/Fire_Up_Distractor.gif"",""img/Fire_Up_Distractor.gif"",""img/Fire_Up_Distractor.gif"",""img/Fire_Up_Distractor.gif"",""img/Fire_Up_Distractor.gif"",""img/Fire_Up_Distractor.gif""]","targetDown_distractorsUp"
"","","","","","html-keyboard-response","34","101676","0.0-14.0-0.0-0.10","61645bc01c5b213c62ee0473","6186fb1cc52d38b480598eb7","618733cba8cce9010c72c0d2","null","","null","","","","","fixation","","","",""
"","","","","","visual-search-circle","35","104794","0.0-14.0-0.0-1.10","61645bc01c5b213c62ee0473","6186fb1cc52d38b480598eb7","618733cba8cce9010c72c0d2","2109","","d","true","[[496,73],[145,42],[7,367],[273,598],[576,417]]","true","5","","","img/Fire_Up_Target.gif","[""img/Fire_Down_Distractor.gif"",""img/Fire_Down_Distractor.gif"",""img/Fire_Down_Distractor.gif"",""img/Fire_Down_Distractor.gif"",""img/Fire_Down_Distractor.gif"",""img/Fire_Down_Distractor.gif"",""img/Fire_Down_Distractor.gif"",""img/Fire_Down_Distractor.gif"",""img/Fire_Down_Distractor.gif"",""img/Fire_Down_Distractor.gif"",""img/Fire_Down_Distractor.gif"",""img/Fire_Down_Distractor.gif""]","targetUp_distractorsDown"
"","","","","","html-keyboard-response","36","104795","0.0-14.0-0.0-0.11","61645bc01c5b213c62ee0473","6186fb1cc52d38b480598eb7","618733cba8cce9010c72c0d2","null","","null","","","","","fixation","","","",""
"","","","","","visual-search-circle","37","112610","0.0-14.0-0.0-1.11","61645bc01c5b213c62ee0473","6186fb1cc52d38b480598eb7","618733cba8cce9010c72c0d2","6806","","s","true","[[581,402],[529,107],[247,4],[18,197],[70,492],[352,595]]","false","6","","","img/Fire_Down_Target.gif","[""img/Fire_Up_Distractor.gif"",""img/Fire_Up_Distractor.gif"",""img/Fire_Up_Distractor.gif"",""img/Fire_Up_Distractor.gif"",""img/Fire_Up_Distractor.gif"",""img/Fire_Up_Distractor.gif"",""img/Fire_Up_Distractor.gif"",""img/Fire_Up_Distractor.gif"",""img/Fire_Up_Distractor.gif"",""img/Fire_Up_Distractor.gif"",""img/Fire_Up_Distractor.gif"",""img/Fire_Up_Distractor.gif""]","targetDown_distractorsUp"
"","","","","","html-keyboard-response","38","112611","0.0-14.0-0.0-0.12","61645bc01c5b213c62ee0473","6186fb1cc52d38b480598eb7","618733cba8cce9010c72c0d2","null","","null","","","","","fixation","","","",""
"","","","","","visual-search-circle","39","116928","0.0-14.0-0.0-1.12","61645bc01c5b213c62ee0473","6186fb1cc52d38b480598eb7","618733cba8cce9010c72c0d2","3311","","s","true","[[66,488],[302,599],[535,485],[591,231],[428,28],[167,30],[7,235]]","false","7","","","img/Fire_Up_Target.gif","[""img/Fire_Down_Distractor.gif"",""img/Fire_Down_Distractor.gif"",""img/Fire_Down_Distractor.gif"",""img/Fire_Down_Distractor.gif"",""img/Fire_Down_Distractor.gif"",""img/Fire_Down_Distractor.gif"",""img/Fire_Down_Distractor.gif"",""img/Fire_Down_Distractor.gif"",""img/Fire_Down_Distractor.gif"",""img/Fire_Down_Distractor.gif"",""img/Fire_Down_Distractor.gif"",""img/Fire_Down_Distractor.gif""]","targetUp_distractorsDown"
"","","","","","html-keyboard-response","40","116930","0.0-14.0-0.0-0.13","61645bc01c5b213c62ee0473","6186fb1cc52d38b480598eb7","618733cba8cce9010c72c0d2","null","","null","","","","","fixation","","","",""
"","","","","","visual-search-circle","41","123078","0.0-14.0-0.0-1.13","61645bc01c5b213c62ee0473","6186fb1cc52d38b480598eb7","618733cba8cce9010c72c0d2","5141","","s","true","[[51,132],[132,548],[548,467],[467,51]]","false","4","","","img/Fire_Up_Target.gif","[""img/Fire_Down_Distractor.gif"",""img/Fire_Down_Distractor.gif"",""img/Fire_Down_Distractor.gif"",""img/Fire_Down_Distractor.gif"",""img/Fire_Down_Distractor.gif"",""img/Fire_Down_Distractor.gif"",""img/Fire_Down_Distractor.gif"",""img/Fire_Down_Distractor.gif"",""img/Fire_Down_Distractor.gif"",""img/Fire_Down_Distractor.gif"",""img/Fire_Down_Distractor.gif"",""img/Fire_Down_Distractor.gif""]","targetUp_distractorsDown"
"","","","","","html-keyboard-response","42","123079","0.0-14.0-0.0-0.14","61645bc01c5b213c62ee0473","6186fb1cc52d38b480598eb7","618733cba8cce9010c72c0d2","null","","null","","","","","fixation","","","",""
"","","","","","visual-search-circle","43","129238","0.0-14.0-0.0-1.14","61645bc01c5b213c62ee0473","6186fb1cc52d38b480598eb7","618733cba8cce9010c72c0d2","5155","","d","false","[[526,496],[595,245],[441,35],[181,24],[10,220],[57,476],[287,599]]","false","7","","","img/Fire_Down_Target.gif","[""img/Fire_Up_Distractor.gif"",""img/Fire_Up_Distractor.gif"",""img/Fire_Up_Distractor.gif"",""img/Fire_Up_Distractor.gif"",""img/Fire_Up_Distractor.gif"",""img/Fire_Up_Distractor.gif"",""img/Fire_Up_Distractor.gif"",""img/Fire_Up_Distractor.gif"",""img/Fire_Up_Distractor.gif"",""img/Fire_Up_Distractor.gif"",""img/Fire_Up_Distractor.gif"",""img/Fire_Up_Distractor.gif""]","targetDown_distractorsUp"
"","","","","","html-keyboard-response","44","129238","0.0-14.0-0.0-0.15","61645bc01c5b213c62ee0473","6186fb1cc52d38b480598eb7","618733cba8cce9010c72c0d2","null","","null","","","","","fixation","","","",""
"","","","","","visual-search-circle","45","131940","0.0-14.0-0.0-1.15","61645bc01c5b213c62ee0473","6186fb1cc52d38b480598eb7","618733cba8cce9010c72c0d2","1695","","d","true","[[571,426],[568,166],[363,6],[110,67],[0,303],[115,536],[370,591]]","true","7","","","img/Fire_Down_Target.gif","[""img/Fire_Up_Distractor.gif"",""img/Fire_Up_Distractor.gif"",""img/Fire_Up_Distractor.gif"",""img/Fire_Up_Distractor.gif"",""img/Fire_Up_Distractor.gif"",""img/Fire_Up_Distractor.gif"",""img/Fire_Up_Distractor.gif"",""img/Fire_Up_Distractor.gif"",""img/Fire_Up_Distractor.gif"",""img/Fire_Up_Distractor.gif"",""img/Fire_Up_Distractor.gif"",""img/Fire_Up_Distractor.gif""]","targetDown_distractorsUp"
"","","","","","html-keyboard-response","46","131941","0.0-14.0-0.0-0.16","61645bc01c5b213c62ee0473","6186fb1cc52d38b480598eb7","618733cba8cce9010c72c0d2","null","","null","","","","","fixation","","","",""
"","","","","","visual-search-circle","47","135647","0.0-14.0-0.0-1.16","61645bc01c5b213c62ee0473","6186fb1cc52d38b480598eb7","618733cba8cce9010c72c0d2","2696","","s","true","[[54,127],[12,384],[186,577],[446,561],[596,348],[522,98],[281,0]]","false","7","","","img/Fire_Down_Target.gif","[""img/Fire_Up_Distractor.gif"",""img/Fire_Up_Distractor.gif"",""img/Fire_Up_Distractor.gif"",""img/Fire_Up_Distractor.gif"",""img/Fire_Up_Distractor.gif"",""img/Fire_Up_Distractor.gif"",""img/Fire_Up_Distractor.gif"",""img/Fire_Up_Distractor.gif"",""img/Fire_Up_Distractor.gif"",""img/Fire_Up_Distractor.gif"",""img/Fire_Up_Distractor.gif"",""img/Fire_Up_Distractor.gif""]","targetDown_distractorsUp"
"","","","","","html-keyboard-response","48","135647","0.0-14.0-0.0-0.17","61645bc01c5b213c62ee0473","6186fb1cc52d38b480598eb7","618733cba8cce9010c72c0d2","null","","null","","","","","fixation","","","",""
"","","","","","visual-search-circle","49","137776","0.0-14.0-0.0-1.17","61645bc01c5b213c62ee0473","6186fb1cc52d38b480598eb7","618733cba8cce9010c72c0d2","1120","","d","true","[[145,42],[0,305],[154,562],[454,557],[599,294],[445,37]]","true","6","","","img/Fire_Down_Target.gif","[""img/Fire_Up_Distractor.gif"",""img/Fire_Up_Distractor.gif"",""img/Fire_Up_Distractor.gif"",""img/Fire_Up_Distractor.gif"",""img/Fire_Up_Distractor.gif"",""img/Fire_Up_Distractor.gif"",""img/Fire_Up_Distractor.gif"",""img/Fire_Up_Distractor.gif"",""img/Fire_Up_Distractor.gif"",""img/Fire_Up_Distractor.gif"",""img/Fire_Up_Distractor.gif"",""img/Fire_Up_Distractor.gif""]","targetDown_distractorsUp"
"","","","","","html-keyboard-response","50","137776","0.0-14.0-0.0-0.18","61645bc01c5b213c62ee0473","6186fb1cc52d38b480598eb7","618733cba8cce9010c72c0d2","null","","null","","","","","fixation","","","",""
"","","","","","visual-search-circle","51","140868","0.0-14.0-0.0-1.18","61645bc01c5b213c62ee0473","6186fb1cc52d38b480598eb7","618733cba8cce9010c72c0d2","2081","","s","true","[[500,77],[207,14],[6,237],[99,522],[392,585],[593,362]]","false","6","","","img/Fire_Up_Target.gif","[""img/Fire_Down_Distractor.gif"",""img/Fire_Down_Distractor.gif"",""img/Fire_Down_Distractor.gif"",""img/Fire_Down_Distractor.gif"",""img/Fire_Down_Distractor.gif"",""img/Fire_Down_Distractor.gif"",""img/Fire_Down_Distractor.gif"",""img/Fire_Down_Distractor.gif"",""img/Fire_Down_Distractor.gif"",""img/Fire_Down_Distractor.gif"",""img/Fire_Down_Distractor.gif"",""img/Fire_Down_Distractor.gif""]","targetUp_distractorsDown"
"","","","","","html-keyboard-response","52","144084","0.0-14.0-0.0-0.19","61645bc01c5b213c62ee0473","6186fb1cc52d38b480598eb7","618733cba8cce9010c72c0d2","3215","Wow! You've completed 20 out of 120 trials! </p> <p>  </p><p> Take a quick break, then press any key when you're ready to continue.","d","","","","","fixation","","","",""
"","","","","","visual-search-circle","53","147655","0.0-14.0-0.0-1.19","61645bc01c5b213c62ee0473","6186fb1cc52d38b480598eb7","618733cba8cce9010c72c0d2","2561","","s","true","[[258,597],[536,484],[578,187],[341,2],[63,115],[21,412]]","false","6","","","img/Fire_Down_Target.gif","[""img/Fire_Up_Distractor.gif"",""img/Fire_Up_Distractor.gif"",""img/Fire_Up_Distractor.gif"",""img/Fire_Up_Distractor.gif"",""img/Fire_Up_Distractor.gif"",""img/Fire_Up_Distractor.gif"",""img/Fire_Up_Distractor.gif"",""img/Fire_Up_Distractor.gif"",""img/Fire_Up_Distractor.gif"",""img/Fire_Up_Distractor.gif"",""img/Fire_Up_Distractor.gif"",""img/Fire_Up_Distractor.gif""]","targetDown_distractorsUp"
"","","","","","html-keyboard-response","54","147655","0.0-14.0-0.0-0.20","61645bc01c5b213c62ee0473","6186fb1cc52d38b480598eb7","618733cba8cce9010c72c0d2","null","","null","","","","","fixation","","","",""
"","","","","","visual-search-circle","55","149718","0.0-14.0-0.0-1.20","61645bc01c5b213c62ee0473","6186fb1cc52d38b480598eb7","618733cba8cce9010c72c0d2","1055","","d","true","[[412,578],[578,187],[187,21],[21,412]]","true","4","","","img/Fire_Down_Target.gif","[""img/Fire_Up_Distractor.gif"",""img/Fire_Up_Distractor.gif"",""img/Fire_Up_Distractor.gif"",""img/Fire_Up_Distractor.gif"",""img/Fire_Up_Distractor.gif"",""img/Fire_Up_Distractor.gif"",""img/Fire_Up_Distractor.gif"",""img/Fire_Up_Distractor.gif"",""img/Fire_Up_Distractor.gif"",""img/Fire_Up_Distractor.gif"",""img/Fire_Up_Distractor.gif"",""img/Fire_Up_Distractor.gif""]","targetDown_distractorsUp"
"","","","","","html-keyboard-response","56","149720","0.0-14.0-0.0-0.21","61645bc01c5b213c62ee0473","6186fb1cc52d38b480598eb7","618733cba8cce9010c72c0d2","null","","null","","","","","fixation","","","",""
"","","","","","visual-search-circle","57","152363","0.0-14.0-0.0-1.21","61645bc01c5b213c62ee0473","6186fb1cc52d38b480598eb7","618733cba8cce9010c72c0d2","1638","","s","true","[[422,574],[598,268],[362,6],[40,150],[77,500]]","false","5","","","img/Fire_Down_Target.gif","[""img/Fire_Up_Distractor.gif"",""img/Fire_Up_Distractor.gif"",""img/Fire_Up_Distractor.gif"",""img/Fire_Up_Distractor.gif"",""img/Fire_Up_Distractor.gif"",""img/Fire_Up_Distractor.gif"",""img/Fire_Up_Distractor.gif"",""img/Fire_Up_Distractor.gif"",""img/Fire_Up_Distractor.gif"",""img/Fire_Up_Distractor.gif"",""img/Fire_Up_Distractor.gif"",""img/Fire_Up_Distractor.gif""]","targetDown_distractorsUp"
"","","","","","html-keyboard-response","58","152364","0.0-14.0-0.0-0.22","61645bc01c5b213c62ee0473","6186fb1cc52d38b480598eb7","618733cba8cce9010c72c0d2","null","","null","","","","","fixation","","","",""
"","","","","","visual-search-circle","59","154945","0.0-14.0-0.0-1.22","61645bc01c5b213c62ee0473","6186fb1cc52d38b480598eb7","618733cba8cce9010c72c0d2","1572","","s","true","[[397,583],[569,431],[583,202],[431,30],[202,16],[30,168],[16,397],[168,569]]","false","8","","","img/Fire_Up_Target.gif","[""img/Fire_Down_Distractor.gif"",""img/Fire_Down_Distractor.gif"",""img/Fire_Down_Distractor.gif"",""img/Fire_Down_Distractor.gif"",""img/Fire_Down_Distractor.gif"",""img/Fire_Down_Distractor.gif"",""img/Fire_Down_Distractor.gif"",""img/Fire_Down_Distractor.gif"",""img/Fire_Down_Distractor.gif"",""img/Fire_Down_Distractor.gif"",""img/Fire_Down_Distractor.gif"",""img/Fire_Down_Distractor.gif""]","targetUp_distractorsDown"
"","","","","","html-keyboard-response","60","154946","0.0-14.0-0.0-0.23","61645bc01c5b213c62ee0473","6186fb1cc52d38b480598eb7","618733cba8cce9010c72c0d2","null","","null","","","","","fixation","","","",""
"","","","","","visual-search-circle","61","157108","0.0-14.0-0.0-1.23","61645bc01c5b213c62ee0473","6186fb1cc52d38b480598eb7","618733cba8cce9010c72c0d2","1159","","d","true","[[599,320],[412,21],[70,107],[45,458],[372,591]]","true","5","","","img/Fire_Down_Target.gif","[""img/Fire_Up_Distractor.gif"",""img/Fire_Up_Distractor.gif"",""img/Fire_Up_Distractor.gif"",""img/Fire_Up_Distractor.gif"",""img/Fire_Up_Distractor.gif"",""img/Fire_Up_Distractor.gif"",""img/Fire_Up_Distractor.gif"",""img/Fire_Up_Distractor.gif"",""img/Fire_Up_Distractor.gif"",""img/Fire_Up_Distractor.gif"",""img/Fire_Up_Distractor.gif"",""img/Fire_Up_Distractor.gif""]","targetDown_distractorsUp"
"","","","","","html-keyboard-response","62","157109","0.0-14.0-0.0-0.24","61645bc01c5b213c62ee0473","6186fb1cc52d38b480598eb7","618733cba8cce9010c72c0d2","null","","null","","","","","fixation","","","",""
"","","","","","visual-search-circle","63","160159","0.0-14.0-0.0-1.24","61645bc01c5b213c62ee0473","6186fb1cc52d38b480598eb7","618733cba8cce9010c72c0d2","2045","","s","true","[[237,6],[1,268],[177,574],[522,500],[559,150]]","false","5","","","img/Fire_Down_Target.gif","[""img/Fire_Up_Distractor.gif"",""img/Fire_Up_Distractor.gif"",""img/Fire_Up_Distractor.gif"",""img/Fire_Up_Distractor.gif"",""img/Fire_Up_Distractor.gif"",""img/Fire_Up_Distractor.gif"",""img/Fire_Up_Distractor.gif"",""img/Fire_Up_Distractor.gif"",""img/Fire_Up_Distractor.gif"",""img/Fire_Up_Distractor.gif"",""img/Fire_Up_Distractor.gif"",""img/Fire_Up_Distractor.gif""]","targetDown_distractorsUp"
"","","","","","html-keyboard-response","64","160160","0.0-14.0-0.0-0.25","61645bc01c5b213c62ee0473","6186fb1cc52d38b480598eb7","618733cba8cce9010c72c0d2","null","","null","","","","","fixation","","","",""
"","","","","","visual-search-circle","65","163260","0.0-14.0-0.0-1.25","61645bc01c5b213c62ee0473","6186fb1cc52d38b480598eb7","618733cba8cce9010c72c0d2","2089","","s","true","[[392,585],[567,436],[585,207],[436,32],[207,14],[32,163],[14,392],[163,567]]","false","8","","","img/Fire_Down_Target.gif","[""img/Fire_Up_Distractor.gif"",""img/Fire_Up_Distractor.gif"",""img/Fire_Up_Distractor.gif"",""img/Fire_Up_Distractor.gif"",""img/Fire_Up_Distractor.gif"",""img/Fire_Up_Distractor.gif"",""img/Fire_Up_Distractor.gif"",""img/Fire_Up_Distractor.gif"",""img/Fire_Up_Distractor.gif"",""img/Fire_Up_Distractor.gif"",""img/Fire_Up_Distractor.gif"",""img/Fire_Up_Distractor.gif""]","targetDown_distractorsUp"
"","","","","","html-keyboard-response","66","163260","0.0-14.0-0.0-0.26","61645bc01c5b213c62ee0473","6186fb1cc52d38b480598eb7","618733cba8cce9010c72c0d2","null","","null","","","","","fixation","","","",""
"","","","","","visual-search-circle","67","169671","0.0-14.0-0.0-1.26","61645bc01c5b213c62ee0473","6186fb1cc52d38b480598eb7","618733cba8cce9010c72c0d2","5408","","s","true","[[37,154],[80,504],[426,571],[597,263],[357,5]]","false","5","","","img/Fire_Down_Target.gif","[""img/Fire_Up_Distractor.gif"",""img/Fire_Up_Distractor.gif"",""img/Fire_Up_Distractor.gif"",""img/Fire_Up_Distractor.gif"",""img/Fire_Up_Distractor.gif"",""img/Fire_Up_Distractor.gif"",""img/Fire_Up_Distractor.gif"",""img/Fire_Up_Distractor.gif"",""img/Fire_Up_Distractor.gif"",""img/Fire_Up_Distractor.gif"",""img/Fire_Up_Distractor.gif"",""img/Fire_Up_Distractor.gif""]","targetDown_distractorsUp"
"","","","","","html-keyboard-response","68","169673","0.0-14.0-0.0-0.27","61645bc01c5b213c62ee0473","6186fb1cc52d38b480598eb7","618733cba8cce9010c72c0d2","null","","null","","","","","fixation","","","",""
"","","","","","visual-search-circle","69","172434","0.0-14.0-0.0-1.27","61645bc01c5b213c62ee0473","6186fb1cc52d38b480598eb7","618733cba8cce9010c72c0d2","1749","","s","true","[[159,35],[13,212],[35,440],[212,586],[440,564],[586,387],[564,159],[387,13]]","false","8","","","img/Fire_Up_Target.gif","[""img/Fire_Down_Distractor.gif"",""img/Fire_Down_Distractor.gif"",""img/Fire_Down_Distractor.gif"",""img/Fire_Down_Distractor.gif"",""img/Fire_Down_Distractor.gif"",""img/Fire_Down_Distractor.gif"",""img/Fire_Down_Distractor.gif"",""img/Fire_Down_Distractor.gif"",""img/Fire_Down_Distractor.gif"",""img/Fire_Down_Distractor.gif"",""img/Fire_Down_Distractor.gif"",""img/Fire_Down_Distractor.gif""]","targetUp_distractorsDown"
"","","","","","html-keyboard-response","70","172435","0.0-14.0-0.0-0.28","61645bc01c5b213c62ee0473","6186fb1cc52d38b480598eb7","618733cba8cce9010c72c0d2","null","","null","","","","","fixation","","","",""
"","","","","","visual-search-circle","71","175209","0.0-14.0-0.0-1.28","61645bc01c5b213c62ee0473","6186fb1cc52d38b480598eb7","618733cba8cce9010c72c0d2","1767","","s","true","[[37,445],[294,599],[557,454],[562,154],[305,0],[42,145]]","false","6","","","img/Fire_Down_Target.gif","[""img/Fire_Up_Distractor.gif"",""img/Fire_Up_Distractor.gif"",""img/Fire_Up_Distractor.gif"",""img/Fire_Up_Distractor.gif"",""img/Fire_Up_Distractor.gif"",""img/Fire_Up_Distractor.gif"",""img/Fire_Up_Distractor.gif"",""img/Fire_Up_Distractor.gif"",""img/Fire_Up_Distractor.gif"",""img/Fire_Up_Distractor.gif"",""img/Fire_Up_Distractor.gif"",""img/Fire_Up_Distractor.gif""]","targetDown_distractorsUp"
"","","","","","html-keyboard-response","72","175210","0.0-14.0-0.0-0.29","61645bc01c5b213c62ee0473","6186fb1cc52d38b480598eb7","618733cba8cce9010c72c0d2","null","","null","","","","","fixation","","","",""
"","","","","","visual-search-circle","73","177275","0.0-14.0-0.0-1.29","61645bc01c5b213c62ee0473","6186fb1cc52d38b480598eb7","618733cba8cce9010c72c0d2","1056","","d","true","[[1,273],[273,598],[598,326],[326,1]]","true","4","","","img/Fire_Up_Target.gif","[""img/Fire_Down_Distractor.gif"",""img/Fire_Down_Distractor.gif"",""img/Fire_Down_Distractor.gif"",""img/Fire_Down_Distractor.gif"",""img/Fire_Down_Distractor.gif"",""img/Fire_Down_Distractor.gif"",""img/Fire_Down_Distractor.gif"",""img/Fire_Down_Distractor.gif"",""img/Fire_Down_Distractor.gif"",""img/Fire_Down_Distractor.gif"",""img/Fire_Down_Distractor.gif"",""img/Fire_Down_Distractor.gif""]","targetUp_distractorsDown"
"","","","","","html-keyboard-response","74","177276","0.0-14.0-0.0-0.30","61645bc01c5b213c62ee0473","6186fb1cc52d38b480598eb7","618733cba8cce9010c72c0d2","null","","null","","","","","fixation","","","",""
"","","","","","visual-search-circle","75","179395","0.0-14.0-0.0-1.30","61645bc01c5b213c62ee0473","6186fb1cc52d38b480598eb7","618733cba8cce9010c72c0d2","1111","","d","true","[[7,367],[273,598],[576,417],[496,73],[145,42]]","true","5","","","img/Fire_Down_Target.gif","[""img/Fire_Up_Distractor.gif"",""img/Fire_Up_Distractor.gif"",""img/Fire_Up_Distractor.gif"",""img/Fire_Up_Distractor.gif"",""img/Fire_Up_Distractor.gif"",""img/Fire_Up_Distractor.gif"",""img/Fire_Up_Distractor.gif"",""img/Fire_Up_Distractor.gif"",""img/Fire_Up_Distractor.gif"",""img/Fire_Up_Distractor.gif"",""img/Fire_Up_Distractor.gif"",""img/Fire_Up_Distractor.gif""]","targetDown_distractorsUp"
"","","","","","html-keyboard-response","76","179395","0.0-14.0-0.0-0.31","61645bc01c5b213c62ee0473","6186fb1cc52d38b480598eb7","618733cba8cce9010c72c0d2","null","","null","","","","","fixation","","","",""
"","","","","","visual-search-circle","77","183345","0.0-14.0-0.0-1.31","61645bc01c5b213c62ee0473","6186fb1cc52d38b480598eb7","618733cba8cce9010c72c0d2","2946","","s","true","[[13,212],[212,586],[586,387],[387,13]]","false","4","","","img/Fire_Down_Target.gif","[""img/Fire_Up_Distractor.gif"",""img/Fire_Up_Distractor.gif"",""img/Fire_Up_Distractor.gif"",""img/Fire_Up_Distractor.gif"",""img/Fire_Up_Distractor.gif"",""img/Fire_Up_Distractor.gif"",""img/Fire_Up_Distractor.gif"",""img/Fire_Up_Distractor.gif"",""img/Fire_Up_Distractor.gif"",""img/Fire_Up_Distractor.gif"",""img/Fire_Up_Distractor.gif"",""img/Fire_Up_Distractor.gif""]","targetDown_distractorsUp"
"","","","","","html-keyboard-response","78","183346","0.0-14.0-0.0-0.32","61645bc01c5b213c62ee0473","6186fb1cc52d38b480598eb7","618733cba8cce9010c72c0d2","null","","null","","","","","fixation","","","",""
"","","","","","visual-search-circle","79","185649","0.0-14.0-0.0-1.32","61645bc01c5b213c62ee0473","6186fb1cc52d38b480598eb7","618733cba8cce9010c72c0d2","1297","","d","true","[[222,589],[589,377],[377,10],[10,222]]","true","4","","","img/Fire_Up_Target.gif","[""img/Fire_Down_Distractor.gif"",""img/Fire_Down_Distractor.gif"",""img/Fire_Down_Distractor.gif"",""img/Fire_Down_Distractor.gif"",""img/Fire_Down_Distractor.gif"",""img/Fire_Down_Distractor.gif"",""img/Fire_Down_Distractor.gif"",""img/Fire_Down_Distractor.gif"",""img/Fire_Down_Distractor.gif"",""img/Fire_Down_Distractor.gif"",""img/Fire_Down_Distractor.gif"",""img/Fire_Down_Distractor.gif""]","targetUp_distractorsDown"
"","","","","","html-keyboard-response","80","185650","0.0-14.0-0.0-0.33","61645bc01c5b213c62ee0473","6186fb1cc52d38b480598eb7","618733cba8cce9010c72c0d2","null","","null","","","","","fixation","","","",""
"","","","","","visual-search-circle","81","188333","0.0-14.0-0.0-1.33","61645bc01c5b213c62ee0473","6186fb1cc52d38b480598eb7","618733cba8cce9010c72c0d2","1677","","s","true","[[123,57],[14,392],[299,600],[585,392],[476,57]]","false","5","","","img/Fire_Up_Target.gif","[""img/Fire_Down_Distractor.gif"",""img/Fire_Down_Distractor.gif"",""img/Fire_Down_Distractor.gif"",""img/Fire_Down_Distractor.gif"",""img/Fire_Down_Distractor.gif"",""img/Fire_Down_Distractor.gif"",""img/Fire_Down_Distractor.gif"",""img/Fire_Down_Distractor.gif"",""img/Fire_Down_Distractor.gif"",""img/Fire_Down_Distractor.gif"",""img/Fire_Down_Distractor.gif"",""img/Fire_Down_Distractor.gif""]","targetUp_distractorsDown"
"","","","","","html-keyboard-response","82","188334","0.0-14.0-0.0-0.34","61645bc01c5b213c62ee0473","6186fb1cc52d38b480598eb7","618733cba8cce9010c72c0d2","null","","null","","","","","fixation","","","",""
"","","","","","visual-search-circle","83","190522","0.0-14.0-0.0-1.34","61645bc01c5b213c62ee0473","6186fb1cc52d38b480598eb7","618733cba8cce9010c72c0d2","1181","","d","true","[[77,500],[362,593],[585,392],[522,99],[237,6],[14,207]]","true","6","","","img/Fire_Up_Target.gif","[""img/Fire_Down_Distractor.gif"",""img/Fire_Down_Distractor.gif"",""img/Fire_Down_Distractor.gif"",""img/Fire_Down_Distractor.gif"",""img/Fire_Down_Distractor.gif"",""img/Fire_Down_Distractor.gif"",""img/Fire_Down_Distractor.gif"",""img/Fire_Down_Distractor.gif"",""img/Fire_Down_Distractor.gif"",""img/Fire_Down_Distractor.gif"",""img/Fire_Down_Distractor.gif"",""img/Fire_Down_Distractor.gif""]","targetUp_distractorsDown"
"","","","","","html-keyboard-response","84","190522","0.0-14.0-0.0-0.35","61645bc01c5b213c62ee0473","6186fb1cc52d38b480598eb7","618733cba8cce9010c72c0d2","null","","null","","","","","fixation","","","",""
"","","","","","visual-search-circle","85","193559","0.0-14.0-0.0-1.35","61645bc01c5b213c62ee0473","6186fb1cc52d38b480598eb7","618733cba8cce9010c72c0d2","2031","","d","true","[[25,177],[177,574],[574,422],[422,25]]","true","4","","","img/Fire_Up_Target.gif","[""img/Fire_Down_Distractor.gif"",""img/Fire_Down_Distractor.gif"",""img/Fire_Down_Distractor.gif"",""img/Fire_Down_Distractor.gif"",""img/Fire_Down_Distractor.gif"",""img/Fire_Down_Distractor.gif"",""img/Fire_Down_Distractor.gif"",""img/Fire_Down_Distractor.gif"",""img/Fire_Down_Distractor.gif"",""img/Fire_Down_Distractor.gif"",""img/Fire_Down_Distractor.gif"",""img/Fire_Down_Distractor.gif""]","targetUp_distractorsDown"
"","","","","","html-keyboard-response","86","193560","0.0-14.0-0.0-0.36","61645bc01c5b213c62ee0473","6186fb1cc52d38b480598eb7","618733cba8cce9010c72c0d2","null","","null","","","","","fixation","","","",""
"","","","","","visual-search-circle","87","196209","0.0-14.0-0.0-1.36","61645bc01c5b213c62ee0473","6186fb1cc52d38b480598eb7","618733cba8cce9010c72c0d2","1642","","s","true","[[315,0],[48,136],[32,436],[284,599],[551,463],[567,163]]","false","6","","","img/Fire_Up_Target.gif","[""img/Fire_Down_Distractor.gif"",""img/Fire_Down_Distractor.gif"",""img/Fire_Down_Distractor.gif"",""img/Fire_Down_Distractor.gif"",""img/Fire_Down_Distractor.gif"",""img/Fire_Down_Distractor.gif"",""img/Fire_Down_Distractor.gif"",""img/Fire_Down_Distractor.gif"",""img/Fire_Down_Distractor.gif"",""img/Fire_Down_Distractor.gif"",""img/Fire_Down_Distractor.gif"",""img/Fire_Down_Distractor.gif""]","targetUp_distractorsDown"
"","","","","","html-keyboard-response","88","196211","0.0-14.0-0.0-0.37","61645bc01c5b213c62ee0473","6186fb1cc52d38b480598eb7","618733cba8cce9010c72c0d2","null","","null","","","","","fixation","","","",""
"","","","","","visual-search-circle","89","198531","0.0-14.0-0.0-1.37","61645bc01c5b213c62ee0473","6186fb1cc52d38b480598eb7","618733cba8cce9010c72c0d2","1311","","s","true","[[526,496],[599,279],[496,73],[279,0],[73,103],[0,320],[103,526],[320,599]]","false","8","","","img/Fire_Up_Target.gif","[""img/Fire_Down_Distractor.gif"",""img/Fire_Down_Distractor.gif"",""img/Fire_Down_Distractor.gif"",""img/Fire_Down_Distractor.gif"",""img/Fire_Down_Distractor.gif"",""img/Fire_Down_Distractor.gif"",""img/Fire_Down_Distractor.gif"",""img/Fire_Down_Distractor.gif"",""img/Fire_Down_Distractor.gif"",""img/Fire_Down_Distractor.gif"",""img/Fire_Down_Distractor.gif"",""img/Fire_Down_Distractor.gif""]","targetUp_distractorsDown"
"","","","","","html-keyboard-response","90","198532","0.0-14.0-0.0-0.38","61645bc01c5b213c62ee0473","6186fb1cc52d38b480598eb7","618733cba8cce9010c72c0d2","null","","null","","","","","fixation","","","",""
"","","","","","visual-search-circle","91","200737","0.0-14.0-0.0-1.38","61645bc01c5b213c62ee0473","6186fb1cc52d38b480598eb7","618733cba8cce9010c72c0d2","1200","","s","true","[[40,150],[40,450],[299,600],[559,450],[559,150],[300,0]]","false","6","","","img/Fire_Up_Target.gif","[""img/Fire_Down_Distractor.gif"",""img/Fire_Down_Distractor.gif"",""img/Fire_Down_Distractor.gif"",""img/Fire_Down_Distractor.gif"",""img/Fire_Down_Distractor.gif"",""img/Fire_Down_Distractor.gif"",""img/Fire_Down_Distractor.gif"",""img/Fire_Down_Distractor.gif"",""img/Fire_Down_Distractor.gif"",""img/Fire_Down_Distractor.gif"",""img/Fire_Down_Distractor.gif"",""img/Fire_Down_Distractor.gif""]","targetUp_distractorsDown"
"","","","","","html-keyboard-response","92","204757","0.0-14.0-0.0-0.39","61645bc01c5b213c62ee0473","6186fb1cc52d38b480598eb7","618733cba8cce9010c72c0d2","4020","Wow! You've completed 40 out of 120 trials! </p> <p>  </p><p> Take a quick break, then press any key when you're ready to continue.","s","","","","","fixation","","","",""
"","","","","","visual-search-circle","93","207296","0.0-14.0-0.0-1.39","61645bc01c5b213c62ee0473","6186fb1cc52d38b480598eb7","618733cba8cce9010c72c0d2","1529","","s","true","[[591,227],[424,27],[164,32],[6,239],[69,491],[305,599],[538,482]]","false","7","","","img/Fire_Down_Target.gif","[""img/Fire_Up_Distractor.gif"",""img/Fire_Up_Distractor.gif"",""img/Fire_Up_Distractor.gif"",""img/Fire_Up_Distractor.gif"",""img/Fire_Up_Distractor.gif"",""img/Fire_Up_Distractor.gif"",""img/Fire_Up_Distractor.gif"",""img/Fire_Up_Distractor.gif"",""img/Fire_Up_Distractor.gif"",""img/Fire_Up_Distractor.gif"",""img/Fire_Up_Distractor.gif"",""img/Fire_Up_Distractor.gif""]","targetDown_distractorsUp"
"","","","","","html-keyboard-response","94","207296","0.0-14.0-0.0-0.40","61645bc01c5b213c62ee0473","6186fb1cc52d38b480598eb7","618733cba8cce9010c72c0d2","null","","null","","","","","fixation","","","",""
"","","","","","visual-search-circle","95","209215","0.0-14.0-0.0-1.40","61645bc01c5b213c62ee0473","6186fb1cc52d38b480598eb7","618733cba8cce9010c72c0d2","908","","d","true","[[242,5],[2,263],[173,571],[519,504],[562,154]]","true","5","","","img/Fire_Up_Target.gif","[""img/Fire_Down_Distractor.gif"",""img/Fire_Down_Distractor.gif"",""img/Fire_Down_Distractor.gif"",""img/Fire_Down_Distractor.gif"",""img/Fire_Down_Distractor.gif"",""img/Fire_Down_Distractor.gif"",""img/Fire_Down_Distractor.gif"",""img/Fire_Down_Distractor.gif"",""img/Fire_Down_Distractor.gif"",""img/Fire_Down_Distractor.gif"",""img/Fire_Down_Distractor.gif"",""img/Fire_Down_Distractor.gif""]","targetUp_distractorsDown"
"","","","","","html-keyboard-response","96","209215","0.0-14.0-0.0-0.41","61645bc01c5b213c62ee0473","6186fb1cc52d38b480598eb7","618733cba8cce9010c72c0d2","null","","null","","","","","fixation","","","",""
"","","","","","visual-search-circle","97","211863","0.0-14.0-0.0-1.41","61645bc01c5b213c62ee0473","6186fb1cc52d38b480598eb7","618733cba8cce9010c72c0d2","1640","","d","true","[[217,588],[588,382],[382,11],[11,217]]","true","4","","","img/Fire_Down_Target.gif","[""img/Fire_Up_Distractor.gif"",""img/Fire_Up_Distractor.gif"",""img/Fire_Up_Distractor.gif"",""img/Fire_Up_Distractor.gif"",""img/Fire_Up_Distractor.gif"",""img/Fire_Up_Distractor.gif"",""img/Fire_Up_Distractor.gif"",""img/Fire_Up_Distractor.gif"",""img/Fire_Up_Distractor.gif"",""img/Fire_Up_Distractor.gif"",""img/Fire_Up_Distractor.gif"",""img/Fire_Up_Distractor.gif""]","targetDown_distractorsUp"
"","","","","","html-keyboard-response","98","211864","0.0-14.0-0.0-0.42","61645bc01c5b213c62ee0473","6186fb1cc52d38b480598eb7","618733cba8cce9010c72c0d2","null","","null","","","","","fixation","","","",""
"","","","","","visual-search-circle","99","214272","0.0-14.0-0.0-1.42","61645bc01c5b213c62ee0473","6186fb1cc52d38b480598eb7","618733cba8cce9010c72c0d2","1399","","s","false","[[192,580],[422,574],[580,407],[574,177],[407,19],[177,25],[19,192],[25,422]]","true","8","","","img/Fire_Up_Target.gif","[""img/Fire_Down_Distractor.gif"",""img/Fire_Down_Distractor.gif"",""img/Fire_Down_Distractor.gif"",""img/Fire_Down_Distractor.gif"",""img/Fire_Down_Distractor.gif"",""img/Fire_Down_Distractor.gif"",""img/Fire_Down_Distractor.gif"",""img/Fire_Down_Distractor.gif"",""img/Fire_Down_Distractor.gif"",""img/Fire_Down_Distractor.gif"",""img/Fire_Down_Distractor.gif"",""img/Fire_Down_Distractor.gif""]","targetUp_distractorsDown"
"","","","","","html-keyboard-response","100","214274","0.0-14.0-0.0-0.43","61645bc01c5b213c62ee0473","6186fb1cc52d38b480598eb7","618733cba8cce9010c72c0d2","null","","null","","","","","fixation","","","",""
"","","","","","visual-search-circle","101","216283","0.0-14.0-0.0-1.43","61645bc01c5b213c62ee0473","6186fb1cc52d38b480598eb7","618733cba8cce9010c72c0d2","999","","d","true","[[426,571],[581,402],[571,173],[402,18],[173,28],[18,197],[28,426],[197,581]]","true","8","","","img/Fire_Down_Target.gif","[""img/Fire_Up_Distractor.gif"",""img/Fire_Up_Distractor.gif"",""img/Fire_Up_Distractor.gif"",""img/Fire_Up_Distractor.gif"",""img/Fire_Up_Distractor.gif"",""img/Fire_Up_Distractor.gif"",""img/Fire_Up_Distractor.gif"",""img/Fire_Up_Distractor.gif"",""img/Fire_Up_Distractor.gif"",""img/Fire_Up_Distractor.gif"",""img/Fire_Up_Distractor.gif"",""img/Fire_Up_Distractor.gif""]","targetDown_distractorsUp"
"","","","","","html-keyboard-response","102","216284","0.0-14.0-0.0-0.44","61645bc01c5b213c62ee0473","6186fb1cc52d38b480598eb7","618733cba8cce9010c72c0d2","null","","null","","","","","fixation","","","",""
"","","","","","visual-search-circle","103","219600","0.0-14.0-0.0-1.44","61645bc01c5b213c62ee0473","6186fb1cc52d38b480598eb7","618733cba8cce9010c72c0d2","2311","","s","true","[[585,207],[405,19],[146,42],[2,259],[83,507],[326,598],[550,465]]","false","7","","","img/Fire_Up_Target.gif","[""img/Fire_Down_Distractor.gif"",""img/Fire_Down_Distractor.gif"",""img/Fire_Down_Distractor.gif"",""img/Fire_Down_Distractor.gif"",""img/Fire_Down_Distractor.gif"",""img/Fire_Down_Distractor.gif"",""img/Fire_Down_Distractor.gif"",""img/Fire_Down_Distractor.gif"",""img/Fire_Down_Distractor.gif"",""img/Fire_Down_Distractor.gif"",""img/Fire_Down_Distractor.gif"",""img/Fire_Down_Distractor.gif""]","targetUp_distractorsDown"
"","","","","","html-keyboard-response","104","219601","0.0-14.0-0.0-0.45","61645bc01c5b213c62ee0473","6186fb1cc52d38b480598eb7","618733cba8cce9010c72c0d2","null","","null","","","","","fixation","","","",""
"","","","","","visual-search-circle","105","222436","0.0-14.0-0.0-1.45","61645bc01c5b213c62ee0473","6186fb1cc52d38b480598eb7","618733cba8cce9010c72c0d2","1828","","d","true","[[346,596],[580,407],[533,111],[253,3],[19,192],[66,488]]","true","6","","","img/Fire_Up_Target.gif","[""img/Fire_Down_Distractor.gif"",""img/Fire_Down_Distractor.gif"",""img/Fire_Down_Distractor.gif"",""img/Fire_Down_Distractor.gif"",""img/Fire_Down_Distractor.gif"",""img/Fire_Down_Distractor.gif"",""img/Fire_Down_Distractor.gif"",""img/Fire_Down_Distractor.gif"",""img/Fire_Down_Distractor.gif"",""img/Fire_Down_Distractor.gif"",""img/Fire_Down_Distractor.gif"",""img/Fire_Down_Distractor.gif""]","targetUp_distractorsDown"
"","","","","","html-keyboard-response","106","222438","0.0-14.0-0.0-0.46","61645bc01c5b213c62ee0473","6186fb1cc52d38b480598eb7","618733cba8cce9010c72c0d2","null","","null","","","","","fixation","","","",""
"","","","","","visual-search-circle","107","224899","0.0-14.0-0.0-1.46","61645bc01c5b213c62ee0473","6186fb1cc52d38b480598eb7","618733cba8cce9010c72c0d2","1455","","d","true","[[585,392],[476,57],[123,57],[14,392],[299,600]]","true","5","","","img/Fire_Up_Target.gif","[""img/Fire_Down_Distractor.gif"",""img/Fire_Down_Distractor.gif"",""img/Fire_Down_Distractor.gif"",""img/Fire_Down_Distractor.gif"",""img/Fire_Down_Distractor.gif"",""img/Fire_Down_Distractor.gif"",""img/Fire_Down_Distractor.gif"",""img/Fire_Down_Distractor.gif"",""img/Fire_Down_Distractor.gif"",""img/Fire_Down_Distractor.gif"",""img/Fire_Down_Distractor.gif"",""img/Fire_Down_Distractor.gif""]","targetUp_distractorsDown"
"","","","","","html-keyboard-response","108","224900","0.0-14.0-0.0-0.47","61645bc01c5b213c62ee0473","6186fb1cc52d38b480598eb7","618733cba8cce9010c72c0d2","null","","null","","","","","fixation","","","",""
"","","","","","visual-search-circle","109","227234","0.0-14.0-0.0-1.47","61645bc01c5b213c62ee0473","6186fb1cc52d38b480598eb7","618733cba8cce9010c72c0d2","1327","","s","true","[[284,599],[551,463],[567,163],[315,0],[48,136],[32,436]]","false","6","","","img/Fire_Up_Target.gif","[""img/Fire_Down_Distractor.gif"",""img/Fire_Down_Distractor.gif"",""img/Fire_Down_Distractor.gif"",""img/Fire_Down_Distractor.gif"",""img/Fire_Down_Distractor.gif"",""img/Fire_Down_Distractor.gif"",""img/Fire_Down_Distractor.gif"",""img/Fire_Down_Distractor.gif"",""img/Fire_Down_Distractor.gif"",""img/Fire_Down_Distractor.gif"",""img/Fire_Down_Distractor.gif"",""img/Fire_Down_Distractor.gif""]","targetUp_distractorsDown"
"","","","","","html-keyboard-response","110","227235","0.0-14.0-0.0-0.48","61645bc01c5b213c62ee0473","6186fb1cc52d38b480598eb7","618733cba8cce9010c72c0d2","null","","null","","","","","fixation","","","",""
"","","","","","visual-search-circle","111","229113","0.0-14.0-0.0-1.48","61645bc01c5b213c62ee0473","6186fb1cc52d38b480598eb7","618733cba8cce9010c72c0d2","871","","d","true","[[586,387],[472,54],[119,60],[16,397],[305,599]]","true","5","","","img/Fire_Down_Target.gif","[""img/Fire_Up_Distractor.gif"",""img/Fire_Up_Distractor.gif"",""img/Fire_Up_Distractor.gif"",""img/Fire_Up_Distractor.gif"",""img/Fire_Up_Distractor.gif"",""img/Fire_Up_Distractor.gif"",""img/Fire_Up_Distractor.gif"",""img/Fire_Up_Distractor.gif"",""img/Fire_Up_Distractor.gif"",""img/Fire_Up_Distractor.gif"",""img/Fire_Up_Distractor.gif"",""img/Fire_Up_Distractor.gif""]","targetDown_distractorsUp"
"","","","","","html-keyboard-response","112","229115","0.0-14.0-0.0-0.49","61645bc01c5b213c62ee0473","6186fb1cc52d38b480598eb7","618733cba8cce9010c72c0d2","null","","null","","","","","fixation","","","",""
"","","","","","visual-search-circle","113","232271","0.0-14.0-0.0-1.49","61645bc01c5b213c62ee0473","6186fb1cc52d38b480598eb7","618733cba8cce9010c72c0d2","2150","","d","true","[[4,247],[54,472],[247,595],[472,545],[595,352],[545,127],[352,4],[127,54]]","true","8","","","img/Fire_Up_Target.gif","[""img/Fire_Down_Distractor.gif"",""img/Fire_Down_Distractor.gif"",""img/Fire_Down_Distractor.gif"",""img/Fire_Down_Distractor.gif"",""img/Fire_Down_Distractor.gif"",""img/Fire_Down_Distractor.gif"",""img/Fire_Down_Distractor.gif"",""img/Fire_Down_Distractor.gif"",""img/Fire_Down_Distractor.gif"",""img/Fire_Down_Distractor.gif"",""img/Fire_Down_Distractor.gif"",""img/Fire_Down_Distractor.gif""]","targetUp_distractorsDown"
"","","","","","html-keyboard-response","114","232273","0.0-14.0-0.0-0.50","61645bc01c5b213c62ee0473","6186fb1cc52d38b480598eb7","618733cba8cce9010c72c0d2","null","","null","","","","","fixation","","","",""
"","","","","","visual-search-circle","115","234664","0.0-14.0-0.0-1.50","61645bc01c5b213c62ee0473","6186fb1cc52d38b480598eb7","618733cba8cce9010c72c0d2","1387","","s","true","[[496,73],[202,16],[5,242],[103,526],[397,583],[594,357]]","false","6","","","img/Fire_Down_Target.gif","[""img/Fire_Up_Distractor.gif"",""img/Fire_Up_Distractor.gif"",""img/Fire_Up_Distractor.gif"",""img/Fire_Up_Distractor.gif"",""img/Fire_Up_Distractor.gif"",""img/Fire_Up_Distractor.gif"",""img/Fire_Up_Distractor.gif"",""img/Fire_Up_Distractor.gif"",""img/Fire_Up_Distractor.gif"",""img/Fire_Up_Distractor.gif"",""img/Fire_Up_Distractor.gif"",""img/Fire_Up_Distractor.gif""]","targetDown_distractorsUp"
"","","","","","html-keyboard-response","116","234665","0.0-14.0-0.0-0.51","61645bc01c5b213c62ee0473","6186fb1cc52d38b480598eb7","618733cba8cce9010c72c0d2","null","","null","","","","","fixation","","","",""
"","","","","","visual-search-circle","117","238207","0.0-14.0-0.0-1.51","61645bc01c5b213c62ee0473","6186fb1cc52d38b480598eb7","618733cba8cce9010c72c0d2","2536","","d","true","[[331,598],[533,488],[598,268],[488,66],[268,1],[66,111],[1,331],[111,533]]","true","8","","","img/Fire_Up_Target.gif","[""img/Fire_Down_Distractor.gif"",""img/Fire_Down_Distractor.gif"",""img/Fire_Down_Distractor.gif"",""img/Fire_Down_Distractor.gif"",""img/Fire_Down_Distractor.gif"",""img/Fire_Down_Distractor.gif"",""img/Fire_Down_Distractor.gif"",""img/Fire_Down_Distractor.gif"",""img/Fire_Down_Distractor.gif"",""img/Fire_Down_Distractor.gif"",""img/Fire_Down_Distractor.gif"",""img/Fire_Down_Distractor.gif""]","targetUp_distractorsDown"
"","","","","","html-keyboard-response","118","238209","0.0-14.0-0.0-0.52","61645bc01c5b213c62ee0473","6186fb1cc52d38b480598eb7","618733cba8cce9010c72c0d2","null","","null","","","","","fixation","","","",""
"","","","","","visual-search-circle","119","240337","0.0-14.0-0.0-1.52","61645bc01c5b213c62ee0473","6186fb1cc52d38b480598eb7","618733cba8cce9010c72c0d2","1124","","d","true","[[141,45],[0,310],[159,564],[458,554],[599,289],[440,35]]","true","6","","","img/Fire_Down_Target.gif","[""img/Fire_Up_Distractor.gif"",""img/Fire_Up_Distractor.gif"",""img/Fire_Up_Distractor.gif"",""img/Fire_Up_Distractor.gif"",""img/Fire_Up_Distractor.gif"",""img/Fire_Up_Distractor.gif"",""img/Fire_Up_Distractor.gif"",""img/Fire_Up_Distractor.gif"",""img/Fire_Up_Distractor.gif"",""img/Fire_Up_Distractor.gif"",""img/Fire_Up_Distractor.gif"",""img/Fire_Up_Distractor.gif""]","targetDown_distractorsUp"
"","","","","","html-keyboard-response","120","240338","0.0-14.0-0.0-0.53","61645bc01c5b213c62ee0473","6186fb1cc52d38b480598eb7","618733cba8cce9010c72c0d2","null","","null","","","","","fixation","","","",""
"","","","","","visual-search-circle","121","242724","0.0-14.0-0.0-1.53","61645bc01c5b213c62ee0473","6186fb1cc52d38b480598eb7","618733cba8cce9010c72c0d2","1381","","s","true","[[168,30],[7,234],[66,488],[301,599],[535,485],[592,231],[428,29]]","false","7","","","img/Fire_Up_Target.gif","[""img/Fire_Down_Distractor.gif"",""img/Fire_Down_Distractor.gif"",""img/Fire_Down_Distractor.gif"",""img/Fire_Down_Distractor.gif"",""img/Fire_Down_Distractor.gif"",""img/Fire_Down_Distractor.gif"",""img/Fire_Down_Distractor.gif"",""img/Fire_Down_Distractor.gif"",""img/Fire_Down_Distractor.gif"",""img/Fire_Down_Distractor.gif"",""img/Fire_Down_Distractor.gif"",""img/Fire_Down_Distractor.gif""]","targetUp_distractorsDown"
"","","","","","html-keyboard-response","122","242725","0.0-14.0-0.0-0.54","61645bc01c5b213c62ee0473","6186fb1cc52d38b480598eb7","618733cba8cce9010c72c0d2","null","","null","","","","","fixation","","","",""
"","","","","","visual-search-circle","123","245586","0.0-14.0-0.0-1.54","61645bc01c5b213c62ee0473","6186fb1cc52d38b480598eb7","618733cba8cce9010c72c0d2","1856","","d","true","[[258,2],[2,341],[341,597],[597,258]]","true","4","","","img/Fire_Down_Target.gif","[""img/Fire_Up_Distractor.gif"",""img/Fire_Up_Distractor.gif"",""img/Fire_Up_Distractor.gif"",""img/Fire_Up_Distractor.gif"",""img/Fire_Up_Distractor.gif"",""img/Fire_Up_Distractor.gif"",""img/Fire_Up_Distractor.gif"",""img/Fire_Up_Distractor.gif"",""img/Fire_Up_Distractor.gif"",""img/Fire_Up_Distractor.gif"",""img/Fire_Up_Distractor.gif"",""img/Fire_Up_Distractor.gif""]","targetDown_distractorsUp"
"","","","","","html-keyboard-response","124","245587","0.0-14.0-0.0-0.55","61645bc01c5b213c62ee0473","6186fb1cc52d38b480598eb7","618733cba8cce9010c72c0d2","null","","null","","","","","fixation","","","",""
"","","","","","visual-search-circle","125","247771","0.0-14.0-0.0-1.55","61645bc01c5b213c62ee0473","6186fb1cc52d38b480598eb7","618733cba8cce9010c72c0d2","1174","","d","true","[[341,597],[539,480],[597,258],[480,60],[258,2],[60,119],[2,341],[119,539]]","true","8","","","img/Fire_Down_Target.gif","[""img/Fire_Up_Distractor.gif"",""img/Fire_Up_Distractor.gif"",""img/Fire_Up_Distractor.gif"",""img/Fire_Up_Distractor.gif"",""img/Fire_Up_Distractor.gif"",""img/Fire_Up_Distractor.gif"",""img/Fire_Up_Distractor.gif"",""img/Fire_Up_Distractor.gif"",""img/Fire_Up_Distractor.gif"",""img/Fire_Up_Distractor.gif"",""img/Fire_Up_Distractor.gif"",""img/Fire_Up_Distractor.gif""]","targetDown_distractorsUp"
"","","","","","html-keyboard-response","126","247772","0.0-14.0-0.0-0.56","61645bc01c5b213c62ee0473","6186fb1cc52d38b480598eb7","618733cba8cce9010c72c0d2","null","","null","","","","","fixation","","","",""
"","","","","","visual-search-circle","127","250472","0.0-14.0-0.0-1.56","61645bc01c5b213c62ee0473","6186fb1cc52d38b480598eb7","618733cba8cce9010c72c0d2","1696","","s","true","[[115,63],[18,402],[310,599],[588,382],[467,51]]","false","5","","","img/Fire_Up_Target.gif","[""img/Fire_Down_Distractor.gif"",""img/Fire_Down_Distractor.gif"",""img/Fire_Down_Distractor.gif"",""img/Fire_Down_Distractor.gif"",""img/Fire_Down_Distractor.gif"",""img/Fire_Down_Distractor.gif"",""img/Fire_Down_Distractor.gif"",""img/Fire_Down_Distractor.gif"",""img/Fire_Down_Distractor.gif"",""img/Fire_Down_Distractor.gif"",""img/Fire_Down_Distractor.gif"",""img/Fire_Down_Distractor.gif""]","targetUp_distractorsDown"
"","","","","","html-keyboard-response","128","250473","0.0-14.0-0.0-0.57","61645bc01c5b213c62ee0473","6186fb1cc52d38b480598eb7","618733cba8cce9010c72c0d2","null","","null","","","","","fixation","","","",""
"","","","","","visual-search-circle","129","252511","0.0-14.0-0.0-1.57","61645bc01c5b213c62ee0473","6186fb1cc52d38b480598eb7","618733cba8cce9010c72c0d2","1030","","d","true","[[598,331],[476,57],[177,25],[1,268],[123,542],[422,574]]","true","6","","","img/Fire_Up_Target.gif","[""img/Fire_Down_Distractor.gif"",""img/Fire_Down_Distractor.gif"",""img/Fire_Down_Distractor.gif"",""img/Fire_Down_Distractor.gif"",""img/Fire_Down_Distractor.gif"",""img/Fire_Down_Distractor.gif"",""img/Fire_Down_Distractor.gif"",""img/Fire_Down_Distractor.gif"",""img/Fire_Down_Distractor.gif"",""img/Fire_Down_Distractor.gif"",""img/Fire_Down_Distractor.gif"",""img/Fire_Down_Distractor.gif""]","targetUp_distractorsDown"
"","","","","","html-keyboard-response","130","252512","0.0-14.0-0.0-0.58","61645bc01c5b213c62ee0473","6186fb1cc52d38b480598eb7","618733cba8cce9010c72c0d2","null","","null","","","","","fixation","","","",""
"","","","","","visual-search-circle","131","258070","0.0-14.0-0.0-1.58","61645bc01c5b213c62ee0473","6186fb1cc52d38b480598eb7","618733cba8cce9010c72c0d2","4548","","s","true","[[63,115],[2,336],[115,536],[336,597],[536,484],[597,263],[484,63],[263,2]]","false","8","","","img/Fire_Down_Target.gif","[""img/Fire_Up_Distractor.gif"",""img/Fire_Up_Distractor.gif"",""img/Fire_Up_Distractor.gif"",""img/Fire_Up_Distractor.gif"",""img/Fire_Up_Distractor.gif"",""img/Fire_Up_Distractor.gif"",""img/Fire_Up_Distractor.gif"",""img/Fire_Up_Distractor.gif"",""img/Fire_Up_Distractor.gif"",""img/Fire_Up_Distractor.gif"",""img/Fire_Up_Distractor.gif"",""img/Fire_Up_Distractor.gif""]","targetDown_distractorsUp"
"","","","","","html-keyboard-response","132","260388","0.0-14.0-0.0-0.59","61645bc01c5b213c62ee0473","6186fb1cc52d38b480598eb7","618733cba8cce9010c72c0d2","2319","Wow! You've completed 60 out of 120 trials! </p> <p>  </p><p> Take a quick break, then press any key when you're ready to continue.","s","","","","","fixation","","","",""
"","","","","","visual-search-circle","133","262381","0.0-14.0-0.0-1.59","61645bc01c5b213c62ee0473","6186fb1cc52d38b480598eb7","618733cba8cce9010c72c0d2","978","","d","true","[[480,60],[258,2],[60,119],[2,341],[119,539],[341,597],[539,480],[597,258]]","true","8","","","img/Fire_Down_Target.gif","[""img/Fire_Up_Distractor.gif"",""img/Fire_Up_Distractor.gif"",""img/Fire_Up_Distractor.gif"",""img/Fire_Up_Distractor.gif"",""img/Fire_Up_Distractor.gif"",""img/Fire_Up_Distractor.gif"",""img/Fire_Up_Distractor.gif"",""img/Fire_Up_Distractor.gif"",""img/Fire_Up_Distractor.gif"",""img/Fire_Up_Distractor.gif"",""img/Fire_Up_Distractor.gif"",""img/Fire_Up_Distractor.gif""]","targetDown_distractorsUp"
"","","","","","html-keyboard-response","134","262381","0.0-14.0-0.0-0.60","61645bc01c5b213c62ee0473","6186fb1cc52d38b480598eb7","618733cba8cce9010c72c0d2","null","","null","","","","","fixation","","","",""
"","","","","","visual-search-circle","135","264396","0.0-14.0-0.0-1.60","61645bc01c5b213c62ee0473","6186fb1cc52d38b480598eb7","618733cba8cce9010c72c0d2","1007","","d","true","[[512,512],[512,87],[87,87],[87,512]]","true","4","","","img/Fire_Down_Target.gif","[""img/Fire_Up_Distractor.gif"",""img/Fire_Up_Distractor.gif"",""img/Fire_Up_Distractor.gif"",""img/Fire_Up_Distractor.gif"",""img/Fire_Up_Distractor.gif"",""img/Fire_Up_Distractor.gif"",""img/Fire_Up_Distractor.gif"",""img/Fire_Up_Distractor.gif"",""img/Fire_Up_Distractor.gif"",""img/Fire_Up_Distractor.gif"",""img/Fire_Up_Distractor.gif"",""img/Fire_Up_Distractor.gif""]","targetDown_distractorsUp"
"","","","","","html-keyboard-response","136","264396","0.0-14.0-0.0-0.61","61645bc01c5b213c62ee0473","6186fb1cc52d38b480598eb7","618733cba8cce9010c72c0d2","null","","null","","","","","fixation","","","",""
"","","","","","visual-search-circle","137","266755","0.0-14.0-0.0-1.61","61645bc01c5b213c62ee0473","6186fb1cc52d38b480598eb7","618733cba8cce9010c72c0d2","1354","","s","true","[[440,35],[35,159],[159,564],[564,440]]","false","4","","","img/Fire_Down_Target.gif","[""img/Fire_Up_Distractor.gif"",""img/Fire_Up_Distractor.gif"",""img/Fire_Up_Distractor.gif"",""img/Fire_Up_Distractor.gif"",""img/Fire_Up_Distractor.gif"",""img/Fire_Up_Distractor.gif"",""img/Fire_Up_Distractor.gif"",""img/Fire_Up_Distractor.gif"",""img/Fire_Up_Distractor.gif"",""img/Fire_Up_Distractor.gif"",""img/Fire_Up_Distractor.gif"",""img/Fire_Up_Distractor.gif""]","targetDown_distractorsUp"
"","","","","","html-keyboard-response","138","266756","0.0-14.0-0.0-0.62","61645bc01c5b213c62ee0473","6186fb1cc52d38b480598eb7","618733cba8cce9010c72c0d2","null","","null","","","","","fixation","","","",""
"","","","","","visual-search-circle","139","268698","0.0-14.0-0.0-1.62","61645bc01c5b213c62ee0473","6186fb1cc52d38b480598eb7","618733cba8cce9010c72c0d2","935","","d","true","[[529,107],[247,4],[18,197],[70,492],[352,595],[581,402]]","true","6","","","img/Fire_Down_Target.gif","[""img/Fire_Up_Distractor.gif"",""img/Fire_Up_Distractor.gif"",""img/Fire_Up_Distractor.gif"",""img/Fire_Up_Distractor.gif"",""img/Fire_Up_Distractor.gif"",""img/Fire_Up_Distractor.gif"",""img/Fire_Up_Distractor.gif"",""img/Fire_Up_Distractor.gif"",""img/Fire_Up_Distractor.gif"",""img/Fire_Up_Distractor.gif"",""img/Fire_Up_Distractor.gif"",""img/Fire_Up_Distractor.gif""]","targetDown_distractorsUp"
"","","","","","html-keyboard-response","140","268698","0.0-14.0-0.0-0.63","61645bc01c5b213c62ee0473","6186fb1cc52d38b480598eb7","618733cba8cce9010c72c0d2","null","","null","","","","","fixation","","","",""
"","","","","","visual-search-circle","141","270553","0.0-14.0-0.0-1.63","61645bc01c5b213c62ee0473","6186fb1cc52d38b480598eb7","618733cba8cce9010c72c0d2","847","","d","true","[[512,512],[598,266],[459,45],[200,16],[16,200],[45,459],[266,598]]","true","7","","","img/Fire_Down_Target.gif","[""img/Fire_Up_Distractor.gif"",""img/Fire_Up_Distractor.gif"",""img/Fire_Up_Distractor.gif"",""img/Fire_Up_Distractor.gif"",""img/Fire_Up_Distractor.gif"",""img/Fire_Up_Distractor.gif"",""img/Fire_Up_Distractor.gif"",""img/Fire_Up_Distractor.gif"",""img/Fire_Up_Distractor.gif"",""img/Fire_Up_Distractor.gif"",""img/Fire_Up_Distractor.gif"",""img/Fire_Up_Distractor.gif""]","targetDown_distractorsUp"
"","","","","","html-keyboard-response","142","270555","0.0-14.0-0.0-0.64","61645bc01c5b213c62ee0473","6186fb1cc52d38b480598eb7","618733cba8cce9010c72c0d2","null","","null","","","","","fixation","","","",""
"","","","","","visual-search-circle","143","274531","0.0-14.0-0.0-1.64","61645bc01c5b213c62ee0473","6186fb1cc52d38b480598eb7","618733cba8cce9010c72c0d2","2969","","s","true","[[569,168],[258,2],[4,247],[159,564],[508,515]]","false","5","","","img/Fire_Up_Target.gif","[""img/Fire_Down_Distractor.gif"",""img/Fire_Down_Distractor.gif"",""img/Fire_Down_Distractor.gif"",""img/Fire_Down_Distractor.gif"",""img/Fire_Down_Distractor.gif"",""img/Fire_Down_Distractor.gif"",""img/Fire_Down_Distractor.gif"",""img/Fire_Down_Distractor.gif"",""img/Fire_Down_Distractor.gif"",""img/Fire_Down_Distractor.gif"",""img/Fire_Down_Distractor.gif"",""img/Fire_Down_Distractor.gif""]","targetUp_distractorsDown"
"","","","","","html-keyboard-response","144","274531","0.0-14.0-0.0-0.65","61645bc01c5b213c62ee0473","6186fb1cc52d38b480598eb7","618733cba8cce9010c72c0d2","null","","null","","","","","fixation","","","",""
"","","","","","visual-search-circle","145","276783","0.0-14.0-0.0-1.65","61645bc01c5b213c62ee0473","6186fb1cc52d38b480598eb7","618733cba8cce9010c72c0d2","1245","","d","true","[[407,580],[599,284],[377,10],[48,136],[66,488]]","true","5","","","img/Fire_Down_Target.gif","[""img/Fire_Up_Distractor.gif"",""img/Fire_Up_Distractor.gif"",""img/Fire_Up_Distractor.gif"",""img/Fire_Up_Distractor.gif"",""img/Fire_Up_Distractor.gif"",""img/Fire_Up_Distractor.gif"",""img/Fire_Up_Distractor.gif"",""img/Fire_Up_Distractor.gif"",""img/Fire_Up_Distractor.gif"",""img/Fire_Up_Distractor.gif"",""img/Fire_Up_Distractor.gif"",""img/Fire_Up_Distractor.gif""]","targetDown_distractorsUp"
"","","","","","html-keyboard-response","146","276784","0.0-14.0-0.0-0.66","61645bc01c5b213c62ee0473","6186fb1cc52d38b480598eb7","618733cba8cce9010c72c0d2","null","","null","","","","","fixation","","","",""
"","","","","","visual-search-circle","147","282192","0.0-14.0-0.0-1.66","61645bc01c5b213c62ee0473","6186fb1cc52d38b480598eb7","618733cba8cce9010c72c0d2","4401","","d","true","[[258,597],[569,431],[508,84],[159,35],[4,352]]","true","5","","","img/Fire_Up_Target.gif","[""img/Fire_Down_Distractor.gif"",""img/Fire_Down_Distractor.gif"",""img/Fire_Down_Distractor.gif"",""img/Fire_Down_Distractor.gif"",""img/Fire_Down_Distractor.gif"",""img/Fire_Down_Distractor.gif"",""img/Fire_Down_Distractor.gif"",""img/Fire_Down_Distractor.gif"",""img/Fire_Down_Distractor.gif"",""img/Fire_Down_Distractor.gif"",""img/Fire_Down_Distractor.gif"",""img/Fire_Down_Distractor.gif""]","targetUp_distractorsDown"
"","","","","","html-keyboard-response","148","282195","0.0-14.0-0.0-0.67","61645bc01c5b213c62ee0473","6186fb1cc52d38b480598eb7","618733cba8cce9010c72c0d2","null","","null","","","","","fixation","","","",""
"","","","","","visual-search-circle","149","287586","0.0-14.0-0.0-1.67","61645bc01c5b213c62ee0473","6186fb1cc52d38b480598eb7","618733cba8cce9010c72c0d2","4381","","d","true","[[599,320],[526,103],[320,0],[103,73],[0,279],[73,496],[279,599],[496,526]]","true","8","","","img/Fire_Up_Target.gif","[""img/Fire_Down_Distractor.gif"",""img/Fire_Down_Distractor.gif"",""img/Fire_Down_Distractor.gif"",""img/Fire_Down_Distractor.gif"",""img/Fire_Down_Distractor.gif"",""img/Fire_Down_Distractor.gif"",""img/Fire_Down_Distractor.gif"",""img/Fire_Down_Distractor.gif"",""img/Fire_Down_Distractor.gif"",""img/Fire_Down_Distractor.gif"",""img/Fire_Down_Distractor.gif"",""img/Fire_Down_Distractor.gif""]","targetUp_distractorsDown"
"","","","","","html-keyboard-response","150","287586","0.0-14.0-0.0-0.68","61645bc01c5b213c62ee0473","6186fb1cc52d38b480598eb7","618733cba8cce9010c72c0d2","null","","null","","","","","fixation","","","",""
"","","","","","visual-search-circle","151","289622","0.0-14.0-0.0-1.68","61645bc01c5b213c62ee0473","6186fb1cc52d38b480598eb7","618733cba8cce9010c72c0d2","1029","","d","true","[[554,458],[458,45],[45,141],[141,554]]","true","4","","","img/Fire_Down_Target.gif","[""img/Fire_Up_Distractor.gif"",""img/Fire_Up_Distractor.gif"",""img/Fire_Up_Distractor.gif"",""img/Fire_Up_Distractor.gif"",""img/Fire_Up_Distractor.gif"",""img/Fire_Up_Distractor.gif"",""img/Fire_Up_Distractor.gif"",""img/Fire_Up_Distractor.gif"",""img/Fire_Up_Distractor.gif"",""img/Fire_Up_Distractor.gif"",""img/Fire_Up_Distractor.gif"",""img/Fire_Up_Distractor.gif""]","targetDown_distractorsUp"
"","","","","","html-keyboard-response","152","289623","0.0-14.0-0.0-0.69","61645bc01c5b213c62ee0473","6186fb1cc52d38b480598eb7","618733cba8cce9010c72c0d2","null","","null","","","","","fixation","","","",""
"","","","","","visual-search-circle","153","291993","0.0-14.0-0.0-1.69","61645bc01c5b213c62ee0473","6186fb1cc52d38b480598eb7","618733cba8cce9010c72c0d2","1366","","d","true","[[300,0],[14,207],[123,542],[476,542],[585,207]]","true","5","","","img/Fire_Up_Target.gif","[""img/Fire_Down_Distractor.gif"",""img/Fire_Down_Distractor.gif"",""img/Fire_Down_Distractor.gif"",""img/Fire_Down_Distractor.gif"",""img/Fire_Down_Distractor.gif"",""img/Fire_Down_Distractor.gif"",""img/Fire_Down_Distractor.gif"",""img/Fire_Down_Distractor.gif"",""img/Fire_Down_Distractor.gif"",""img/Fire_Down_Distractor.gif"",""img/Fire_Down_Distractor.gif"",""img/Fire_Down_Distractor.gif""]","targetUp_distractorsDown"
"","","","","","html-keyboard-response","154","291993","0.0-14.0-0.0-0.70","61645bc01c5b213c62ee0473","6186fb1cc52d38b480598eb7","618733cba8cce9010c72c0d2","null","","null","","","","","fixation","","","",""
"","","","","","visual-search-circle","155","293863","0.0-14.0-0.0-1.70","61645bc01c5b213c62ee0473","6186fb1cc52d38b480598eb7","618733cba8cce9010c72c0d2","863","","d","true","[[63,484],[297,599],[532,489],[593,236],[432,31],[172,28],[8,230]]","true","7","","","img/Fire_Down_Target.gif","[""img/Fire_Up_Distractor.gif"",""img/Fire_Up_Distractor.gif"",""img/Fire_Up_Distractor.gif"",""img/Fire_Up_Distractor.gif"",""img/Fire_Up_Distractor.gif"",""img/Fire_Up_Distractor.gif"",""img/Fire_Up_Distractor.gif"",""img/Fire_Up_Distractor.gif"",""img/Fire_Up_Distractor.gif"",""img/Fire_Up_Distractor.gif"",""img/Fire_Up_Distractor.gif"",""img/Fire_Up_Distractor.gif""]","targetDown_distractorsUp"
"","","","","","html-keyboard-response","156","293864","0.0-14.0-0.0-0.71","61645bc01c5b213c62ee0473","6186fb1cc52d38b480598eb7","618733cba8cce9010c72c0d2","null","","null","","","","","fixation","","","",""
"","","","","","visual-search-circle","157","295860","0.0-14.0-0.0-1.71","61645bc01c5b213c62ee0473","6186fb1cc52d38b480598eb7","618733cba8cce9010c72c0d2","991","","d","true","[[66,488],[488,533],[533,111],[111,66]]","true","4","","","img/Fire_Down_Target.gif","[""img/Fire_Up_Distractor.gif"",""img/Fire_Up_Distractor.gif"",""img/Fire_Up_Distractor.gif"",""img/Fire_Up_Distractor.gif"",""img/Fire_Up_Distractor.gif"",""img/Fire_Up_Distractor.gif"",""img/Fire_Up_Distractor.gif"",""img/Fire_Up_Distractor.gif"",""img/Fire_Up_Distractor.gif"",""img/Fire_Up_Distractor.gif"",""img/Fire_Up_Distractor.gif"",""img/Fire_Up_Distractor.gif""]","targetDown_distractorsUp"
"","","","","","html-keyboard-response","158","295860","0.0-14.0-0.0-0.72","61645bc01c5b213c62ee0473","6186fb1cc52d38b480598eb7","618733cba8cce9010c72c0d2","null","","null","","","","","fixation","","","",""
"","","","","","visual-search-circle","159","298386","0.0-14.0-0.0-1.72","61645bc01c5b213c62ee0473","6186fb1cc52d38b480598eb7","618733cba8cce9010c72c0d2","1520","","d","true","[[5,242],[71,494],[309,599],[540,479],[590,223],[421,25],[161,34]]","true","7","","","img/Fire_Down_Target.gif","[""img/Fire_Up_Distractor.gif"",""img/Fire_Up_Distractor.gif"",""img/Fire_Up_Distractor.gif"",""img/Fire_Up_Distractor.gif"",""img/Fire_Up_Distractor.gif"",""img/Fire_Up_Distractor.gif"",""img/Fire_Up_Distractor.gif"",""img/Fire_Up_Distractor.gif"",""img/Fire_Up_Distractor.gif"",""img/Fire_Up_Distractor.gif"",""img/Fire_Up_Distractor.gif"",""img/Fire_Up_Distractor.gif""]","targetDown_distractorsUp"
"","","","","","html-keyboard-response","160","298386","0.0-14.0-0.0-0.73","61645bc01c5b213c62ee0473","6186fb1cc52d38b480598eb7","618733cba8cce9010c72c0d2","null","","null","","","","","fixation","","","",""
"","","","","","visual-search-circle","161","300678","0.0-14.0-0.0-1.73","61645bc01c5b213c62ee0473","6186fb1cc52d38b480598eb7","618733cba8cce9010c72c0d2","1286","","s","true","[[173,571],[433,568],[593,363],[532,110],[296,0],[63,115],[8,370]]","false","7","","","img/Fire_Up_Target.gif","[""img/Fire_Down_Distractor.gif"",""img/Fire_Down_Distractor.gif"",""img/Fire_Down_Distractor.gif"",""img/Fire_Down_Distractor.gif"",""img/Fire_Down_Distractor.gif"",""img/Fire_Down_Distractor.gif"",""img/Fire_Down_Distractor.gif"",""img/Fire_Down_Distractor.gif"",""img/Fire_Down_Distractor.gif"",""img/Fire_Down_Distractor.gif"",""img/Fire_Down_Distractor.gif"",""img/Fire_Down_Distractor.gif""]","targetUp_distractorsDown"
"","","","","","html-keyboard-response","162","300679","0.0-14.0-0.0-0.74","61645bc01c5b213c62ee0473","6186fb1cc52d38b480598eb7","618733cba8cce9010c72c0d2","null","","null","","","","","fixation","","","",""
"","","","","","visual-search-circle","163","302739","0.0-14.0-0.0-1.74","61645bc01c5b213c62ee0473","6186fb1cc52d38b480598eb7","618733cba8cce9010c72c0d2","1052","","d","true","[[512,87],[222,10],[10,222],[87,512],[377,589],[589,377]]","true","6","","","img/Fire_Up_Target.gif","[""img/Fire_Down_Distractor.gif"",""img/Fire_Down_Distractor.gif"",""img/Fire_Down_Distractor.gif"",""img/Fire_Down_Distractor.gif"",""img/Fire_Down_Distractor.gif"",""img/Fire_Down_Distractor.gif"",""img/Fire_Down_Distractor.gif"",""img/Fire_Down_Distractor.gif"",""img/Fire_Down_Distractor.gif"",""img/Fire_Down_Distractor.gif"",""img/Fire_Down_Distractor.gif"",""img/Fire_Down_Distractor.gif""]","targetUp_distractorsDown"
"","","","","","html-keyboard-response","164","302740","0.0-14.0-0.0-0.75","61645bc01c5b213c62ee0473","6186fb1cc52d38b480598eb7","618733cba8cce9010c72c0d2","null","","null","","","","","fixation","","","",""
"","","","","","visual-search-circle","165","305084","0.0-14.0-0.0-1.75","61645bc01c5b213c62ee0473","6186fb1cc52d38b480598eb7","618733cba8cce9010c72c0d2","1338","","s","true","[[480,539],[539,119],[119,60],[60,480]]","false","4","","","img/Fire_Up_Target.gif","[""img/Fire_Down_Distractor.gif"",""img/Fire_Down_Distractor.gif"",""img/Fire_Down_Distractor.gif"",""img/Fire_Down_Distractor.gif"",""img/Fire_Down_Distractor.gif"",""img/Fire_Down_Distractor.gif"",""img/Fire_Down_Distractor.gif"",""img/Fire_Down_Distractor.gif"",""img/Fire_Down_Distractor.gif"",""img/Fire_Down_Distractor.gif"",""img/Fire_Down_Distractor.gif"",""img/Fire_Down_Distractor.gif""]","targetUp_distractorsDown"
"","","","","","html-keyboard-response","166","305084","0.0-14.0-0.0-0.76","61645bc01c5b213c62ee0473","6186fb1cc52d38b480598eb7","618733cba8cce9010c72c0d2","null","","null","","","","","fixation","","","",""
"","","","","","visual-search-circle","167","307000","0.0-14.0-0.0-1.76","61645bc01c5b213c62ee0473","6186fb1cc52d38b480598eb7","618733cba8cce9010c72c0d2","909","","d","true","[[472,54],[247,4],[54,127],[4,352],[127,545],[352,595],[545,472],[595,247]]","true","8","","","img/Fire_Up_Target.gif","[""img/Fire_Down_Distractor.gif"",""img/Fire_Down_Distractor.gif"",""img/Fire_Down_Distractor.gif"",""img/Fire_Down_Distractor.gif"",""img/Fire_Down_Distractor.gif"",""img/Fire_Down_Distractor.gif"",""img/Fire_Down_Distractor.gif"",""img/Fire_Down_Distractor.gif"",""img/Fire_Down_Distractor.gif"",""img/Fire_Down_Distractor.gif"",""img/Fire_Down_Distractor.gif"",""img/Fire_Down_Distractor.gif""]","targetUp_distractorsDown"
"","","","","","html-keyboard-response","168","307000","0.0-14.0-0.0-0.77","61645bc01c5b213c62ee0473","6186fb1cc52d38b480598eb7","618733cba8cce9010c72c0d2","null","","null","","","","","fixation","","","",""
"","","","","","visual-search-circle","169","309725","0.0-14.0-0.0-1.77","61645bc01c5b213c62ee0473","6186fb1cc52d38b480598eb7","618733cba8cce9010c72c0d2","1718","","s","true","[[597,336],[480,60],[182,23],[2,263],[119,539],[417,576]]","false","6","","","img/Fire_Up_Target.gif","[""img/Fire_Down_Distractor.gif"",""img/Fire_Down_Distractor.gif"",""img/Fire_Down_Distractor.gif"",""img/Fire_Down_Distractor.gif"",""img/Fire_Down_Distractor.gif"",""img/Fire_Down_Distractor.gif"",""img/Fire_Down_Distractor.gif"",""img/Fire_Down_Distractor.gif"",""img/Fire_Down_Distractor.gif"",""img/Fire_Down_Distractor.gif"",""img/Fire_Down_Distractor.gif"",""img/Fire_Down_Distractor.gif""]","targetUp_distractorsDown"
"","","","","","html-keyboard-response","170","309727","0.0-14.0-0.0-0.78","61645bc01c5b213c62ee0473","6186fb1cc52d38b480598eb7","618733cba8cce9010c72c0d2","null","","null","","","","","fixation","","","",""
"","","","","","visual-search-circle","171","313663","0.0-14.0-0.0-1.78","61645bc01c5b213c62ee0473","6186fb1cc52d38b480598eb7","618733cba8cce9010c72c0d2","2932","","s","true","[[551,136],[136,48],[48,463],[463,551]]","false","4","","","img/Fire_Down_Target.gif","[""img/Fire_Up_Distractor.gif"",""img/Fire_Up_Distractor.gif"",""img/Fire_Up_Distractor.gif"",""img/Fire_Up_Distractor.gif"",""img/Fire_Up_Distractor.gif"",""img/Fire_Up_Distractor.gif"",""img/Fire_Up_Distractor.gif"",""img/Fire_Up_Distractor.gif"",""img/Fire_Up_Distractor.gif"",""img/Fire_Up_Distractor.gif"",""img/Fire_Up_Distractor.gif"",""img/Fire_Up_Distractor.gif""]","targetDown_distractorsUp"
"","","","","","html-keyboard-response","172","330447","0.0-14.0-0.0-0.79","61645bc01c5b213c62ee0473","6186fb1cc52d38b480598eb7","618733cba8cce9010c72c0d2","16782","Wow! You've completed 80 out of 120 trials! </p> <p>  </p><p> Take a quick break, then press any key when you're ready to continue.","s","","","","","fixation","","","",""
"","","","","","visual-search-circle","173","332439","0.0-14.0-0.0-1.79","61645bc01c5b213c62ee0473","6186fb1cc52d38b480598eb7","618733cba8cce9010c72c0d2","983","","d","true","[[596,346],[521,97],[279,0],[53,129],[12,386],[188,578],[448,560]]","true","7","","","img/Fire_Down_Target.gif","[""img/Fire_Up_Distractor.gif"",""img/Fire_Up_Distractor.gif"",""img/Fire_Up_Distractor.gif"",""img/Fire_Up_Distractor.gif"",""img/Fire_Up_Distractor.gif"",""img/Fire_Up_Distractor.gif"",""img/Fire_Up_Distractor.gif"",""img/Fire_Up_Distractor.gif"",""img/Fire_Up_Distractor.gif"",""img/Fire_Up_Distractor.gif"",""img/Fire_Up_Distractor.gif"",""img/Fire_Up_Distractor.gif""]","targetDown_distractorsUp"
"","","","","","html-keyboard-response","174","332440","0.0-14.0-0.0-0.80","61645bc01c5b213c62ee0473","6186fb1cc52d38b480598eb7","618733cba8cce9010c72c0d2","null","","null","","","","","fixation","","","",""
"","","","","","visual-search-circle","175","334460","0.0-14.0-0.0-1.80","61645bc01c5b213c62ee0473","6186fb1cc52d38b480598eb7","618733cba8cce9010c72c0d2","1012","","s","true","[[346,3],[123,57],[3,253],[57,476],[253,596],[476,542],[596,346],[542,123]]","false","8","","","img/Fire_Down_Target.gif","[""img/Fire_Up_Distractor.gif"",""img/Fire_Up_Distractor.gif"",""img/Fire_Up_Distractor.gif"",""img/Fire_Up_Distractor.gif"",""img/Fire_Up_Distractor.gif"",""img/Fire_Up_Distractor.gif"",""img/Fire_Up_Distractor.gif"",""img/Fire_Up_Distractor.gif"",""img/Fire_Up_Distractor.gif"",""img/Fire_Up_Distractor.gif"",""img/Fire_Up_Distractor.gif"",""img/Fire_Up_Distractor.gif""]","targetDown_distractorsUp"
"","","","","","html-keyboard-response","176","334461","0.0-14.0-0.0-0.81","61645bc01c5b213c62ee0473","6186fb1cc52d38b480598eb7","618733cba8cce9010c72c0d2","null","","null","","","","","fixation","","","",""
"","","","","","visual-search-circle","177","336457","0.0-14.0-0.0-1.81","61645bc01c5b213c62ee0473","6186fb1cc52d38b480598eb7","618733cba8cce9010c72c0d2","989","","d","true","[[305,0],[91,84],[0,294],[84,508],[294,599],[508,515],[599,305],[515,91]]","true","8","","","img/Fire_Down_Target.gif","[""img/Fire_Up_Distractor.gif"",""img/Fire_Up_Distractor.gif"",""img/Fire_Up_Distractor.gif"",""img/Fire_Up_Distractor.gif"",""img/Fire_Up_Distractor.gif"",""img/Fire_Up_Distractor.gif"",""img/Fire_Up_Distractor.gif"",""img/Fire_Up_Distractor.gif"",""img/Fire_Up_Distractor.gif"",""img/Fire_Up_Distractor.gif"",""img/Fire_Up_Distractor.gif"",""img/Fire_Up_Distractor.gif""]","targetDown_distractorsUp"
"","","","","","html-keyboard-response","178","336457","0.0-14.0-0.0-0.82","61645bc01c5b213c62ee0473","6186fb1cc52d38b480598eb7","618733cba8cce9010c72c0d2","null","","null","","","","","fixation","","","",""
"","","","","","visual-search-circle","179","339264","0.0-14.0-0.0-1.82","61645bc01c5b213c62ee0473","6186fb1cc52d38b480598eb7","618733cba8cce9010c72c0d2","1798","","s","true","[[533,111],[192,19],[0,315],[222,589],[551,463]]","false","5","","","img/Fire_Down_Target.gif","[""img/Fire_Up_Distractor.gif"",""img/Fire_Up_Distractor.gif"",""img/Fire_Up_Distractor.gif"",""img/Fire_Up_Distractor.gif"",""img/Fire_Up_Distractor.gif"",""img/Fire_Up_Distractor.gif"",""img/Fire_Up_Distractor.gif"",""img/Fire_Up_Distractor.gif"",""img/Fire_Up_Distractor.gif"",""img/Fire_Up_Distractor.gif"",""img/Fire_Up_Distractor.gif"",""img/Fire_Up_Distractor.gif""]","targetDown_distractorsUp"
"","","","","","html-keyboard-response","180","339265","0.0-14.0-0.0-0.83","61645bc01c5b213c62ee0473","6186fb1cc52d38b480598eb7","618733cba8cce9010c72c0d2","null","","null","","","","","fixation","","","",""
"","","","","","visual-search-circle","181","341386","0.0-14.0-0.0-1.83","61645bc01c5b213c62ee0473","6186fb1cc52d38b480598eb7","618733cba8cce9010c72c0d2","1115","","s","true","[[559,150],[150,40],[40,450],[450,559]]","false","4","","","img/Fire_Down_Target.gif","[""img/Fire_Up_Distractor.gif"",""img/Fire_Up_Distractor.gif"",""img/Fire_Up_Distractor.gif"",""img/Fire_Up_Distractor.gif"",""img/Fire_Up_Distractor.gif"",""img/Fire_Up_Distractor.gif"",""img/Fire_Up_Distractor.gif"",""img/Fire_Up_Distractor.gif"",""img/Fire_Up_Distractor.gif"",""img/Fire_Up_Distractor.gif"",""img/Fire_Up_Distractor.gif"",""img/Fire_Up_Distractor.gif""]","targetDown_distractorsUp"
"","","","","","html-keyboard-response","182","341386","0.0-14.0-0.0-0.84","61645bc01c5b213c62ee0473","6186fb1cc52d38b480598eb7","618733cba8cce9010c72c0d2","null","","null","","","","","fixation","","","",""
"","","","","","visual-search-circle","183","343452","0.0-14.0-0.0-1.84","61645bc01c5b213c62ee0473","6186fb1cc52d38b480598eb7","618733cba8cce9010c72c0d2","1064","","d","true","[[574,177],[331,1],[57,123],[25,422],[268,598],[542,476]]","true","6","","","img/Fire_Down_Target.gif","[""img/Fire_Up_Distractor.gif"",""img/Fire_Up_Distractor.gif"",""img/Fire_Up_Distractor.gif"",""img/Fire_Up_Distractor.gif"",""img/Fire_Up_Distractor.gif"",""img/Fire_Up_Distractor.gif"",""img/Fire_Up_Distractor.gif"",""img/Fire_Up_Distractor.gif"",""img/Fire_Up_Distractor.gif"",""img/Fire_Up_Distractor.gif"",""img/Fire_Up_Distractor.gif"",""img/Fire_Up_Distractor.gif""]","targetDown_distractorsUp"
"","","","","","html-keyboard-response","184","343454","0.0-14.0-0.0-0.85","61645bc01c5b213c62ee0473","6186fb1cc52d38b480598eb7","618733cba8cce9010c72c0d2","null","","null","","","","","fixation","","","",""
"","","","","","visual-search-circle","185","345939","0.0-14.0-0.0-1.85","61645bc01c5b213c62ee0473","6186fb1cc52d38b480598eb7","618733cba8cce9010c72c0d2","1478","","s","true","[[596,253],[346,3],[32,163],[87,512],[436,567]]","false","5","","","img/Fire_Down_Target.gif","[""img/Fire_Up_Distractor.gif"",""img/Fire_Up_Distractor.gif"",""img/Fire_Up_Distractor.gif"",""img/Fire_Up_Distractor.gif"",""img/Fire_Up_Distractor.gif"",""img/Fire_Up_Distractor.gif"",""img/Fire_Up_Distractor.gif"",""img/Fire_Up_Distractor.gif"",""img/Fire_Up_Distractor.gif"",""img/Fire_Up_Distractor.gif"",""img/Fire_Up_Distractor.gif"",""img/Fire_Up_Distractor.gif""]","targetDown_distractorsUp"
"","","","","","html-keyboard-response","186","345941","0.0-14.0-0.0-0.86","61645bc01c5b213c62ee0473","6186fb1cc52d38b480598eb7","618733cba8cce9010c72c0d2","null","","null","","","","","fixation","","","",""
"","","","","","visual-search-circle","187","348566","0.0-14.0-0.0-1.86","61645bc01c5b213c62ee0473","6186fb1cc52d38b480598eb7","618733cba8cce9010c72c0d2","1618","","s","true","[[440,35],[91,84],[30,431],[341,597],[595,352]]","false","5","","","img/Fire_Up_Target.gif","[""img/Fire_Down_Distractor.gif"",""img/Fire_Down_Distractor.gif"",""img/Fire_Down_Distractor.gif"",""img/Fire_Down_Distractor.gif"",""img/Fire_Down_Distractor.gif"",""img/Fire_Down_Distractor.gif"",""img/Fire_Down_Distractor.gif"",""img/Fire_Down_Distractor.gif"",""img/Fire_Down_Distractor.gif"",""img/Fire_Down_Distractor.gif"",""img/Fire_Down_Distractor.gif"",""img/Fire_Down_Distractor.gif""]","targetUp_distractorsDown"
"","","","","","html-keyboard-response","188","348567","0.0-14.0-0.0-0.87","61645bc01c5b213c62ee0473","6186fb1cc52d38b480598eb7","618733cba8cce9010c72c0d2","null","","null","","","","","fixation","","","",""
"","","","","","visual-search-circle","189","350863","0.0-14.0-0.0-1.87","61645bc01c5b213c62ee0473","6186fb1cc52d38b480598eb7","618733cba8cce9010c72c0d2","1289","","d","true","[[372,8],[8,227],[227,591],[591,372]]","true","4","","","img/Fire_Up_Target.gif","[""img/Fire_Down_Distractor.gif"",""img/Fire_Down_Distractor.gif"",""img/Fire_Down_Distractor.gif"",""img/Fire_Down_Distractor.gif"",""img/Fire_Down_Distractor.gif"",""img/Fire_Down_Distractor.gif"",""img/Fire_Down_Distractor.gif"",""img/Fire_Down_Distractor.gif"",""img/Fire_Down_Distractor.gif"",""img/Fire_Down_Distractor.gif"",""img/Fire_Down_Distractor.gif"",""img/Fire_Down_Distractor.gif""]","targetUp_distractorsDown"
"","","","","","html-keyboard-response","190","350863","0.0-14.0-0.0-0.88","61645bc01c5b213c62ee0473","6186fb1cc52d38b480598eb7","618733cba8cce9010c72c0d2","null","","null","","","","","fixation","","","",""
"","","","","","visual-search-circle","191","353225","0.0-14.0-0.0-1.88","61645bc01c5b213c62ee0473","6186fb1cc52d38b480598eb7","618733cba8cce9010c72c0d2","1357","","s","true","[[242,5],[2,263],[173,571],[519,504],[562,154]]","false","5","","","img/Fire_Up_Target.gif","[""img/Fire_Down_Distractor.gif"",""img/Fire_Down_Distractor.gif"",""img/Fire_Down_Distractor.gif"",""img/Fire_Down_Distractor.gif"",""img/Fire_Down_Distractor.gif"",""img/Fire_Down_Distractor.gif"",""img/Fire_Down_Distractor.gif"",""img/Fire_Down_Distractor.gif"",""img/Fire_Down_Distractor.gif"",""img/Fire_Down_Distractor.gif"",""img/Fire_Down_Distractor.gif"",""img/Fire_Down_Distractor.gif""]","targetUp_distractorsDown"
"","","","","","html-keyboard-response","192","353225","0.0-14.0-0.0-0.89","61645bc01c5b213c62ee0473","6186fb1cc52d38b480598eb7","618733cba8cce9010c72c0d2","null","","null","","","","","fixation","","","",""
"","","","","","visual-search-circle","193","355338","0.0-14.0-0.0-1.89","61645bc01c5b213c62ee0473","6186fb1cc52d38b480598eb7","618733cba8cce9010c72c0d2","1106","","s","true","[[564,440],[440,35],[35,159],[159,564]]","false","4","","","img/Fire_Up_Target.gif","[""img/Fire_Down_Distractor.gif"",""img/Fire_Down_Distractor.gif"",""img/Fire_Down_Distractor.gif"",""img/Fire_Down_Distractor.gif"",""img/Fire_Down_Distractor.gif"",""img/Fire_Down_Distractor.gif"",""img/Fire_Down_Distractor.gif"",""img/Fire_Down_Distractor.gif"",""img/Fire_Down_Distractor.gif"",""img/Fire_Down_Distractor.gif"",""img/Fire_Down_Distractor.gif"",""img/Fire_Down_Distractor.gif""]","targetUp_distractorsDown"
"","","","","","html-keyboard-response","194","355338","0.0-14.0-0.0-0.90","61645bc01c5b213c62ee0473","6186fb1cc52d38b480598eb7","618733cba8cce9010c72c0d2","null","","null","","","","","fixation","","","",""
"","","","","","visual-search-circle","195","357365","0.0-14.0-0.0-1.90","61645bc01c5b213c62ee0473","6186fb1cc52d38b480598eb7","618733cba8cce9010c72c0d2","1019","","d","true","[[341,597],[558,452],[580,193],[391,14],[133,50],[1,274],[93,517]]","true","7","","","img/Fire_Up_Target.gif","[""img/Fire_Down_Distractor.gif"",""img/Fire_Down_Distractor.gif"",""img/Fire_Down_Distractor.gif"",""img/Fire_Down_Distractor.gif"",""img/Fire_Down_Distractor.gif"",""img/Fire_Down_Distractor.gif"",""img/Fire_Down_Distractor.gif"",""img/Fire_Down_Distractor.gif"",""img/Fire_Down_Distractor.gif"",""img/Fire_Down_Distractor.gif"",""img/Fire_Down_Distractor.gif"",""img/Fire_Down_Distractor.gif""]","targetUp_distractorsDown"
"","","","","","html-keyboard-response","196","357366","0.0-14.0-0.0-0.91","61645bc01c5b213c62ee0473","6186fb1cc52d38b480598eb7","618733cba8cce9010c72c0d2","null","","null","","","","","fixation","","","",""
"","","","","","visual-search-circle","197","359944","0.0-14.0-0.0-1.91","61645bc01c5b213c62ee0473","6186fb1cc52d38b480598eb7","618733cba8cce9010c72c0d2","1573","","d","true","[[585,392],[522,99],[237,6],[14,207],[77,500],[362,593]]","true","6","","","img/Fire_Down_Target.gif","[""img/Fire_Up_Distractor.gif"",""img/Fire_Up_Distractor.gif"",""img/Fire_Up_Distractor.gif"",""img/Fire_Up_Distractor.gif"",""img/Fire_Up_Distractor.gif"",""img/Fire_Up_Distractor.gif"",""img/Fire_Up_Distractor.gif"",""img/Fire_Up_Distractor.gif"",""img/Fire_Up_Distractor.gif"",""img/Fire_Up_Distractor.gif"",""img/Fire_Up_Distractor.gif"",""img/Fire_Up_Distractor.gif""]","targetDown_distractorsUp"
"","","","","","html-keyboard-response","198","359946","0.0-14.0-0.0-0.92","61645bc01c5b213c62ee0473","6186fb1cc52d38b480598eb7","618733cba8cce9010c72c0d2","null","","null","","","","","fixation","","","",""
"","","","","","visual-search-circle","199","362148","0.0-14.0-0.0-1.92","61645bc01c5b213c62ee0473","6186fb1cc52d38b480598eb7","618733cba8cce9010c72c0d2","1194","","d","true","[[591,372],[538,117],[305,0],[69,108],[6,360],[164,567],[424,572]]","true","7","","","img/Fire_Up_Target.gif","[""img/Fire_Down_Distractor.gif"",""img/Fire_Down_Distractor.gif"",""img/Fire_Down_Distractor.gif"",""img/Fire_Down_Distractor.gif"",""img/Fire_Down_Distractor.gif"",""img/Fire_Down_Distractor.gif"",""img/Fire_Down_Distractor.gif"",""img/Fire_Down_Distractor.gif"",""img/Fire_Down_Distractor.gif"",""img/Fire_Down_Distractor.gif"",""img/Fire_Down_Distractor.gif"",""img/Fire_Down_Distractor.gif""]","targetUp_distractorsDown"
"","","","","","html-keyboard-response","200","362148","0.0-14.0-0.0-0.93","61645bc01c5b213c62ee0473","6186fb1cc52d38b480598eb7","618733cba8cce9010c72c0d2","null","","null","","","","","fixation","","","",""
"","","","","","visual-search-circle","201","364529","0.0-14.0-0.0-1.93","61645bc01c5b213c62ee0473","6186fb1cc52d38b480598eb7","618733cba8cce9010c72c0d2","1373","","d","true","[[412,21],[115,63],[2,341],[187,578],[484,536],[597,258]]","true","6","","","img/Fire_Up_Target.gif","[""img/Fire_Down_Distractor.gif"",""img/Fire_Down_Distractor.gif"",""img/Fire_Down_Distractor.gif"",""img/Fire_Down_Distractor.gif"",""img/Fire_Down_Distractor.gif"",""img/Fire_Down_Distractor.gif"",""img/Fire_Down_Distractor.gif"",""img/Fire_Down_Distractor.gif"",""img/Fire_Down_Distractor.gif"",""img/Fire_Down_Distractor.gif"",""img/Fire_Down_Distractor.gif"",""img/Fire_Down_Distractor.gif""]","targetUp_distractorsDown"
"","","","","","html-keyboard-response","202","364529","0.0-14.0-0.0-0.94","61645bc01c5b213c62ee0473","6186fb1cc52d38b480598eb7","618733cba8cce9010c72c0d2","null","","null","","","","","fixation","","","",""
"","","","","","visual-search-circle","203","366995","0.0-14.0-0.0-1.94","61645bc01c5b213c62ee0473","6186fb1cc52d38b480598eb7","618733cba8cce9010c72c0d2","1457","","d","true","[[77,500],[317,599],[545,472],[587,215],[413,22],[153,37],[4,250]]","true","7","","","img/Fire_Up_Target.gif","[""img/Fire_Down_Distractor.gif"",""img/Fire_Down_Distractor.gif"",""img/Fire_Down_Distractor.gif"",""img/Fire_Down_Distractor.gif"",""img/Fire_Down_Distractor.gif"",""img/Fire_Down_Distractor.gif"",""img/Fire_Down_Distractor.gif"",""img/Fire_Down_Distractor.gif"",""img/Fire_Down_Distractor.gif"",""img/Fire_Down_Distractor.gif"",""img/Fire_Down_Distractor.gif"",""img/Fire_Down_Distractor.gif""]","targetUp_distractorsDown"
"","","","","","html-keyboard-response","204","366995","0.0-14.0-0.0-0.95","61645bc01c5b213c62ee0473","6186fb1cc52d38b480598eb7","618733cba8cce9010c72c0d2","null","","null","","","","","fixation","","","",""
"","","","","","visual-search-circle","205","369714","0.0-14.0-0.0-1.95","61645bc01c5b213c62ee0473","6186fb1cc52d38b480598eb7","618733cba8cce9010c72c0d2","1713","","s","true","[[300,0],[65,112],[7,366],[169,570],[430,570],[592,366],[534,112]]","false","7","","","img/Fire_Up_Target.gif","[""img/Fire_Down_Distractor.gif"",""img/Fire_Down_Distractor.gif"",""img/Fire_Down_Distractor.gif"",""img/Fire_Down_Distractor.gif"",""img/Fire_Down_Distractor.gif"",""img/Fire_Down_Distractor.gif"",""img/Fire_Down_Distractor.gif"",""img/Fire_Down_Distractor.gif"",""img/Fire_Down_Distractor.gif"",""img/Fire_Down_Distractor.gif"",""img/Fire_Down_Distractor.gif"",""img/Fire_Down_Distractor.gif""]","targetUp_distractorsDown"
"","","","","","html-keyboard-response","206","369714","0.0-14.0-0.0-0.96","61645bc01c5b213c62ee0473","6186fb1cc52d38b480598eb7","618733cba8cce9010c72c0d2","null","","null","","","","","fixation","","","",""
"","","","","","visual-search-circle","207","371557","0.0-14.0-0.0-1.96","61645bc01c5b213c62ee0473","6186fb1cc52d38b480598eb7","618733cba8cce9010c72c0d2","837","","d","true","[[28,426],[197,581],[426,571],[581,402],[571,173],[402,18],[173,28],[18,197]]","true","8","","","img/Fire_Down_Target.gif","[""img/Fire_Up_Distractor.gif"",""img/Fire_Up_Distractor.gif"",""img/Fire_Up_Distractor.gif"",""img/Fire_Up_Distractor.gif"",""img/Fire_Up_Distractor.gif"",""img/Fire_Up_Distractor.gif"",""img/Fire_Up_Distractor.gif"",""img/Fire_Up_Distractor.gif"",""img/Fire_Up_Distractor.gif"",""img/Fire_Up_Distractor.gif"",""img/Fire_Up_Distractor.gif"",""img/Fire_Up_Distractor.gif""]","targetDown_distractorsUp"
"","","","","","html-keyboard-response","208","371558","0.0-14.0-0.0-0.97","61645bc01c5b213c62ee0473","6186fb1cc52d38b480598eb7","618733cba8cce9010c72c0d2","null","","null","","","","","fixation","","","",""
"","","","","","visual-search-circle","209","373709","0.0-14.0-0.0-1.97","61645bc01c5b213c62ee0473","6186fb1cc52d38b480598eb7","618733cba8cce9010c72c0d2","1142","","d","true","[[357,594],[548,467],[594,242],[467,51],[242,5],[51,132],[5,357],[132,548]]","true","8","","","img/Fire_Up_Target.gif","[""img/Fire_Down_Distractor.gif"",""img/Fire_Down_Distractor.gif"",""img/Fire_Down_Distractor.gif"",""img/Fire_Down_Distractor.gif"",""img/Fire_Down_Distractor.gif"",""img/Fire_Down_Distractor.gif"",""img/Fire_Down_Distractor.gif"",""img/Fire_Down_Distractor.gif"",""img/Fire_Down_Distractor.gif"",""img/Fire_Down_Distractor.gif"",""img/Fire_Down_Distractor.gif"",""img/Fire_Down_Distractor.gif""]","targetUp_distractorsDown"
"","","","","","html-keyboard-response","210","373709","0.0-14.0-0.0-0.98","61645bc01c5b213c62ee0473","6186fb1cc52d38b480598eb7","618733cba8cce9010c72c0d2","null","","null","","","","","fixation","","","",""
"","","","","","visual-search-circle","211","376273","0.0-14.0-0.0-1.98","61645bc01c5b213c62ee0473","6186fb1cc52d38b480598eb7","618733cba8cce9010c72c0d2","1555","","s","true","[[367,592],[554,458],[592,232],[458,45],[232,7],[45,141],[7,367],[141,554]]","false","8","","","img/Fire_Up_Target.gif","[""img/Fire_Down_Distractor.gif"",""img/Fire_Down_Distractor.gif"",""img/Fire_Down_Distractor.gif"",""img/Fire_Down_Distractor.gif"",""img/Fire_Down_Distractor.gif"",""img/Fire_Down_Distractor.gif"",""img/Fire_Down_Distractor.gif"",""img/Fire_Down_Distractor.gif"",""img/Fire_Down_Distractor.gif"",""img/Fire_Down_Distractor.gif"",""img/Fire_Down_Distractor.gif"",""img/Fire_Down_Distractor.gif""]","targetUp_distractorsDown"
"","","","","","html-keyboard-response","212","377677","0.0-14.0-0.0-0.99","61645bc01c5b213c62ee0473","6186fb1cc52d38b480598eb7","618733cba8cce9010c72c0d2","1402","Wow! You've completed 100 out of 120 trials! </p> <p>  </p><p> Take a quick break, then press any key when you're ready to continue.","s","","","","","fixation","","","",""
"","","","","","visual-search-circle","213","380476","0.0-14.0-0.0-1.99","61645bc01c5b213c62ee0473","6186fb1cc52d38b480598eb7","618733cba8cce9010c72c0d2","1794","","s","true","[[294,599],[583,397],[480,60],[127,54],[13,387]]","false","5","","","img/Fire_Up_Target.gif","[""img/Fire_Down_Distractor.gif"",""img/Fire_Down_Distractor.gif"",""img/Fire_Down_Distractor.gif"",""img/Fire_Down_Distractor.gif"",""img/Fire_Down_Distractor.gif"",""img/Fire_Down_Distractor.gif"",""img/Fire_Down_Distractor.gif"",""img/Fire_Down_Distractor.gif"",""img/Fire_Down_Distractor.gif"",""img/Fire_Down_Distractor.gif"",""img/Fire_Down_Distractor.gif"",""img/Fire_Down_Distractor.gif""]","targetUp_distractorsDown"
"","","","","","html-keyboard-response","214","380477","0.0-14.0-0.0-0.100","61645bc01c5b213c62ee0473","6186fb1cc52d38b480598eb7","618733cba8cce9010c72c0d2","null","","null","","","","","fixation","","","",""
"","","","","","visual-search-circle","215","382753","0.0-14.0-0.0-1.100","61645bc01c5b213c62ee0473","6186fb1cc52d38b480598eb7","618733cba8cce9010c72c0d2","1270","","s","true","[[207,14],[0,299],[207,585],[542,476],[542,123]]","false","5","","","img/Fire_Down_Target.gif","[""img/Fire_Up_Distractor.gif"",""img/Fire_Up_Distractor.gif"",""img/Fire_Up_Distractor.gif"",""img/Fire_Up_Distractor.gif"",""img/Fire_Up_Distractor.gif"",""img/Fire_Up_Distractor.gif"",""img/Fire_Up_Distractor.gif"",""img/Fire_Up_Distractor.gif"",""img/Fire_Up_Distractor.gif"",""img/Fire_Up_Distractor.gif"",""img/Fire_Up_Distractor.gif"",""img/Fire_Up_Distractor.gif""]","targetDown_distractorsUp"
"","","","","","html-keyboard-response","216","382754","0.0-14.0-0.0-0.101","61645bc01c5b213c62ee0473","6186fb1cc52d38b480598eb7","618733cba8cce9010c72c0d2","null","","null","","","","","fixation","","","",""
"","","","","","visual-search-circle","217","385057","0.0-14.0-0.0-1.101","61645bc01c5b213c62ee0473","6186fb1cc52d38b480598eb7","618733cba8cce9010c72c0d2","1297","","s","true","[[84,91],[2,338],[144,556],[404,581],[584,394],[551,135],[328,1]]","false","7","","","img/Fire_Down_Target.gif","[""img/Fire_Up_Distractor.gif"",""img/Fire_Up_Distractor.gif"",""img/Fire_Up_Distractor.gif"",""img/Fire_Up_Distractor.gif"",""img/Fire_Up_Distractor.gif"",""img/Fire_Up_Distractor.gif"",""img/Fire_Up_Distractor.gif"",""img/Fire_Up_Distractor.gif"",""img/Fire_Up_Distractor.gif"",""img/Fire_Up_Distractor.gif"",""img/Fire_Up_Distractor.gif"",""img/Fire_Up_Distractor.gif""]","targetDown_distractorsUp"
"","","","","","html-keyboard-response","218","385057","0.0-14.0-0.0-0.102","61645bc01c5b213c62ee0473","6186fb1cc52d38b480598eb7","618733cba8cce9010c72c0d2","null","","null","","","","","fixation","","","",""
"","","","","","visual-search-circle","219","387287","0.0-14.0-0.0-1.102","61645bc01c5b213c62ee0473","6186fb1cc52d38b480598eb7","618733cba8cce9010c72c0d2","1225","","s","true","[[3,253],[253,596],[596,346],[346,3]]","false","4","","","img/Fire_Up_Target.gif","[""img/Fire_Down_Distractor.gif"",""img/Fire_Down_Distractor.gif"",""img/Fire_Down_Distractor.gif"",""img/Fire_Down_Distractor.gif"",""img/Fire_Down_Distractor.gif"",""img/Fire_Down_Distractor.gif"",""img/Fire_Down_Distractor.gif"",""img/Fire_Down_Distractor.gif"",""img/Fire_Down_Distractor.gif"",""img/Fire_Down_Distractor.gif"",""img/Fire_Down_Distractor.gif"",""img/Fire_Down_Distractor.gif""]","targetUp_distractorsDown"
"","","","","","html-keyboard-response","220","387287","0.0-14.0-0.0-0.103","61645bc01c5b213c62ee0473","6186fb1cc52d38b480598eb7","618733cba8cce9010c72c0d2","null","","null","","","","","fixation","","","",""
"","","","","","visual-search-circle","221","389188","0.0-14.0-0.0-1.103","61645bc01c5b213c62ee0473","6186fb1cc52d38b480598eb7","618733cba8cce9010c72c0d2","892","","d","true","[[362,6],[109,68],[0,304],[116,537],[371,591],[572,426],[568,165]]","true","7","","","img/Fire_Down_Target.gif","[""img/Fire_Up_Distractor.gif"",""img/Fire_Up_Distractor.gif"",""img/Fire_Up_Distractor.gif"",""img/Fire_Up_Distractor.gif"",""img/Fire_Up_Distractor.gif"",""img/Fire_Up_Distractor.gif"",""img/Fire_Up_Distractor.gif"",""img/Fire_Up_Distractor.gif"",""img/Fire_Up_Distractor.gif"",""img/Fire_Up_Distractor.gif"",""img/Fire_Up_Distractor.gif"",""img/Fire_Up_Distractor.gif""]","targetDown_distractorsUp"
"","","","","","html-keyboard-response","222","389189","0.0-14.0-0.0-0.104","61645bc01c5b213c62ee0473","6186fb1cc52d38b480598eb7","618733cba8cce9010c72c0d2","null","","null","","","","","fixation","","","",""
"","","","","","visual-search-circle","223","391357","0.0-14.0-0.0-1.104","61645bc01c5b213c62ee0473","6186fb1cc52d38b480598eb7","618733cba8cce9010c72c0d2","1159","","s","true","[[574,177],[407,19],[177,25],[19,192],[25,422],[192,580],[422,574],[580,407]]","false","8","","","img/Fire_Down_Target.gif","[""img/Fire_Up_Distractor.gif"",""img/Fire_Up_Distractor.gif"",""img/Fire_Up_Distractor.gif"",""img/Fire_Up_Distractor.gif"",""img/Fire_Up_Distractor.gif"",""img/Fire_Up_Distractor.gif"",""img/Fire_Up_Distractor.gif"",""img/Fire_Up_Distractor.gif"",""img/Fire_Up_Distractor.gif"",""img/Fire_Up_Distractor.gif"",""img/Fire_Up_Distractor.gif"",""img/Fire_Up_Distractor.gif""]","targetDown_distractorsUp"
"","","","","","html-keyboard-response","224","391357","0.0-14.0-0.0-0.105","61645bc01c5b213c62ee0473","6186fb1cc52d38b480598eb7","618733cba8cce9010c72c0d2","null","","null","","","","","fixation","","","",""
