"success","timeout","failed_images","failed_audio","failed_video","trial_type","trial_index","time_elapsed","internal_node_id","subject_id","study_id","session_id","rt","stimulus","response","correct","locations","target_present","set_size","task","correct_response","target","foilCM","searchCondition"
"true","false","[]","[]","[]","preload","0","22350","0.0-0.0","61687f5d4bd5b7730a608ac3","6186fb1cc52d38b480598eb7","61872fc5edc2d45540f78283","","","","","","","","","","","",""
"true","","","","","fullscreen","1","26357","0.0-1.0","61687f5d4bd5b7730a608ac3","6186fb1cc52d38b480598eb7","61872fc5edc2d45540f78283","","","","","","","","","","","",""
"","","","","","html-keyboard-response","2","55729","0.0-2.0","61687f5d4bd5b7730a608ac3","6186fb1cc52d38b480598eb7","61872fc5edc2d45540f78283","29371.5","What a beautiful Saturday to do some awesome science! </p> <p>  </p><p> </p>
    By completing this survey or questionnaire, you are consenting to be in this research study. </p>
    Your participation is voluntary and you can stop at any time.
    <p> [Press any key to continue.] </p>
    
    "," ","","","","","","","","",""
"","","","","","video-keyboard-response","3","102826","0.0-3.0","61687f5d4bd5b7730a608ac3","6186fb1cc52d38b480598eb7","61872fc5edc2d45540f78283","47090.200000047684","[""video/TaskInstructions.mp4""]"," ","","","","","","","","",""
"","","","","","html-keyboard-response","4","106621","0.0-4.0","61687f5d4bd5b7730a608ac3","6186fb1cc52d38b480598eb7","61872fc5edc2d45540f78283","3793.2999999523163","
    <p>First, we're going to do a few practice trials to make sure you understand the task. You will recieve feedback on each trial. </p>

    <p>[Press any key to begin the familiarization phase.]</p>
    "," ","","","","","","","","",""
"","","","","","visual-search-circle","5","109716","0.0-5.0-0.0","61687f5d4bd5b7730a608ac3","6186fb1cc52d38b480598eb7","61872fc5edc2d45540f78283","2026.7999999523163","","d","true","[[42,454],[454,557],[557,145],[145,42]]","true","4","training","d","","",""
"","","","","","html-keyboard-response","6","119893","0.0-6.0","61687f5d4bd5b7730a608ac3","6186fb1cc52d38b480598eb7","61872fc5edc2d45540f78283","10187.300000190735"," <div style='float: center; '><img src='img/feedbackRight.png'></img> </div> "," ","","","","","","","","",""
"","","","","","visual-search-circle","7","123182","0.0-7.0-0.0","61687f5d4bd5b7730a608ac3","6186fb1cc52d38b480598eb7","61872fc5edc2d45540f78283","2275.2000000476837","","s","true","[[586,387],[387,13],[13,212],[212,586]]","false","4","training","s","","",""
"","","","","","html-keyboard-response","8","126932","0.0-8.0","61687f5d4bd5b7730a608ac3","6186fb1cc52d38b480598eb7","61872fc5edc2d45540f78283","3748.699999809265"," <div style='float: center; '><img src='img/feedbackRight.png'></img> </div> "," ","","","","","","","","",""
"","","","","","visual-search-circle","9","130750","0.0-9.0-0.0","61687f5d4bd5b7730a608ac3","6186fb1cc52d38b480598eb7","61872fc5edc2d45540f78283","2810.4000000953674","","s","true","[[431,30],[132,51],[0,320],[168,569],[467,548],[599,279]]","false","6","training","s","","",""
"","","","","","html-keyboard-response","10","132969","0.0-10.0","61687f5d4bd5b7730a608ac3","6186fb1cc52d38b480598eb7","61872fc5edc2d45540f78283","2217.699999809265"," <div style='float: center; '><img src='img/feedbackRight.png'></img> </div> "," ","","","","","","","","",""
"","","","","","visual-search-circle","11","136188","0.0-11.0-0.0","61687f5d4bd5b7730a608ac3","6186fb1cc52d38b480598eb7","61872fc5edc2d45540f78283","2204.0999999046326","","d","true","[[458,45],[232,7],[45,141],[7,367],[141,554],[367,592],[554,458],[592,232]]","true","8","training","d","","",""
"","","","","","html-keyboard-response","12","137598","0.0-12.0","61687f5d4bd5b7730a608ac3","6186fb1cc52d38b480598eb7","61872fc5edc2d45540f78283","1408.5999999046326"," <div style='float: center; '><img src='img/feedbackRight.png'></img> </div> "," ","","","","","","","","",""
"","","","","","video-keyboard-response","13","144216","0.0-13.0","61687f5d4bd5b7730a608ac3","6186fb1cc52d38b480598eb7","61872fc5edc2d45540f78283","6615.399999856949","[""video/endTraining.mp4""]"," ","","","","","","","","",""
"","","","","","html-keyboard-response","14","144219","0.0-14.0-0.0-0.0","61687f5d4bd5b7730a608ac3","6186fb1cc52d38b480598eb7","61872fc5edc2d45540f78283","null","","null","","","","","fixation","","","",""
"","","","","","visual-search-circle","15","146617","0.0-14.0-0.0-1.0","61687f5d4bd5b7730a608ac3","6186fb1cc52d38b480598eb7","61872fc5edc2d45540f78283","1378","","d","true","[[150,40],[3,255],[80,504],[322,599],[547,468],[586,211],[409,20]]","true","7","","","img/Fire_Up_Target.gif","[""img/Fire_Down_Distractor.gif"",""img/Fire_Down_Distractor.gif"",""img/Fire_Down_Distractor.gif"",""img/Fire_Down_Distractor.gif"",""img/Fire_Down_Distractor.gif"",""img/Fire_Down_Distractor.gif"",""img/Fire_Down_Distractor.gif"",""img/Fire_Down_Distractor.gif"",""img/Fire_Down_Distractor.gif"",""img/Fire_Down_Distractor.gif"",""img/Fire_Down_Distractor.gif"",""img/Fire_Down_Distractor.gif""]","targetUp_distractorsDown"
"","","","","","html-keyboard-response","16","146625","0.0-14.0-0.0-0.1","61687f5d4bd5b7730a608ac3","6186fb1cc52d38b480598eb7","61872fc5edc2d45540f78283","null","","null","","","","","fixation","","","",""
"","","","","","visual-search-circle","17","149979","0.0-14.0-0.0-1.1","61687f5d4bd5b7730a608ac3","6186fb1cc52d38b480598eb7","61872fc5edc2d45540f78283","2338.899999856949","","d","true","[[202,583],[496,526],[594,242],[397,16],[103,73],[5,357]]","true","6","","","img/Fire_Up_Target.gif","[""img/Fire_Down_Distractor.gif"",""img/Fire_Down_Distractor.gif"",""img/Fire_Down_Distractor.gif"",""img/Fire_Down_Distractor.gif"",""img/Fire_Down_Distractor.gif"",""img/Fire_Down_Distractor.gif"",""img/Fire_Down_Distractor.gif"",""img/Fire_Down_Distractor.gif"",""img/Fire_Down_Distractor.gif"",""img/Fire_Down_Distractor.gif"",""img/Fire_Down_Distractor.gif"",""img/Fire_Down_Distractor.gif""]","targetUp_distractorsDown"
"","","","","","html-keyboard-response","18","149992","0.0-14.0-0.0-0.2","61687f5d4bd5b7730a608ac3","6186fb1cc52d38b480598eb7","61872fc5edc2d45540f78283","null","","null","","","","","fixation","","","",""
"","","","","","visual-search-circle","19","152412","0.0-14.0-0.0-1.2","61687f5d4bd5b7730a608ac3","6186fb1cc52d38b480598eb7","61872fc5edc2d45540f78283","1411.2000000476837","","s","false","[[362,6],[109,68],[0,304],[116,537],[371,591],[572,426],[568,165]]","true","7","","","img/Fire_Down_Target.gif","[""img/Fire_Up_Distractor.gif"",""img/Fire_Up_Distractor.gif"",""img/Fire_Up_Distractor.gif"",""img/Fire_Up_Distractor.gif"",""img/Fire_Up_Distractor.gif"",""img/Fire_Up_Distractor.gif"",""img/Fire_Up_Distractor.gif"",""img/Fire_Up_Distractor.gif"",""img/Fire_Up_Distractor.gif"",""img/Fire_Up_Distractor.gif"",""img/Fire_Up_Distractor.gif"",""img/Fire_Up_Distractor.gif""]","targetDown_distractorsUp"
"","","","","","html-keyboard-response","20","152413","0.0-14.0-0.0-0.3","61687f5d4bd5b7730a608ac3","6186fb1cc52d38b480598eb7","61872fc5edc2d45540f78283","null","","null","","","","","fixation","","","",""
"","","","","","visual-search-circle","21","155293","0.0-14.0-0.0-1.3","61687f5d4bd5b7730a608ac3","6186fb1cc52d38b480598eb7","61872fc5edc2d45540f78283","1874.2999999523163","","d","true","[[496,73],[202,16],[5,242],[103,526],[397,583],[594,357]]","true","6","","","img/Fire_Down_Target.gif","[""img/Fire_Up_Distractor.gif"",""img/Fire_Up_Distractor.gif"",""img/Fire_Up_Distractor.gif"",""img/Fire_Up_Distractor.gif"",""img/Fire_Up_Distractor.gif"",""img/Fire_Up_Distractor.gif"",""img/Fire_Up_Distractor.gif"",""img/Fire_Up_Distractor.gif"",""img/Fire_Up_Distractor.gif"",""img/Fire_Up_Distractor.gif"",""img/Fire_Up_Distractor.gif"",""img/Fire_Up_Distractor.gif""]","targetDown_distractorsUp"
"","","","","","html-keyboard-response","22","155295","0.0-14.0-0.0-0.4","61687f5d4bd5b7730a608ac3","6186fb1cc52d38b480598eb7","61872fc5edc2d45540f78283","null","","null","","","","","fixation","","","",""
"","","","","","visual-search-circle","23","157485","0.0-14.0-0.0-1.4","61687f5d4bd5b7730a608ac3","6186fb1cc52d38b480598eb7","61872fc5edc2d45540f78283","1177.0999999046326","","s","true","[[519,504],[562,154],[242,5],[2,263],[173,571]]","false","5","","","img/Fire_Down_Target.gif","[""img/Fire_Up_Distractor.gif"",""img/Fire_Up_Distractor.gif"",""img/Fire_Up_Distractor.gif"",""img/Fire_Up_Distractor.gif"",""img/Fire_Up_Distractor.gif"",""img/Fire_Up_Distractor.gif"",""img/Fire_Up_Distractor.gif"",""img/Fire_Up_Distractor.gif"",""img/Fire_Up_Distractor.gif"",""img/Fire_Up_Distractor.gif"",""img/Fire_Up_Distractor.gif"",""img/Fire_Up_Distractor.gif""]","targetDown_distractorsUp"
"","","","","","html-keyboard-response","24","157495","0.0-14.0-0.0-0.5","61687f5d4bd5b7730a608ac3","6186fb1cc52d38b480598eb7","61872fc5edc2d45540f78283","null","","null","","","","","fixation","","","",""
"","","","","","visual-search-circle","25","160592","0.0-14.0-0.0-1.5","61687f5d4bd5b7730a608ac3","6186fb1cc52d38b480598eb7","61872fc5edc2d45540f78283","2091.5999999046326","","d","true","[[320,599],[569,431],[548,132],[279,0],[30,168],[51,467]]","true","6","","","img/Fire_Up_Target.gif","[""img/Fire_Down_Distractor.gif"",""img/Fire_Down_Distractor.gif"",""img/Fire_Down_Distractor.gif"",""img/Fire_Down_Distractor.gif"",""img/Fire_Down_Distractor.gif"",""img/Fire_Down_Distractor.gif"",""img/Fire_Down_Distractor.gif"",""img/Fire_Down_Distractor.gif"",""img/Fire_Down_Distractor.gif"",""img/Fire_Down_Distractor.gif"",""img/Fire_Down_Distractor.gif"",""img/Fire_Down_Distractor.gif""]","targetUp_distractorsDown"
"","","","","","html-keyboard-response","26","160600","0.0-14.0-0.0-0.6","61687f5d4bd5b7730a608ac3","6186fb1cc52d38b480598eb7","61872fc5edc2d45540f78283","null","","null","","","","","fixation","","","",""
"","","","","","visual-search-circle","27","166045","0.0-14.0-0.0-1.6","61687f5d4bd5b7730a608ac3","6186fb1cc52d38b480598eb7","61872fc5edc2d45540f78283","4436.700000047684","","s","false","[[197,18],[4,247],[107,529],[402,581],[595,352],[492,70]]","true","6","","","img/Fire_Up_Target.gif","[""img/Fire_Down_Distractor.gif"",""img/Fire_Down_Distractor.gif"",""img/Fire_Down_Distractor.gif"",""img/Fire_Down_Distractor.gif"",""img/Fire_Down_Distractor.gif"",""img/Fire_Down_Distractor.gif"",""img/Fire_Down_Distractor.gif"",""img/Fire_Down_Distractor.gif"",""img/Fire_Down_Distractor.gif"",""img/Fire_Down_Distractor.gif"",""img/Fire_Down_Distractor.gif"",""img/Fire_Down_Distractor.gif""]","targetUp_distractorsDown"
"","","","","","html-keyboard-response","28","166047","0.0-14.0-0.0-0.7","61687f5d4bd5b7730a608ac3","6186fb1cc52d38b480598eb7","61872fc5edc2d45540f78283","null","","null","","","","","fixation","","","",""
"","","","","","visual-search-circle","29","171690","0.0-14.0-0.0-1.7","61687f5d4bd5b7730a608ac3","6186fb1cc52d38b480598eb7","61872fc5edc2d45540f78283","4631.900000095367","","s","true","[[237,6],[1,268],[177,574],[522,500],[559,150]]","false","5","","","img/Fire_Up_Target.gif","[""img/Fire_Down_Distractor.gif"",""img/Fire_Down_Distractor.gif"",""img/Fire_Down_Distractor.gif"",""img/Fire_Down_Distractor.gif"",""img/Fire_Down_Distractor.gif"",""img/Fire_Down_Distractor.gif"",""img/Fire_Down_Distractor.gif"",""img/Fire_Down_Distractor.gif"",""img/Fire_Down_Distractor.gif"",""img/Fire_Down_Distractor.gif"",""img/Fire_Down_Distractor.gif"",""img/Fire_Down_Distractor.gif""]","targetUp_distractorsDown"
"","","","","","html-keyboard-response","30","171693","0.0-14.0-0.0-0.8","61687f5d4bd5b7730a608ac3","6186fb1cc52d38b480598eb7","61872fc5edc2d45540f78283","null","","null","","","","","fixation","","","",""
"","","","","","visual-search-circle","31","174332","0.0-14.0-0.0-1.8","61687f5d4bd5b7730a608ac3","6186fb1cc52d38b480598eb7","61872fc5edc2d45540f78283","1630.8999998569489","","d","true","[[557,145],[372,8],[145,42],[8,227],[42,454],[227,591],[454,557],[591,372]]","true","8","","","img/Fire_Down_Target.gif","[""img/Fire_Up_Distractor.gif"",""img/Fire_Up_Distractor.gif"",""img/Fire_Up_Distractor.gif"",""img/Fire_Up_Distractor.gif"",""img/Fire_Up_Distractor.gif"",""img/Fire_Up_Distractor.gif"",""img/Fire_Up_Distractor.gif"",""img/Fire_Up_Distractor.gif"",""img/Fire_Up_Distractor.gif"",""img/Fire_Up_Distractor.gif"",""img/Fire_Up_Distractor.gif"",""img/Fire_Up_Distractor.gif""]","targetDown_distractorsUp"
"","","","","","html-keyboard-response","32","174334","0.0-14.0-0.0-0.9","61687f5d4bd5b7730a608ac3","6186fb1cc52d38b480598eb7","61872fc5edc2d45540f78283","null","","null","","","","","fixation","","","",""
"","","","","","visual-search-circle","33","177485","0.0-14.0-0.0-1.9","61687f5d4bd5b7730a608ac3","6186fb1cc52d38b480598eb7","61872fc5edc2d45540f78283","2137.100000143051","","d","true","[[35,159],[159,564],[564,440],[440,35]]","true","4","","","img/Fire_Down_Target.gif","[""img/Fire_Up_Distractor.gif"",""img/Fire_Up_Distractor.gif"",""img/Fire_Up_Distractor.gif"",""img/Fire_Up_Distractor.gif"",""img/Fire_Up_Distractor.gif"",""img/Fire_Up_Distractor.gif"",""img/Fire_Up_Distractor.gif"",""img/Fire_Up_Distractor.gif"",""img/Fire_Up_Distractor.gif"",""img/Fire_Up_Distractor.gif"",""img/Fire_Up_Distractor.gif"",""img/Fire_Up_Distractor.gif""]","targetDown_distractorsUp"
"","","","","","html-keyboard-response","34","177491","0.0-14.0-0.0-0.10","61687f5d4bd5b7730a608ac3","6186fb1cc52d38b480598eb7","61872fc5edc2d45540f78283","null","","null","","","","","fixation","","","",""
"","","","","","visual-search-circle","35","181441","0.0-14.0-0.0-1.10","61687f5d4bd5b7730a608ac3","6186fb1cc52d38b480598eb7","61872fc5edc2d45540f78283","2933","","d","true","[[581,402],[402,18],[18,197],[197,581]]","true","4","","","img/Fire_Down_Target.gif","[""img/Fire_Up_Distractor.gif"",""img/Fire_Up_Distractor.gif"",""img/Fire_Up_Distractor.gif"",""img/Fire_Up_Distractor.gif"",""img/Fire_Up_Distractor.gif"",""img/Fire_Up_Distractor.gif"",""img/Fire_Up_Distractor.gif"",""img/Fire_Up_Distractor.gif"",""img/Fire_Up_Distractor.gif"",""img/Fire_Up_Distractor.gif"",""img/Fire_Up_Distractor.gif"",""img/Fire_Up_Distractor.gif""]","targetDown_distractorsUp"
"","","","","","html-keyboard-response","36","181443","0.0-14.0-0.0-0.11","61687f5d4bd5b7730a608ac3","6186fb1cc52d38b480598eb7","61872fc5edc2d45540f78283","null","","null","","","","","fixation","","","",""
"","","","","","visual-search-circle","37","184492","0.0-14.0-0.0-1.11","61687f5d4bd5b7730a608ac3","6186fb1cc52d38b480598eb7","61872fc5edc2d45540f78283","2035.4000000953674","","s","true","[[472,545],[595,352],[545,127],[352,4],[127,54],[4,247],[54,472],[247,595]]","false","8","","","img/Fire_Down_Target.gif","[""img/Fire_Up_Distractor.gif"",""img/Fire_Up_Distractor.gif"",""img/Fire_Up_Distractor.gif"",""img/Fire_Up_Distractor.gif"",""img/Fire_Up_Distractor.gif"",""img/Fire_Up_Distractor.gif"",""img/Fire_Up_Distractor.gif"",""img/Fire_Up_Distractor.gif"",""img/Fire_Up_Distractor.gif"",""img/Fire_Up_Distractor.gif"",""img/Fire_Up_Distractor.gif"",""img/Fire_Up_Distractor.gif""]","targetDown_distractorsUp"
"","","","","","html-keyboard-response","38","184501","0.0-14.0-0.0-0.12","61687f5d4bd5b7730a608ac3","6186fb1cc52d38b480598eb7","61872fc5edc2d45540f78283","null","","null","","","","","fixation","","","",""
"","","","","","visual-search-circle","39","191315","0.0-14.0-0.0-1.12","61687f5d4bd5b7730a608ac3","6186fb1cc52d38b480598eb7","61872fc5edc2d45540f78283","5808.799999952316","","d","true","[[463,48],[48,136],[136,551],[551,463]]","true","4","","","img/Fire_Up_Target.gif","[""img/Fire_Down_Distractor.gif"",""img/Fire_Down_Distractor.gif"",""img/Fire_Down_Distractor.gif"",""img/Fire_Down_Distractor.gif"",""img/Fire_Down_Distractor.gif"",""img/Fire_Down_Distractor.gif"",""img/Fire_Down_Distractor.gif"",""img/Fire_Down_Distractor.gif"",""img/Fire_Down_Distractor.gif"",""img/Fire_Down_Distractor.gif"",""img/Fire_Down_Distractor.gif"",""img/Fire_Down_Distractor.gif""]","targetUp_distractorsDown"
"","","","","","html-keyboard-response","40","191321","0.0-14.0-0.0-0.13","61687f5d4bd5b7730a608ac3","6186fb1cc52d38b480598eb7","61872fc5edc2d45540f78283","null","","null","","","","","fixation","","","",""
"","","","","","visual-search-circle","41","196185","0.0-14.0-0.0-1.13","61687f5d4bd5b7730a608ac3","6186fb1cc52d38b480598eb7","61872fc5edc2d45540f78283","3851.0999999046326","","s","false","[[571,173],[173,28],[28,426],[426,571]]","true","4","","","img/Fire_Up_Target.gif","[""img/Fire_Down_Distractor.gif"",""img/Fire_Down_Distractor.gif"",""img/Fire_Down_Distractor.gif"",""img/Fire_Down_Distractor.gif"",""img/Fire_Down_Distractor.gif"",""img/Fire_Down_Distractor.gif"",""img/Fire_Down_Distractor.gif"",""img/Fire_Down_Distractor.gif"",""img/Fire_Down_Distractor.gif"",""img/Fire_Down_Distractor.gif"",""img/Fire_Down_Distractor.gif"",""img/Fire_Down_Distractor.gif""]","targetUp_distractorsDown"
"","","","","","html-keyboard-response","42","196189","0.0-14.0-0.0-0.14","61687f5d4bd5b7730a608ac3","6186fb1cc52d38b480598eb7","61872fc5edc2d45540f78283","null","","null","","","","","fixation","","","",""
"","","","","","visual-search-circle","43","198767","0.0-14.0-0.0-1.14","61687f5d4bd5b7730a608ac3","6186fb1cc52d38b480598eb7","61872fc5edc2d45540f78283","1571.8999998569489","","s","true","[[107,70],[4,352],[197,581],[492,529],[595,247],[402,18]]","false","6","","","img/Fire_Down_Target.gif","[""img/Fire_Up_Distractor.gif"",""img/Fire_Up_Distractor.gif"",""img/Fire_Up_Distractor.gif"",""img/Fire_Up_Distractor.gif"",""img/Fire_Up_Distractor.gif"",""img/Fire_Up_Distractor.gif"",""img/Fire_Up_Distractor.gif"",""img/Fire_Up_Distractor.gif"",""img/Fire_Up_Distractor.gif"",""img/Fire_Up_Distractor.gif"",""img/Fire_Up_Distractor.gif"",""img/Fire_Up_Distractor.gif""]","targetDown_distractorsUp"
"","","","","","html-keyboard-response","44","198777","0.0-14.0-0.0-0.15","61687f5d4bd5b7730a608ac3","6186fb1cc52d38b480598eb7","61872fc5edc2d45540f78283","null","","null","","","","","fixation","","","",""
"","","","","","visual-search-circle","45","201092","0.0-14.0-0.0-1.15","61687f5d4bd5b7730a608ac3","6186fb1cc52d38b480598eb7","61872fc5edc2d45540f78283","1306.0999999046326","","d","true","[[592,232],[326,1],[23,182],[103,526],[454,557]]","true","5","","","img/Fire_Down_Target.gif","[""img/Fire_Up_Distractor.gif"",""img/Fire_Up_Distractor.gif"",""img/Fire_Up_Distractor.gif"",""img/Fire_Up_Distractor.gif"",""img/Fire_Up_Distractor.gif"",""img/Fire_Up_Distractor.gif"",""img/Fire_Up_Distractor.gif"",""img/Fire_Up_Distractor.gif"",""img/Fire_Up_Distractor.gif"",""img/Fire_Up_Distractor.gif"",""img/Fire_Up_Distractor.gif"",""img/Fire_Up_Distractor.gif""]","targetDown_distractorsUp"
"","","","","","html-keyboard-response","46","201094","0.0-14.0-0.0-0.16","61687f5d4bd5b7730a608ac3","6186fb1cc52d38b480598eb7","61872fc5edc2d45540f78283","null","","null","","","","","fixation","","","",""
"","","","","","visual-search-circle","47","204603","0.0-14.0-0.0-1.16","61687f5d4bd5b7730a608ac3","6186fb1cc52d38b480598eb7","61872fc5edc2d45540f78283","2499.5999999046326","","d","true","[[32,163],[14,392],[163,567],[392,585],[567,436],[585,207],[436,32],[207,14]]","true","8","","","img/Fire_Up_Target.gif","[""img/Fire_Down_Distractor.gif"",""img/Fire_Down_Distractor.gif"",""img/Fire_Down_Distractor.gif"",""img/Fire_Down_Distractor.gif"",""img/Fire_Down_Distractor.gif"",""img/Fire_Down_Distractor.gif"",""img/Fire_Down_Distractor.gif"",""img/Fire_Down_Distractor.gif"",""img/Fire_Down_Distractor.gif"",""img/Fire_Down_Distractor.gif"",""img/Fire_Down_Distractor.gif"",""img/Fire_Down_Distractor.gif""]","targetUp_distractorsDown"
"","","","","","html-keyboard-response","48","204609","0.0-14.0-0.0-0.17","61687f5d4bd5b7730a608ac3","6186fb1cc52d38b480598eb7","61872fc5edc2d45540f78283","null","","null","","","","","fixation","","","",""
"","","","","","visual-search-circle","49","208310","0.0-14.0-0.0-1.17","61687f5d4bd5b7730a608ac3","6186fb1cc52d38b480598eb7","61872fc5edc2d45540f78283","2693.5","","d","true","[[397,583],[582,400],[554,141],[335,2],[88,86],[1,332],[139,553]]","true","7","","","img/Fire_Up_Target.gif","[""img/Fire_Down_Distractor.gif"",""img/Fire_Down_Distractor.gif"",""img/Fire_Down_Distractor.gif"",""img/Fire_Down_Distractor.gif"",""img/Fire_Down_Distractor.gif"",""img/Fire_Down_Distractor.gif"",""img/Fire_Down_Distractor.gif"",""img/Fire_Down_Distractor.gif"",""img/Fire_Down_Distractor.gif"",""img/Fire_Down_Distractor.gif"",""img/Fire_Down_Distractor.gif"",""img/Fire_Down_Distractor.gif""]","targetUp_distractorsDown"
"","","","","","html-keyboard-response","50","208315","0.0-14.0-0.0-0.18","61687f5d4bd5b7730a608ac3","6186fb1cc52d38b480598eb7","61872fc5edc2d45540f78283","null","","null","","","","","fixation","","","",""
"","","","","","visual-search-circle","51","210947","0.0-14.0-0.0-1.18","61687f5d4bd5b7730a608ac3","6186fb1cc52d38b480598eb7","61872fc5edc2d45540f78283","1626.7999999523163","","d","true","[[488,533],[533,111],[111,66],[66,488]]","true","4","","","img/Fire_Down_Target.gif","[""img/Fire_Up_Distractor.gif"",""img/Fire_Up_Distractor.gif"",""img/Fire_Up_Distractor.gif"",""img/Fire_Up_Distractor.gif"",""img/Fire_Up_Distractor.gif"",""img/Fire_Up_Distractor.gif"",""img/Fire_Up_Distractor.gif"",""img/Fire_Up_Distractor.gif"",""img/Fire_Up_Distractor.gif"",""img/Fire_Up_Distractor.gif"",""img/Fire_Up_Distractor.gif"",""img/Fire_Up_Distractor.gif""]","targetDown_distractorsUp"
"","","","","","html-keyboard-response","52","223798","0.0-14.0-0.0-0.19","61687f5d4bd5b7730a608ac3","6186fb1cc52d38b480598eb7","61872fc5edc2d45540f78283","12849.900000095367","Wow! You've completed 20 out of 120 trials! </p> <p>  </p><p> Take a quick break, then press any key when you're ready to continue."," ","","","","","fixation","","","",""
"","","","","","visual-search-circle","53","227915","0.0-14.0-0.0-1.19","61687f5d4bd5b7730a608ac3","6186fb1cc52d38b480598eb7","61872fc5edc2d45540f78283","3110.2000000476837","","s","true","[[336,2],[60,119],[23,417],[263,597],[539,480],[576,182]]","false","6","","","img/Fire_Down_Target.gif","[""img/Fire_Up_Distractor.gif"",""img/Fire_Up_Distractor.gif"",""img/Fire_Up_Distractor.gif"",""img/Fire_Up_Distractor.gif"",""img/Fire_Up_Distractor.gif"",""img/Fire_Up_Distractor.gif"",""img/Fire_Up_Distractor.gif"",""img/Fire_Up_Distractor.gif"",""img/Fire_Up_Distractor.gif"",""img/Fire_Up_Distractor.gif"",""img/Fire_Up_Distractor.gif"",""img/Fire_Up_Distractor.gif""]","targetDown_distractorsUp"
"","","","","","html-keyboard-response","54","227917","0.0-14.0-0.0-0.20","61687f5d4bd5b7730a608ac3","6186fb1cc52d38b480598eb7","61872fc5edc2d45540f78283","null","","null","","","","","fixation","","","",""
"","","","","","visual-search-circle","55","230448","0.0-14.0-0.0-1.20","61687f5d4bd5b7730a608ac3","6186fb1cc52d38b480598eb7","61872fc5edc2d45540f78283","1513.6000001430511","","s","true","[[107,529],[529,492],[492,70],[70,107]]","false","4","","","img/Fire_Down_Target.gif","[""img/Fire_Up_Distractor.gif"",""img/Fire_Up_Distractor.gif"",""img/Fire_Up_Distractor.gif"",""img/Fire_Up_Distractor.gif"",""img/Fire_Up_Distractor.gif"",""img/Fire_Up_Distractor.gif"",""img/Fire_Up_Distractor.gif"",""img/Fire_Up_Distractor.gif"",""img/Fire_Up_Distractor.gif"",""img/Fire_Up_Distractor.gif"",""img/Fire_Up_Distractor.gif"",""img/Fire_Up_Distractor.gif""]","targetDown_distractorsUp"
"","","","","","html-keyboard-response","56","230452","0.0-14.0-0.0-0.21","61687f5d4bd5b7730a608ac3","6186fb1cc52d38b480598eb7","61872fc5edc2d45540f78283","null","","null","","","","","fixation","","","",""
"","","","","","visual-search-circle","57","234480","0.0-14.0-0.0-1.21","61687f5d4bd5b7730a608ac3","6186fb1cc52d38b480598eb7","61872fc5edc2d45540f78283","3019.2999999523163","","s","true","[[57,476],[392,585],[600,300],[392,14],[57,123]]","false","5","","","img/Fire_Down_Target.gif","[""img/Fire_Up_Distractor.gif"",""img/Fire_Up_Distractor.gif"",""img/Fire_Up_Distractor.gif"",""img/Fire_Up_Distractor.gif"",""img/Fire_Up_Distractor.gif"",""img/Fire_Up_Distractor.gif"",""img/Fire_Up_Distractor.gif"",""img/Fire_Up_Distractor.gif"",""img/Fire_Up_Distractor.gif"",""img/Fire_Up_Distractor.gif"",""img/Fire_Up_Distractor.gif"",""img/Fire_Up_Distractor.gif""]","targetDown_distractorsUp"
"","","","","","html-keyboard-response","58","234491","0.0-14.0-0.0-0.22","61687f5d4bd5b7730a608ac3","6186fb1cc52d38b480598eb7","61872fc5edc2d45540f78283","null","","null","","","","","fixation","","","",""
"","","","","","visual-search-circle","59","239080","0.0-14.0-0.0-1.22","61687f5d4bd5b7730a608ac3","6186fb1cc52d38b480598eb7","61872fc5edc2d45540f78283","3574.5999999046326","","s","true","[[99,77],[6,362],[207,585],[500,522],[593,237],[392,14]]","false","6","","","img/Fire_Up_Target.gif","[""img/Fire_Down_Distractor.gif"",""img/Fire_Down_Distractor.gif"",""img/Fire_Down_Distractor.gif"",""img/Fire_Down_Distractor.gif"",""img/Fire_Down_Distractor.gif"",""img/Fire_Down_Distractor.gif"",""img/Fire_Down_Distractor.gif"",""img/Fire_Down_Distractor.gif"",""img/Fire_Down_Distractor.gif"",""img/Fire_Down_Distractor.gif"",""img/Fire_Down_Distractor.gif"",""img/Fire_Down_Distractor.gif""]","targetUp_distractorsDown"
"","","","","","html-keyboard-response","60","239082","0.0-14.0-0.0-0.23","61687f5d4bd5b7730a608ac3","6186fb1cc52d38b480598eb7","61872fc5edc2d45540f78283","null","","null","","","","","fixation","","","",""
"","","","","","visual-search-circle","61","241114","0.0-14.0-0.0-1.23","61687f5d4bd5b7730a608ac3","6186fb1cc52d38b480598eb7","61872fc5edc2d45540f78283","1007.6000001430511","","d","true","[[597,263],[484,63],[263,2],[63,115],[2,336],[115,536],[336,597],[536,484]]","true","8","","","img/Fire_Up_Target.gif","[""img/Fire_Down_Distractor.gif"",""img/Fire_Down_Distractor.gif"",""img/Fire_Down_Distractor.gif"",""img/Fire_Down_Distractor.gif"",""img/Fire_Down_Distractor.gif"",""img/Fire_Down_Distractor.gif"",""img/Fire_Down_Distractor.gif"",""img/Fire_Down_Distractor.gif"",""img/Fire_Down_Distractor.gif"",""img/Fire_Down_Distractor.gif"",""img/Fire_Down_Distractor.gif"",""img/Fire_Down_Distractor.gif""]","targetUp_distractorsDown"
"","","","","","html-keyboard-response","62","241116","0.0-14.0-0.0-0.24","61687f5d4bd5b7730a608ac3","6186fb1cc52d38b480598eb7","61872fc5edc2d45540f78283","null","","null","","","","","fixation","","","",""
"","","","","","visual-search-circle","63","243499","0.0-14.0-0.0-1.24","61687f5d4bd5b7730a608ac3","6186fb1cc52d38b480598eb7","61872fc5edc2d45540f78283","1376.7000000476837","","d","true","[[54,472],[326,598],[571,426],[545,127],[273,1],[28,173]]","true","6","","","img/Fire_Down_Target.gif","[""img/Fire_Up_Distractor.gif"",""img/Fire_Up_Distractor.gif"",""img/Fire_Up_Distractor.gif"",""img/Fire_Up_Distractor.gif"",""img/Fire_Up_Distractor.gif"",""img/Fire_Up_Distractor.gif"",""img/Fire_Up_Distractor.gif"",""img/Fire_Up_Distractor.gif"",""img/Fire_Up_Distractor.gif"",""img/Fire_Up_Distractor.gif"",""img/Fire_Up_Distractor.gif"",""img/Fire_Up_Distractor.gif""]","targetDown_distractorsUp"
"","","","","","html-keyboard-response","64","243504","0.0-14.0-0.0-0.25","61687f5d4bd5b7730a608ac3","6186fb1cc52d38b480598eb7","61872fc5edc2d45540f78283","null","","null","","","","","fixation","","","",""
"","","","","","visual-search-circle","65","246760","0.0-14.0-0.0-1.25","61687f5d4bd5b7730a608ac3","6186fb1cc52d38b480598eb7","61872fc5edc2d45540f78283","2235.4000000953674","","s","true","[[504,519],[592,232],[387,13],[95,80],[7,367],[212,586]]","false","6","","","img/Fire_Up_Target.gif","[""img/Fire_Down_Distractor.gif"",""img/Fire_Down_Distractor.gif"",""img/Fire_Down_Distractor.gif"",""img/Fire_Down_Distractor.gif"",""img/Fire_Down_Distractor.gif"",""img/Fire_Down_Distractor.gif"",""img/Fire_Down_Distractor.gif"",""img/Fire_Down_Distractor.gif"",""img/Fire_Down_Distractor.gif"",""img/Fire_Down_Distractor.gif"",""img/Fire_Down_Distractor.gif"",""img/Fire_Down_Distractor.gif""]","targetUp_distractorsDown"
"","","","","","html-keyboard-response","66","246762","0.0-14.0-0.0-0.26","61687f5d4bd5b7730a608ac3","6186fb1cc52d38b480598eb7","61872fc5edc2d45540f78283","null","","null","","","","","fixation","","","",""
"","","","","","visual-search-circle","67","249654","0.0-14.0-0.0-1.26","61687f5d4bd5b7730a608ac3","6186fb1cc52d38b480598eb7","61872fc5edc2d45540f78283","1880.5","","d","true","[[551,463],[463,48],[48,136],[136,551]]","true","4","","","img/Fire_Up_Target.gif","[""img/Fire_Down_Distractor.gif"",""img/Fire_Down_Distractor.gif"",""img/Fire_Down_Distractor.gif"",""img/Fire_Down_Distractor.gif"",""img/Fire_Down_Distractor.gif"",""img/Fire_Down_Distractor.gif"",""img/Fire_Down_Distractor.gif"",""img/Fire_Down_Distractor.gif"",""img/Fire_Down_Distractor.gif"",""img/Fire_Down_Distractor.gif"",""img/Fire_Down_Distractor.gif"",""img/Fire_Down_Distractor.gif""]","targetUp_distractorsDown"
"","","","","","html-keyboard-response","68","249659","0.0-14.0-0.0-0.27","61687f5d4bd5b7730a608ac3","6186fb1cc52d38b480598eb7","61872fc5edc2d45540f78283","null","","null","","","","","fixation","","","",""
"","","","","","visual-search-circle","69","251838","0.0-14.0-0.0-1.27","61687f5d4bd5b7730a608ac3","6186fb1cc52d38b480598eb7","61872fc5edc2d45540f78283","1164.3999998569489","","s","true","[[440,564],[595,247],[341,2],[30,168],[91,515]]","false","5","","","img/Fire_Down_Target.gif","[""img/Fire_Up_Distractor.gif"",""img/Fire_Up_Distractor.gif"",""img/Fire_Up_Distractor.gif"",""img/Fire_Up_Distractor.gif"",""img/Fire_Up_Distractor.gif"",""img/Fire_Up_Distractor.gif"",""img/Fire_Up_Distractor.gif"",""img/Fire_Up_Distractor.gif"",""img/Fire_Up_Distractor.gif"",""img/Fire_Up_Distractor.gif"",""img/Fire_Up_Distractor.gif"",""img/Fire_Up_Distractor.gif""]","targetDown_distractorsUp"
"","","","","","html-keyboard-response","70","251848","0.0-14.0-0.0-0.28","61687f5d4bd5b7730a608ac3","6186fb1cc52d38b480598eb7","61872fc5edc2d45540f78283","null","","null","","","","","fixation","","","",""
"","","","","","visual-search-circle","71","254242","0.0-14.0-0.0-1.28","61687f5d4bd5b7730a608ac3","6186fb1cc52d38b480598eb7","61872fc5edc2d45540f78283","1388.7999999523163","","s","true","[[450,559],[559,150],[150,40],[40,449]]","false","4","","","img/Fire_Up_Target.gif","[""img/Fire_Down_Distractor.gif"",""img/Fire_Down_Distractor.gif"",""img/Fire_Down_Distractor.gif"",""img/Fire_Down_Distractor.gif"",""img/Fire_Down_Distractor.gif"",""img/Fire_Down_Distractor.gif"",""img/Fire_Down_Distractor.gif"",""img/Fire_Down_Distractor.gif"",""img/Fire_Down_Distractor.gif"",""img/Fire_Down_Distractor.gif"",""img/Fire_Down_Distractor.gif"",""img/Fire_Down_Distractor.gif""]","targetUp_distractorsDown"
"","","","","","html-keyboard-response","72","254247","0.0-14.0-0.0-0.29","61687f5d4bd5b7730a608ac3","6186fb1cc52d38b480598eb7","61872fc5edc2d45540f78283","null","","null","","","","","fixation","","","",""
"","","","","","visual-search-circle","73","256442","0.0-14.0-0.0-1.29","61687f5d4bd5b7730a608ac3","6186fb1cc52d38b480598eb7","61872fc5edc2d45540f78283","1186.3999998569489","","d","true","[[19,192],[25,422],[192,580],[422,574],[580,407],[574,177],[407,19],[177,25]]","true","8","","","img/Fire_Down_Target.gif","[""img/Fire_Up_Distractor.gif"",""img/Fire_Up_Distractor.gif"",""img/Fire_Up_Distractor.gif"",""img/Fire_Up_Distractor.gif"",""img/Fire_Up_Distractor.gif"",""img/Fire_Up_Distractor.gif"",""img/Fire_Up_Distractor.gif"",""img/Fire_Up_Distractor.gif"",""img/Fire_Up_Distractor.gif"",""img/Fire_Up_Distractor.gif"",""img/Fire_Up_Distractor.gif"",""img/Fire_Up_Distractor.gif""]","targetDown_distractorsUp"
"","","","","","html-keyboard-response","74","256448","0.0-14.0-0.0-0.30","61687f5d4bd5b7730a608ac3","6186fb1cc52d38b480598eb7","61872fc5edc2d45540f78283","null","","null","","","","","fixation","","","",""
"","","","","","visual-search-circle","75","259026","0.0-14.0-0.0-1.30","61687f5d4bd5b7730a608ac3","6186fb1cc52d38b480598eb7","61872fc5edc2d45540f78283","1571.7999999523163","","d","true","[[253,596],[567,436],[512,87],[163,32],[3,346]]","true","5","","","img/Fire_Up_Target.gif","[""img/Fire_Down_Distractor.gif"",""img/Fire_Down_Distractor.gif"",""img/Fire_Down_Distractor.gif"",""img/Fire_Down_Distractor.gif"",""img/Fire_Down_Distractor.gif"",""img/Fire_Down_Distractor.gif"",""img/Fire_Down_Distractor.gif"",""img/Fire_Down_Distractor.gif"",""img/Fire_Down_Distractor.gif"",""img/Fire_Down_Distractor.gif"",""img/Fire_Down_Distractor.gif"",""img/Fire_Down_Distractor.gif""]","targetUp_distractorsDown"
"","","","","","html-keyboard-response","76","259035","0.0-14.0-0.0-0.31","61687f5d4bd5b7730a608ac3","6186fb1cc52d38b480598eb7","61872fc5edc2d45540f78283","null","","null","","","","","fixation","","","",""
"","","","","","visual-search-circle","77","261029","0.0-14.0-0.0-1.31","61687f5d4bd5b7730a608ac3","6186fb1cc52d38b480598eb7","61872fc5edc2d45540f78283","973.2000000476837","","s","true","[[13,387],[189,578],[449,560],[596,345],[520,96],[278,0],[52,130]]","false","7","","","img/Fire_Up_Target.gif","[""img/Fire_Down_Distractor.gif"",""img/Fire_Down_Distractor.gif"",""img/Fire_Down_Distractor.gif"",""img/Fire_Down_Distractor.gif"",""img/Fire_Down_Distractor.gif"",""img/Fire_Down_Distractor.gif"",""img/Fire_Down_Distractor.gif"",""img/Fire_Down_Distractor.gif"",""img/Fire_Down_Distractor.gif"",""img/Fire_Down_Distractor.gif"",""img/Fire_Down_Distractor.gif"",""img/Fire_Down_Distractor.gif""]","targetUp_distractorsDown"
"","","","","","html-keyboard-response","78","261031","0.0-14.0-0.0-0.32","61687f5d4bd5b7730a608ac3","6186fb1cc52d38b480598eb7","61872fc5edc2d45540f78283","null","","null","","","","","fixation","","","",""
"","","","","","visual-search-circle","79","262999","0.0-14.0-0.0-1.32","61687f5d4bd5b7730a608ac3","6186fb1cc52d38b480598eb7","61872fc5edc2d45540f78283","954.2000000476837","","s","true","[[268,1],[25,177],[57,476],[331,598],[574,422],[542,123]]","false","6","","","img/Fire_Up_Target.gif","[""img/Fire_Down_Distractor.gif"",""img/Fire_Down_Distractor.gif"",""img/Fire_Down_Distractor.gif"",""img/Fire_Down_Distractor.gif"",""img/Fire_Down_Distractor.gif"",""img/Fire_Down_Distractor.gif"",""img/Fire_Down_Distractor.gif"",""img/Fire_Down_Distractor.gif"",""img/Fire_Down_Distractor.gif"",""img/Fire_Down_Distractor.gif"",""img/Fire_Down_Distractor.gif"",""img/Fire_Down_Distractor.gif""]","targetUp_distractorsDown"
"","","","","","html-keyboard-response","80","263001","0.0-14.0-0.0-0.33","61687f5d4bd5b7730a608ac3","6186fb1cc52d38b480598eb7","61872fc5edc2d45540f78283","null","","null","","","","","fixation","","","",""
"","","","","","visual-search-circle","81","264898","0.0-14.0-0.0-1.33","61687f5d4bd5b7730a608ac3","6186fb1cc52d38b480598eb7","61872fc5edc2d45540f78283","889.5999999046326","","d","true","[[141,554],[492,529],[578,187],[279,0],[8,227]]","true","5","","","img/Fire_Down_Target.gif","[""img/Fire_Up_Distractor.gif"",""img/Fire_Up_Distractor.gif"",""img/Fire_Up_Distractor.gif"",""img/Fire_Up_Distractor.gif"",""img/Fire_Up_Distractor.gif"",""img/Fire_Up_Distractor.gif"",""img/Fire_Up_Distractor.gif"",""img/Fire_Up_Distractor.gif"",""img/Fire_Up_Distractor.gif"",""img/Fire_Up_Distractor.gif"",""img/Fire_Up_Distractor.gif"",""img/Fire_Up_Distractor.gif""]","targetDown_distractorsUp"
"","","","","","html-keyboard-response","82","264945","0.0-14.0-0.0-0.34","61687f5d4bd5b7730a608ac3","6186fb1cc52d38b480598eb7","61872fc5edc2d45540f78283","null","","null","","","","","fixation","","","",""
"","","","","","visual-search-circle","83","267288","0.0-14.0-0.0-1.34","61687f5d4bd5b7730a608ac3","6186fb1cc52d38b480598eb7","61872fc5edc2d45540f78283","1333.6000001430511","","d","true","[[70,107],[5,359],[163,566],[423,573],[590,374],[539,118],[307,0]]","true","7","","","img/Fire_Up_Target.gif","[""img/Fire_Down_Distractor.gif"",""img/Fire_Down_Distractor.gif"",""img/Fire_Down_Distractor.gif"",""img/Fire_Down_Distractor.gif"",""img/Fire_Down_Distractor.gif"",""img/Fire_Down_Distractor.gif"",""img/Fire_Down_Distractor.gif"",""img/Fire_Down_Distractor.gif"",""img/Fire_Down_Distractor.gif"",""img/Fire_Down_Distractor.gif"",""img/Fire_Down_Distractor.gif"",""img/Fire_Down_Distractor.gif""]","targetUp_distractorsDown"
"","","","","","html-keyboard-response","84","267290","0.0-14.0-0.0-0.35","61687f5d4bd5b7730a608ac3","6186fb1cc52d38b480598eb7","61872fc5edc2d45540f78283","null","","null","","","","","fixation","","","",""
"","","","","","visual-search-circle","85","269928","0.0-14.0-0.0-1.35","61687f5d4bd5b7730a608ac3","6186fb1cc52d38b480598eb7","61872fc5edc2d45540f78283","1624.4000000953674","","s","true","[[426,571],[591,370],[536,115],[303,0],[67,110],[6,363],[166,568]]","false","7","","","img/Fire_Down_Target.gif","[""img/Fire_Up_Distractor.gif"",""img/Fire_Up_Distractor.gif"",""img/Fire_Up_Distractor.gif"",""img/Fire_Up_Distractor.gif"",""img/Fire_Up_Distractor.gif"",""img/Fire_Up_Distractor.gif"",""img/Fire_Up_Distractor.gif"",""img/Fire_Up_Distractor.gif"",""img/Fire_Up_Distractor.gif"",""img/Fire_Up_Distractor.gif"",""img/Fire_Up_Distractor.gif"",""img/Fire_Up_Distractor.gif""]","targetDown_distractorsUp"
"","","","","","html-keyboard-response","86","269931","0.0-14.0-0.0-0.36","61687f5d4bd5b7730a608ac3","6186fb1cc52d38b480598eb7","61872fc5edc2d45540f78283","null","","null","","","","","fixation","","","",""
"","","","","","visual-search-circle","87","271778","0.0-14.0-0.0-1.36","61687f5d4bd5b7730a608ac3","6186fb1cc52d38b480598eb7","61872fc5edc2d45540f78283","833","","d","true","[[3,253],[111,533],[407,580],[596,346],[488,66],[192,19]]","true","6","","","img/Fire_Down_Target.gif","[""img/Fire_Up_Distractor.gif"",""img/Fire_Up_Distractor.gif"",""img/Fire_Up_Distractor.gif"",""img/Fire_Up_Distractor.gif"",""img/Fire_Up_Distractor.gif"",""img/Fire_Up_Distractor.gif"",""img/Fire_Up_Distractor.gif"",""img/Fire_Up_Distractor.gif"",""img/Fire_Up_Distractor.gif"",""img/Fire_Up_Distractor.gif"",""img/Fire_Up_Distractor.gif"",""img/Fire_Up_Distractor.gif""]","targetDown_distractorsUp"
"","","","","","html-keyboard-response","88","271780","0.0-14.0-0.0-0.37","61687f5d4bd5b7730a608ac3","6186fb1cc52d38b480598eb7","61872fc5edc2d45540f78283","null","","null","","","","","fixation","","","",""
"","","","","","visual-search-circle","89","274258","0.0-14.0-0.0-1.37","61687f5d4bd5b7730a608ac3","6186fb1cc52d38b480598eb7","61872fc5edc2d45540f78283","1469","","s","true","[[519,95],[95,80],[80,504],[504,519]]","false","4","","","img/Fire_Down_Target.gif","[""img/Fire_Up_Distractor.gif"",""img/Fire_Up_Distractor.gif"",""img/Fire_Up_Distractor.gif"",""img/Fire_Up_Distractor.gif"",""img/Fire_Up_Distractor.gif"",""img/Fire_Up_Distractor.gif"",""img/Fire_Up_Distractor.gif"",""img/Fire_Up_Distractor.gif"",""img/Fire_Up_Distractor.gif"",""img/Fire_Up_Distractor.gif"",""img/Fire_Up_Distractor.gif"",""img/Fire_Up_Distractor.gif""]","targetDown_distractorsUp"
"","","","","","html-keyboard-response","90","274260","0.0-14.0-0.0-0.38","61687f5d4bd5b7730a608ac3","6186fb1cc52d38b480598eb7","61872fc5edc2d45540f78283","null","","null","","","","","fixation","","","",""
"","","","","","visual-search-circle","91","276825","0.0-14.0-0.0-1.38","61687f5d4bd5b7730a608ac3","6186fb1cc52d38b480598eb7","61872fc5edc2d45540f78283","1548.6000001430511","","s","true","[[571,173],[402,18],[173,28],[18,197],[28,426],[197,581],[426,571],[581,402]]","false","8","","","img/Fire_Up_Target.gif","[""img/Fire_Down_Distractor.gif"",""img/Fire_Down_Distractor.gif"",""img/Fire_Down_Distractor.gif"",""img/Fire_Down_Distractor.gif"",""img/Fire_Down_Distractor.gif"",""img/Fire_Down_Distractor.gif"",""img/Fire_Down_Distractor.gif"",""img/Fire_Down_Distractor.gif"",""img/Fire_Down_Distractor.gif"",""img/Fire_Down_Distractor.gif"",""img/Fire_Down_Distractor.gif"",""img/Fire_Down_Distractor.gif""]","targetUp_distractorsDown"
"","","","","","html-keyboard-response","92","304667","0.0-14.0-0.0-0.39","61687f5d4bd5b7730a608ac3","6186fb1cc52d38b480598eb7","61872fc5edc2d45540f78283","27835.699999809265","Wow! You've completed 40 out of 120 trials! </p> <p>  </p><p> Take a quick break, then press any key when you're ready to continue."," ","","","","","fixation","","","",""
"","","","","","visual-search-circle","93","306570","0.0-14.0-0.0-1.39","61687f5d4bd5b7730a608ac3","6186fb1cc52d38b480598eb7","61872fc5edc2d45540f78283","879.9000000953674","","d","true","[[1,326],[173,571],[472,545],[598,273],[426,28],[127,54]]","true","6","","","img/Fire_Down_Target.gif","[""img/Fire_Up_Distractor.gif"",""img/Fire_Up_Distractor.gif"",""img/Fire_Up_Distractor.gif"",""img/Fire_Up_Distractor.gif"",""img/Fire_Up_Distractor.gif"",""img/Fire_Up_Distractor.gif"",""img/Fire_Up_Distractor.gif"",""img/Fire_Up_Distractor.gif"",""img/Fire_Up_Distractor.gif"",""img/Fire_Up_Distractor.gif"",""img/Fire_Up_Distractor.gif"",""img/Fire_Up_Distractor.gif""]","targetDown_distractorsUp"
"","","","","","html-keyboard-response","94","306579","0.0-14.0-0.0-0.40","61687f5d4bd5b7730a608ac3","6186fb1cc52d38b480598eb7","61872fc5edc2d45540f78283","null","","null","","","","","fixation","","","",""
"","","","","","visual-search-circle","95","308682","0.0-14.0-0.0-1.40","61687f5d4bd5b7730a608ac3","6186fb1cc52d38b480598eb7","61872fc5edc2d45540f78283","1091.9000000953674","","s","true","[[247,595],[529,492],[581,197],[352,4],[70,107],[18,402]]","false","6","","","img/Fire_Down_Target.gif","[""img/Fire_Up_Distractor.gif"",""img/Fire_Up_Distractor.gif"",""img/Fire_Up_Distractor.gif"",""img/Fire_Up_Distractor.gif"",""img/Fire_Up_Distractor.gif"",""img/Fire_Up_Distractor.gif"",""img/Fire_Up_Distractor.gif"",""img/Fire_Up_Distractor.gif"",""img/Fire_Up_Distractor.gif"",""img/Fire_Up_Distractor.gif"",""img/Fire_Up_Distractor.gif"",""img/Fire_Up_Distractor.gif""]","targetDown_distractorsUp"
"","","","","","html-keyboard-response","96","308685","0.0-14.0-0.0-0.41","61687f5d4bd5b7730a608ac3","6186fb1cc52d38b480598eb7","61872fc5edc2d45540f78283","null","","null","","","","","fixation","","","",""
"","","","","","visual-search-circle","97","311243","0.0-14.0-0.0-1.41","61687f5d4bd5b7730a608ac3","6186fb1cc52d38b480598eb7","61872fc5edc2d45540f78283","1542","","s","true","[[597,336],[480,60],[182,23],[2,263],[119,539],[417,576]]","false","6","","","img/Fire_Down_Target.gif","[""img/Fire_Up_Distractor.gif"",""img/Fire_Up_Distractor.gif"",""img/Fire_Up_Distractor.gif"",""img/Fire_Up_Distractor.gif"",""img/Fire_Up_Distractor.gif"",""img/Fire_Up_Distractor.gif"",""img/Fire_Up_Distractor.gif"",""img/Fire_Up_Distractor.gif"",""img/Fire_Up_Distractor.gif"",""img/Fire_Up_Distractor.gif"",""img/Fire_Up_Distractor.gif"",""img/Fire_Up_Distractor.gif""]","targetDown_distractorsUp"
"","","","","","html-keyboard-response","98","311247","0.0-14.0-0.0-0.42","61687f5d4bd5b7730a608ac3","6186fb1cc52d38b480598eb7","61872fc5edc2d45540f78283","null","","null","","","","","fixation","","","",""
"","","","","","visual-search-circle","99","313129","0.0-14.0-0.0-1.42","61687f5d4bd5b7730a608ac3","6186fb1cc52d38b480598eb7","61872fc5edc2d45540f78283","855.2999999523163","","d","true","[[10,222],[58,478],[288,599],[527,495],[594,244],[440,34],[180,25]]","true","7","","","img/Fire_Down_Target.gif","[""img/Fire_Up_Distractor.gif"",""img/Fire_Up_Distractor.gif"",""img/Fire_Up_Distractor.gif"",""img/Fire_Up_Distractor.gif"",""img/Fire_Up_Distractor.gif"",""img/Fire_Up_Distractor.gif"",""img/Fire_Up_Distractor.gif"",""img/Fire_Up_Distractor.gif"",""img/Fire_Up_Distractor.gif"",""img/Fire_Up_Distractor.gif"",""img/Fire_Up_Distractor.gif"",""img/Fire_Up_Distractor.gif""]","targetDown_distractorsUp"
"","","","","","html-keyboard-response","100","313131","0.0-14.0-0.0-0.43","61687f5d4bd5b7730a608ac3","6186fb1cc52d38b480598eb7","61872fc5edc2d45540f78283","null","","null","","","","","fixation","","","",""
"","","","","","visual-search-circle","101","315393","0.0-14.0-0.0-1.43","61687f5d4bd5b7730a608ac3","6186fb1cc52d38b480598eb7","61872fc5edc2d45540f78283","1255","","s","true","[[2,341],[341,597],[597,258],[258,2]]","false","4","","","img/Fire_Up_Target.gif","[""img/Fire_Down_Distractor.gif"",""img/Fire_Down_Distractor.gif"",""img/Fire_Down_Distractor.gif"",""img/Fire_Down_Distractor.gif"",""img/Fire_Down_Distractor.gif"",""img/Fire_Down_Distractor.gif"",""img/Fire_Down_Distractor.gif"",""img/Fire_Down_Distractor.gif"",""img/Fire_Down_Distractor.gif"",""img/Fire_Down_Distractor.gif"",""img/Fire_Down_Distractor.gif"",""img/Fire_Down_Distractor.gif""]","targetUp_distractorsDown"
"","","","","","html-keyboard-response","102","315396","0.0-14.0-0.0-0.44","61687f5d4bd5b7730a608ac3","6186fb1cc52d38b480598eb7","61872fc5edc2d45540f78283","null","","null","","","","","fixation","","","",""
"","","","","","visual-search-circle","103","317333","0.0-14.0-0.0-1.44","61687f5d4bd5b7730a608ac3","6186fb1cc52d38b480598eb7","61872fc5edc2d45540f78283","924.1000001430511","","d","true","[[472,54],[54,127],[127,545],[545,472]]","true","4","","","img/Fire_Down_Target.gif","[""img/Fire_Up_Distractor.gif"",""img/Fire_Up_Distractor.gif"",""img/Fire_Up_Distractor.gif"",""img/Fire_Up_Distractor.gif"",""img/Fire_Up_Distractor.gif"",""img/Fire_Up_Distractor.gif"",""img/Fire_Up_Distractor.gif"",""img/Fire_Up_Distractor.gif"",""img/Fire_Up_Distractor.gif"",""img/Fire_Up_Distractor.gif"",""img/Fire_Up_Distractor.gif"",""img/Fire_Up_Distractor.gif""]","targetDown_distractorsUp"
"","","","","","html-keyboard-response","104","317346","0.0-14.0-0.0-0.45","61687f5d4bd5b7730a608ac3","6186fb1cc52d38b480598eb7","61872fc5edc2d45540f78283","null","","null","","","","","fixation","","","",""
"","","","","","visual-search-circle","105","319271","0.0-14.0-0.0-1.45","61687f5d4bd5b7730a608ac3","6186fb1cc52d38b480598eb7","61872fc5edc2d45540f78283","902.0999999046326","","s","true","[[594,357],[445,37],[95,80],[28,426],[336,597]]","false","5","","","img/Fire_Up_Target.gif","[""img/Fire_Down_Distractor.gif"",""img/Fire_Down_Distractor.gif"",""img/Fire_Down_Distractor.gif"",""img/Fire_Down_Distractor.gif"",""img/Fire_Down_Distractor.gif"",""img/Fire_Down_Distractor.gif"",""img/Fire_Down_Distractor.gif"",""img/Fire_Down_Distractor.gif"",""img/Fire_Down_Distractor.gif"",""img/Fire_Down_Distractor.gif"",""img/Fire_Down_Distractor.gif"",""img/Fire_Down_Distractor.gif""]","targetUp_distractorsDown"
"","","","","","html-keyboard-response","106","319276","0.0-14.0-0.0-0.46","61687f5d4bd5b7730a608ac3","6186fb1cc52d38b480598eb7","61872fc5edc2d45540f78283","null","","null","","","","","fixation","","","",""
"","","","","","visual-search-circle","107","321534","0.0-14.0-0.0-1.46","61687f5d4bd5b7730a608ac3","6186fb1cc52d38b480598eb7","61872fc5edc2d45540f78283","1232.4000000953674","","s","true","[[515,508],[599,294],[508,84],[294,0],[84,91],[0,305],[91,515],[305,599]]","false","8","","","img/Fire_Up_Target.gif","[""img/Fire_Down_Distractor.gif"",""img/Fire_Down_Distractor.gif"",""img/Fire_Down_Distractor.gif"",""img/Fire_Down_Distractor.gif"",""img/Fire_Down_Distractor.gif"",""img/Fire_Down_Distractor.gif"",""img/Fire_Down_Distractor.gif"",""img/Fire_Down_Distractor.gif"",""img/Fire_Down_Distractor.gif"",""img/Fire_Down_Distractor.gif"",""img/Fire_Down_Distractor.gif"",""img/Fire_Down_Distractor.gif""]","targetUp_distractorsDown"
"","","","","","html-keyboard-response","108","321541","0.0-14.0-0.0-0.47","61687f5d4bd5b7730a608ac3","6186fb1cc52d38b480598eb7","61872fc5edc2d45540f78283","null","","null","","","","","fixation","","","",""
"","","","","","visual-search-circle","109","323436","0.0-14.0-0.0-1.47","61687f5d4bd5b7730a608ac3","6186fb1cc52d38b480598eb7","61872fc5edc2d45540f78283","874.8999998569489","","s","true","[[341,2],[93,82],[1,325],[133,549],[391,585],[580,406],[558,147]]","false","7","","","img/Fire_Up_Target.gif","[""img/Fire_Down_Distractor.gif"",""img/Fire_Down_Distractor.gif"",""img/Fire_Down_Distractor.gif"",""img/Fire_Down_Distractor.gif"",""img/Fire_Down_Distractor.gif"",""img/Fire_Down_Distractor.gif"",""img/Fire_Down_Distractor.gif"",""img/Fire_Down_Distractor.gif"",""img/Fire_Down_Distractor.gif"",""img/Fire_Down_Distractor.gif"",""img/Fire_Down_Distractor.gif"",""img/Fire_Down_Distractor.gif""]","targetUp_distractorsDown"
"","","","","","html-keyboard-response","110","323438","0.0-14.0-0.0-0.48","61687f5d4bd5b7730a608ac3","6186fb1cc52d38b480598eb7","61872fc5edc2d45540f78283","null","","null","","","","","fixation","","","",""
"","","","","","visual-search-circle","111","325430","0.0-14.0-0.0-1.48","61687f5d4bd5b7730a608ac3","6186fb1cc52d38b480598eb7","61872fc5edc2d45540f78283","981.6000001430511","","d","true","[[529,107],[247,4],[18,197],[70,492],[352,595],[581,402]]","true","6","","","img/Fire_Down_Target.gif","[""img/Fire_Up_Distractor.gif"",""img/Fire_Up_Distractor.gif"",""img/Fire_Up_Distractor.gif"",""img/Fire_Up_Distractor.gif"",""img/Fire_Up_Distractor.gif"",""img/Fire_Up_Distractor.gif"",""img/Fire_Up_Distractor.gif"",""img/Fire_Up_Distractor.gif"",""img/Fire_Up_Distractor.gif"",""img/Fire_Up_Distractor.gif"",""img/Fire_Up_Distractor.gif"",""img/Fire_Up_Distractor.gif""]","targetDown_distractorsUp"
"","","","","","html-keyboard-response","112","325433","0.0-14.0-0.0-0.49","61687f5d4bd5b7730a608ac3","6186fb1cc52d38b480598eb7","61872fc5edc2d45540f78283","null","","null","","","","","fixation","","","",""
"","","","","","visual-search-circle","113","327838","0.0-14.0-0.0-1.49","61687f5d4bd5b7730a608ac3","6186fb1cc52d38b480598eb7","61872fc5edc2d45540f78283","1398.7000000476837","","d","true","[[402,18],[63,115],[51,467],[382,588],[599,310]]","true","5","","","img/Fire_Down_Target.gif","[""img/Fire_Up_Distractor.gif"",""img/Fire_Up_Distractor.gif"",""img/Fire_Up_Distractor.gif"",""img/Fire_Up_Distractor.gif"",""img/Fire_Up_Distractor.gif"",""img/Fire_Up_Distractor.gif"",""img/Fire_Up_Distractor.gif"",""img/Fire_Up_Distractor.gif"",""img/Fire_Up_Distractor.gif"",""img/Fire_Up_Distractor.gif"",""img/Fire_Up_Distractor.gif"",""img/Fire_Up_Distractor.gif""]","targetDown_distractorsUp"
"","","","","","html-keyboard-response","114","327846","0.0-14.0-0.0-0.50","61687f5d4bd5b7730a608ac3","6186fb1cc52d38b480598eb7","61872fc5edc2d45540f78283","null","","null","","","","","fixation","","","",""
"","","","","","visual-search-circle","115","329817","0.0-14.0-0.0-1.50","61687f5d4bd5b7730a608ac3","6186fb1cc52d38b480598eb7","61872fc5edc2d45540f78283","964.2999999523163","","s","true","[[559,450],[522,99],[177,25],[1,331],[237,593]]","false","5","","","img/Fire_Up_Target.gif","[""img/Fire_Down_Distractor.gif"",""img/Fire_Down_Distractor.gif"",""img/Fire_Down_Distractor.gif"",""img/Fire_Down_Distractor.gif"",""img/Fire_Down_Distractor.gif"",""img/Fire_Down_Distractor.gif"",""img/Fire_Down_Distractor.gif"",""img/Fire_Down_Distractor.gif"",""img/Fire_Down_Distractor.gif"",""img/Fire_Down_Distractor.gif"",""img/Fire_Down_Distractor.gif"",""img/Fire_Down_Distractor.gif""]","targetUp_distractorsDown"
"","","","","","html-keyboard-response","116","329826","0.0-14.0-0.0-0.51","61687f5d4bd5b7730a608ac3","6186fb1cc52d38b480598eb7","61872fc5edc2d45540f78283","null","","null","","","","","fixation","","","",""
"","","","","","visual-search-circle","117","331958","0.0-14.0-0.0-1.51","61687f5d4bd5b7730a608ac3","6186fb1cc52d38b480598eb7","61872fc5edc2d45540f78283","1120.7999999523163","","d","true","[[14,207],[77,500],[362,593],[585,392],[522,99],[237,6]]","true","6","","","img/Fire_Up_Target.gif","[""img/Fire_Down_Distractor.gif"",""img/Fire_Down_Distractor.gif"",""img/Fire_Down_Distractor.gif"",""img/Fire_Down_Distractor.gif"",""img/Fire_Down_Distractor.gif"",""img/Fire_Down_Distractor.gif"",""img/Fire_Down_Distractor.gif"",""img/Fire_Down_Distractor.gif"",""img/Fire_Down_Distractor.gif"",""img/Fire_Down_Distractor.gif"",""img/Fire_Down_Distractor.gif"",""img/Fire_Down_Distractor.gif""]","targetUp_distractorsDown"
"","","","","","html-keyboard-response","118","331964","0.0-14.0-0.0-0.52","61687f5d4bd5b7730a608ac3","6186fb1cc52d38b480598eb7","61872fc5edc2d45540f78283","null","","null","","","","","fixation","","","",""
"","","","","","visual-search-circle","119","333956","0.0-14.0-0.0-1.52","61687f5d4bd5b7730a608ac3","6186fb1cc52d38b480598eb7","61872fc5edc2d45540f78283","986.8999998569489","","s","true","[[222,10],[10,377],[377,589],[589,222]]","false","4","","","img/Fire_Down_Target.gif","[""img/Fire_Up_Distractor.gif"",""img/Fire_Up_Distractor.gif"",""img/Fire_Up_Distractor.gif"",""img/Fire_Up_Distractor.gif"",""img/Fire_Up_Distractor.gif"",""img/Fire_Up_Distractor.gif"",""img/Fire_Up_Distractor.gif"",""img/Fire_Up_Distractor.gif"",""img/Fire_Up_Distractor.gif"",""img/Fire_Up_Distractor.gif"",""img/Fire_Up_Distractor.gif"",""img/Fire_Up_Distractor.gif""]","targetDown_distractorsUp"
"","","","","","html-keyboard-response","120","333958","0.0-14.0-0.0-0.53","61687f5d4bd5b7730a608ac3","6186fb1cc52d38b480598eb7","61872fc5edc2d45540f78283","null","","null","","","","","fixation","","","",""
"","","","","","visual-search-circle","121","335973","0.0-14.0-0.0-1.53","61687f5d4bd5b7730a608ac3","6186fb1cc52d38b480598eb7","61872fc5edc2d45540f78283","994.2000000476837","","s","true","[[2,336],[336,597],[597,263],[263,2]]","false","4","","","img/Fire_Up_Target.gif","[""img/Fire_Down_Distractor.gif"",""img/Fire_Down_Distractor.gif"",""img/Fire_Down_Distractor.gif"",""img/Fire_Down_Distractor.gif"",""img/Fire_Down_Distractor.gif"",""img/Fire_Down_Distractor.gif"",""img/Fire_Down_Distractor.gif"",""img/Fire_Down_Distractor.gif"",""img/Fire_Down_Distractor.gif"",""img/Fire_Down_Distractor.gif"",""img/Fire_Down_Distractor.gif"",""img/Fire_Down_Distractor.gif""]","targetUp_distractorsDown"
"","","","","","html-keyboard-response","122","335984","0.0-14.0-0.0-0.54","61687f5d4bd5b7730a608ac3","6186fb1cc52d38b480598eb7","61872fc5edc2d45540f78283","null","","null","","","","","fixation","","","",""
"","","","","","visual-search-circle","123","337926","0.0-14.0-0.0-1.54","61687f5d4bd5b7730a608ac3","6186fb1cc52d38b480598eb7","61872fc5edc2d45540f78283","925.5","","d","false","[[258,597],[506,517],[598,274],[466,50],[208,14],[19,193],[41,452]]","false","7","","","img/Fire_Down_Target.gif","[""img/Fire_Up_Distractor.gif"",""img/Fire_Up_Distractor.gif"",""img/Fire_Up_Distractor.gif"",""img/Fire_Up_Distractor.gif"",""img/Fire_Up_Distractor.gif"",""img/Fire_Up_Distractor.gif"",""img/Fire_Up_Distractor.gif"",""img/Fire_Up_Distractor.gif"",""img/Fire_Up_Distractor.gif"",""img/Fire_Up_Distractor.gif"",""img/Fire_Up_Distractor.gif"",""img/Fire_Up_Distractor.gif""]","targetDown_distractorsUp"
"","","","","","html-keyboard-response","124","337933","0.0-14.0-0.0-0.55","61687f5d4bd5b7730a608ac3","6186fb1cc52d38b480598eb7","61872fc5edc2d45540f78283","null","","null","","","","","fixation","","","",""
"","","","","","visual-search-circle","125","339896","0.0-14.0-0.0-1.55","61687f5d4bd5b7730a608ac3","6186fb1cc52d38b480598eb7","61872fc5edc2d45540f78283","944.8000001907349","","d","true","[[0,284],[77,500],[284,599],[500,522],[599,315],[522,99],[315,0],[99,77]]","true","8","","","img/Fire_Down_Target.gif","[""img/Fire_Up_Distractor.gif"",""img/Fire_Up_Distractor.gif"",""img/Fire_Up_Distractor.gif"",""img/Fire_Up_Distractor.gif"",""img/Fire_Up_Distractor.gif"",""img/Fire_Up_Distractor.gif"",""img/Fire_Up_Distractor.gif"",""img/Fire_Up_Distractor.gif"",""img/Fire_Up_Distractor.gif"",""img/Fire_Up_Distractor.gif"",""img/Fire_Up_Distractor.gif"",""img/Fire_Up_Distractor.gif""]","targetDown_distractorsUp"
"","","","","","html-keyboard-response","126","339899","0.0-14.0-0.0-0.56","61687f5d4bd5b7730a608ac3","6186fb1cc52d38b480598eb7","61872fc5edc2d45540f78283","null","","null","","","","","fixation","","","",""
"","","","","","visual-search-circle","127","342392","0.0-14.0-0.0-1.56","61687f5d4bd5b7730a608ac3","6186fb1cc52d38b480598eb7","61872fc5edc2d45540f78283","1471.3000001907349","","s","false","[[599,320],[467,51],[168,30],[0,279],[132,548],[431,569]]","true","6","","","img/Fire_Down_Target.gif","[""img/Fire_Up_Distractor.gif"",""img/Fire_Up_Distractor.gif"",""img/Fire_Up_Distractor.gif"",""img/Fire_Up_Distractor.gif"",""img/Fire_Up_Distractor.gif"",""img/Fire_Up_Distractor.gif"",""img/Fire_Up_Distractor.gif"",""img/Fire_Up_Distractor.gif"",""img/Fire_Up_Distractor.gif"",""img/Fire_Up_Distractor.gif"",""img/Fire_Up_Distractor.gif"",""img/Fire_Up_Distractor.gif""]","targetDown_distractorsUp"
"","","","","","html-keyboard-response","128","342396","0.0-14.0-0.0-0.57","61687f5d4bd5b7730a608ac3","6186fb1cc52d38b480598eb7","61872fc5edc2d45540f78283","null","","null","","","","","fixation","","","",""
"","","","","","visual-search-circle","129","345007","0.0-14.0-0.0-1.57","61687f5d4bd5b7730a608ac3","6186fb1cc52d38b480598eb7","61872fc5edc2d45540f78283","1585.5","","d","true","[[163,32],[14,207],[32,436],[207,585],[436,567],[585,392],[567,163],[392,14]]","true","8","","","img/Fire_Down_Target.gif","[""img/Fire_Up_Distractor.gif"",""img/Fire_Up_Distractor.gif"",""img/Fire_Up_Distractor.gif"",""img/Fire_Up_Distractor.gif"",""img/Fire_Up_Distractor.gif"",""img/Fire_Up_Distractor.gif"",""img/Fire_Up_Distractor.gif"",""img/Fire_Up_Distractor.gif"",""img/Fire_Up_Distractor.gif"",""img/Fire_Up_Distractor.gif"",""img/Fire_Up_Distractor.gif"",""img/Fire_Up_Distractor.gif""]","targetDown_distractorsUp"
"","","","","","html-keyboard-response","130","345009","0.0-14.0-0.0-0.58","61687f5d4bd5b7730a608ac3","6186fb1cc52d38b480598eb7","61872fc5edc2d45540f78283","null","","null","","","","","fixation","","","",""
"","","","","","visual-search-circle","131","347001","0.0-14.0-0.0-1.58","61687f5d4bd5b7730a608ac3","6186fb1cc52d38b480598eb7","61872fc5edc2d45540f78283","981.7999999523163","","d","true","[[300,0],[14,207],[123,542],[476,542],[585,207]]","true","5","","","img/Fire_Down_Target.gif","[""img/Fire_Up_Distractor.gif"",""img/Fire_Up_Distractor.gif"",""img/Fire_Up_Distractor.gif"",""img/Fire_Up_Distractor.gif"",""img/Fire_Up_Distractor.gif"",""img/Fire_Up_Distractor.gif"",""img/Fire_Up_Distractor.gif"",""img/Fire_Up_Distractor.gif"",""img/Fire_Up_Distractor.gif"",""img/Fire_Up_Distractor.gif"",""img/Fire_Up_Distractor.gif"",""img/Fire_Up_Distractor.gif""]","targetDown_distractorsUp"
"","","","","","html-keyboard-response","132","396812","0.0-14.0-0.0-0.59","61687f5d4bd5b7730a608ac3","6186fb1cc52d38b480598eb7","61872fc5edc2d45540f78283","49813.700000047684","Wow! You've completed 60 out of 120 trials! </p> <p>  </p><p> Take a quick break, then press any key when you're ready to continue."," ","","","","","fixation","","","",""
"","","","","","visual-search-circle","133","398679","0.0-14.0-0.0-1.59","61687f5d4bd5b7730a608ac3","6186fb1cc52d38b480598eb7","61872fc5edc2d45540f78283","849.1000001430511","","d","true","[[159,564],[387,586],[564,440],[586,212],[440,35],[212,13],[35,159],[13,387]]","true","8","","","img/Fire_Down_Target.gif","[""img/Fire_Up_Distractor.gif"",""img/Fire_Up_Distractor.gif"",""img/Fire_Up_Distractor.gif"",""img/Fire_Up_Distractor.gif"",""img/Fire_Up_Distractor.gif"",""img/Fire_Up_Distractor.gif"",""img/Fire_Up_Distractor.gif"",""img/Fire_Up_Distractor.gif"",""img/Fire_Up_Distractor.gif"",""img/Fire_Up_Distractor.gif"",""img/Fire_Up_Distractor.gif"",""img/Fire_Up_Distractor.gif""]","targetDown_distractorsUp"
"","","","","","html-keyboard-response","134","398680","0.0-14.0-0.0-0.60","61687f5d4bd5b7730a608ac3","6186fb1cc52d38b480598eb7","61872fc5edc2d45540f78283","null","","null","","","","","fixation","","","",""
"","","","","","visual-search-circle","135","400542","0.0-14.0-0.0-1.60","61687f5d4bd5b7730a608ac3","6186fb1cc52d38b480598eb7","61872fc5edc2d45540f78283","853.2999999523163","","s","true","[[578,412],[576,182],[412,21],[182,23],[21,187],[23,417],[187,578],[417,576]]","false","8","","","img/Fire_Down_Target.gif","[""img/Fire_Up_Distractor.gif"",""img/Fire_Up_Distractor.gif"",""img/Fire_Up_Distractor.gif"",""img/Fire_Up_Distractor.gif"",""img/Fire_Up_Distractor.gif"",""img/Fire_Up_Distractor.gif"",""img/Fire_Up_Distractor.gif"",""img/Fire_Up_Distractor.gif"",""img/Fire_Up_Distractor.gif"",""img/Fire_Up_Distractor.gif"",""img/Fire_Up_Distractor.gif"",""img/Fire_Up_Distractor.gif""]","targetDown_distractorsUp"
"","","","","","html-keyboard-response","136","400547","0.0-14.0-0.0-0.61","61687f5d4bd5b7730a608ac3","6186fb1cc52d38b480598eb7","61872fc5edc2d45540f78283","null","","null","","","","","fixation","","","",""
"","","","","","visual-search-circle","137","402465","0.0-14.0-0.0-1.61","61687f5d4bd5b7730a608ac3","6186fb1cc52d38b480598eb7","61872fc5edc2d45540f78283","911.7999999523163","","s","true","[[263,597],[597,336],[336,2],[2,263]]","false","4","","","img/Fire_Down_Target.gif","[""img/Fire_Up_Distractor.gif"",""img/Fire_Up_Distractor.gif"",""img/Fire_Up_Distractor.gif"",""img/Fire_Up_Distractor.gif"",""img/Fire_Up_Distractor.gif"",""img/Fire_Up_Distractor.gif"",""img/Fire_Up_Distractor.gif"",""img/Fire_Up_Distractor.gif"",""img/Fire_Up_Distractor.gif"",""img/Fire_Up_Distractor.gif"",""img/Fire_Up_Distractor.gif"",""img/Fire_Up_Distractor.gif""]","targetDown_distractorsUp"
"","","","","","html-keyboard-response","138","402474","0.0-14.0-0.0-0.62","61687f5d4bd5b7730a608ac3","6186fb1cc52d38b480598eb7","61872fc5edc2d45540f78283","null","","null","","","","","fixation","","","",""
"","","","","","visual-search-circle","139","404392","0.0-14.0-0.0-1.62","61687f5d4bd5b7730a608ac3","6186fb1cc52d38b480598eb7","61872fc5edc2d45540f78283","904.2999999523163","","s","true","[[598,273],[465,50],[208,14],[19,193],[42,453],[258,597],[506,517]]","false","7","","","img/Fire_Down_Target.gif","[""img/Fire_Up_Distractor.gif"",""img/Fire_Up_Distractor.gif"",""img/Fire_Up_Distractor.gif"",""img/Fire_Up_Distractor.gif"",""img/Fire_Up_Distractor.gif"",""img/Fire_Up_Distractor.gif"",""img/Fire_Up_Distractor.gif"",""img/Fire_Up_Distractor.gif"",""img/Fire_Up_Distractor.gif"",""img/Fire_Up_Distractor.gif"",""img/Fire_Up_Distractor.gif"",""img/Fire_Up_Distractor.gif""]","targetDown_distractorsUp"
"","","","","","html-keyboard-response","140","404395","0.0-14.0-0.0-0.63","61687f5d4bd5b7730a608ac3","6186fb1cc52d38b480598eb7","61872fc5edc2d45540f78283","null","","null","","","","","fixation","","","",""
"","","","","","visual-search-circle","141","406463","0.0-14.0-0.0-1.63","61687f5d4bd5b7730a608ac3","6186fb1cc52d38b480598eb7","61872fc5edc2d45540f78283","1045.9000000953674","","s","true","[[595,352],[545,127],[352,4],[127,54],[4,247],[54,472],[247,595],[472,545]]","false","8","","","img/Fire_Down_Target.gif","[""img/Fire_Up_Distractor.gif"",""img/Fire_Up_Distractor.gif"",""img/Fire_Up_Distractor.gif"",""img/Fire_Up_Distractor.gif"",""img/Fire_Up_Distractor.gif"",""img/Fire_Up_Distractor.gif"",""img/Fire_Up_Distractor.gif"",""img/Fire_Up_Distractor.gif"",""img/Fire_Up_Distractor.gif"",""img/Fire_Up_Distractor.gif"",""img/Fire_Up_Distractor.gif"",""img/Fire_Up_Distractor.gif""]","targetDown_distractorsUp"
"","","","","","html-keyboard-response","142","406471","0.0-14.0-0.0-0.64","61687f5d4bd5b7730a608ac3","6186fb1cc52d38b480598eb7","61872fc5edc2d45540f78283","null","","null","","","","","fixation","","","",""
"","","","","","visual-search-circle","143","408269","0.0-14.0-0.0-1.64","61687f5d4bd5b7730a608ac3","6186fb1cc52d38b480598eb7","61872fc5edc2d45540f78283","781.1000001430511","","s","true","[[182,576],[442,563],[595,352],[525,102],[285,0],[56,124],[11,380]]","false","7","","","img/Fire_Up_Target.gif","[""img/Fire_Down_Distractor.gif"",""img/Fire_Down_Distractor.gif"",""img/Fire_Down_Distractor.gif"",""img/Fire_Down_Distractor.gif"",""img/Fire_Down_Distractor.gif"",""img/Fire_Down_Distractor.gif"",""img/Fire_Down_Distractor.gif"",""img/Fire_Down_Distractor.gif"",""img/Fire_Down_Distractor.gif"",""img/Fire_Down_Distractor.gif"",""img/Fire_Down_Distractor.gif"",""img/Fire_Down_Distractor.gif""]","targetUp_distractorsDown"
"","","","","","html-keyboard-response","144","408273","0.0-14.0-0.0-0.65","61687f5d4bd5b7730a608ac3","6186fb1cc52d38b480598eb7","61872fc5edc2d45540f78283","null","","null","","","","","fixation","","","",""
"","","","","","visual-search-circle","145","410192","0.0-14.0-0.0-1.65","61687f5d4bd5b7730a608ac3","6186fb1cc52d38b480598eb7","61872fc5edc2d45540f78283","911.2000000476837","","d","true","[[8,372],[175,572],[435,567],[593,360],[530,108],[294,0],[61,117]]","true","7","","","img/Fire_Up_Target.gif","[""img/Fire_Down_Distractor.gif"",""img/Fire_Down_Distractor.gif"",""img/Fire_Down_Distractor.gif"",""img/Fire_Down_Distractor.gif"",""img/Fire_Down_Distractor.gif"",""img/Fire_Down_Distractor.gif"",""img/Fire_Down_Distractor.gif"",""img/Fire_Down_Distractor.gif"",""img/Fire_Down_Distractor.gif"",""img/Fire_Down_Distractor.gif"",""img/Fire_Down_Distractor.gif"",""img/Fire_Down_Distractor.gif""]","targetUp_distractorsDown"
"","","","","","html-keyboard-response","146","410194","0.0-14.0-0.0-0.66","61687f5d4bd5b7730a608ac3","6186fb1cc52d38b480598eb7","61872fc5edc2d45540f78283","null","","null","","","","","fixation","","","",""
"","","","","","visual-search-circle","147","413176","0.0-14.0-0.0-1.66","61687f5d4bd5b7730a608ac3","6186fb1cc52d38b480598eb7","61872fc5edc2d45540f78283","1971.7000000476837","","d","true","[[182,23],[21,187],[23,417],[187,578],[417,576],[578,412],[576,182],[412,21]]","true","8","","","img/Fire_Down_Target.gif","[""img/Fire_Up_Distractor.gif"",""img/Fire_Up_Distractor.gif"",""img/Fire_Up_Distractor.gif"",""img/Fire_Up_Distractor.gif"",""img/Fire_Up_Distractor.gif"",""img/Fire_Up_Distractor.gif"",""img/Fire_Up_Distractor.gif"",""img/Fire_Up_Distractor.gif"",""img/Fire_Up_Distractor.gif"",""img/Fire_Up_Distractor.gif"",""img/Fire_Up_Distractor.gif"",""img/Fire_Up_Distractor.gif""]","targetDown_distractorsUp"
"","","","","","html-keyboard-response","148","413179","0.0-14.0-0.0-0.67","61687f5d4bd5b7730a608ac3","6186fb1cc52d38b480598eb7","61872fc5edc2d45540f78283","null","","null","","","","","fixation","","","",""
"","","","","","visual-search-circle","149","415342","0.0-14.0-0.0-1.67","61687f5d4bd5b7730a608ac3","6186fb1cc52d38b480598eb7","61872fc5edc2d45540f78283","1153.5","","s","true","[[0,279],[73,496],[279,599],[496,526],[599,320],[526,103],[320,0],[103,73]]","false","8","","","img/Fire_Up_Target.gif","[""img/Fire_Down_Distractor.gif"",""img/Fire_Down_Distractor.gif"",""img/Fire_Down_Distractor.gif"",""img/Fire_Down_Distractor.gif"",""img/Fire_Down_Distractor.gif"",""img/Fire_Down_Distractor.gif"",""img/Fire_Down_Distractor.gif"",""img/Fire_Down_Distractor.gif"",""img/Fire_Down_Distractor.gif"",""img/Fire_Down_Distractor.gif"",""img/Fire_Down_Distractor.gif"",""img/Fire_Down_Distractor.gif""]","targetUp_distractorsDown"
"","","","","","html-keyboard-response","150","415344","0.0-14.0-0.0-0.68","61687f5d4bd5b7730a608ac3","6186fb1cc52d38b480598eb7","61872fc5edc2d45540f78283","null","","null","","","","","fixation","","","",""
"","","","","","visual-search-circle","151","417228","0.0-14.0-0.0-1.68","61687f5d4bd5b7730a608ac3","6186fb1cc52d38b480598eb7","61872fc5edc2d45540f78283","869.2000000476837","","s","true","[[173,28],[18,197],[28,426],[197,581],[426,571],[581,402],[571,173],[402,18]]","false","8","","","img/Fire_Down_Target.gif","[""img/Fire_Up_Distractor.gif"",""img/Fire_Up_Distractor.gif"",""img/Fire_Up_Distractor.gif"",""img/Fire_Up_Distractor.gif"",""img/Fire_Up_Distractor.gif"",""img/Fire_Up_Distractor.gif"",""img/Fire_Up_Distractor.gif"",""img/Fire_Up_Distractor.gif"",""img/Fire_Up_Distractor.gif"",""img/Fire_Up_Distractor.gif"",""img/Fire_Up_Distractor.gif"",""img/Fire_Up_Distractor.gif""]","targetDown_distractorsUp"
"","","","","","html-keyboard-response","152","417230","0.0-14.0-0.0-0.69","61687f5d4bd5b7730a608ac3","6186fb1cc52d38b480598eb7","61872fc5edc2d45540f78283","null","","null","","","","","fixation","","","",""
"","","","","","visual-search-circle","153","419353","0.0-14.0-0.0-1.69","61687f5d4bd5b7730a608ac3","6186fb1cc52d38b480598eb7","61872fc5edc2d45540f78283","1107.7999999523163","","s","true","[[598,273],[465,50],[208,14],[19,193],[42,453],[258,597],[506,517]]","false","7","","","img/Fire_Down_Target.gif","[""img/Fire_Up_Distractor.gif"",""img/Fire_Up_Distractor.gif"",""img/Fire_Up_Distractor.gif"",""img/Fire_Up_Distractor.gif"",""img/Fire_Up_Distractor.gif"",""img/Fire_Up_Distractor.gif"",""img/Fire_Up_Distractor.gif"",""img/Fire_Up_Distractor.gif"",""img/Fire_Up_Distractor.gif"",""img/Fire_Up_Distractor.gif"",""img/Fire_Up_Distractor.gif"",""img/Fire_Up_Distractor.gif""]","targetDown_distractorsUp"
"","","","","","html-keyboard-response","154","419364","0.0-14.0-0.0-0.70","61687f5d4bd5b7730a608ac3","6186fb1cc52d38b480598eb7","61872fc5edc2d45540f78283","null","","null","","","","","fixation","","","",""
"","","","","","visual-search-circle","155","421086","0.0-14.0-0.0-1.70","61687f5d4bd5b7730a608ac3","6186fb1cc52d38b480598eb7","61872fc5edc2d45540f78283","707.5","","d","true","[[519,504],[596,256],[450,40],[191,20],[13,210],[51,468],[276,599]]","true","7","","","img/Fire_Down_Target.gif","[""img/Fire_Up_Distractor.gif"",""img/Fire_Up_Distractor.gif"",""img/Fire_Up_Distractor.gif"",""img/Fire_Up_Distractor.gif"",""img/Fire_Up_Distractor.gif"",""img/Fire_Up_Distractor.gif"",""img/Fire_Up_Distractor.gif"",""img/Fire_Up_Distractor.gif"",""img/Fire_Up_Distractor.gif"",""img/Fire_Up_Distractor.gif"",""img/Fire_Up_Distractor.gif"",""img/Fire_Up_Distractor.gif""]","targetDown_distractorsUp"
"","","","","","html-keyboard-response","156","421093","0.0-14.0-0.0-0.71","61687f5d4bd5b7730a608ac3","6186fb1cc52d38b480598eb7","61872fc5edc2d45540f78283","null","","null","","","","","fixation","","","",""
"","","","","","visual-search-circle","157","423617","0.0-14.0-0.0-1.71","61687f5d4bd5b7730a608ac3","6186fb1cc52d38b480598eb7","61872fc5edc2d45540f78283","1504.0999999046326","","s","true","[[320,599],[526,496],[599,279],[496,73],[279,0],[73,103],[0,320],[103,526]]","false","8","","","img/Fire_Up_Target.gif","[""img/Fire_Down_Distractor.gif"",""img/Fire_Down_Distractor.gif"",""img/Fire_Down_Distractor.gif"",""img/Fire_Down_Distractor.gif"",""img/Fire_Down_Distractor.gif"",""img/Fire_Down_Distractor.gif"",""img/Fire_Down_Distractor.gif"",""img/Fire_Down_Distractor.gif"",""img/Fire_Down_Distractor.gif"",""img/Fire_Down_Distractor.gif"",""img/Fire_Down_Distractor.gif"",""img/Fire_Down_Distractor.gif""]","targetUp_distractorsDown"
"","","","","","html-keyboard-response","158","423623","0.0-14.0-0.0-0.72","61687f5d4bd5b7730a608ac3","6186fb1cc52d38b480598eb7","61872fc5edc2d45540f78283","null","","null","","","","","fixation","","","",""
"","","","","","visual-search-circle","159","425694","0.0-14.0-0.0-1.72","61687f5d4bd5b7730a608ac3","6186fb1cc52d38b480598eb7","61872fc5edc2d45540f78283","1056.2000000476837","","s","true","[[202,583],[460,553],[598,332],[511,86],[264,2],[45,141],[17,400]]","false","7","","","img/Fire_Down_Target.gif","[""img/Fire_Up_Distractor.gif"",""img/Fire_Up_Distractor.gif"",""img/Fire_Up_Distractor.gif"",""img/Fire_Up_Distractor.gif"",""img/Fire_Up_Distractor.gif"",""img/Fire_Up_Distractor.gif"",""img/Fire_Up_Distractor.gif"",""img/Fire_Up_Distractor.gif"",""img/Fire_Up_Distractor.gif"",""img/Fire_Up_Distractor.gif"",""img/Fire_Up_Distractor.gif"",""img/Fire_Up_Distractor.gif""]","targetDown_distractorsUp"
"","","","","","html-keyboard-response","160","425696","0.0-14.0-0.0-0.73","61687f5d4bd5b7730a608ac3","6186fb1cc52d38b480598eb7","61872fc5edc2d45540f78283","null","","null","","","","","fixation","","","",""
"","","","","","visual-search-circle","161","428269","0.0-14.0-0.0-1.73","61687f5d4bd5b7730a608ac3","6186fb1cc52d38b480598eb7","61872fc5edc2d45540f78283","1562.3999998569489","","s","true","[[407,19],[66,111],[48,463],[377,589],[599,315]]","false","5","","","img/Fire_Down_Target.gif","[""img/Fire_Up_Distractor.gif"",""img/Fire_Up_Distractor.gif"",""img/Fire_Up_Distractor.gif"",""img/Fire_Up_Distractor.gif"",""img/Fire_Up_Distractor.gif"",""img/Fire_Up_Distractor.gif"",""img/Fire_Up_Distractor.gif"",""img/Fire_Up_Distractor.gif"",""img/Fire_Up_Distractor.gif"",""img/Fire_Up_Distractor.gif"",""img/Fire_Up_Distractor.gif"",""img/Fire_Up_Distractor.gif""]","targetDown_distractorsUp"
"","","","","","html-keyboard-response","162","428273","0.0-14.0-0.0-0.74","61687f5d4bd5b7730a608ac3","6186fb1cc52d38b480598eb7","61872fc5edc2d45540f78283","null","","null","","","","","fixation","","","",""
"","","","","","visual-search-circle","163","430542","0.0-14.0-0.0-1.74","61687f5d4bd5b7730a608ac3","6186fb1cc52d38b480598eb7","61872fc5edc2d45540f78283","1242.7000000476837","","d","true","[[103,73],[0,279],[73,496],[279,599],[496,526],[599,320],[526,103],[320,0]]","true","8","","","img/Fire_Up_Target.gif","[""img/Fire_Down_Distractor.gif"",""img/Fire_Down_Distractor.gif"",""img/Fire_Down_Distractor.gif"",""img/Fire_Down_Distractor.gif"",""img/Fire_Down_Distractor.gif"",""img/Fire_Down_Distractor.gif"",""img/Fire_Down_Distractor.gif"",""img/Fire_Down_Distractor.gif"",""img/Fire_Down_Distractor.gif"",""img/Fire_Down_Distractor.gif"",""img/Fire_Down_Distractor.gif"",""img/Fire_Down_Distractor.gif""]","targetUp_distractorsDown"
"","","","","","html-keyboard-response","164","430548","0.0-14.0-0.0-0.75","61687f5d4bd5b7730a608ac3","6186fb1cc52d38b480598eb7","61872fc5edc2d45540f78283","null","","null","","","","","fixation","","","",""
"","","","","","visual-search-circle","165","432583","0.0-14.0-0.0-1.75","61687f5d4bd5b7730a608ac3","6186fb1cc52d38b480598eb7","61872fc5edc2d45540f78283","1028.2000000476837","","s","true","[[377,589],[589,222],[222,10],[10,377]]","false","4","","","img/Fire_Up_Target.gif","[""img/Fire_Down_Distractor.gif"",""img/Fire_Down_Distractor.gif"",""img/Fire_Down_Distractor.gif"",""img/Fire_Down_Distractor.gif"",""img/Fire_Down_Distractor.gif"",""img/Fire_Down_Distractor.gif"",""img/Fire_Down_Distractor.gif"",""img/Fire_Down_Distractor.gif"",""img/Fire_Down_Distractor.gif"",""img/Fire_Down_Distractor.gif"",""img/Fire_Down_Distractor.gif"",""img/Fire_Down_Distractor.gif""]","targetUp_distractorsDown"
"","","","","","html-keyboard-response","166","432585","0.0-14.0-0.0-0.76","61687f5d4bd5b7730a608ac3","6186fb1cc52d38b480598eb7","61872fc5edc2d45540f78283","null","","null","","","","","fixation","","","",""
"","","","","","visual-search-circle","167","435035","0.0-14.0-0.0-1.76","61687f5d4bd5b7730a608ac3","6186fb1cc52d38b480598eb7","61872fc5edc2d45540f78283","1440.5999999046326","","s","true","[[5,242],[51,467],[242,594],[467,548],[594,357],[548,132],[357,5],[132,51]]","false","8","","","img/Fire_Down_Target.gif","[""img/Fire_Up_Distractor.gif"",""img/Fire_Up_Distractor.gif"",""img/Fire_Up_Distractor.gif"",""img/Fire_Up_Distractor.gif"",""img/Fire_Up_Distractor.gif"",""img/Fire_Up_Distractor.gif"",""img/Fire_Up_Distractor.gif"",""img/Fire_Up_Distractor.gif"",""img/Fire_Up_Distractor.gif"",""img/Fire_Up_Distractor.gif"",""img/Fire_Up_Distractor.gif"",""img/Fire_Up_Distractor.gif""]","targetDown_distractorsUp"
"","","","","","html-keyboard-response","168","435040","0.0-14.0-0.0-0.77","61687f5d4bd5b7730a608ac3","6186fb1cc52d38b480598eb7","61872fc5edc2d45540f78283","null","","null","","","","","fixation","","","",""
"","","","","","visual-search-circle","169","437084","0.0-14.0-0.0-1.77","61687f5d4bd5b7730a608ac3","6186fb1cc52d38b480598eb7","61872fc5edc2d45540f78283","1015.7999999523163","","d","true","[[362,6],[109,68],[0,304],[116,537],[371,591],[572,426],[568,165]]","true","7","","","img/Fire_Down_Target.gif","[""img/Fire_Up_Distractor.gif"",""img/Fire_Up_Distractor.gif"",""img/Fire_Up_Distractor.gif"",""img/Fire_Up_Distractor.gif"",""img/Fire_Up_Distractor.gif"",""img/Fire_Up_Distractor.gif"",""img/Fire_Up_Distractor.gif"",""img/Fire_Up_Distractor.gif"",""img/Fire_Up_Distractor.gif"",""img/Fire_Up_Distractor.gif"",""img/Fire_Up_Distractor.gif"",""img/Fire_Up_Distractor.gif""]","targetDown_distractorsUp"
"","","","","","html-keyboard-response","170","437095","0.0-14.0-0.0-0.78","61687f5d4bd5b7730a608ac3","6186fb1cc52d38b480598eb7","61872fc5edc2d45540f78283","null","","null","","","","","fixation","","","",""
"","","","","","visual-search-circle","171","438814","0.0-14.0-0.0-1.78","61687f5d4bd5b7730a608ac3","6186fb1cc52d38b480598eb7","61872fc5edc2d45540f78283","706.6999998092651","","s","false","[[542,123],[207,14],[0,299],[207,585],[542,476]]","true","5","","","img/Fire_Up_Target.gif","[""img/Fire_Down_Distractor.gif"",""img/Fire_Down_Distractor.gif"",""img/Fire_Down_Distractor.gif"",""img/Fire_Down_Distractor.gif"",""img/Fire_Down_Distractor.gif"",""img/Fire_Down_Distractor.gif"",""img/Fire_Down_Distractor.gif"",""img/Fire_Down_Distractor.gif"",""img/Fire_Down_Distractor.gif"",""img/Fire_Down_Distractor.gif"",""img/Fire_Down_Distractor.gif"",""img/Fire_Down_Distractor.gif""]","targetUp_distractorsDown"
"","","","","","html-keyboard-response","172","447517","0.0-14.0-0.0-0.79","61687f5d4bd5b7730a608ac3","6186fb1cc52d38b480598eb7","61872fc5edc2d45540f78283","8702.399999856949","Wow! You've completed 80 out of 120 trials! </p> <p>  </p><p> Take a quick break, then press any key when you're ready to continue."," ","","","","","fixation","","","",""
"","","","","","visual-search-circle","173","449889","0.0-14.0-0.0-1.79","61687f5d4bd5b7730a608ac3","6186fb1cc52d38b480598eb7","61872fc5edc2d45540f78283","1361.8999998569489","","d","true","[[551,463],[533,111],[192,19],[0,315],[222,589]]","true","5","","","img/Fire_Up_Target.gif","[""img/Fire_Down_Distractor.gif"",""img/Fire_Down_Distractor.gif"",""img/Fire_Down_Distractor.gif"",""img/Fire_Down_Distractor.gif"",""img/Fire_Down_Distractor.gif"",""img/Fire_Down_Distractor.gif"",""img/Fire_Down_Distractor.gif"",""img/Fire_Down_Distractor.gif"",""img/Fire_Down_Distractor.gif"",""img/Fire_Down_Distractor.gif"",""img/Fire_Down_Distractor.gif"",""img/Fire_Down_Distractor.gif""]","targetUp_distractorsDown"
"","","","","","html-keyboard-response","174","449911","0.0-14.0-0.0-0.80","61687f5d4bd5b7730a608ac3","6186fb1cc52d38b480598eb7","61872fc5edc2d45540f78283","null","","null","","","","","fixation","","","",""
"","","","","","visual-search-circle","175","452360","0.0-14.0-0.0-1.80","61687f5d4bd5b7730a608ac3","6186fb1cc52d38b480598eb7","61872fc5edc2d45540f78283","1425.7000000476837","","d","true","[[480,539],[539,119],[119,60],[60,480]]","true","4","","","img/Fire_Down_Target.gif","[""img/Fire_Up_Distractor.gif"",""img/Fire_Up_Distractor.gif"",""img/Fire_Up_Distractor.gif"",""img/Fire_Up_Distractor.gif"",""img/Fire_Up_Distractor.gif"",""img/Fire_Up_Distractor.gif"",""img/Fire_Up_Distractor.gif"",""img/Fire_Up_Distractor.gif"",""img/Fire_Up_Distractor.gif"",""img/Fire_Up_Distractor.gif"",""img/Fire_Up_Distractor.gif"",""img/Fire_Up_Distractor.gif""]","targetDown_distractorsUp"
"","","","","","html-keyboard-response","176","452366","0.0-14.0-0.0-0.81","61687f5d4bd5b7730a608ac3","6186fb1cc52d38b480598eb7","61872fc5edc2d45540f78283","null","","null","","","","","fixation","","","",""
"","","","","","visual-search-circle","177","455067","0.0-14.0-0.0-1.81","61687f5d4bd5b7730a608ac3","6186fb1cc52d38b480598eb7","61872fc5edc2d45540f78283","1691","","d","true","[[467,51],[51,132],[132,548],[548,467]]","true","4","","","img/Fire_Up_Target.gif","[""img/Fire_Down_Distractor.gif"",""img/Fire_Down_Distractor.gif"",""img/Fire_Down_Distractor.gif"",""img/Fire_Down_Distractor.gif"",""img/Fire_Down_Distractor.gif"",""img/Fire_Down_Distractor.gif"",""img/Fire_Down_Distractor.gif"",""img/Fire_Down_Distractor.gif"",""img/Fire_Down_Distractor.gif"",""img/Fire_Down_Distractor.gif"",""img/Fire_Down_Distractor.gif"",""img/Fire_Down_Distractor.gif""]","targetUp_distractorsDown"
"","","","","","html-keyboard-response","178","455068","0.0-14.0-0.0-0.82","61687f5d4bd5b7730a608ac3","6186fb1cc52d38b480598eb7","61872fc5edc2d45540f78283","null","","null","","","","","fixation","","","",""
"","","","","","visual-search-circle","179","456995","0.0-14.0-0.0-1.82","61687f5d4bd5b7730a608ac3","6186fb1cc52d38b480598eb7","61872fc5edc2d45540f78283","921.0999999046326","","s","true","[[522,99],[282,0],[54,127],[12,384],[186,577],[446,562],[595,349]]","false","7","","","img/Fire_Up_Target.gif","[""img/Fire_Down_Distractor.gif"",""img/Fire_Down_Distractor.gif"",""img/Fire_Down_Distractor.gif"",""img/Fire_Down_Distractor.gif"",""img/Fire_Down_Distractor.gif"",""img/Fire_Down_Distractor.gif"",""img/Fire_Down_Distractor.gif"",""img/Fire_Down_Distractor.gif"",""img/Fire_Down_Distractor.gif"",""img/Fire_Down_Distractor.gif"",""img/Fire_Down_Distractor.gif"",""img/Fire_Down_Distractor.gif""]","targetUp_distractorsDown"
"","","","","","html-keyboard-response","180","457012","0.0-14.0-0.0-0.83","61687f5d4bd5b7730a608ac3","6186fb1cc52d38b480598eb7","61872fc5edc2d45540f78283","null","","null","","","","","fixation","","","",""
"","","","","","visual-search-circle","181","459081","0.0-14.0-0.0-1.83","61687f5d4bd5b7730a608ac3","6186fb1cc52d38b480598eb7","61872fc5edc2d45540f78283","1056.2000000476837","","d","true","[[585,207],[300,0],[14,207],[123,542],[476,542]]","true","5","","","img/Fire_Up_Target.gif","[""img/Fire_Down_Distractor.gif"",""img/Fire_Down_Distractor.gif"",""img/Fire_Down_Distractor.gif"",""img/Fire_Down_Distractor.gif"",""img/Fire_Down_Distractor.gif"",""img/Fire_Down_Distractor.gif"",""img/Fire_Down_Distractor.gif"",""img/Fire_Down_Distractor.gif"",""img/Fire_Down_Distractor.gif"",""img/Fire_Down_Distractor.gif"",""img/Fire_Down_Distractor.gif"",""img/Fire_Down_Distractor.gif""]","targetUp_distractorsDown"
"","","","","","html-keyboard-response","182","459091","0.0-14.0-0.0-0.84","61687f5d4bd5b7730a608ac3","6186fb1cc52d38b480598eb7","61872fc5edc2d45540f78283","null","","null","","","","","fixation","","","",""
"","","","","","visual-search-circle","183","461582","0.0-14.0-0.0-1.84","61687f5d4bd5b7730a608ac3","6186fb1cc52d38b480598eb7","61872fc5edc2d45540f78283","1478.4000000953674","","d","true","[[472,54],[215,12],[22,186],[38,446],[251,596],[501,522],[599,281]]","true","7","","","img/Fire_Down_Target.gif","[""img/Fire_Up_Distractor.gif"",""img/Fire_Up_Distractor.gif"",""img/Fire_Up_Distractor.gif"",""img/Fire_Up_Distractor.gif"",""img/Fire_Up_Distractor.gif"",""img/Fire_Up_Distractor.gif"",""img/Fire_Up_Distractor.gif"",""img/Fire_Up_Distractor.gif"",""img/Fire_Up_Distractor.gif"",""img/Fire_Up_Distractor.gif"",""img/Fire_Up_Distractor.gif"",""img/Fire_Up_Distractor.gif""]","targetDown_distractorsUp"
"","","","","","html-keyboard-response","184","461592","0.0-14.0-0.0-0.85","61687f5d4bd5b7730a608ac3","6186fb1cc52d38b480598eb7","61872fc5edc2d45540f78283","null","","null","","","","","fixation","","","",""
"","","","","","visual-search-circle","185","463957","0.0-14.0-0.0-1.85","61687f5d4bd5b7730a608ac3","6186fb1cc52d38b480598eb7","61872fc5edc2d45540f78283","1346.5999999046326","","d","true","[[597,341],[431,30],[84,91],[35,440],[352,595]]","true","5","","","img/Fire_Up_Target.gif","[""img/Fire_Down_Distractor.gif"",""img/Fire_Down_Distractor.gif"",""img/Fire_Down_Distractor.gif"",""img/Fire_Down_Distractor.gif"",""img/Fire_Down_Distractor.gif"",""img/Fire_Down_Distractor.gif"",""img/Fire_Down_Distractor.gif"",""img/Fire_Down_Distractor.gif"",""img/Fire_Down_Distractor.gif"",""img/Fire_Down_Distractor.gif"",""img/Fire_Down_Distractor.gif"",""img/Fire_Down_Distractor.gif""]","targetUp_distractorsDown"
"","","","","","html-keyboard-response","186","463959","0.0-14.0-0.0-0.86","61687f5d4bd5b7730a608ac3","6186fb1cc52d38b480598eb7","61872fc5edc2d45540f78283","null","","null","","","","","fixation","","","",""
"","","","","","visual-search-circle","187","465817","0.0-14.0-0.0-1.86","61687f5d4bd5b7730a608ac3","6186fb1cc52d38b480598eb7","61872fc5edc2d45540f78283","841.6000001430511","","d","true","[[177,574],[574,422],[422,25],[25,177]]","true","4","","","img/Fire_Down_Target.gif","[""img/Fire_Up_Distractor.gif"",""img/Fire_Up_Distractor.gif"",""img/Fire_Up_Distractor.gif"",""img/Fire_Up_Distractor.gif"",""img/Fire_Up_Distractor.gif"",""img/Fire_Up_Distractor.gif"",""img/Fire_Up_Distractor.gif"",""img/Fire_Up_Distractor.gif"",""img/Fire_Up_Distractor.gif"",""img/Fire_Up_Distractor.gif"",""img/Fire_Up_Distractor.gif"",""img/Fire_Up_Distractor.gif""]","targetDown_distractorsUp"
"","","","","","html-keyboard-response","188","465819","0.0-14.0-0.0-0.87","61687f5d4bd5b7730a608ac3","6186fb1cc52d38b480598eb7","61872fc5edc2d45540f78283","null","","null","","","","","fixation","","","",""
"","","","","","visual-search-circle","189","467783","0.0-14.0-0.0-1.87","61687f5d4bd5b7730a608ac3","6186fb1cc52d38b480598eb7","61872fc5edc2d45540f78283","957.0999999046326","","s","true","[[163,32],[0,284],[136,551],[436,567],[599,315],[463,48]]","false","6","","","img/Fire_Up_Target.gif","[""img/Fire_Down_Distractor.gif"",""img/Fire_Down_Distractor.gif"",""img/Fire_Down_Distractor.gif"",""img/Fire_Down_Distractor.gif"",""img/Fire_Down_Distractor.gif"",""img/Fire_Down_Distractor.gif"",""img/Fire_Down_Distractor.gif"",""img/Fire_Down_Distractor.gif"",""img/Fire_Down_Distractor.gif"",""img/Fire_Down_Distractor.gif"",""img/Fire_Down_Distractor.gif"",""img/Fire_Down_Distractor.gif""]","targetUp_distractorsDown"
"","","","","","html-keyboard-response","190","467786","0.0-14.0-0.0-0.88","61687f5d4bd5b7730a608ac3","6186fb1cc52d38b480598eb7","61872fc5edc2d45540f78283","null","","null","","","","","fixation","","","",""
"","","","","","visual-search-circle","191","469626","0.0-14.0-0.0-1.88","61687f5d4bd5b7730a608ac3","6186fb1cc52d38b480598eb7","61872fc5edc2d45540f78283","828.7000000476837","","s","false","[[326,1],[107,70],[1,273],[70,492],[273,598],[492,529],[598,326],[529,107]]","true","8","","","img/Fire_Up_Target.gif","[""img/Fire_Down_Distractor.gif"",""img/Fire_Down_Distractor.gif"",""img/Fire_Down_Distractor.gif"",""img/Fire_Down_Distractor.gif"",""img/Fire_Down_Distractor.gif"",""img/Fire_Down_Distractor.gif"",""img/Fire_Down_Distractor.gif"",""img/Fire_Down_Distractor.gif"",""img/Fire_Down_Distractor.gif"",""img/Fire_Down_Distractor.gif"",""img/Fire_Down_Distractor.gif"",""img/Fire_Down_Distractor.gif""]","targetUp_distractorsDown"
"","","","","","html-keyboard-response","192","469628","0.0-14.0-0.0-0.89","61687f5d4bd5b7730a608ac3","6186fb1cc52d38b480598eb7","61872fc5edc2d45540f78283","null","","null","","","","","fixation","","","",""
"","","","","","visual-search-circle","193","471613","0.0-14.0-0.0-1.89","61687f5d4bd5b7730a608ac3","6186fb1cc52d38b480598eb7","61872fc5edc2d45540f78283","978.2000000476837","","s","true","[[289,599],[554,458],[564,159],[310,0],[45,141],[35,440]]","false","6","","","img/Fire_Down_Target.gif","[""img/Fire_Up_Distractor.gif"",""img/Fire_Up_Distractor.gif"",""img/Fire_Up_Distractor.gif"",""img/Fire_Up_Distractor.gif"",""img/Fire_Up_Distractor.gif"",""img/Fire_Up_Distractor.gif"",""img/Fire_Up_Distractor.gif"",""img/Fire_Up_Distractor.gif"",""img/Fire_Up_Distractor.gif"",""img/Fire_Up_Distractor.gif"",""img/Fire_Up_Distractor.gif"",""img/Fire_Up_Distractor.gif""]","targetDown_distractorsUp"
"","","","","","html-keyboard-response","194","471615","0.0-14.0-0.0-0.90","61687f5d4bd5b7730a608ac3","6186fb1cc52d38b480598eb7","61872fc5edc2d45540f78283","null","","null","","","","","fixation","","","",""
"","","","","","visual-search-circle","195","473602","0.0-14.0-0.0-1.90","61687f5d4bd5b7730a608ac3","6186fb1cc52d38b480598eb7","61872fc5edc2d45540f78283","976.2999999523163","","s","true","[[529,107],[247,4],[18,197],[70,492],[352,595],[581,402]]","false","6","","","img/Fire_Down_Target.gif","[""img/Fire_Up_Distractor.gif"",""img/Fire_Up_Distractor.gif"",""img/Fire_Up_Distractor.gif"",""img/Fire_Up_Distractor.gif"",""img/Fire_Up_Distractor.gif"",""img/Fire_Up_Distractor.gif"",""img/Fire_Up_Distractor.gif"",""img/Fire_Up_Distractor.gif"",""img/Fire_Up_Distractor.gif"",""img/Fire_Up_Distractor.gif"",""img/Fire_Up_Distractor.gif"",""img/Fire_Up_Distractor.gif""]","targetDown_distractorsUp"
"","","","","","html-keyboard-response","196","473607","0.0-14.0-0.0-0.91","61687f5d4bd5b7730a608ac3","6186fb1cc52d38b480598eb7","61872fc5edc2d45540f78283","null","","null","","","","","fixation","","","",""
"","","","","","visual-search-circle","197","476054","0.0-14.0-0.0-1.91","61687f5d4bd5b7730a608ac3","6186fb1cc52d38b480598eb7","61872fc5edc2d45540f78283","1427.8999998569489","","d","true","[[595,352],[492,70],[197,18],[4,247],[107,529],[402,581]]","true","6","","","img/Fire_Up_Target.gif","[""img/Fire_Down_Distractor.gif"",""img/Fire_Down_Distractor.gif"",""img/Fire_Down_Distractor.gif"",""img/Fire_Down_Distractor.gif"",""img/Fire_Down_Distractor.gif"",""img/Fire_Down_Distractor.gif"",""img/Fire_Down_Distractor.gif"",""img/Fire_Down_Distractor.gif"",""img/Fire_Down_Distractor.gif"",""img/Fire_Down_Distractor.gif"",""img/Fire_Down_Distractor.gif"",""img/Fire_Down_Distractor.gif""]","targetUp_distractorsDown"
"","","","","","html-keyboard-response","198","476061","0.0-14.0-0.0-0.92","61687f5d4bd5b7730a608ac3","6186fb1cc52d38b480598eb7","61872fc5edc2d45540f78283","null","","null","","","","","fixation","","","",""
"","","","","","visual-search-circle","199","478681","0.0-14.0-0.0-1.92","61687f5d4bd5b7730a608ac3","6186fb1cc52d38b480598eb7","61872fc5edc2d45540f78283","1594.9000000953674","","d","true","[[583,202],[431,30],[202,16],[30,168],[16,397],[168,569],[397,583],[569,431]]","true","8","","","img/Fire_Up_Target.gif","[""img/Fire_Down_Distractor.gif"",""img/Fire_Down_Distractor.gif"",""img/Fire_Down_Distractor.gif"",""img/Fire_Down_Distractor.gif"",""img/Fire_Down_Distractor.gif"",""img/Fire_Down_Distractor.gif"",""img/Fire_Down_Distractor.gif"",""img/Fire_Down_Distractor.gif"",""img/Fire_Down_Distractor.gif"",""img/Fire_Down_Distractor.gif"",""img/Fire_Down_Distractor.gif"",""img/Fire_Down_Distractor.gif""]","targetUp_distractorsDown"
"","","","","","html-keyboard-response","200","478683","0.0-14.0-0.0-0.93","61687f5d4bd5b7730a608ac3","6186fb1cc52d38b480598eb7","61872fc5edc2d45540f78283","null","","null","","","","","fixation","","","",""
"","","","","","visual-search-circle","201","480965","0.0-14.0-0.0-1.93","61687f5d4bd5b7730a608ac3","6186fb1cc52d38b480598eb7","61872fc5edc2d45540f78283","1273.2999999523163","","d","true","[[581,402],[484,63],[132,51],[11,382],[289,599]]","true","5","","","img/Fire_Down_Target.gif","[""img/Fire_Up_Distractor.gif"",""img/Fire_Up_Distractor.gif"",""img/Fire_Up_Distractor.gif"",""img/Fire_Up_Distractor.gif"",""img/Fire_Up_Distractor.gif"",""img/Fire_Up_Distractor.gif"",""img/Fire_Up_Distractor.gif"",""img/Fire_Up_Distractor.gif"",""img/Fire_Up_Distractor.gif"",""img/Fire_Up_Distractor.gif"",""img/Fire_Up_Distractor.gif"",""img/Fire_Up_Distractor.gif""]","targetDown_distractorsUp"
"","","","","","html-keyboard-response","202","480966","0.0-14.0-0.0-0.94","61687f5d4bd5b7730a608ac3","6186fb1cc52d38b480598eb7","61872fc5edc2d45540f78283","null","","null","","","","","fixation","","","",""
"","","","","","visual-search-circle","203","483445","0.0-14.0-0.0-1.94","61687f5d4bd5b7730a608ac3","6186fb1cc52d38b480598eb7","61872fc5edc2d45540f78283","1460.8000001907349","","s","true","[[111,533],[463,551],[589,222],[315,0],[19,192]]","false","5","","","img/Fire_Up_Target.gif","[""img/Fire_Down_Distractor.gif"",""img/Fire_Down_Distractor.gif"",""img/Fire_Down_Distractor.gif"",""img/Fire_Down_Distractor.gif"",""img/Fire_Down_Distractor.gif"",""img/Fire_Down_Distractor.gif"",""img/Fire_Down_Distractor.gif"",""img/Fire_Down_Distractor.gif"",""img/Fire_Down_Distractor.gif"",""img/Fire_Down_Distractor.gif"",""img/Fire_Down_Distractor.gif"",""img/Fire_Down_Distractor.gif""]","targetUp_distractorsDown"
"","","","","","html-keyboard-response","204","483447","0.0-14.0-0.0-0.95","61687f5d4bd5b7730a608ac3","6186fb1cc52d38b480598eb7","61872fc5edc2d45540f78283","null","","null","","","","","fixation","","","",""
"","","","","","visual-search-circle","205","485478","0.0-14.0-0.0-1.95","61687f5d4bd5b7730a608ac3","6186fb1cc52d38b480598eb7","61872fc5edc2d45540f78283","1025.7000000476837","","s","true","[[588,382],[467,51],[115,63],[18,402],[310,599]]","false","5","","","img/Fire_Up_Target.gif","[""img/Fire_Down_Distractor.gif"",""img/Fire_Down_Distractor.gif"",""img/Fire_Down_Distractor.gif"",""img/Fire_Down_Distractor.gif"",""img/Fire_Down_Distractor.gif"",""img/Fire_Down_Distractor.gif"",""img/Fire_Down_Distractor.gif"",""img/Fire_Down_Distractor.gif"",""img/Fire_Down_Distractor.gif"",""img/Fire_Down_Distractor.gif"",""img/Fire_Down_Distractor.gif"",""img/Fire_Down_Distractor.gif""]","targetUp_distractorsDown"
"","","","","","html-keyboard-response","206","485480","0.0-14.0-0.0-0.96","61687f5d4bd5b7730a608ac3","6186fb1cc52d38b480598eb7","61872fc5edc2d45540f78283","null","","null","","","","","fixation","","","",""
"","","","","","visual-search-circle","207","487399","0.0-14.0-0.0-1.96","61687f5d4bd5b7730a608ac3","6186fb1cc52d38b480598eb7","61872fc5edc2d45540f78283","904.3999998569489","","s","true","[[0,315],[222,589],[551,463],[533,111],[192,19]]","false","5","","","img/Fire_Down_Target.gif","[""img/Fire_Up_Distractor.gif"",""img/Fire_Up_Distractor.gif"",""img/Fire_Up_Distractor.gif"",""img/Fire_Up_Distractor.gif"",""img/Fire_Up_Distractor.gif"",""img/Fire_Up_Distractor.gif"",""img/Fire_Up_Distractor.gif"",""img/Fire_Up_Distractor.gif"",""img/Fire_Up_Distractor.gif"",""img/Fire_Up_Distractor.gif"",""img/Fire_Up_Distractor.gif"",""img/Fire_Up_Distractor.gif""]","targetDown_distractorsUp"
"","","","","","html-keyboard-response","208","487401","0.0-14.0-0.0-0.97","61687f5d4bd5b7730a608ac3","6186fb1cc52d38b480598eb7","61872fc5edc2d45540f78283","null","","null","","","","","fixation","","","",""
"","","","","","visual-search-circle","209","489935","0.0-14.0-0.0-1.97","61687f5d4bd5b7730a608ac3","6186fb1cc52d38b480598eb7","61872fc5edc2d45540f78283","1509.5","","d","true","[[197,581],[456,555],[597,337],[514,90],[270,1],[47,137],[15,395]]","true","7","","","img/Fire_Up_Target.gif","[""img/Fire_Down_Distractor.gif"",""img/Fire_Down_Distractor.gif"",""img/Fire_Down_Distractor.gif"",""img/Fire_Down_Distractor.gif"",""img/Fire_Down_Distractor.gif"",""img/Fire_Down_Distractor.gif"",""img/Fire_Down_Distractor.gif"",""img/Fire_Down_Distractor.gif"",""img/Fire_Down_Distractor.gif"",""img/Fire_Down_Distractor.gif"",""img/Fire_Down_Distractor.gif"",""img/Fire_Down_Distractor.gif""]","targetUp_distractorsDown"
"","","","","","html-keyboard-response","210","489942","0.0-14.0-0.0-0.98","61687f5d4bd5b7730a608ac3","6186fb1cc52d38b480598eb7","61872fc5edc2d45540f78283","null","","null","","","","","fixation","","","",""
"","","","","","visual-search-circle","211","492115","0.0-14.0-0.0-1.98","61687f5d4bd5b7730a608ac3","6186fb1cc52d38b480598eb7","61872fc5edc2d45540f78283","1161.3999998569489","","s","true","[[28,426],[229,591],[484,536],[599,303],[489,67],[236,6],[31,166]]","false","7","","","img/Fire_Down_Target.gif","[""img/Fire_Up_Distractor.gif"",""img/Fire_Up_Distractor.gif"",""img/Fire_Up_Distractor.gif"",""img/Fire_Up_Distractor.gif"",""img/Fire_Up_Distractor.gif"",""img/Fire_Up_Distractor.gif"",""img/Fire_Up_Distractor.gif"",""img/Fire_Up_Distractor.gif"",""img/Fire_Up_Distractor.gif"",""img/Fire_Up_Distractor.gif"",""img/Fire_Up_Distractor.gif"",""img/Fire_Up_Distractor.gif""]","targetDown_distractorsUp"
"","","","","","html-keyboard-response","212","498219","0.0-14.0-0.0-0.99","61687f5d4bd5b7730a608ac3","6186fb1cc52d38b480598eb7","61872fc5edc2d45540f78283","6103.5","Wow! You've completed 100 out of 120 trials! </p> <p>  </p><p> Take a quick break, then press any key when you're ready to continue."," ","","","","","fixation","","","",""
"","","","","","visual-search-circle","213","500431","0.0-14.0-0.0-1.99","61687f5d4bd5b7730a608ac3","6186fb1cc52d38b480598eb7","61872fc5edc2d45540f78283","1205.2000000476837","","s","true","[[2,336],[182,576],[480,539],[597,263],[417,23],[119,60]]","false","6","","","img/Fire_Up_Target.gif","[""img/Fire_Down_Distractor.gif"",""img/Fire_Down_Distractor.gif"",""img/Fire_Down_Distractor.gif"",""img/Fire_Down_Distractor.gif"",""img/Fire_Down_Distractor.gif"",""img/Fire_Down_Distractor.gif"",""img/Fire_Down_Distractor.gif"",""img/Fire_Down_Distractor.gif"",""img/Fire_Down_Distractor.gif"",""img/Fire_Down_Distractor.gif"",""img/Fire_Down_Distractor.gif"",""img/Fire_Down_Distractor.gif""]","targetUp_distractorsDown"
"","","","","","html-keyboard-response","214","500439","0.0-14.0-0.0-0.100","61687f5d4bd5b7730a608ac3","6186fb1cc52d38b480598eb7","61872fc5edc2d45540f78283","null","","null","","","","","fixation","","","",""
"","","","","","visual-search-circle","215","502373","0.0-14.0-0.0-1.100","61687f5d4bd5b7730a608ac3","6186fb1cc52d38b480598eb7","61872fc5edc2d45540f78283","928.7999999523163","","s","true","[[84,508],[508,515],[515,91],[91,84]]","false","4","","","img/Fire_Down_Target.gif","[""img/Fire_Up_Distractor.gif"",""img/Fire_Up_Distractor.gif"",""img/Fire_Up_Distractor.gif"",""img/Fire_Up_Distractor.gif"",""img/Fire_Up_Distractor.gif"",""img/Fire_Up_Distractor.gif"",""img/Fire_Up_Distractor.gif"",""img/Fire_Up_Distractor.gif"",""img/Fire_Up_Distractor.gif"",""img/Fire_Up_Distractor.gif"",""img/Fire_Up_Distractor.gif"",""img/Fire_Up_Distractor.gif""]","targetDown_distractorsUp"
"","","","","","html-keyboard-response","216","502374","0.0-14.0-0.0-0.101","61687f5d4bd5b7730a608ac3","6186fb1cc52d38b480598eb7","61872fc5edc2d45540f78283","null","","null","","","","","fixation","","","",""
"","","","","","visual-search-circle","217","504383","0.0-14.0-0.0-1.101","61687f5d4bd5b7730a608ac3","6186fb1cc52d38b480598eb7","61872fc5edc2d45540f78283","1005.1000001430511","","d","true","[[107,529],[529,492],[492,70],[70,107]]","true","4","","","img/Fire_Up_Target.gif","[""img/Fire_Down_Distractor.gif"",""img/Fire_Down_Distractor.gif"",""img/Fire_Down_Distractor.gif"",""img/Fire_Down_Distractor.gif"",""img/Fire_Down_Distractor.gif"",""img/Fire_Down_Distractor.gif"",""img/Fire_Down_Distractor.gif"",""img/Fire_Down_Distractor.gif"",""img/Fire_Down_Distractor.gif"",""img/Fire_Down_Distractor.gif"",""img/Fire_Down_Distractor.gif"",""img/Fire_Down_Distractor.gif""]","targetUp_distractorsDown"
"","","","","","html-keyboard-response","218","504391","0.0-14.0-0.0-0.102","61687f5d4bd5b7730a608ac3","6186fb1cc52d38b480598eb7","61872fc5edc2d45540f78283","null","","null","","","","","fixation","","","",""
"","","","","","visual-search-circle","219","506671","0.0-14.0-0.0-1.102","61687f5d4bd5b7730a608ac3","6186fb1cc52d38b480598eb7","61872fc5edc2d45540f78283","1275.7999999523163","","d","true","[[8,372],[175,572],[435,567],[593,360],[530,108],[294,0],[61,117]]","true","7","","","img/Fire_Up_Target.gif","[""img/Fire_Down_Distractor.gif"",""img/Fire_Down_Distractor.gif"",""img/Fire_Down_Distractor.gif"",""img/Fire_Down_Distractor.gif"",""img/Fire_Down_Distractor.gif"",""img/Fire_Down_Distractor.gif"",""img/Fire_Down_Distractor.gif"",""img/Fire_Down_Distractor.gif"",""img/Fire_Down_Distractor.gif"",""img/Fire_Down_Distractor.gif"",""img/Fire_Down_Distractor.gif"",""img/Fire_Down_Distractor.gif""]","targetUp_distractorsDown"
"","","","","","html-keyboard-response","220","506673","0.0-14.0-0.0-0.103","61687f5d4bd5b7730a608ac3","6186fb1cc52d38b480598eb7","61872fc5edc2d45540f78283","null","","null","","","","","fixation","","","",""
"","","","","","visual-search-circle","221","508434","0.0-14.0-0.0-1.103","61687f5d4bd5b7730a608ac3","6186fb1cc52d38b480598eb7","61872fc5edc2d45540f78283","749.6000001430511","","s","true","[[23,417],[326,598],[592,367],[454,42],[103,73]]","false","5","","","img/Fire_Down_Target.gif","[""img/Fire_Up_Distractor.gif"",""img/Fire_Up_Distractor.gif"",""img/Fire_Up_Distractor.gif"",""img/Fire_Up_Distractor.gif"",""img/Fire_Up_Distractor.gif"",""img/Fire_Up_Distractor.gif"",""img/Fire_Up_Distractor.gif"",""img/Fire_Up_Distractor.gif"",""img/Fire_Up_Distractor.gif"",""img/Fire_Up_Distractor.gif"",""img/Fire_Up_Distractor.gif"",""img/Fire_Up_Distractor.gif""]","targetDown_distractorsUp"
