"success","timeout","failed_images","failed_audio","failed_video","trial_type","trial_index","time_elapsed","internal_node_id","subject_id","study_id","session_id","rt","stimulus","response","correct","locations","target_present","set_size","task","correct_response","target","foilCM","searchCondition"
"true","false","[]","[]","[]","preload","0","17236","0.0-0.0","616faf3ab8c53e7a73a5dea5","6186fb1cc52d38b480598eb7","61872fdf7d2baf4c343bb995","","","","","","","","","","","",""
"true","","","","","fullscreen","1","20544","0.0-1.0","616faf3ab8c53e7a73a5dea5","6186fb1cc52d38b480598eb7","61872fdf7d2baf4c343bb995","","","","","","","","","","","",""
"","","","","","html-keyboard-response","2","28481","0.0-2.0","616faf3ab8c53e7a73a5dea5","6186fb1cc52d38b480598eb7","61872fdf7d2baf4c343bb995","7935","What a beautiful Saturday to do some awesome science! </p> <p>  </p><p> </p>
    By completing this survey or questionnaire, you are consenting to be in this research study. </p>
    Your participation is voluntary and you can stop at any time.
    <p> [Press any key to continue.] </p>
    
    "," ","","","","","","","","",""
"","","","","","video-keyboard-response","3","43066","0.0-3.0","616faf3ab8c53e7a73a5dea5","6186fb1cc52d38b480598eb7","61872fdf7d2baf4c343bb995","14579.40000000596","[""video/TaskInstructions.mp4""]"," ","","","","","","","","",""
"","","","","","html-keyboard-response","4","44911","0.0-4.0","616faf3ab8c53e7a73a5dea5","6186fb1cc52d38b480598eb7","61872fdf7d2baf4c343bb995","1844","
    <p>First, we're going to do a few practice trials to make sure you understand the task. You will recieve feedback on each trial. </p>

    <p>[Press any key to begin the familiarization phase.]</p>
    "," ","","","","","","","","",""
"","","","","","visual-search-circle","5","50140","0.0-5.0-0.0","616faf3ab8c53e7a73a5dea5","6186fb1cc52d38b480598eb7","61872fdf7d2baf4c343bb995","4171.300000011921","","s","false","[[28,426],[426,571],[571,173],[173,28]]","true","4","training","d","","",""
"","","","","","html-keyboard-response","6","55017","0.0-6.0","616faf3ab8c53e7a73a5dea5","6186fb1cc52d38b480598eb7","61872fdf7d2baf4c343bb995","4875.299999982119"," <div style='float: center;'><img src='img/feedbackWrong.png'></img> </div> "," ","","","","","","","","",""
"","","","","","visual-search-circle","7","57873","0.0-7.0-0.0","616faf3ab8c53e7a73a5dea5","6186fb1cc52d38b480598eb7","61872fdf7d2baf4c343bb995","1846.0999999940395","","d","false","[[227,8],[8,372],[372,591],[591,227]]","false","4","training","s","","",""
"","","","","","html-keyboard-response","8","64455","0.0-8.0","616faf3ab8c53e7a73a5dea5","6186fb1cc52d38b480598eb7","61872fdf7d2baf4c343bb995","6581.299999982119"," <div style='float: center;'><img src='img/feedbackWrong.png'></img> </div> ","d","","","","","","","","",""
"","","","","","visual-search-circle","9","67882","0.0-9.0-0.0","616faf3ab8c53e7a73a5dea5","6186fb1cc52d38b480598eb7","61872fdf7d2baf4c343bb995","2416.600000023842","","s","true","[[512,512],[589,222],[377,10],[87,87],[10,377],[222,589]]","false","6","training","s","","",""
"","","","","","html-keyboard-response","10","69639","0.0-10.0","616faf3ab8c53e7a73a5dea5","6186fb1cc52d38b480598eb7","61872fdf7d2baf4c343bb995","1756.199999988079"," <div style='float: center; '><img src='img/feedbackRight.png'></img> </div> ","d","","","","","","","","",""
"","","","","","visual-search-circle","11","72251","0.0-11.0-0.0","616faf3ab8c53e7a73a5dea5","6186fb1cc52d38b480598eb7","61872fdf7d2baf4c343bb995","1597.699999988079","","d","true","[[492,529],[598,326],[529,107],[326,1],[107,70],[1,273],[70,492],[273,598]]","true","8","training","d","","",""
"","","","","","html-keyboard-response","12","73125","0.0-12.0","616faf3ab8c53e7a73a5dea5","6186fb1cc52d38b480598eb7","61872fdf7d2baf4c343bb995","873.5"," <div style='float: center; '><img src='img/feedbackRight.png'></img> </div> ","d","","","","","","","","",""
"","","","","","video-keyboard-response","13","75406","0.0-13.0","616faf3ab8c53e7a73a5dea5","6186fb1cc52d38b480598eb7","61872fdf7d2baf4c343bb995","2278.5","[""video/endTraining.mp4""]","d","","","","","","","","",""
"","","","","","html-keyboard-response","14","75408","0.0-14.0-0.0-0.0","616faf3ab8c53e7a73a5dea5","6186fb1cc52d38b480598eb7","61872fdf7d2baf4c343bb995","null","","null","","","","","fixation","","","",""
"","","","","","visual-search-circle","15","78386","0.0-14.0-0.0-1.0","616faf3ab8c53e7a73a5dea5","6186fb1cc52d38b480598eb7","61872fdf7d2baf4c343bb995","1968.800000011921","","d","true","[[202,16],[0,305],[212,586],[545,472],[539,119]]","true","5","","","img/Fire_Up_Target.gif","[""img/Fire_Down_Distractor.gif"",""img/Fire_Down_Distractor.gif"",""img/Fire_Down_Distractor.gif"",""img/Fire_Down_Distractor.gif"",""img/Fire_Down_Distractor.gif"",""img/Fire_Down_Distractor.gif"",""img/Fire_Down_Distractor.gif"",""img/Fire_Down_Distractor.gif"",""img/Fire_Down_Distractor.gif"",""img/Fire_Down_Distractor.gif"",""img/Fire_Down_Distractor.gif"",""img/Fire_Down_Distractor.gif""]","targetUp_distractorsDown"
"","","","","","html-keyboard-response","16","78388","0.0-14.0-0.0-0.1","616faf3ab8c53e7a73a5dea5","6186fb1cc52d38b480598eb7","61872fdf7d2baf4c343bb995","null","","null","","","","","fixation","","","",""
"","","","","","visual-search-circle","17","81064","0.0-14.0-0.0-1.1","616faf3ab8c53e7a73a5dea5","6186fb1cc52d38b480598eb7","61872fdf7d2baf4c343bb995","1664.7000000178814","","s","true","[[141,554],[492,529],[578,187],[279,0],[8,227]]","false","5","","","img/Fire_Down_Target.gif","[""img/Fire_Up_Distractor.gif"",""img/Fire_Up_Distractor.gif"",""img/Fire_Up_Distractor.gif"",""img/Fire_Up_Distractor.gif"",""img/Fire_Up_Distractor.gif"",""img/Fire_Up_Distractor.gif"",""img/Fire_Up_Distractor.gif"",""img/Fire_Up_Distractor.gif"",""img/Fire_Up_Distractor.gif"",""img/Fire_Up_Distractor.gif"",""img/Fire_Up_Distractor.gif"",""img/Fire_Up_Distractor.gif""]","targetDown_distractorsUp"
"","","","","","html-keyboard-response","18","81065","0.0-14.0-0.0-0.2","616faf3ab8c53e7a73a5dea5","6186fb1cc52d38b480598eb7","61872fdf7d2baf4c343bb995","null","","null","","","","","fixation","","","",""
"","","","","","visual-search-circle","19","83147","0.0-14.0-0.0-1.2","616faf3ab8c53e7a73a5dea5","6186fb1cc52d38b480598eb7","61872fdf7d2baf4c343bb995","1060.7000000178814","","d","true","[[0,315],[222,589],[551,463],[533,111],[192,19]]","true","5","","","img/Fire_Down_Target.gif","[""img/Fire_Up_Distractor.gif"",""img/Fire_Up_Distractor.gif"",""img/Fire_Up_Distractor.gif"",""img/Fire_Up_Distractor.gif"",""img/Fire_Up_Distractor.gif"",""img/Fire_Up_Distractor.gif"",""img/Fire_Up_Distractor.gif"",""img/Fire_Up_Distractor.gif"",""img/Fire_Up_Distractor.gif"",""img/Fire_Up_Distractor.gif"",""img/Fire_Up_Distractor.gif"",""img/Fire_Up_Distractor.gif""]","targetDown_distractorsUp"
"","","","","","html-keyboard-response","20","83149","0.0-14.0-0.0-0.3","616faf3ab8c53e7a73a5dea5","6186fb1cc52d38b480598eb7","61872fdf7d2baf4c343bb995","null","","null","","","","","fixation","","","",""
"","","","","","visual-search-circle","21","86873","0.0-14.0-0.0-1.3","616faf3ab8c53e7a73a5dea5","6186fb1cc52d38b480598eb7","61872fdf7d2baf4c343bb995","2712.7000000178814","","d","true","[[294,599],[583,397],[480,60],[127,54],[13,387]]","true","5","","","img/Fire_Up_Target.gif","[""img/Fire_Down_Distractor.gif"",""img/Fire_Down_Distractor.gif"",""img/Fire_Down_Distractor.gif"",""img/Fire_Down_Distractor.gif"",""img/Fire_Down_Distractor.gif"",""img/Fire_Down_Distractor.gif"",""img/Fire_Down_Distractor.gif"",""img/Fire_Down_Distractor.gif"",""img/Fire_Down_Distractor.gif"",""img/Fire_Down_Distractor.gif"",""img/Fire_Down_Distractor.gif"",""img/Fire_Down_Distractor.gif""]","targetUp_distractorsDown"
"","","","","","html-keyboard-response","22","86875","0.0-14.0-0.0-0.4","616faf3ab8c53e7a73a5dea5","6186fb1cc52d38b480598eb7","61872fdf7d2baf4c343bb995","null","","null","","","","","fixation","","","",""
"","","","","","visual-search-circle","23","89014","0.0-14.0-0.0-1.4","616faf3ab8c53e7a73a5dea5","6186fb1cc52d38b480598eb7","61872fdf7d2baf4c343bb995","1127.7000000178814","","s","true","[[30,431],[341,597],[595,352],[440,35],[91,84]]","false","5","","","img/Fire_Up_Target.gif","[""img/Fire_Down_Distractor.gif"",""img/Fire_Down_Distractor.gif"",""img/Fire_Down_Distractor.gif"",""img/Fire_Down_Distractor.gif"",""img/Fire_Down_Distractor.gif"",""img/Fire_Down_Distractor.gif"",""img/Fire_Down_Distractor.gif"",""img/Fire_Down_Distractor.gif"",""img/Fire_Down_Distractor.gif"",""img/Fire_Down_Distractor.gif"",""img/Fire_Down_Distractor.gif"",""img/Fire_Down_Distractor.gif""]","targetUp_distractorsDown"
"","","","","","html-keyboard-response","24","89015","0.0-14.0-0.0-0.5","616faf3ab8c53e7a73a5dea5","6186fb1cc52d38b480598eb7","61872fdf7d2baf4c343bb995","null","","null","","","","","fixation","","","",""
"","","","","","visual-search-circle","25","90963","0.0-14.0-0.0-1.5","616faf3ab8c53e7a73a5dea5","6186fb1cc52d38b480598eb7","61872fdf7d2baf4c343bb995","937.6000000238419","","d","true","[[0,294],[202,583],[539,480],[545,127],[212,13]]","true","5","","","img/Fire_Down_Target.gif","[""img/Fire_Up_Distractor.gif"",""img/Fire_Up_Distractor.gif"",""img/Fire_Up_Distractor.gif"",""img/Fire_Up_Distractor.gif"",""img/Fire_Up_Distractor.gif"",""img/Fire_Up_Distractor.gif"",""img/Fire_Up_Distractor.gif"",""img/Fire_Up_Distractor.gif"",""img/Fire_Up_Distractor.gif"",""img/Fire_Up_Distractor.gif"",""img/Fire_Up_Distractor.gif"",""img/Fire_Up_Distractor.gif""]","targetDown_distractorsUp"
"","","","","","html-keyboard-response","26","90965","0.0-14.0-0.0-0.6","616faf3ab8c53e7a73a5dea5","6186fb1cc52d38b480598eb7","61872fdf7d2baf4c343bb995","null","","null","","","","","fixation","","","",""
"","","","","","visual-search-circle","27","92858","0.0-14.0-0.0-1.6","616faf3ab8c53e7a73a5dea5","6186fb1cc52d38b480598eb7","61872fdf7d2baf4c343bb995","879.6000000238419","","s","true","[[599,279],[470,52],[213,12],[21,189],[39,448],[253,596],[502,520]]","false","7","","","img/Fire_Down_Target.gif","[""img/Fire_Up_Distractor.gif"",""img/Fire_Up_Distractor.gif"",""img/Fire_Up_Distractor.gif"",""img/Fire_Up_Distractor.gif"",""img/Fire_Up_Distractor.gif"",""img/Fire_Up_Distractor.gif"",""img/Fire_Up_Distractor.gif"",""img/Fire_Up_Distractor.gif"",""img/Fire_Up_Distractor.gif"",""img/Fire_Up_Distractor.gif"",""img/Fire_Up_Distractor.gif"",""img/Fire_Up_Distractor.gif""]","targetDown_distractorsUp"
"","","","","","html-keyboard-response","28","92861","0.0-14.0-0.0-0.7","616faf3ab8c53e7a73a5dea5","6186fb1cc52d38b480598eb7","61872fdf7d2baf4c343bb995","null","","null","","","","","fixation","","","",""
"","","","","","visual-search-circle","29","97662","0.0-14.0-0.0-1.7","616faf3ab8c53e7a73a5dea5","6186fb1cc52d38b480598eb7","61872fdf7d2baf4c343bb995","3786.9000000059605","","d","true","[[217,11],[37,154],[11,382],[154,562],[382,588],[562,445],[588,217],[445,37]]","true","8","","","img/Fire_Down_Target.gif","[""img/Fire_Up_Distractor.gif"",""img/Fire_Up_Distractor.gif"",""img/Fire_Up_Distractor.gif"",""img/Fire_Up_Distractor.gif"",""img/Fire_Up_Distractor.gif"",""img/Fire_Up_Distractor.gif"",""img/Fire_Up_Distractor.gif"",""img/Fire_Up_Distractor.gif"",""img/Fire_Up_Distractor.gif"",""img/Fire_Up_Distractor.gif"",""img/Fire_Up_Distractor.gif"",""img/Fire_Up_Distractor.gif""]","targetDown_distractorsUp"
"","","","","","html-keyboard-response","30","97664","0.0-14.0-0.0-0.8","616faf3ab8c53e7a73a5dea5","6186fb1cc52d38b480598eb7","61872fdf7d2baf4c343bb995","null","","null","","","","","fixation","","","",""
"","","","","","visual-search-circle","31","100332","0.0-14.0-0.0-1.8","616faf3ab8c53e7a73a5dea5","6186fb1cc52d38b480598eb7","61872fdf7d2baf4c343bb995","1653.7999999821186","","s","true","[[310,599],[519,504],[599,289],[504,80],[289,0],[80,95],[0,310],[95,519]]","false","8","","","img/Fire_Up_Target.gif","[""img/Fire_Down_Distractor.gif"",""img/Fire_Down_Distractor.gif"",""img/Fire_Down_Distractor.gif"",""img/Fire_Down_Distractor.gif"",""img/Fire_Down_Distractor.gif"",""img/Fire_Down_Distractor.gif"",""img/Fire_Down_Distractor.gif"",""img/Fire_Down_Distractor.gif"",""img/Fire_Down_Distractor.gif"",""img/Fire_Down_Distractor.gif"",""img/Fire_Down_Distractor.gif"",""img/Fire_Down_Distractor.gif""]","targetUp_distractorsDown"
"","","","","","html-keyboard-response","32","100334","0.0-14.0-0.0-0.9","616faf3ab8c53e7a73a5dea5","6186fb1cc52d38b480598eb7","61872fdf7d2baf4c343bb995","null","","null","","","","","fixation","","","",""
"","","","","","visual-search-circle","33","102500","0.0-14.0-0.0-1.9","616faf3ab8c53e7a73a5dea5","6186fb1cc52d38b480598eb7","61872fdf7d2baf4c343bb995","1152.5999999940395","","s","true","[[564,440],[575,180],[378,10],[122,58],[0,288],[103,526],[355,594]]","false","7","","","img/Fire_Up_Target.gif","[""img/Fire_Down_Distractor.gif"",""img/Fire_Down_Distractor.gif"",""img/Fire_Down_Distractor.gif"",""img/Fire_Down_Distractor.gif"",""img/Fire_Down_Distractor.gif"",""img/Fire_Down_Distractor.gif"",""img/Fire_Down_Distractor.gif"",""img/Fire_Down_Distractor.gif"",""img/Fire_Down_Distractor.gif"",""img/Fire_Down_Distractor.gif"",""img/Fire_Down_Distractor.gif"",""img/Fire_Down_Distractor.gif""]","targetUp_distractorsDown"
"","","","","","html-keyboard-response","34","102501","0.0-14.0-0.0-0.10","616faf3ab8c53e7a73a5dea5","6186fb1cc52d38b480598eb7","61872fdf7d2baf4c343bb995","null","","null","","","","","fixation","","","",""
"","","","","","visual-search-circle","35","104472","0.0-14.0-0.0-1.10","616faf3ab8c53e7a73a5dea5","6186fb1cc52d38b480598eb7","61872fdf7d2baf4c343bb995","960.9000000059605","","d","true","[[596,253],[253,3],[3,346],[346,596]]","true","4","","","img/Fire_Up_Target.gif","[""img/Fire_Down_Distractor.gif"",""img/Fire_Down_Distractor.gif"",""img/Fire_Down_Distractor.gif"",""img/Fire_Down_Distractor.gif"",""img/Fire_Down_Distractor.gif"",""img/Fire_Down_Distractor.gif"",""img/Fire_Down_Distractor.gif"",""img/Fire_Down_Distractor.gif"",""img/Fire_Down_Distractor.gif"",""img/Fire_Down_Distractor.gif"",""img/Fire_Down_Distractor.gif"",""img/Fire_Down_Distractor.gif""]","targetUp_distractorsDown"
"","","","","","html-keyboard-response","36","104474","0.0-14.0-0.0-0.11","616faf3ab8c53e7a73a5dea5","6186fb1cc52d38b480598eb7","61872fdf7d2baf4c343bb995","null","","null","","","","","fixation","","","",""
"","","","","","visual-search-circle","37","106382","0.0-14.0-0.0-1.11","616faf3ab8c53e7a73a5dea5","6186fb1cc52d38b480598eb7","61872fdf7d2baf4c343bb995","895.5","","d","true","[[284,599],[500,522],[599,315],[522,99],[315,0],[99,77],[0,284],[77,500]]","true","8","","","img/Fire_Up_Target.gif","[""img/Fire_Down_Distractor.gif"",""img/Fire_Down_Distractor.gif"",""img/Fire_Down_Distractor.gif"",""img/Fire_Down_Distractor.gif"",""img/Fire_Down_Distractor.gif"",""img/Fire_Down_Distractor.gif"",""img/Fire_Down_Distractor.gif"",""img/Fire_Down_Distractor.gif"",""img/Fire_Down_Distractor.gif"",""img/Fire_Down_Distractor.gif"",""img/Fire_Down_Distractor.gif"",""img/Fire_Down_Distractor.gif""]","targetUp_distractorsDown"
"","","","","","html-keyboard-response","38","106384","0.0-14.0-0.0-0.12","616faf3ab8c53e7a73a5dea5","6186fb1cc52d38b480598eb7","61872fdf7d2baf4c343bb995","null","","null","","","","","fixation","","","",""
"","","","","","visual-search-circle","39","108576","0.0-14.0-0.0-1.12","616faf3ab8c53e7a73a5dea5","6186fb1cc52d38b480598eb7","61872fdf7d2baf4c343bb995","1183.199999988079","","s","true","[[182,23],[11,219],[56,475],[285,599],[525,497],[595,247],[442,36]]","false","7","","","img/Fire_Down_Target.gif","[""img/Fire_Up_Distractor.gif"",""img/Fire_Up_Distractor.gif"",""img/Fire_Up_Distractor.gif"",""img/Fire_Up_Distractor.gif"",""img/Fire_Up_Distractor.gif"",""img/Fire_Up_Distractor.gif"",""img/Fire_Up_Distractor.gif"",""img/Fire_Up_Distractor.gif"",""img/Fire_Up_Distractor.gif"",""img/Fire_Up_Distractor.gif"",""img/Fire_Up_Distractor.gif"",""img/Fire_Up_Distractor.gif""]","targetDown_distractorsUp"
"","","","","","html-keyboard-response","40","108578","0.0-14.0-0.0-0.13","616faf3ab8c53e7a73a5dea5","6186fb1cc52d38b480598eb7","61872fdf7d2baf4c343bb995","null","","null","","","","","fixation","","","",""
"","","","","","visual-search-circle","41","110684","0.0-14.0-0.0-1.13","616faf3ab8c53e7a73a5dea5","6186fb1cc52d38b480598eb7","61872fdf7d2baf4c343bb995","1096.5","","s","true","[[0,299],[299,600],[600,300],[300,0]]","false","4","","","img/Fire_Down_Target.gif","[""img/Fire_Up_Distractor.gif"",""img/Fire_Up_Distractor.gif"",""img/Fire_Up_Distractor.gif"",""img/Fire_Up_Distractor.gif"",""img/Fire_Up_Distractor.gif"",""img/Fire_Up_Distractor.gif"",""img/Fire_Up_Distractor.gif"",""img/Fire_Up_Distractor.gif"",""img/Fire_Up_Distractor.gif"",""img/Fire_Up_Distractor.gif"",""img/Fire_Up_Distractor.gif"",""img/Fire_Up_Distractor.gif""]","targetDown_distractorsUp"
"","","","","","html-keyboard-response","42","110686","0.0-14.0-0.0-0.14","616faf3ab8c53e7a73a5dea5","6186fb1cc52d38b480598eb7","61872fdf7d2baf4c343bb995","null","","null","","","","","fixation","","","",""
"","","","","","visual-search-circle","43","113347","0.0-14.0-0.0-1.14","616faf3ab8c53e7a73a5dea5","6186fb1cc52d38b480598eb7","61872fdf7d2baf4c343bb995","1652.699999988079","","d","false","[[263,597],[539,480],[576,182],[336,2],[60,119],[23,417]]","false","6","","","img/Fire_Up_Target.gif","[""img/Fire_Down_Distractor.gif"",""img/Fire_Down_Distractor.gif"",""img/Fire_Down_Distractor.gif"",""img/Fire_Down_Distractor.gif"",""img/Fire_Down_Distractor.gif"",""img/Fire_Down_Distractor.gif"",""img/Fire_Down_Distractor.gif"",""img/Fire_Down_Distractor.gif"",""img/Fire_Down_Distractor.gif"",""img/Fire_Down_Distractor.gif"",""img/Fire_Down_Distractor.gif"",""img/Fire_Down_Distractor.gif""]","targetUp_distractorsDown"
"","","","","","html-keyboard-response","44","113350","0.0-14.0-0.0-0.15","616faf3ab8c53e7a73a5dea5","6186fb1cc52d38b480598eb7","61872fdf7d2baf4c343bb995","null","","null","","","","","fixation","","","",""
"","","","","","visual-search-circle","45","116888","0.0-14.0-0.0-1.15","616faf3ab8c53e7a73a5dea5","6186fb1cc52d38b480598eb7","61872fdf7d2baf4c343bb995","2529","","s","true","[[458,45],[159,35],[0,289],[141,554],[440,564],[599,310]]","false","6","","","img/Fire_Up_Target.gif","[""img/Fire_Down_Distractor.gif"",""img/Fire_Down_Distractor.gif"",""img/Fire_Down_Distractor.gif"",""img/Fire_Down_Distractor.gif"",""img/Fire_Down_Distractor.gif"",""img/Fire_Down_Distractor.gif"",""img/Fire_Down_Distractor.gif"",""img/Fire_Down_Distractor.gif"",""img/Fire_Down_Distractor.gif"",""img/Fire_Down_Distractor.gif"",""img/Fire_Down_Distractor.gif"",""img/Fire_Down_Distractor.gif""]","targetUp_distractorsDown"
"","","","","","html-keyboard-response","46","116890","0.0-14.0-0.0-0.16","616faf3ab8c53e7a73a5dea5","6186fb1cc52d38b480598eb7","61872fdf7d2baf4c343bb995","null","","null","","","","","fixation","","","",""
"","","","","","visual-search-circle","47","119034","0.0-14.0-0.0-1.16","616faf3ab8c53e7a73a5dea5","6186fb1cc52d38b480598eb7","61872fdf7d2baf4c343bb995","1130.4000000059605","","d","false","[[412,21],[152,38],[3,252],[78,501],[319,599],[546,471],[587,214]]","false","7","","","img/Fire_Down_Target.gif","[""img/Fire_Up_Distractor.gif"",""img/Fire_Up_Distractor.gif"",""img/Fire_Up_Distractor.gif"",""img/Fire_Up_Distractor.gif"",""img/Fire_Up_Distractor.gif"",""img/Fire_Up_Distractor.gif"",""img/Fire_Up_Distractor.gif"",""img/Fire_Up_Distractor.gif"",""img/Fire_Up_Distractor.gif"",""img/Fire_Up_Distractor.gif"",""img/Fire_Up_Distractor.gif"",""img/Fire_Up_Distractor.gif""]","targetDown_distractorsUp"
"","","","","","html-keyboard-response","48","119036","0.0-14.0-0.0-0.17","616faf3ab8c53e7a73a5dea5","6186fb1cc52d38b480598eb7","61872fdf7d2baf4c343bb995","null","","null","","","","","fixation","","","",""
"","","","","","visual-search-circle","49","121201","0.0-14.0-0.0-1.17","616faf3ab8c53e7a73a5dea5","6186fb1cc52d38b480598eb7","61872fdf7d2baf4c343bb995","1072.699999988079","","s","true","[[488,533],[598,331],[533,111],[331,1],[111,66],[1,268],[66,488],[268,598]]","false","8","","","img/Fire_Up_Target.gif","[""img/Fire_Down_Distractor.gif"",""img/Fire_Down_Distractor.gif"",""img/Fire_Down_Distractor.gif"",""img/Fire_Down_Distractor.gif"",""img/Fire_Down_Distractor.gif"",""img/Fire_Down_Distractor.gif"",""img/Fire_Down_Distractor.gif"",""img/Fire_Down_Distractor.gif"",""img/Fire_Down_Distractor.gif"",""img/Fire_Down_Distractor.gif"",""img/Fire_Down_Distractor.gif"",""img/Fire_Down_Distractor.gif""]","targetUp_distractorsDown"
"","","","","","html-keyboard-response","50","121202","0.0-14.0-0.0-0.18","616faf3ab8c53e7a73a5dea5","6186fb1cc52d38b480598eb7","61872fdf7d2baf4c343bb995","null","","null","","","","","fixation","","","",""
"","","","","","visual-search-circle","51","123654","0.0-14.0-0.0-1.18","616faf3ab8c53e7a73a5dea5","6186fb1cc52d38b480598eb7","61872fdf7d2baf4c343bb995","1445.199999988079","","s","true","[[476,57],[57,123],[123,542],[542,476]]","false","4","","","img/Fire_Down_Target.gif","[""img/Fire_Up_Distractor.gif"",""img/Fire_Up_Distractor.gif"",""img/Fire_Up_Distractor.gif"",""img/Fire_Up_Distractor.gif"",""img/Fire_Up_Distractor.gif"",""img/Fire_Up_Distractor.gif"",""img/Fire_Up_Distractor.gif"",""img/Fire_Up_Distractor.gif"",""img/Fire_Up_Distractor.gif"",""img/Fire_Up_Distractor.gif"",""img/Fire_Up_Distractor.gif"",""img/Fire_Up_Distractor.gif""]","targetDown_distractorsUp"
"","","","","","html-keyboard-response","52","126692","0.0-14.0-0.0-0.19","616faf3ab8c53e7a73a5dea5","6186fb1cc52d38b480598eb7","61872fdf7d2baf4c343bb995","3037.199999988079","Wow! You've completed 20 out of 120 trials! </p> <p>  </p><p> Take a quick break, then press any key when you're ready to continue."," ","","","","","fixation","","","",""
"","","","","","visual-search-circle","53","129131","0.0-14.0-0.0-1.19","616faf3ab8c53e7a73a5dea5","6186fb1cc52d38b480598eb7","61872fdf7d2baf4c343bb995","1425.5999999940395","","d","true","[[580,192],[346,3],[66,111],[19,407],[253,596],[533,488]]","true","6","","","img/Fire_Down_Target.gif","[""img/Fire_Up_Distractor.gif"",""img/Fire_Up_Distractor.gif"",""img/Fire_Up_Distractor.gif"",""img/Fire_Up_Distractor.gif"",""img/Fire_Up_Distractor.gif"",""img/Fire_Up_Distractor.gif"",""img/Fire_Up_Distractor.gif"",""img/Fire_Up_Distractor.gif"",""img/Fire_Up_Distractor.gif"",""img/Fire_Up_Distractor.gif"",""img/Fire_Up_Distractor.gif"",""img/Fire_Up_Distractor.gif""]","targetDown_distractorsUp"
"","","","","","html-keyboard-response","54","129132","0.0-14.0-0.0-0.20","616faf3ab8c53e7a73a5dea5","6186fb1cc52d38b480598eb7","61872fdf7d2baf4c343bb995","null","","null","","","","","fixation","","","",""
"","","","","","visual-search-circle","55","131487","0.0-14.0-0.0-1.20","616faf3ab8c53e7a73a5dea5","6186fb1cc52d38b480598eb7","61872fdf7d2baf4c343bb995","1343.800000011921","","s","true","[[25,177],[99,522],[450,559],[593,237],[331,1]]","false","5","","","img/Fire_Up_Target.gif","[""img/Fire_Down_Distractor.gif"",""img/Fire_Down_Distractor.gif"",""img/Fire_Down_Distractor.gif"",""img/Fire_Down_Distractor.gif"",""img/Fire_Down_Distractor.gif"",""img/Fire_Down_Distractor.gif"",""img/Fire_Down_Distractor.gif"",""img/Fire_Down_Distractor.gif"",""img/Fire_Down_Distractor.gif"",""img/Fire_Down_Distractor.gif"",""img/Fire_Down_Distractor.gif"",""img/Fire_Down_Distractor.gif""]","targetUp_distractorsDown"
"","","","","","html-keyboard-response","56","131489","0.0-14.0-0.0-0.21","616faf3ab8c53e7a73a5dea5","6186fb1cc52d38b480598eb7","61872fdf7d2baf4c343bb995","null","","null","","","","","fixation","","","",""
"","","","","","visual-search-circle","57","133902","0.0-14.0-0.0-1.21","616faf3ab8c53e7a73a5dea5","6186fb1cc52d38b480598eb7","61872fdf7d2baf4c343bb995","1402.5","","d","true","[[11,382],[382,588],[588,217],[217,11]]","true","4","","","img/Fire_Down_Target.gif","[""img/Fire_Up_Distractor.gif"",""img/Fire_Up_Distractor.gif"",""img/Fire_Up_Distractor.gif"",""img/Fire_Up_Distractor.gif"",""img/Fire_Up_Distractor.gif"",""img/Fire_Up_Distractor.gif"",""img/Fire_Up_Distractor.gif"",""img/Fire_Up_Distractor.gif"",""img/Fire_Up_Distractor.gif"",""img/Fire_Up_Distractor.gif"",""img/Fire_Up_Distractor.gif"",""img/Fire_Up_Distractor.gif""]","targetDown_distractorsUp"
"","","","","","html-keyboard-response","58","133905","0.0-14.0-0.0-0.22","616faf3ab8c53e7a73a5dea5","6186fb1cc52d38b480598eb7","61872fdf7d2baf4c343bb995","null","","null","","","","","fixation","","","",""
"","","","","","visual-search-circle","59","135696","0.0-14.0-0.0-1.22","616faf3ab8c53e7a73a5dea5","6186fb1cc52d38b480598eb7","61872fdf7d2baf4c343bb995","776","","d","true","[[551,136],[362,6],[136,48],[6,237],[48,463],[237,593],[463,551],[593,362]]","true","8","","","img/Fire_Up_Target.gif","[""img/Fire_Down_Distractor.gif"",""img/Fire_Down_Distractor.gif"",""img/Fire_Down_Distractor.gif"",""img/Fire_Down_Distractor.gif"",""img/Fire_Down_Distractor.gif"",""img/Fire_Down_Distractor.gif"",""img/Fire_Down_Distractor.gif"",""img/Fire_Down_Distractor.gif"",""img/Fire_Down_Distractor.gif"",""img/Fire_Down_Distractor.gif"",""img/Fire_Down_Distractor.gif"",""img/Fire_Down_Distractor.gif""]","targetUp_distractorsDown"
"","","","","","html-keyboard-response","60","135698","0.0-14.0-0.0-0.23","616faf3ab8c53e7a73a5dea5","6186fb1cc52d38b480598eb7","61872fdf7d2baf4c343bb995","null","","null","","","","","fixation","","","",""
"","","","","","visual-search-circle","61","137946","0.0-14.0-0.0-1.23","616faf3ab8c53e7a73a5dea5","6186fb1cc52d38b480598eb7","61872fdf7d2baf4c343bb995","1233.699999988079","","d","true","[[598,268],[488,66],[268,1],[66,111],[1,331],[111,533],[331,598],[533,488]]","true","8","","","img/Fire_Down_Target.gif","[""img/Fire_Up_Distractor.gif"",""img/Fire_Up_Distractor.gif"",""img/Fire_Up_Distractor.gif"",""img/Fire_Up_Distractor.gif"",""img/Fire_Up_Distractor.gif"",""img/Fire_Up_Distractor.gif"",""img/Fire_Up_Distractor.gif"",""img/Fire_Up_Distractor.gif"",""img/Fire_Up_Distractor.gif"",""img/Fire_Up_Distractor.gif"",""img/Fire_Up_Distractor.gif"",""img/Fire_Up_Distractor.gif""]","targetDown_distractorsUp"
"","","","","","html-keyboard-response","62","137948","0.0-14.0-0.0-0.24","616faf3ab8c53e7a73a5dea5","6186fb1cc52d38b480598eb7","61872fdf7d2baf4c343bb995","null","","null","","","","","fixation","","","",""
"","","","","","visual-search-circle","63","139922","0.0-14.0-0.0-1.24","616faf3ab8c53e7a73a5dea5","6186fb1cc52d38b480598eb7","61872fdf7d2baf4c343bb995","960.3000000119209","","s","true","[[16,397],[199,582],[458,554],[597,335],[513,88],[267,1],[46,139]]","false","7","","","img/Fire_Up_Target.gif","[""img/Fire_Down_Distractor.gif"",""img/Fire_Down_Distractor.gif"",""img/Fire_Down_Distractor.gif"",""img/Fire_Down_Distractor.gif"",""img/Fire_Down_Distractor.gif"",""img/Fire_Down_Distractor.gif"",""img/Fire_Down_Distractor.gif"",""img/Fire_Down_Distractor.gif"",""img/Fire_Down_Distractor.gif"",""img/Fire_Down_Distractor.gif"",""img/Fire_Down_Distractor.gif"",""img/Fire_Down_Distractor.gif""]","targetUp_distractorsDown"
"","","","","","html-keyboard-response","64","139923","0.0-14.0-0.0-0.25","616faf3ab8c53e7a73a5dea5","6186fb1cc52d38b480598eb7","61872fdf7d2baf4c343bb995","null","","null","","","","","fixation","","","",""
"","","","","","visual-search-circle","65","142128","0.0-14.0-0.0-1.25","616faf3ab8c53e7a73a5dea5","6186fb1cc52d38b480598eb7","61872fdf7d2baf4c343bb995","1191","","s","true","[[279,0],[52,129],[12,386],[189,578],[448,560],[596,346],[520,97]]","false","7","","","img/Fire_Down_Target.gif","[""img/Fire_Up_Distractor.gif"",""img/Fire_Up_Distractor.gif"",""img/Fire_Up_Distractor.gif"",""img/Fire_Up_Distractor.gif"",""img/Fire_Up_Distractor.gif"",""img/Fire_Up_Distractor.gif"",""img/Fire_Up_Distractor.gif"",""img/Fire_Up_Distractor.gif"",""img/Fire_Up_Distractor.gif"",""img/Fire_Up_Distractor.gif"",""img/Fire_Up_Distractor.gif"",""img/Fire_Up_Distractor.gif""]","targetDown_distractorsUp"
"","","","","","html-keyboard-response","66","142130","0.0-14.0-0.0-0.26","616faf3ab8c53e7a73a5dea5","6186fb1cc52d38b480598eb7","61872fdf7d2baf4c343bb995","null","","null","","","","","fixation","","","",""
"","","","","","visual-search-circle","67","144406","0.0-14.0-0.0-1.26","616faf3ab8c53e7a73a5dea5","6186fb1cc52d38b480598eb7","61872fdf7d2baf4c343bb995","1266.4000000059605","","d","false","[[16,397],[397,583],[583,202],[202,16]]","false","4","","","img/Fire_Down_Target.gif","[""img/Fire_Up_Distractor.gif"",""img/Fire_Up_Distractor.gif"",""img/Fire_Up_Distractor.gif"",""img/Fire_Up_Distractor.gif"",""img/Fire_Up_Distractor.gif"",""img/Fire_Up_Distractor.gif"",""img/Fire_Up_Distractor.gif"",""img/Fire_Up_Distractor.gif"",""img/Fire_Up_Distractor.gif"",""img/Fire_Up_Distractor.gif"",""img/Fire_Up_Distractor.gif"",""img/Fire_Up_Distractor.gif""]","targetDown_distractorsUp"
"","","","","","html-keyboard-response","68","144408","0.0-14.0-0.0-0.27","616faf3ab8c53e7a73a5dea5","6186fb1cc52d38b480598eb7","61872fdf7d2baf4c343bb995","null","","null","","","","","fixation","","","",""
"","","","","","visual-search-circle","69","146308","0.0-14.0-0.0-1.27","616faf3ab8c53e7a73a5dea5","6186fb1cc52d38b480598eb7","61872fdf7d2baf4c343bb995","888.1999999880791","","d","true","[[182,576],[480,539],[597,263],[417,23],[119,60],[2,336]]","true","6","","","img/Fire_Up_Target.gif","[""img/Fire_Down_Distractor.gif"",""img/Fire_Down_Distractor.gif"",""img/Fire_Down_Distractor.gif"",""img/Fire_Down_Distractor.gif"",""img/Fire_Down_Distractor.gif"",""img/Fire_Down_Distractor.gif"",""img/Fire_Down_Distractor.gif"",""img/Fire_Down_Distractor.gif"",""img/Fire_Down_Distractor.gif"",""img/Fire_Down_Distractor.gif"",""img/Fire_Down_Distractor.gif"",""img/Fire_Down_Distractor.gif""]","targetUp_distractorsDown"
"","","","","","html-keyboard-response","70","146312","0.0-14.0-0.0-0.28","616faf3ab8c53e7a73a5dea5","6186fb1cc52d38b480598eb7","61872fdf7d2baf4c343bb995","null","","null","","","","","fixation","","","",""
"","","","","","visual-search-circle","71","147958","0.0-14.0-0.0-1.28","616faf3ab8c53e7a73a5dea5","6186fb1cc52d38b480598eb7","61872fdf7d2baf4c343bb995","636","","d","true","[[119,60],[16,397],[305,599],[586,387],[472,54]]","true","5","","","img/Fire_Up_Target.gif","[""img/Fire_Down_Distractor.gif"",""img/Fire_Down_Distractor.gif"",""img/Fire_Down_Distractor.gif"",""img/Fire_Down_Distractor.gif"",""img/Fire_Down_Distractor.gif"",""img/Fire_Down_Distractor.gif"",""img/Fire_Down_Distractor.gif"",""img/Fire_Down_Distractor.gif"",""img/Fire_Down_Distractor.gif"",""img/Fire_Down_Distractor.gif"",""img/Fire_Down_Distractor.gif"",""img/Fire_Down_Distractor.gif""]","targetUp_distractorsDown"
"","","","","","html-keyboard-response","72","147960","0.0-14.0-0.0-0.29","616faf3ab8c53e7a73a5dea5","6186fb1cc52d38b480598eb7","61872fdf7d2baf4c343bb995","null","","null","","","","","fixation","","","",""
"","","","","","visual-search-circle","73","150404","0.0-14.0-0.0-1.29","616faf3ab8c53e7a73a5dea5","6186fb1cc52d38b480598eb7","61872fdf7d2baf4c343bb995","1437","","s","true","[[372,8],[45,141],[70,492],[412,578],[599,279]]","false","5","","","img/Fire_Down_Target.gif","[""img/Fire_Up_Distractor.gif"",""img/Fire_Up_Distractor.gif"",""img/Fire_Up_Distractor.gif"",""img/Fire_Up_Distractor.gif"",""img/Fire_Up_Distractor.gif"",""img/Fire_Up_Distractor.gif"",""img/Fire_Up_Distractor.gif"",""img/Fire_Up_Distractor.gif"",""img/Fire_Up_Distractor.gif"",""img/Fire_Up_Distractor.gif"",""img/Fire_Up_Distractor.gif"",""img/Fire_Up_Distractor.gif""]","targetDown_distractorsUp"
"","","","","","html-keyboard-response","74","150406","0.0-14.0-0.0-0.30","616faf3ab8c53e7a73a5dea5","6186fb1cc52d38b480598eb7","61872fdf7d2baf4c343bb995","null","","null","","","","","fixation","","","",""
"","","","","","visual-search-circle","75","152161","0.0-14.0-0.0-1.30","616faf3ab8c53e7a73a5dea5","6186fb1cc52d38b480598eb7","61872fdf7d2baf4c343bb995","743.7000000178814","","d","true","[[19,407],[315,599],[589,377],[463,48],[111,66]]","true","5","","","img/Fire_Down_Target.gif","[""img/Fire_Up_Distractor.gif"",""img/Fire_Up_Distractor.gif"",""img/Fire_Up_Distractor.gif"",""img/Fire_Up_Distractor.gif"",""img/Fire_Up_Distractor.gif"",""img/Fire_Up_Distractor.gif"",""img/Fire_Up_Distractor.gif"",""img/Fire_Up_Distractor.gif"",""img/Fire_Up_Distractor.gif"",""img/Fire_Up_Distractor.gif"",""img/Fire_Up_Distractor.gif"",""img/Fire_Up_Distractor.gif""]","targetDown_distractorsUp"
"","","","","","html-keyboard-response","76","152163","0.0-14.0-0.0-0.31","616faf3ab8c53e7a73a5dea5","6186fb1cc52d38b480598eb7","61872fdf7d2baf4c343bb995","null","","null","","","","","fixation","","","",""
"","","","","","visual-search-circle","77","154143","0.0-14.0-0.0-1.31","616faf3ab8c53e7a73a5dea5","6186fb1cc52d38b480598eb7","61872fdf7d2baf4c343bb995","968.7000000178814","","d","true","[[571,173],[370,8],[115,63],[0,296],[110,532],[363,593],[568,433]]","true","7","","","img/Fire_Down_Target.gif","[""img/Fire_Up_Distractor.gif"",""img/Fire_Up_Distractor.gif"",""img/Fire_Up_Distractor.gif"",""img/Fire_Up_Distractor.gif"",""img/Fire_Up_Distractor.gif"",""img/Fire_Up_Distractor.gif"",""img/Fire_Up_Distractor.gif"",""img/Fire_Up_Distractor.gif"",""img/Fire_Up_Distractor.gif"",""img/Fire_Up_Distractor.gif"",""img/Fire_Up_Distractor.gif"",""img/Fire_Up_Distractor.gif""]","targetDown_distractorsUp"
"","","","","","html-keyboard-response","78","154145","0.0-14.0-0.0-0.32","616faf3ab8c53e7a73a5dea5","6186fb1cc52d38b480598eb7","61872fdf7d2baf4c343bb995","null","","null","","","","","fixation","","","",""
"","","","","","visual-search-circle","79","156500","0.0-14.0-0.0-1.32","616faf3ab8c53e7a73a5dea5","6186fb1cc52d38b480598eb7","61872fdf7d2baf4c343bb995","1340.2000000178814","","s","true","[[372,591],[557,454],[591,227],[454,42],[227,8],[42,145],[8,372],[145,557]]","false","8","","","img/Fire_Up_Target.gif","[""img/Fire_Down_Distractor.gif"",""img/Fire_Down_Distractor.gif"",""img/Fire_Down_Distractor.gif"",""img/Fire_Down_Distractor.gif"",""img/Fire_Down_Distractor.gif"",""img/Fire_Down_Distractor.gif"",""img/Fire_Down_Distractor.gif"",""img/Fire_Down_Distractor.gif"",""img/Fire_Down_Distractor.gif"",""img/Fire_Down_Distractor.gif"",""img/Fire_Down_Distractor.gif"",""img/Fire_Down_Distractor.gif""]","targetUp_distractorsDown"
"","","","","","html-keyboard-response","80","156503","0.0-14.0-0.0-0.33","616faf3ab8c53e7a73a5dea5","6186fb1cc52d38b480598eb7","61872fdf7d2baf4c343bb995","null","","null","","","","","fixation","","","",""
"","","","","","visual-search-circle","81","159030","0.0-14.0-0.0-1.33","616faf3ab8c53e7a73a5dea5","6186fb1cc52d38b480598eb7","61872fdf7d2baf4c343bb995","1517.3999999761581","","s","true","[[599,315],[463,48],[163,32],[0,284],[136,551],[436,567]]","false","6","","","img/Fire_Down_Target.gif","[""img/Fire_Up_Distractor.gif"",""img/Fire_Up_Distractor.gif"",""img/Fire_Up_Distractor.gif"",""img/Fire_Up_Distractor.gif"",""img/Fire_Up_Distractor.gif"",""img/Fire_Up_Distractor.gif"",""img/Fire_Up_Distractor.gif"",""img/Fire_Up_Distractor.gif"",""img/Fire_Up_Distractor.gif"",""img/Fire_Up_Distractor.gif"",""img/Fire_Up_Distractor.gif"",""img/Fire_Up_Distractor.gif""]","targetDown_distractorsUp"
"","","","","","html-keyboard-response","82","159032","0.0-14.0-0.0-0.34","616faf3ab8c53e7a73a5dea5","6186fb1cc52d38b480598eb7","61872fdf7d2baf4c343bb995","null","","null","","","","","fixation","","","",""
"","","","","","visual-search-circle","83","161120","0.0-14.0-0.0-1.34","616faf3ab8c53e7a73a5dea5","6186fb1cc52d38b480598eb7","61872fdf7d2baf4c343bb995","1080.800000011921","","d","false","[[37,154],[42,454],[305,599],[562,445],[557,145],[294,0]]","false","6","","","img/Fire_Up_Target.gif","[""img/Fire_Down_Distractor.gif"",""img/Fire_Down_Distractor.gif"",""img/Fire_Down_Distractor.gif"",""img/Fire_Down_Distractor.gif"",""img/Fire_Down_Distractor.gif"",""img/Fire_Down_Distractor.gif"",""img/Fire_Down_Distractor.gif"",""img/Fire_Down_Distractor.gif"",""img/Fire_Down_Distractor.gif"",""img/Fire_Down_Distractor.gif"",""img/Fire_Down_Distractor.gif"",""img/Fire_Down_Distractor.gif""]","targetUp_distractorsDown"
"","","","","","html-keyboard-response","84","161121","0.0-14.0-0.0-0.35","616faf3ab8c53e7a73a5dea5","6186fb1cc52d38b480598eb7","61872fdf7d2baf4c343bb995","null","","null","","","","","fixation","","","",""
"","","","","","visual-search-circle","85","162981","0.0-14.0-0.0-1.35","616faf3ab8c53e7a73a5dea5","6186fb1cc52d38b480598eb7","61872fdf7d2baf4c343bb995","847.0999999940395","","s","false","[[512,512],[589,222],[377,10],[87,87],[10,377],[222,589]]","true","6","","","img/Fire_Up_Target.gif","[""img/Fire_Down_Distractor.gif"",""img/Fire_Down_Distractor.gif"",""img/Fire_Down_Distractor.gif"",""img/Fire_Down_Distractor.gif"",""img/Fire_Down_Distractor.gif"",""img/Fire_Down_Distractor.gif"",""img/Fire_Down_Distractor.gif"",""img/Fire_Down_Distractor.gif"",""img/Fire_Down_Distractor.gif"",""img/Fire_Down_Distractor.gif"",""img/Fire_Down_Distractor.gif"",""img/Fire_Down_Distractor.gif""]","targetUp_distractorsDown"
"","","","","","html-keyboard-response","86","162983","0.0-14.0-0.0-0.36","616faf3ab8c53e7a73a5dea5","6186fb1cc52d38b480598eb7","61872fdf7d2baf4c343bb995","null","","null","","","","","fixation","","","",""
"","","","","","visual-search-circle","87","165473","0.0-14.0-0.0-1.36","616faf3ab8c53e7a73a5dea5","6186fb1cc52d38b480598eb7","61872fdf7d2baf4c343bb995","1479.0999999940395","","s","true","[[227,8],[0,279],[187,578],[529,492],[554,141]]","false","5","","","img/Fire_Down_Target.gif","[""img/Fire_Up_Distractor.gif"",""img/Fire_Up_Distractor.gif"",""img/Fire_Up_Distractor.gif"",""img/Fire_Up_Distractor.gif"",""img/Fire_Up_Distractor.gif"",""img/Fire_Up_Distractor.gif"",""img/Fire_Up_Distractor.gif"",""img/Fire_Up_Distractor.gif"",""img/Fire_Up_Distractor.gif"",""img/Fire_Up_Distractor.gif"",""img/Fire_Up_Distractor.gif"",""img/Fire_Up_Distractor.gif""]","targetDown_distractorsUp"
"","","","","","html-keyboard-response","88","165475","0.0-14.0-0.0-0.37","616faf3ab8c53e7a73a5dea5","6186fb1cc52d38b480598eb7","61872fdf7d2baf4c343bb995","null","","null","","","","","fixation","","","",""
"","","","","","visual-search-circle","89","167364","0.0-14.0-0.0-1.37","616faf3ab8c53e7a73a5dea5","6186fb1cc52d38b480598eb7","61872fdf7d2baf4c343bb995","876.8000000119209","","d","true","[[362,6],[40,150],[77,500],[422,574],[598,268]]","true","5","","","img/Fire_Down_Target.gif","[""img/Fire_Up_Distractor.gif"",""img/Fire_Up_Distractor.gif"",""img/Fire_Up_Distractor.gif"",""img/Fire_Up_Distractor.gif"",""img/Fire_Up_Distractor.gif"",""img/Fire_Up_Distractor.gif"",""img/Fire_Up_Distractor.gif"",""img/Fire_Up_Distractor.gif"",""img/Fire_Up_Distractor.gif"",""img/Fire_Up_Distractor.gif"",""img/Fire_Up_Distractor.gif"",""img/Fire_Up_Distractor.gif""]","targetDown_distractorsUp"
"","","","","","html-keyboard-response","90","167366","0.0-14.0-0.0-0.38","616faf3ab8c53e7a73a5dea5","6186fb1cc52d38b480598eb7","61872fdf7d2baf4c343bb995","null","","null","","","","","fixation","","","",""
"","","","","","visual-search-circle","91","169150","0.0-14.0-0.0-1.38","616faf3ab8c53e7a73a5dea5","6186fb1cc52d38b480598eb7","61872fdf7d2baf4c343bb995","769.7999999821186","","d","true","[[127,545],[352,595],[545,472],[595,247],[472,54],[247,4],[54,127],[4,352]]","true","8","","","img/Fire_Up_Target.gif","[""img/Fire_Down_Distractor.gif"",""img/Fire_Down_Distractor.gif"",""img/Fire_Down_Distractor.gif"",""img/Fire_Down_Distractor.gif"",""img/Fire_Down_Distractor.gif"",""img/Fire_Down_Distractor.gif"",""img/Fire_Down_Distractor.gif"",""img/Fire_Down_Distractor.gif"",""img/Fire_Down_Distractor.gif"",""img/Fire_Down_Distractor.gif"",""img/Fire_Down_Distractor.gif"",""img/Fire_Down_Distractor.gif""]","targetUp_distractorsDown"
"","","","","","html-keyboard-response","92","171123","0.0-14.0-0.0-0.39","616faf3ab8c53e7a73a5dea5","6186fb1cc52d38b480598eb7","61872fdf7d2baf4c343bb995","1972.800000011921","Wow! You've completed 40 out of 120 trials! </p> <p>  </p><p> Take a quick break, then press any key when you're ready to continue."," ","","","","","fixation","","","",""
"","","","","","visual-search-circle","93","173033","0.0-14.0-0.0-1.39","616faf3ab8c53e7a73a5dea5","6186fb1cc52d38b480598eb7","61872fdf7d2baf4c343bb995","895.9000000059605","","s","true","[[431,30],[202,16],[30,168],[16,397],[168,569],[397,583],[569,431],[583,202]]","false","8","","","img/Fire_Down_Target.gif","[""img/Fire_Up_Distractor.gif"",""img/Fire_Up_Distractor.gif"",""img/Fire_Up_Distractor.gif"",""img/Fire_Up_Distractor.gif"",""img/Fire_Up_Distractor.gif"",""img/Fire_Up_Distractor.gif"",""img/Fire_Up_Distractor.gif"",""img/Fire_Up_Distractor.gif"",""img/Fire_Up_Distractor.gif"",""img/Fire_Up_Distractor.gif"",""img/Fire_Up_Distractor.gif"",""img/Fire_Up_Distractor.gif""]","targetDown_distractorsUp"
"","","","","","html-keyboard-response","94","173035","0.0-14.0-0.0-0.40","616faf3ab8c53e7a73a5dea5","6186fb1cc52d38b480598eb7","61872fdf7d2baf4c343bb995","null","","null","","","","","fixation","","","",""
"","","","","","visual-search-circle","95","174962","0.0-14.0-0.0-1.40","616faf3ab8c53e7a73a5dea5","6186fb1cc52d38b480598eb7","61872fdf7d2baf4c343bb995","914.4000000059605","","d","true","[[70,107],[18,402],[247,595],[529,492],[581,197],[352,4]]","true","6","","","img/Fire_Up_Target.gif","[""img/Fire_Down_Distractor.gif"",""img/Fire_Down_Distractor.gif"",""img/Fire_Down_Distractor.gif"",""img/Fire_Down_Distractor.gif"",""img/Fire_Down_Distractor.gif"",""img/Fire_Down_Distractor.gif"",""img/Fire_Down_Distractor.gif"",""img/Fire_Down_Distractor.gif"",""img/Fire_Down_Distractor.gif"",""img/Fire_Down_Distractor.gif"",""img/Fire_Down_Distractor.gif"",""img/Fire_Down_Distractor.gif""]","targetUp_distractorsDown"
"","","","","","html-keyboard-response","96","174963","0.0-14.0-0.0-0.41","616faf3ab8c53e7a73a5dea5","6186fb1cc52d38b480598eb7","61872fdf7d2baf4c343bb995","null","","null","","","","","fixation","","","",""
"","","","","","visual-search-circle","97","176981","0.0-14.0-0.0-1.41","616faf3ab8c53e7a73a5dea5","6186fb1cc52d38b480598eb7","61872fdf7d2baf4c343bb995","1004","","s","true","[[504,80],[256,3],[40,149],[20,408],[210,586],[468,548],[599,323]]","false","7","","","img/Fire_Up_Target.gif","[""img/Fire_Down_Distractor.gif"",""img/Fire_Down_Distractor.gif"",""img/Fire_Down_Distractor.gif"",""img/Fire_Down_Distractor.gif"",""img/Fire_Down_Distractor.gif"",""img/Fire_Down_Distractor.gif"",""img/Fire_Down_Distractor.gif"",""img/Fire_Down_Distractor.gif"",""img/Fire_Down_Distractor.gif"",""img/Fire_Down_Distractor.gif"",""img/Fire_Down_Distractor.gif"",""img/Fire_Down_Distractor.gif""]","targetUp_distractorsDown"
"","","","","","html-keyboard-response","98","176983","0.0-14.0-0.0-0.42","616faf3ab8c53e7a73a5dea5","6186fb1cc52d38b480598eb7","61872fdf7d2baf4c343bb995","null","","null","","","","","fixation","","","",""
"","","","","","visual-search-circle","99","178851","0.0-14.0-0.0-1.42","616faf3ab8c53e7a73a5dea5","6186fb1cc52d38b480598eb7","61872fdf7d2baf4c343bb995","853.5","","d","true","[[484,63],[263,2],[63,115],[2,336],[115,536],[336,597],[536,484],[597,263]]","true","8","","","img/Fire_Up_Target.gif","[""img/Fire_Down_Distractor.gif"",""img/Fire_Down_Distractor.gif"",""img/Fire_Down_Distractor.gif"",""img/Fire_Down_Distractor.gif"",""img/Fire_Down_Distractor.gif"",""img/Fire_Down_Distractor.gif"",""img/Fire_Down_Distractor.gif"",""img/Fire_Down_Distractor.gif"",""img/Fire_Down_Distractor.gif"",""img/Fire_Down_Distractor.gif"",""img/Fire_Down_Distractor.gif"",""img/Fire_Down_Distractor.gif""]","targetUp_distractorsDown"
"","","","","","html-keyboard-response","100","178853","0.0-14.0-0.0-0.43","616faf3ab8c53e7a73a5dea5","6186fb1cc52d38b480598eb7","61872fdf7d2baf4c343bb995","null","","null","","","","","fixation","","","",""
"","","","","","visual-search-circle","101","180893","0.0-14.0-0.0-1.43","616faf3ab8c53e7a73a5dea5","6186fb1cc52d38b480598eb7","61872fdf7d2baf4c343bb995","1029.9000000059605","","s","true","[[91,515],[338,597],[556,455],[581,195],[394,15],[135,48],[1,271]]","false","7","","","img/Fire_Up_Target.gif","[""img/Fire_Down_Distractor.gif"",""img/Fire_Down_Distractor.gif"",""img/Fire_Down_Distractor.gif"",""img/Fire_Down_Distractor.gif"",""img/Fire_Down_Distractor.gif"",""img/Fire_Down_Distractor.gif"",""img/Fire_Down_Distractor.gif"",""img/Fire_Down_Distractor.gif"",""img/Fire_Down_Distractor.gif"",""img/Fire_Down_Distractor.gif"",""img/Fire_Down_Distractor.gif"",""img/Fire_Down_Distractor.gif""]","targetUp_distractorsDown"
"","","","","","html-keyboard-response","102","180894","0.0-14.0-0.0-0.44","616faf3ab8c53e7a73a5dea5","6186fb1cc52d38b480598eb7","61872fdf7d2baf4c343bb995","null","","null","","","","","fixation","","","",""
"","","","","","visual-search-circle","103","184138","0.0-14.0-0.0-1.44","616faf3ab8c53e7a73a5dea5","6186fb1cc52d38b480598eb7","61872fdf7d2baf4c343bb995","2231.5","","s","true","[[242,594],[526,496],[583,202],[357,5],[73,103],[16,397]]","false","6","","","img/Fire_Down_Target.gif","[""img/Fire_Up_Distractor.gif"",""img/Fire_Up_Distractor.gif"",""img/Fire_Up_Distractor.gif"",""img/Fire_Up_Distractor.gif"",""img/Fire_Up_Distractor.gif"",""img/Fire_Up_Distractor.gif"",""img/Fire_Up_Distractor.gif"",""img/Fire_Up_Distractor.gif"",""img/Fire_Up_Distractor.gif"",""img/Fire_Up_Distractor.gif"",""img/Fire_Up_Distractor.gif"",""img/Fire_Up_Distractor.gif""]","targetDown_distractorsUp"
"","","","","","html-keyboard-response","104","184140","0.0-14.0-0.0-0.45","616faf3ab8c53e7a73a5dea5","6186fb1cc52d38b480598eb7","61872fdf7d2baf4c343bb995","null","","null","","","","","fixation","","","",""
"","","","","","visual-search-circle","105","186616","0.0-14.0-0.0-1.45","616faf3ab8c53e7a73a5dea5","6186fb1cc52d38b480598eb7","61872fdf7d2baf4c343bb995","1463.5999999940395","","s","true","[[14,392],[237,593],[522,500],[585,207],[362,6],[77,99]]","false","6","","","img/Fire_Up_Target.gif","[""img/Fire_Down_Distractor.gif"",""img/Fire_Down_Distractor.gif"",""img/Fire_Down_Distractor.gif"",""img/Fire_Down_Distractor.gif"",""img/Fire_Down_Distractor.gif"",""img/Fire_Down_Distractor.gif"",""img/Fire_Down_Distractor.gif"",""img/Fire_Down_Distractor.gif"",""img/Fire_Down_Distractor.gif"",""img/Fire_Down_Distractor.gif"",""img/Fire_Down_Distractor.gif"",""img/Fire_Down_Distractor.gif""]","targetUp_distractorsDown"
"","","","","","html-keyboard-response","106","186618","0.0-14.0-0.0-0.46","616faf3ab8c53e7a73a5dea5","6186fb1cc52d38b480598eb7","61872fdf7d2baf4c343bb995","null","","null","","","","","fixation","","","",""
"","","","","","visual-search-circle","107","188444","0.0-14.0-0.0-1.46","616faf3ab8c53e7a73a5dea5","6186fb1cc52d38b480598eb7","61872fdf7d2baf4c343bb995","815.0999999940395","","d","true","[[533,111],[111,66],[66,488],[488,533]]","true","4","","","img/Fire_Up_Target.gif","[""img/Fire_Down_Distractor.gif"",""img/Fire_Down_Distractor.gif"",""img/Fire_Down_Distractor.gif"",""img/Fire_Down_Distractor.gif"",""img/Fire_Down_Distractor.gif"",""img/Fire_Down_Distractor.gif"",""img/Fire_Down_Distractor.gif"",""img/Fire_Down_Distractor.gif"",""img/Fire_Down_Distractor.gif"",""img/Fire_Down_Distractor.gif"",""img/Fire_Down_Distractor.gif"",""img/Fire_Down_Distractor.gif""]","targetUp_distractorsDown"
"","","","","","html-keyboard-response","108","188446","0.0-14.0-0.0-0.47","616faf3ab8c53e7a73a5dea5","6186fb1cc52d38b480598eb7","61872fdf7d2baf4c343bb995","null","","null","","","","","fixation","","","",""
"","","","","","visual-search-circle","109","190294","0.0-14.0-0.0-1.47","616faf3ab8c53e7a73a5dea5","6186fb1cc52d38b480598eb7","61872fdf7d2baf4c343bb995","835.1000000238419","","d","true","[[484,63],[230,8],[28,172],[31,432],[236,593],[489,532],[599,297]]","true","7","","","img/Fire_Up_Target.gif","[""img/Fire_Down_Distractor.gif"",""img/Fire_Down_Distractor.gif"",""img/Fire_Down_Distractor.gif"",""img/Fire_Down_Distractor.gif"",""img/Fire_Down_Distractor.gif"",""img/Fire_Down_Distractor.gif"",""img/Fire_Down_Distractor.gif"",""img/Fire_Down_Distractor.gif"",""img/Fire_Down_Distractor.gif"",""img/Fire_Down_Distractor.gif"",""img/Fire_Down_Distractor.gif"",""img/Fire_Down_Distractor.gif""]","targetUp_distractorsDown"
"","","","","","html-keyboard-response","110","190296","0.0-14.0-0.0-0.48","616faf3ab8c53e7a73a5dea5","6186fb1cc52d38b480598eb7","61872fdf7d2baf4c343bb995","null","","null","","","","","fixation","","","",""
"","","","","","visual-search-circle","111","192151","0.0-14.0-0.0-1.48","616faf3ab8c53e7a73a5dea5","6186fb1cc52d38b480598eb7","61872fdf7d2baf4c343bb995","841.2999999821186","","d","true","[[73,103],[4,354],[158,564],[418,575],[589,379],[542,123],[312,0]]","true","7","","","img/Fire_Up_Target.gif","[""img/Fire_Down_Distractor.gif"",""img/Fire_Down_Distractor.gif"",""img/Fire_Down_Distractor.gif"",""img/Fire_Down_Distractor.gif"",""img/Fire_Down_Distractor.gif"",""img/Fire_Down_Distractor.gif"",""img/Fire_Down_Distractor.gif"",""img/Fire_Down_Distractor.gif"",""img/Fire_Down_Distractor.gif"",""img/Fire_Down_Distractor.gif"",""img/Fire_Down_Distractor.gif"",""img/Fire_Down_Distractor.gif""]","targetUp_distractorsDown"
"","","","","","html-keyboard-response","112","192152","0.0-14.0-0.0-0.49","616faf3ab8c53e7a73a5dea5","6186fb1cc52d38b480598eb7","61872fdf7d2baf4c343bb995","null","","null","","","","","fixation","","","",""
"","","","","","visual-search-circle","113","194187","0.0-14.0-0.0-1.49","616faf3ab8c53e7a73a5dea5","6186fb1cc52d38b480598eb7","61872fdf7d2baf4c343bb995","1023.3000000119209","","s","true","[[480,539],[583,202],[294,0],[13,212],[127,545]]","false","5","","","img/Fire_Up_Target.gif","[""img/Fire_Down_Distractor.gif"",""img/Fire_Down_Distractor.gif"",""img/Fire_Down_Distractor.gif"",""img/Fire_Down_Distractor.gif"",""img/Fire_Down_Distractor.gif"",""img/Fire_Down_Distractor.gif"",""img/Fire_Down_Distractor.gif"",""img/Fire_Down_Distractor.gif"",""img/Fire_Down_Distractor.gif"",""img/Fire_Down_Distractor.gif"",""img/Fire_Down_Distractor.gif"",""img/Fire_Down_Distractor.gif""]","targetUp_distractorsDown"
"","","","","","html-keyboard-response","114","194189","0.0-14.0-0.0-0.50","616faf3ab8c53e7a73a5dea5","6186fb1cc52d38b480598eb7","61872fdf7d2baf4c343bb995","null","","null","","","","","fixation","","","",""
"","","","","","visual-search-circle","115","196706","0.0-14.0-0.0-1.50","616faf3ab8c53e7a73a5dea5","6186fb1cc52d38b480598eb7","61872fdf7d2baf4c343bb995","1503.300000011921","","d","true","[[16,202],[46,460],[267,598],[513,511],[597,264],[458,45],[199,17]]","true","7","","","img/Fire_Down_Target.gif","[""img/Fire_Up_Distractor.gif"",""img/Fire_Up_Distractor.gif"",""img/Fire_Up_Distractor.gif"",""img/Fire_Up_Distractor.gif"",""img/Fire_Up_Distractor.gif"",""img/Fire_Up_Distractor.gif"",""img/Fire_Up_Distractor.gif"",""img/Fire_Up_Distractor.gif"",""img/Fire_Up_Distractor.gif"",""img/Fire_Up_Distractor.gif"",""img/Fire_Up_Distractor.gif"",""img/Fire_Up_Distractor.gif""]","targetDown_distractorsUp"
"","","","","","html-keyboard-response","116","196708","0.0-14.0-0.0-0.51","616faf3ab8c53e7a73a5dea5","6186fb1cc52d38b480598eb7","61872fdf7d2baf4c343bb995","null","","null","","","","","fixation","","","",""
"","","","","","visual-search-circle","117","198612","0.0-14.0-0.0-1.51","616faf3ab8c53e7a73a5dea5","6186fb1cc52d38b480598eb7","61872fdf7d2baf4c343bb995","893.6999999880791","","d","true","[[11,382],[184,577],[444,562],[595,350],[523,100],[283,0],[55,126]]","true","7","","","img/Fire_Up_Target.gif","[""img/Fire_Down_Distractor.gif"",""img/Fire_Down_Distractor.gif"",""img/Fire_Down_Distractor.gif"",""img/Fire_Down_Distractor.gif"",""img/Fire_Down_Distractor.gif"",""img/Fire_Down_Distractor.gif"",""img/Fire_Down_Distractor.gif"",""img/Fire_Down_Distractor.gif"",""img/Fire_Down_Distractor.gif"",""img/Fire_Down_Distractor.gif"",""img/Fire_Down_Distractor.gif"",""img/Fire_Down_Distractor.gif""]","targetUp_distractorsDown"
"","","","","","html-keyboard-response","118","198614","0.0-14.0-0.0-0.52","616faf3ab8c53e7a73a5dea5","6186fb1cc52d38b480598eb7","61872fdf7d2baf4c343bb995","null","","null","","","","","fixation","","","",""
"","","","","","visual-search-circle","119","200373","0.0-14.0-0.0-1.52","616faf3ab8c53e7a73a5dea5","6186fb1cc52d38b480598eb7","61872fdf7d2baf4c343bb995","749.6999999880791","","d","false","[[32,163],[163,567],[567,436],[436,32]]","false","4","","","img/Fire_Up_Target.gif","[""img/Fire_Down_Distractor.gif"",""img/Fire_Down_Distractor.gif"",""img/Fire_Down_Distractor.gif"",""img/Fire_Down_Distractor.gif"",""img/Fire_Down_Distractor.gif"",""img/Fire_Down_Distractor.gif"",""img/Fire_Down_Distractor.gif"",""img/Fire_Down_Distractor.gif"",""img/Fire_Down_Distractor.gif"",""img/Fire_Down_Distractor.gif"",""img/Fire_Down_Distractor.gif"",""img/Fire_Down_Distractor.gif""]","targetUp_distractorsDown"
"","","","","","html-keyboard-response","120","200375","0.0-14.0-0.0-0.53","616faf3ab8c53e7a73a5dea5","6186fb1cc52d38b480598eb7","61872fdf7d2baf4c343bb995","null","","null","","","","","fixation","","","",""
"","","","","","visual-search-circle","121","202022","0.0-14.0-0.0-1.53","616faf3ab8c53e7a73a5dea5","6186fb1cc52d38b480598eb7","61872fdf7d2baf4c343bb995","639.5999999940395","","d","false","[[115,63],[63,484],[484,536],[536,115]]","false","4","","","img/Fire_Up_Target.gif","[""img/Fire_Down_Distractor.gif"",""img/Fire_Down_Distractor.gif"",""img/Fire_Down_Distractor.gif"",""img/Fire_Down_Distractor.gif"",""img/Fire_Down_Distractor.gif"",""img/Fire_Down_Distractor.gif"",""img/Fire_Down_Distractor.gif"",""img/Fire_Down_Distractor.gif"",""img/Fire_Down_Distractor.gif"",""img/Fire_Down_Distractor.gif"",""img/Fire_Down_Distractor.gif"",""img/Fire_Down_Distractor.gif""]","targetUp_distractorsDown"
"","","","","","html-keyboard-response","122","202024","0.0-14.0-0.0-0.54","616faf3ab8c53e7a73a5dea5","6186fb1cc52d38b480598eb7","61872fdf7d2baf4c343bb995","null","","null","","","","","fixation","","","",""
"","","","","","visual-search-circle","123","203883","0.0-14.0-0.0-1.54","616faf3ab8c53e7a73a5dea5","6186fb1cc52d38b480598eb7","61872fdf7d2baf4c343bb995","845.8000000119209","","d","true","[[593,237],[392,14],[99,77],[6,362],[207,585],[500,522]]","true","6","","","img/Fire_Up_Target.gif","[""img/Fire_Down_Distractor.gif"",""img/Fire_Down_Distractor.gif"",""img/Fire_Down_Distractor.gif"",""img/Fire_Down_Distractor.gif"",""img/Fire_Down_Distractor.gif"",""img/Fire_Down_Distractor.gif"",""img/Fire_Down_Distractor.gif"",""img/Fire_Down_Distractor.gif"",""img/Fire_Down_Distractor.gif"",""img/Fire_Down_Distractor.gif"",""img/Fire_Down_Distractor.gif"",""img/Fire_Down_Distractor.gif""]","targetUp_distractorsDown"
"","","","","","html-keyboard-response","124","203884","0.0-14.0-0.0-0.55","616faf3ab8c53e7a73a5dea5","6186fb1cc52d38b480598eb7","61872fdf7d2baf4c343bb995","null","","null","","","","","fixation","","","",""
"","","","","","visual-search-circle","125","205641","0.0-14.0-0.0-1.55","616faf3ab8c53e7a73a5dea5","6186fb1cc52d38b480598eb7","61872fdf7d2baf4c343bb995","749.1000000238419","","d","true","[[51,467],[467,548],[548,132],[132,51]]","true","4","","","img/Fire_Down_Target.gif","[""img/Fire_Up_Distractor.gif"",""img/Fire_Up_Distractor.gif"",""img/Fire_Up_Distractor.gif"",""img/Fire_Up_Distractor.gif"",""img/Fire_Up_Distractor.gif"",""img/Fire_Up_Distractor.gif"",""img/Fire_Up_Distractor.gif"",""img/Fire_Up_Distractor.gif"",""img/Fire_Up_Distractor.gif"",""img/Fire_Up_Distractor.gif"",""img/Fire_Up_Distractor.gif"",""img/Fire_Up_Distractor.gif""]","targetDown_distractorsUp"
"","","","","","html-keyboard-response","126","205642","0.0-14.0-0.0-0.56","616faf3ab8c53e7a73a5dea5","6186fb1cc52d38b480598eb7","61872fdf7d2baf4c343bb995","null","","null","","","","","fixation","","","",""
"","","","","","visual-search-circle","127","207300","0.0-14.0-0.0-1.56","616faf3ab8c53e7a73a5dea5","6186fb1cc52d38b480598eb7","61872fdf7d2baf4c343bb995","643.0999999940395","","s","true","[[5,357],[132,548],[357,594],[548,467],[594,242],[467,51],[242,5],[51,132]]","false","8","","","img/Fire_Up_Target.gif","[""img/Fire_Down_Distractor.gif"",""img/Fire_Down_Distractor.gif"",""img/Fire_Down_Distractor.gif"",""img/Fire_Down_Distractor.gif"",""img/Fire_Down_Distractor.gif"",""img/Fire_Down_Distractor.gif"",""img/Fire_Down_Distractor.gif"",""img/Fire_Down_Distractor.gif"",""img/Fire_Down_Distractor.gif"",""img/Fire_Down_Distractor.gif"",""img/Fire_Down_Distractor.gif"",""img/Fire_Down_Distractor.gif""]","targetUp_distractorsDown"
"","","","","","html-keyboard-response","128","207302","0.0-14.0-0.0-0.57","616faf3ab8c53e7a73a5dea5","6186fb1cc52d38b480598eb7","61872fdf7d2baf4c343bb995","null","","null","","","","","fixation","","","",""
"","","","","","visual-search-circle","129","209248","0.0-14.0-0.0-1.57","616faf3ab8c53e7a73a5dea5","6186fb1cc52d38b480598eb7","61872fdf7d2baf4c343bb995","938.5","","d","true","[[533,488],[488,66],[66,111],[111,533]]","true","4","","","img/Fire_Up_Target.gif","[""img/Fire_Down_Distractor.gif"",""img/Fire_Down_Distractor.gif"",""img/Fire_Down_Distractor.gif"",""img/Fire_Down_Distractor.gif"",""img/Fire_Down_Distractor.gif"",""img/Fire_Down_Distractor.gif"",""img/Fire_Down_Distractor.gif"",""img/Fire_Down_Distractor.gif"",""img/Fire_Down_Distractor.gif"",""img/Fire_Down_Distractor.gif"",""img/Fire_Down_Distractor.gif"",""img/Fire_Down_Distractor.gif""]","targetUp_distractorsDown"
"","","","","","html-keyboard-response","130","209250","0.0-14.0-0.0-0.58","616faf3ab8c53e7a73a5dea5","6186fb1cc52d38b480598eb7","61872fdf7d2baf4c343bb995","null","","null","","","","","fixation","","","",""
"","","","","","visual-search-circle","131","211005","0.0-14.0-0.0-1.58","616faf3ab8c53e7a73a5dea5","6186fb1cc52d38b480598eb7","61872fdf7d2baf4c343bb995","748.5999999940395","","d","true","[[48,463],[377,589],[599,315],[407,19],[66,111]]","true","5","","","img/Fire_Up_Target.gif","[""img/Fire_Down_Distractor.gif"",""img/Fire_Down_Distractor.gif"",""img/Fire_Down_Distractor.gif"",""img/Fire_Down_Distractor.gif"",""img/Fire_Down_Distractor.gif"",""img/Fire_Down_Distractor.gif"",""img/Fire_Down_Distractor.gif"",""img/Fire_Down_Distractor.gif"",""img/Fire_Down_Distractor.gif"",""img/Fire_Down_Distractor.gif"",""img/Fire_Down_Distractor.gif"",""img/Fire_Down_Distractor.gif""]","targetUp_distractorsDown"
"","","","","","html-keyboard-response","132","212246","0.0-14.0-0.0-0.59","616faf3ab8c53e7a73a5dea5","6186fb1cc52d38b480598eb7","61872fdf7d2baf4c343bb995","1240.7999999821186","Wow! You've completed 60 out of 120 trials! </p> <p>  </p><p> Take a quick break, then press any key when you're ready to continue."," ","","","","","fixation","","","",""
"","","","","","visual-search-circle","133","214663","0.0-14.0-0.0-1.59","616faf3ab8c53e7a73a5dea5","6186fb1cc52d38b480598eb7","61872fdf7d2baf4c343bb995","1403","","s","true","[[2,336],[182,576],[480,539],[597,263],[417,23],[119,60]]","false","6","","","img/Fire_Down_Target.gif","[""img/Fire_Up_Distractor.gif"",""img/Fire_Up_Distractor.gif"",""img/Fire_Up_Distractor.gif"",""img/Fire_Up_Distractor.gif"",""img/Fire_Up_Distractor.gif"",""img/Fire_Up_Distractor.gif"",""img/Fire_Up_Distractor.gif"",""img/Fire_Up_Distractor.gif"",""img/Fire_Up_Distractor.gif"",""img/Fire_Up_Distractor.gif"",""img/Fire_Up_Distractor.gif"",""img/Fire_Up_Distractor.gif""]","targetDown_distractorsUp"
"","","","","","html-keyboard-response","134","214664","0.0-14.0-0.0-0.60","616faf3ab8c53e7a73a5dea5","6186fb1cc52d38b480598eb7","61872fdf7d2baf4c343bb995","null","","null","","","","","fixation","","","",""
"","","","","","visual-search-circle","135","216513","0.0-14.0-0.0-1.60","616faf3ab8c53e7a73a5dea5","6186fb1cc52d38b480598eb7","61872fdf7d2baf4c343bb995","838.6999999880791","","d","true","[[387,586],[586,212],[212,13],[13,387]]","true","4","","","img/Fire_Down_Target.gif","[""img/Fire_Up_Distractor.gif"",""img/Fire_Up_Distractor.gif"",""img/Fire_Up_Distractor.gif"",""img/Fire_Up_Distractor.gif"",""img/Fire_Up_Distractor.gif"",""img/Fire_Up_Distractor.gif"",""img/Fire_Up_Distractor.gif"",""img/Fire_Up_Distractor.gif"",""img/Fire_Up_Distractor.gif"",""img/Fire_Up_Distractor.gif"",""img/Fire_Up_Distractor.gif"",""img/Fire_Up_Distractor.gif""]","targetDown_distractorsUp"
"","","","","","html-keyboard-response","136","216514","0.0-14.0-0.0-0.61","616faf3ab8c53e7a73a5dea5","6186fb1cc52d38b480598eb7","61872fdf7d2baf4c343bb995","null","","null","","","","","fixation","","","",""
"","","","","","visual-search-circle","137","218441","0.0-14.0-0.0-1.61","616faf3ab8c53e7a73a5dea5","6186fb1cc52d38b480598eb7","61872fdf7d2baf4c343bb995","910.3000000119209","","d","true","[[232,592],[458,554],[592,367],[554,141],[367,7],[141,45],[7,232],[45,458]]","true","8","","","img/Fire_Down_Target.gif","[""img/Fire_Up_Distractor.gif"",""img/Fire_Up_Distractor.gif"",""img/Fire_Up_Distractor.gif"",""img/Fire_Up_Distractor.gif"",""img/Fire_Up_Distractor.gif"",""img/Fire_Up_Distractor.gif"",""img/Fire_Up_Distractor.gif"",""img/Fire_Up_Distractor.gif"",""img/Fire_Up_Distractor.gif"",""img/Fire_Up_Distractor.gif"",""img/Fire_Up_Distractor.gif"",""img/Fire_Up_Distractor.gif""]","targetDown_distractorsUp"
"","","","","","html-keyboard-response","138","218443","0.0-14.0-0.0-0.62","616faf3ab8c53e7a73a5dea5","6186fb1cc52d38b480598eb7","61872fdf7d2baf4c343bb995","null","","null","","","","","fixation","","","",""
"","","","","","visual-search-circle","139","221740","0.0-14.0-0.0-1.62","616faf3ab8c53e7a73a5dea5","6186fb1cc52d38b480598eb7","61872fdf7d2baf4c343bb995","2285.9000000059605","","s","true","[[463,48],[111,66],[19,407],[315,599],[589,377]]","false","5","","","img/Fire_Up_Target.gif","[""img/Fire_Down_Distractor.gif"",""img/Fire_Down_Distractor.gif"",""img/Fire_Down_Distractor.gif"",""img/Fire_Down_Distractor.gif"",""img/Fire_Down_Distractor.gif"",""img/Fire_Down_Distractor.gif"",""img/Fire_Down_Distractor.gif"",""img/Fire_Down_Distractor.gif"",""img/Fire_Down_Distractor.gif"",""img/Fire_Down_Distractor.gif"",""img/Fire_Down_Distractor.gif"",""img/Fire_Down_Distractor.gif""]","targetUp_distractorsDown"
"","","","","","html-keyboard-response","140","221742","0.0-14.0-0.0-0.63","616faf3ab8c53e7a73a5dea5","6186fb1cc52d38b480598eb7","61872fdf7d2baf4c343bb995","null","","null","","","","","fixation","","","",""
"","","","","","visual-search-circle","141","223580","0.0-14.0-0.0-1.63","616faf3ab8c53e7a73a5dea5","6186fb1cc52d38b480598eb7","61872fdf7d2baf4c343bb995","824.6000000238419","","s","true","[[562,154],[305,0],[42,145],[37,445],[294,599],[557,454]]","false","6","","","img/Fire_Down_Target.gif","[""img/Fire_Up_Distractor.gif"",""img/Fire_Up_Distractor.gif"",""img/Fire_Up_Distractor.gif"",""img/Fire_Up_Distractor.gif"",""img/Fire_Up_Distractor.gif"",""img/Fire_Up_Distractor.gif"",""img/Fire_Up_Distractor.gif"",""img/Fire_Up_Distractor.gif"",""img/Fire_Up_Distractor.gif"",""img/Fire_Up_Distractor.gif"",""img/Fire_Up_Distractor.gif"",""img/Fire_Up_Distractor.gif""]","targetDown_distractorsUp"
"","","","","","html-keyboard-response","142","223582","0.0-14.0-0.0-0.64","616faf3ab8c53e7a73a5dea5","6186fb1cc52d38b480598eb7","61872fdf7d2baf4c343bb995","null","","null","","","","","fixation","","","",""
"","","","","","visual-search-circle","143","226036","0.0-14.0-0.0-1.64","616faf3ab8c53e7a73a5dea5","6186fb1cc52d38b480598eb7","61872fdf7d2baf4c343bb995","1443.7000000178814","","s","true","[[450,559],[559,150],[150,40],[40,449]]","false","4","","","img/Fire_Down_Target.gif","[""img/Fire_Up_Distractor.gif"",""img/Fire_Up_Distractor.gif"",""img/Fire_Up_Distractor.gif"",""img/Fire_Up_Distractor.gif"",""img/Fire_Up_Distractor.gif"",""img/Fire_Up_Distractor.gif"",""img/Fire_Up_Distractor.gif"",""img/Fire_Up_Distractor.gif"",""img/Fire_Up_Distractor.gif"",""img/Fire_Up_Distractor.gif"",""img/Fire_Up_Distractor.gif"",""img/Fire_Up_Distractor.gif""]","targetDown_distractorsUp"
"","","","","","html-keyboard-response","144","226040","0.0-14.0-0.0-0.65","616faf3ab8c53e7a73a5dea5","6186fb1cc52d38b480598eb7","61872fdf7d2baf4c343bb995","null","","null","","","","","fixation","","","",""
"","","","","","visual-search-circle","145","227943","0.0-14.0-0.0-1.65","616faf3ab8c53e7a73a5dea5","6186fb1cc52d38b480598eb7","61872fdf7d2baf4c343bb995","891.7000000178814","","d","true","[[268,598],[574,422],[500,77],[150,40],[6,362]]","true","5","","","img/Fire_Up_Target.gif","[""img/Fire_Down_Distractor.gif"",""img/Fire_Down_Distractor.gif"",""img/Fire_Down_Distractor.gif"",""img/Fire_Down_Distractor.gif"",""img/Fire_Down_Distractor.gif"",""img/Fire_Down_Distractor.gif"",""img/Fire_Down_Distractor.gif"",""img/Fire_Down_Distractor.gif"",""img/Fire_Down_Distractor.gif"",""img/Fire_Down_Distractor.gif"",""img/Fire_Down_Distractor.gif"",""img/Fire_Down_Distractor.gif""]","targetUp_distractorsDown"
"","","","","","html-keyboard-response","146","227945","0.0-14.0-0.0-0.66","616faf3ab8c53e7a73a5dea5","6186fb1cc52d38b480598eb7","61872fdf7d2baf4c343bb995","null","","null","","","","","fixation","","","",""
"","","","","","visual-search-circle","147","230467","0.0-14.0-0.0-1.66","616faf3ab8c53e7a73a5dea5","6186fb1cc52d38b480598eb7","61872fdf7d2baf4c343bb995","1509","","s","true","[[392,585],[593,362],[500,77],[207,14],[6,237],[99,522]]","false","6","","","img/Fire_Down_Target.gif","[""img/Fire_Up_Distractor.gif"",""img/Fire_Up_Distractor.gif"",""img/Fire_Up_Distractor.gif"",""img/Fire_Up_Distractor.gif"",""img/Fire_Up_Distractor.gif"",""img/Fire_Up_Distractor.gif"",""img/Fire_Up_Distractor.gif"",""img/Fire_Up_Distractor.gif"",""img/Fire_Up_Distractor.gif"",""img/Fire_Up_Distractor.gif"",""img/Fire_Up_Distractor.gif"",""img/Fire_Up_Distractor.gif""]","targetDown_distractorsUp"
"","","","","","html-keyboard-response","148","230469","0.0-14.0-0.0-0.67","616faf3ab8c53e7a73a5dea5","6186fb1cc52d38b480598eb7","61872fdf7d2baf4c343bb995","null","","null","","","","","fixation","","","",""
"","","","","","visual-search-circle","149","232355","0.0-14.0-0.0-1.67","616faf3ab8c53e7a73a5dea5","6186fb1cc52d38b480598eb7","61872fdf7d2baf4c343bb995","878.6999999880791","","d","false","[[331,1],[25,177],[99,522],[450,559],[593,237]]","false","5","","","img/Fire_Up_Target.gif","[""img/Fire_Down_Distractor.gif"",""img/Fire_Down_Distractor.gif"",""img/Fire_Down_Distractor.gif"",""img/Fire_Down_Distractor.gif"",""img/Fire_Down_Distractor.gif"",""img/Fire_Down_Distractor.gif"",""img/Fire_Down_Distractor.gif"",""img/Fire_Down_Distractor.gif"",""img/Fire_Down_Distractor.gif"",""img/Fire_Down_Distractor.gif"",""img/Fire_Down_Distractor.gif"",""img/Fire_Down_Distractor.gif""]","targetUp_distractorsDown"
"","","","","","html-keyboard-response","150","232356","0.0-14.0-0.0-0.68","616faf3ab8c53e7a73a5dea5","6186fb1cc52d38b480598eb7","61872fdf7d2baf4c343bb995","null","","null","","","","","fixation","","","",""
"","","","","","visual-search-circle","151","234412","0.0-14.0-0.0-1.68","616faf3ab8c53e7a73a5dea5","6186fb1cc52d38b480598eb7","61872fdf7d2baf4c343bb995","1043.699999988079","","d","true","[[28,173],[54,472],[326,598],[571,426],[545,127],[273,1]]","true","6","","","img/Fire_Down_Target.gif","[""img/Fire_Up_Distractor.gif"",""img/Fire_Up_Distractor.gif"",""img/Fire_Up_Distractor.gif"",""img/Fire_Up_Distractor.gif"",""img/Fire_Up_Distractor.gif"",""img/Fire_Up_Distractor.gif"",""img/Fire_Up_Distractor.gif"",""img/Fire_Up_Distractor.gif"",""img/Fire_Up_Distractor.gif"",""img/Fire_Up_Distractor.gif"",""img/Fire_Up_Distractor.gif"",""img/Fire_Up_Distractor.gif""]","targetDown_distractorsUp"
"","","","","","html-keyboard-response","152","234414","0.0-14.0-0.0-0.69","616faf3ab8c53e7a73a5dea5","6186fb1cc52d38b480598eb7","61872fdf7d2baf4c343bb995","null","","null","","","","","fixation","","","",""
"","","","","","visual-search-circle","153","236293","0.0-14.0-0.0-1.69","616faf3ab8c53e7a73a5dea5","6186fb1cc52d38b480598eb7","61872fdf7d2baf4c343bb995","867.9000000059605","","d","true","[[594,357],[548,132],[357,5],[132,51],[5,242],[51,467],[242,594],[467,548]]","true","8","","","img/Fire_Down_Target.gif","[""img/Fire_Up_Distractor.gif"",""img/Fire_Up_Distractor.gif"",""img/Fire_Up_Distractor.gif"",""img/Fire_Up_Distractor.gif"",""img/Fire_Up_Distractor.gif"",""img/Fire_Up_Distractor.gif"",""img/Fire_Up_Distractor.gif"",""img/Fire_Up_Distractor.gif"",""img/Fire_Up_Distractor.gif"",""img/Fire_Up_Distractor.gif"",""img/Fire_Up_Distractor.gif"",""img/Fire_Up_Distractor.gif""]","targetDown_distractorsUp"
"","","","","","html-keyboard-response","154","236295","0.0-14.0-0.0-0.70","616faf3ab8c53e7a73a5dea5","6186fb1cc52d38b480598eb7","61872fdf7d2baf4c343bb995","null","","null","","","","","fixation","","","",""
"","","","","","visual-search-circle","155","238262","0.0-14.0-0.0-1.70","616faf3ab8c53e7a73a5dea5","6186fb1cc52d38b480598eb7","61872fdf7d2baf4c343bb995","955","","s","true","[[484,63],[230,8],[28,172],[31,432],[236,593],[489,532],[599,297]]","false","7","","","img/Fire_Up_Target.gif","[""img/Fire_Down_Distractor.gif"",""img/Fire_Down_Distractor.gif"",""img/Fire_Down_Distractor.gif"",""img/Fire_Down_Distractor.gif"",""img/Fire_Down_Distractor.gif"",""img/Fire_Down_Distractor.gif"",""img/Fire_Down_Distractor.gif"",""img/Fire_Down_Distractor.gif"",""img/Fire_Down_Distractor.gif"",""img/Fire_Down_Distractor.gif"",""img/Fire_Down_Distractor.gif"",""img/Fire_Down_Distractor.gif""]","targetUp_distractorsDown"
"","","","","","html-keyboard-response","156","238263","0.0-14.0-0.0-0.71","616faf3ab8c53e7a73a5dea5","6186fb1cc52d38b480598eb7","61872fdf7d2baf4c343bb995","null","","null","","","","","fixation","","","",""
"","","","","","visual-search-circle","157","240049","0.0-14.0-0.0-1.71","616faf3ab8c53e7a73a5dea5","6186fb1cc52d38b480598eb7","61872fdf7d2baf4c343bb995","770.5","","s","true","[[372,591],[557,454],[591,227],[454,42],[227,8],[42,145],[8,372],[145,557]]","false","8","","","img/Fire_Down_Target.gif","[""img/Fire_Up_Distractor.gif"",""img/Fire_Up_Distractor.gif"",""img/Fire_Up_Distractor.gif"",""img/Fire_Up_Distractor.gif"",""img/Fire_Up_Distractor.gif"",""img/Fire_Up_Distractor.gif"",""img/Fire_Up_Distractor.gif"",""img/Fire_Up_Distractor.gif"",""img/Fire_Up_Distractor.gif"",""img/Fire_Up_Distractor.gif"",""img/Fire_Up_Distractor.gif"",""img/Fire_Up_Distractor.gif""]","targetDown_distractorsUp"
"","","","","","html-keyboard-response","158","240050","0.0-14.0-0.0-0.72","616faf3ab8c53e7a73a5dea5","6186fb1cc52d38b480598eb7","61872fdf7d2baf4c343bb995","null","","null","","","","","fixation","","","",""
"","","","","","visual-search-circle","159","241772","0.0-14.0-0.0-1.72","616faf3ab8c53e7a73a5dea5","6186fb1cc52d38b480598eb7","61872fdf7d2baf4c343bb995","712.5999999940395","","d","true","[[154,37],[37,445],[445,562],[562,154]]","true","4","","","img/Fire_Down_Target.gif","[""img/Fire_Up_Distractor.gif"",""img/Fire_Up_Distractor.gif"",""img/Fire_Up_Distractor.gif"",""img/Fire_Up_Distractor.gif"",""img/Fire_Up_Distractor.gif"",""img/Fire_Up_Distractor.gif"",""img/Fire_Up_Distractor.gif"",""img/Fire_Up_Distractor.gif"",""img/Fire_Up_Distractor.gif"",""img/Fire_Up_Distractor.gif"",""img/Fire_Up_Distractor.gif"",""img/Fire_Up_Distractor.gif""]","targetDown_distractorsUp"
"","","","","","html-keyboard-response","160","241774","0.0-14.0-0.0-0.73","616faf3ab8c53e7a73a5dea5","6186fb1cc52d38b480598eb7","61872fdf7d2baf4c343bb995","null","","null","","","","","fixation","","","",""
"","","","","","visual-search-circle","161","243625","0.0-14.0-0.0-1.73","616faf3ab8c53e7a73a5dea5","6186fb1cc52d38b480598eb7","61872fdf7d2baf4c343bb995","836.5","","d","true","[[11,217],[37,445],[217,588],[445,562],[588,382],[562,154],[382,11],[154,37]]","true","8","","","img/Fire_Down_Target.gif","[""img/Fire_Up_Distractor.gif"",""img/Fire_Up_Distractor.gif"",""img/Fire_Up_Distractor.gif"",""img/Fire_Up_Distractor.gif"",""img/Fire_Up_Distractor.gif"",""img/Fire_Up_Distractor.gif"",""img/Fire_Up_Distractor.gif"",""img/Fire_Up_Distractor.gif"",""img/Fire_Up_Distractor.gif"",""img/Fire_Up_Distractor.gif"",""img/Fire_Up_Distractor.gif"",""img/Fire_Up_Distractor.gif""]","targetDown_distractorsUp"
"","","","","","html-keyboard-response","162","243627","0.0-14.0-0.0-0.74","616faf3ab8c53e7a73a5dea5","6186fb1cc52d38b480598eb7","61872fdf7d2baf4c343bb995","null","","null","","","","","fixation","","","",""
"","","","","","visual-search-circle","163","245274","0.0-14.0-0.0-1.74","616faf3ab8c53e7a73a5dea5","6186fb1cc52d38b480598eb7","61872fdf7d2baf4c343bb995","633.1000000238419","","d","true","[[0,294],[108,531],[361,593],[567,434],[572,174],[371,8],[117,62]]","true","7","","","img/Fire_Down_Target.gif","[""img/Fire_Up_Distractor.gif"",""img/Fire_Up_Distractor.gif"",""img/Fire_Up_Distractor.gif"",""img/Fire_Up_Distractor.gif"",""img/Fire_Up_Distractor.gif"",""img/Fire_Up_Distractor.gif"",""img/Fire_Up_Distractor.gif"",""img/Fire_Up_Distractor.gif"",""img/Fire_Up_Distractor.gif"",""img/Fire_Up_Distractor.gif"",""img/Fire_Up_Distractor.gif"",""img/Fire_Up_Distractor.gif""]","targetDown_distractorsUp"
"","","","","","html-keyboard-response","164","245276","0.0-14.0-0.0-0.75","616faf3ab8c53e7a73a5dea5","6186fb1cc52d38b480598eb7","61872fdf7d2baf4c343bb995","null","","null","","","","","fixation","","","",""
"","","","","","visual-search-circle","165","248436","0.0-14.0-0.0-1.75","616faf3ab8c53e7a73a5dea5","6186fb1cc52d38b480598eb7","61872fdf7d2baf4c343bb995","2147.899999976158","","d","true","[[10,377],[222,589],[512,512],[589,222],[377,10],[87,87]]","true","6","","","img/Fire_Up_Target.gif","[""img/Fire_Down_Distractor.gif"",""img/Fire_Down_Distractor.gif"",""img/Fire_Down_Distractor.gif"",""img/Fire_Down_Distractor.gif"",""img/Fire_Down_Distractor.gif"",""img/Fire_Down_Distractor.gif"",""img/Fire_Down_Distractor.gif"",""img/Fire_Down_Distractor.gif"",""img/Fire_Down_Distractor.gif"",""img/Fire_Down_Distractor.gif"",""img/Fire_Down_Distractor.gif"",""img/Fire_Down_Distractor.gif""]","targetUp_distractorsDown"
"","","","","","html-keyboard-response","166","248438","0.0-14.0-0.0-0.76","616faf3ab8c53e7a73a5dea5","6186fb1cc52d38b480598eb7","61872fdf7d2baf4c343bb995","null","","null","","","","","fixation","","","",""
"","","","","","visual-search-circle","167","250787","0.0-14.0-0.0-1.76","616faf3ab8c53e7a73a5dea5","6186fb1cc52d38b480598eb7","61872fdf7d2baf4c343bb995","1336.199999988079","","d","true","[[598,326],[472,54],[173,28],[1,273],[127,545],[426,571]]","true","6","","","img/Fire_Down_Target.gif","[""img/Fire_Up_Distractor.gif"",""img/Fire_Up_Distractor.gif"",""img/Fire_Up_Distractor.gif"",""img/Fire_Up_Distractor.gif"",""img/Fire_Up_Distractor.gif"",""img/Fire_Up_Distractor.gif"",""img/Fire_Up_Distractor.gif"",""img/Fire_Up_Distractor.gif"",""img/Fire_Up_Distractor.gif"",""img/Fire_Up_Distractor.gif"",""img/Fire_Up_Distractor.gif"",""img/Fire_Up_Distractor.gif""]","targetDown_distractorsUp"
"","","","","","html-keyboard-response","168","250789","0.0-14.0-0.0-0.77","616faf3ab8c53e7a73a5dea5","6186fb1cc52d38b480598eb7","61872fdf7d2baf4c343bb995","null","","null","","","","","fixation","","","",""
"","","","","","visual-search-circle","169","253048","0.0-14.0-0.0-1.77","616faf3ab8c53e7a73a5dea5","6186fb1cc52d38b480598eb7","61872fdf7d2baf4c343bb995","1249","","s","true","[[526,496],[496,73],[73,103],[103,526]]","false","4","","","img/Fire_Down_Target.gif","[""img/Fire_Up_Distractor.gif"",""img/Fire_Up_Distractor.gif"",""img/Fire_Up_Distractor.gif"",""img/Fire_Up_Distractor.gif"",""img/Fire_Up_Distractor.gif"",""img/Fire_Up_Distractor.gif"",""img/Fire_Up_Distractor.gif"",""img/Fire_Up_Distractor.gif"",""img/Fire_Up_Distractor.gif"",""img/Fire_Up_Distractor.gif"",""img/Fire_Up_Distractor.gif"",""img/Fire_Up_Distractor.gif""]","targetDown_distractorsUp"
"","","","","","html-keyboard-response","170","253051","0.0-14.0-0.0-0.78","616faf3ab8c53e7a73a5dea5","6186fb1cc52d38b480598eb7","61872fdf7d2baf4c343bb995","null","","null","","","","","fixation","","","",""
"","","","","","visual-search-circle","171","254889","0.0-14.0-0.0-1.78","616faf3ab8c53e7a73a5dea5","6186fb1cc52d38b480598eb7","61872fdf7d2baf4c343bb995","827.9000000059605","","d","true","[[392,585],[585,207],[207,14],[14,392]]","true","4","","","img/Fire_Down_Target.gif","[""img/Fire_Up_Distractor.gif"",""img/Fire_Up_Distractor.gif"",""img/Fire_Up_Distractor.gif"",""img/Fire_Up_Distractor.gif"",""img/Fire_Up_Distractor.gif"",""img/Fire_Up_Distractor.gif"",""img/Fire_Up_Distractor.gif"",""img/Fire_Up_Distractor.gif"",""img/Fire_Up_Distractor.gif"",""img/Fire_Up_Distractor.gif"",""img/Fire_Up_Distractor.gif"",""img/Fire_Up_Distractor.gif""]","targetDown_distractorsUp"
"","","","","","html-keyboard-response","172","256163","0.0-14.0-0.0-0.79","616faf3ab8c53e7a73a5dea5","6186fb1cc52d38b480598eb7","61872fdf7d2baf4c343bb995","1273.0999999940395","Wow! You've completed 80 out of 120 trials! </p> <p>  </p><p> Take a quick break, then press any key when you're ready to continue."," ","","","","","fixation","","","",""
"","","","","","visual-search-circle","173","257175","0.0-14.0-0.0-1.79","616faf3ab8c53e7a73a5dea5","6186fb1cc52d38b480598eb7","61872fdf7d2baf4c343bb995","0","","d","true","[[596,253],[407,19],[111,66],[3,346],[192,580],[488,533]]","true","6","","","img/Fire_Down_Target.gif","[""img/Fire_Up_Distractor.gif"",""img/Fire_Up_Distractor.gif"",""img/Fire_Up_Distractor.gif"",""img/Fire_Up_Distractor.gif"",""img/Fire_Up_Distractor.gif"",""img/Fire_Up_Distractor.gif"",""img/Fire_Up_Distractor.gif"",""img/Fire_Up_Distractor.gif"",""img/Fire_Up_Distractor.gif"",""img/Fire_Up_Distractor.gif"",""img/Fire_Up_Distractor.gif"",""img/Fire_Up_Distractor.gif""]","targetDown_distractorsUp"
"","","","","","html-keyboard-response","174","257176","0.0-14.0-0.0-0.80","616faf3ab8c53e7a73a5dea5","6186fb1cc52d38b480598eb7","61872fdf7d2baf4c343bb995","null","","null","","","","","fixation","","","",""
"","","","","","visual-search-circle","175","260011","0.0-14.0-0.0-1.80","616faf3ab8c53e7a73a5dea5","6186fb1cc52d38b480598eb7","61872fdf7d2baf4c343bb995","1828.8999999761581","","d","true","[[54,127],[127,545],[545,472],[472,54]]","true","4","","","img/Fire_Down_Target.gif","[""img/Fire_Up_Distractor.gif"",""img/Fire_Up_Distractor.gif"",""img/Fire_Up_Distractor.gif"",""img/Fire_Up_Distractor.gif"",""img/Fire_Up_Distractor.gif"",""img/Fire_Up_Distractor.gif"",""img/Fire_Up_Distractor.gif"",""img/Fire_Up_Distractor.gif"",""img/Fire_Up_Distractor.gif"",""img/Fire_Up_Distractor.gif"",""img/Fire_Up_Distractor.gif"",""img/Fire_Up_Distractor.gif""]","targetDown_distractorsUp"
"","","","","","html-keyboard-response","176","260013","0.0-14.0-0.0-0.81","616faf3ab8c53e7a73a5dea5","6186fb1cc52d38b480598eb7","61872fdf7d2baf4c343bb995","null","","null","","","","","fixation","","","",""
"","","","","","visual-search-circle","177","261667","0.0-14.0-0.0-1.81","616faf3ab8c53e7a73a5dea5","6186fb1cc52d38b480598eb7","61872fdf7d2baf4c343bb995","644.5","","d","true","[[273,598],[576,417],[496,73],[145,42],[7,367]]","true","5","","","img/Fire_Down_Target.gif","[""img/Fire_Up_Distractor.gif"",""img/Fire_Up_Distractor.gif"",""img/Fire_Up_Distractor.gif"",""img/Fire_Up_Distractor.gif"",""img/Fire_Up_Distractor.gif"",""img/Fire_Up_Distractor.gif"",""img/Fire_Up_Distractor.gif"",""img/Fire_Up_Distractor.gif"",""img/Fire_Up_Distractor.gif"",""img/Fire_Up_Distractor.gif"",""img/Fire_Up_Distractor.gif"",""img/Fire_Up_Distractor.gif""]","targetDown_distractorsUp"
"","","","","","html-keyboard-response","178","261669","0.0-14.0-0.0-0.82","616faf3ab8c53e7a73a5dea5","6186fb1cc52d38b480598eb7","61872fdf7d2baf4c343bb995","null","","null","","","","","fixation","","","",""
"","","","","","visual-search-circle","179","263397","0.0-14.0-0.0-1.82","616faf3ab8c53e7a73a5dea5","6186fb1cc52d38b480598eb7","61872fdf7d2baf4c343bb995","717","","s","true","[[192,580],[580,407],[407,19],[19,192]]","false","4","","","img/Fire_Down_Target.gif","[""img/Fire_Up_Distractor.gif"",""img/Fire_Up_Distractor.gif"",""img/Fire_Up_Distractor.gif"",""img/Fire_Up_Distractor.gif"",""img/Fire_Up_Distractor.gif"",""img/Fire_Up_Distractor.gif"",""img/Fire_Up_Distractor.gif"",""img/Fire_Up_Distractor.gif"",""img/Fire_Up_Distractor.gif"",""img/Fire_Up_Distractor.gif"",""img/Fire_Up_Distractor.gif"",""img/Fire_Up_Distractor.gif""]","targetDown_distractorsUp"
"","","","","","html-keyboard-response","180","263399","0.0-14.0-0.0-0.83","616faf3ab8c53e7a73a5dea5","6186fb1cc52d38b480598eb7","61872fdf7d2baf4c343bb995","null","","null","","","","","fixation","","","",""
"","","","","","visual-search-circle","181","264828","0.0-14.0-0.0-1.83","616faf3ab8c53e7a73a5dea5","6186fb1cc52d38b480598eb7","61872fdf7d2baf4c343bb995","413.7000000178814","","d","false","[[123,542],[379,589],[575,417],[564,157],[353,4],[102,74],[0,313]]","false","7","","","img/Fire_Down_Target.gif","[""img/Fire_Up_Distractor.gif"",""img/Fire_Up_Distractor.gif"",""img/Fire_Up_Distractor.gif"",""img/Fire_Up_Distractor.gif"",""img/Fire_Up_Distractor.gif"",""img/Fire_Up_Distractor.gif"",""img/Fire_Up_Distractor.gif"",""img/Fire_Up_Distractor.gif"",""img/Fire_Up_Distractor.gif"",""img/Fire_Up_Distractor.gif"",""img/Fire_Up_Distractor.gif"",""img/Fire_Up_Distractor.gif""]","targetDown_distractorsUp"
"","","","","","html-keyboard-response","182","264830","0.0-14.0-0.0-0.84","616faf3ab8c53e7a73a5dea5","6186fb1cc52d38b480598eb7","61872fdf7d2baf4c343bb995","null","","null","","","","","fixation","","","",""
"","","","","","visual-search-circle","183","267218","0.0-14.0-0.0-1.84","616faf3ab8c53e7a73a5dea5","6186fb1cc52d38b480598eb7","61872fdf7d2baf4c343bb995","1378.8999999761581","","s","true","[[542,476],[589,220],[417,24],[157,35],[4,246],[74,497],[313,599]]","false","7","","","img/Fire_Up_Target.gif","[""img/Fire_Down_Distractor.gif"",""img/Fire_Down_Distractor.gif"",""img/Fire_Down_Distractor.gif"",""img/Fire_Down_Distractor.gif"",""img/Fire_Down_Distractor.gif"",""img/Fire_Down_Distractor.gif"",""img/Fire_Down_Distractor.gif"",""img/Fire_Down_Distractor.gif"",""img/Fire_Down_Distractor.gif"",""img/Fire_Down_Distractor.gif"",""img/Fire_Down_Distractor.gif"",""img/Fire_Down_Distractor.gif""]","targetUp_distractorsDown"
"","","","","","html-keyboard-response","184","267220","0.0-14.0-0.0-0.85","616faf3ab8c53e7a73a5dea5","6186fb1cc52d38b480598eb7","61872fdf7d2baf4c343bb995","null","","null","","","","","fixation","","","",""
"","","","","","visual-search-circle","185","269179","0.0-14.0-0.0-1.85","616faf3ab8c53e7a73a5dea5","6186fb1cc52d38b480598eb7","61872fdf7d2baf4c343bb995","945","","s","true","[[237,593],[463,551],[593,362],[551,136],[362,6],[136,48],[6,237],[48,463]]","false","8","","","img/Fire_Up_Target.gif","[""img/Fire_Down_Distractor.gif"",""img/Fire_Down_Distractor.gif"",""img/Fire_Down_Distractor.gif"",""img/Fire_Down_Distractor.gif"",""img/Fire_Down_Distractor.gif"",""img/Fire_Down_Distractor.gif"",""img/Fire_Down_Distractor.gif"",""img/Fire_Down_Distractor.gif"",""img/Fire_Down_Distractor.gif"",""img/Fire_Down_Distractor.gif"",""img/Fire_Down_Distractor.gif"",""img/Fire_Down_Distractor.gif""]","targetUp_distractorsDown"
"","","","","","html-keyboard-response","186","269181","0.0-14.0-0.0-0.86","616faf3ab8c53e7a73a5dea5","6186fb1cc52d38b480598eb7","61872fdf7d2baf4c343bb995","null","","null","","","","","fixation","","","",""
"","","","","","visual-search-circle","187","271026","0.0-14.0-0.0-1.86","616faf3ab8c53e7a73a5dea5","6186fb1cc52d38b480598eb7","61872fdf7d2baf4c343bb995","836.5","","d","true","[[519,95],[276,0],[51,131],[13,389],[191,579],[450,559],[596,343]]","true","7","","","img/Fire_Down_Target.gif","[""img/Fire_Up_Distractor.gif"",""img/Fire_Up_Distractor.gif"",""img/Fire_Up_Distractor.gif"",""img/Fire_Up_Distractor.gif"",""img/Fire_Up_Distractor.gif"",""img/Fire_Up_Distractor.gif"",""img/Fire_Up_Distractor.gif"",""img/Fire_Up_Distractor.gif"",""img/Fire_Up_Distractor.gif"",""img/Fire_Up_Distractor.gif"",""img/Fire_Up_Distractor.gif"",""img/Fire_Up_Distractor.gif""]","targetDown_distractorsUp"
"","","","","","html-keyboard-response","188","271028","0.0-14.0-0.0-0.87","616faf3ab8c53e7a73a5dea5","6186fb1cc52d38b480598eb7","61872fdf7d2baf4c343bb995","null","","null","","","","","fixation","","","",""
"","","","","","visual-search-circle","189","273027","0.0-14.0-0.0-1.87","616faf3ab8c53e7a73a5dea5","6186fb1cc52d38b480598eb7","61872fdf7d2baf4c343bb995","984.4000000059605","","d","true","[[73,103],[4,354],[158,564],[418,575],[589,379],[542,123],[312,0]]","true","7","","","img/Fire_Up_Target.gif","[""img/Fire_Down_Distractor.gif"",""img/Fire_Down_Distractor.gif"",""img/Fire_Down_Distractor.gif"",""img/Fire_Down_Distractor.gif"",""img/Fire_Down_Distractor.gif"",""img/Fire_Down_Distractor.gif"",""img/Fire_Down_Distractor.gif"",""img/Fire_Down_Distractor.gif"",""img/Fire_Down_Distractor.gif"",""img/Fire_Down_Distractor.gif"",""img/Fire_Down_Distractor.gif"",""img/Fire_Down_Distractor.gif""]","targetUp_distractorsDown"
"","","","","","html-keyboard-response","190","273029","0.0-14.0-0.0-0.88","616faf3ab8c53e7a73a5dea5","6186fb1cc52d38b480598eb7","61872fdf7d2baf4c343bb995","null","","null","","","","","fixation","","","",""
"","","","","","visual-search-circle","191","274713","0.0-14.0-0.0-1.88","616faf3ab8c53e7a73a5dea5","6186fb1cc52d38b480598eb7","61872fdf7d2baf4c343bb995","670.1999999880791","","s","true","[[3,253],[57,476],[253,596],[476,542],[596,346],[542,123],[346,3],[123,57]]","false","8","","","img/Fire_Down_Target.gif","[""img/Fire_Up_Distractor.gif"",""img/Fire_Up_Distractor.gif"",""img/Fire_Up_Distractor.gif"",""img/Fire_Up_Distractor.gif"",""img/Fire_Up_Distractor.gif"",""img/Fire_Up_Distractor.gif"",""img/Fire_Up_Distractor.gif"",""img/Fire_Up_Distractor.gif"",""img/Fire_Up_Distractor.gif"",""img/Fire_Up_Distractor.gif"",""img/Fire_Up_Distractor.gif"",""img/Fire_Up_Distractor.gif""]","targetDown_distractorsUp"
"","","","","","html-keyboard-response","192","274715","0.0-14.0-0.0-0.89","616faf3ab8c53e7a73a5dea5","6186fb1cc52d38b480598eb7","61872fdf7d2baf4c343bb995","null","","null","","","","","fixation","","","",""
"","","","","","visual-search-circle","193","276653","0.0-14.0-0.0-1.89","616faf3ab8c53e7a73a5dea5","6186fb1cc52d38b480598eb7","61872fdf7d2baf4c343bb995","923","","s","true","[[0,294],[145,557],[445,562],[599,305],[454,42],[154,37]]","false","6","","","img/Fire_Down_Target.gif","[""img/Fire_Up_Distractor.gif"",""img/Fire_Up_Distractor.gif"",""img/Fire_Up_Distractor.gif"",""img/Fire_Up_Distractor.gif"",""img/Fire_Up_Distractor.gif"",""img/Fire_Up_Distractor.gif"",""img/Fire_Up_Distractor.gif"",""img/Fire_Up_Distractor.gif"",""img/Fire_Up_Distractor.gif"",""img/Fire_Up_Distractor.gif"",""img/Fire_Up_Distractor.gif"",""img/Fire_Up_Distractor.gif""]","targetDown_distractorsUp"
"","","","","","html-keyboard-response","194","276654","0.0-14.0-0.0-0.90","616faf3ab8c53e7a73a5dea5","6186fb1cc52d38b480598eb7","61872fdf7d2baf4c343bb995","null","","null","","","","","fixation","","","",""
"","","","","","visual-search-circle","195","280310","0.0-14.0-0.0-1.90","616faf3ab8c53e7a73a5dea5","6186fb1cc52d38b480598eb7","61872fdf7d2baf4c343bb995","2648.699999988079","","s","true","[[480,60],[60,119],[119,539],[539,480]]","false","4","","","img/Fire_Up_Target.gif","[""img/Fire_Down_Distractor.gif"",""img/Fire_Down_Distractor.gif"",""img/Fire_Down_Distractor.gif"",""img/Fire_Down_Distractor.gif"",""img/Fire_Down_Distractor.gif"",""img/Fire_Down_Distractor.gif"",""img/Fire_Down_Distractor.gif"",""img/Fire_Down_Distractor.gif"",""img/Fire_Down_Distractor.gif"",""img/Fire_Down_Distractor.gif"",""img/Fire_Down_Distractor.gif"",""img/Fire_Down_Distractor.gif""]","targetUp_distractorsDown"
"","","","","","html-keyboard-response","196","280313","0.0-14.0-0.0-0.91","616faf3ab8c53e7a73a5dea5","6186fb1cc52d38b480598eb7","61872fdf7d2baf4c343bb995","null","","null","","","","","fixation","","","",""
"","","","","","visual-search-circle","197","282534","0.0-14.0-0.0-1.91","616faf3ab8c53e7a73a5dea5","6186fb1cc52d38b480598eb7","61872fdf7d2baf4c343bb995","1210.5","","s","true","[[533,488],[488,66],[66,111],[111,533]]","false","4","","","img/Fire_Up_Target.gif","[""img/Fire_Down_Distractor.gif"",""img/Fire_Down_Distractor.gif"",""img/Fire_Down_Distractor.gif"",""img/Fire_Down_Distractor.gif"",""img/Fire_Down_Distractor.gif"",""img/Fire_Down_Distractor.gif"",""img/Fire_Down_Distractor.gif"",""img/Fire_Down_Distractor.gif"",""img/Fire_Down_Distractor.gif"",""img/Fire_Down_Distractor.gif"",""img/Fire_Down_Distractor.gif"",""img/Fire_Down_Distractor.gif""]","targetUp_distractorsDown"
"","","","","","html-keyboard-response","198","282536","0.0-14.0-0.0-0.92","616faf3ab8c53e7a73a5dea5","6186fb1cc52d38b480598eb7","61872fdf7d2baf4c343bb995","null","","null","","","","","fixation","","","",""
"","","","","","visual-search-circle","199","284274","0.0-14.0-0.0-1.92","616faf3ab8c53e7a73a5dea5","6186fb1cc52d38b480598eb7","61872fdf7d2baf4c343bb995","729.0999999940395","","d","true","[[7,367],[367,592],[592,232],[232,7]]","true","4","","","img/Fire_Up_Target.gif","[""img/Fire_Down_Distractor.gif"",""img/Fire_Down_Distractor.gif"",""img/Fire_Down_Distractor.gif"",""img/Fire_Down_Distractor.gif"",""img/Fire_Down_Distractor.gif"",""img/Fire_Down_Distractor.gif"",""img/Fire_Down_Distractor.gif"",""img/Fire_Down_Distractor.gif"",""img/Fire_Down_Distractor.gif"",""img/Fire_Down_Distractor.gif"",""img/Fire_Down_Distractor.gif"",""img/Fire_Down_Distractor.gif""]","targetUp_distractorsDown"
"","","","","","html-keyboard-response","200","284276","0.0-14.0-0.0-0.93","616faf3ab8c53e7a73a5dea5","6186fb1cc52d38b480598eb7","61872fdf7d2baf4c343bb995","null","","null","","","","","fixation","","","",""
"","","","","","visual-search-circle","201","286443","0.0-14.0-0.0-1.93","616faf3ab8c53e7a73a5dea5","6186fb1cc52d38b480598eb7","61872fdf7d2baf4c343bb995","1154.8999999761581","","s","true","[[598,268],[488,66],[268,1],[66,111],[1,331],[111,533],[331,598],[533,488]]","false","8","","","img/Fire_Up_Target.gif","[""img/Fire_Down_Distractor.gif"",""img/Fire_Down_Distractor.gif"",""img/Fire_Down_Distractor.gif"",""img/Fire_Down_Distractor.gif"",""img/Fire_Down_Distractor.gif"",""img/Fire_Down_Distractor.gif"",""img/Fire_Down_Distractor.gif"",""img/Fire_Down_Distractor.gif"",""img/Fire_Down_Distractor.gif"",""img/Fire_Down_Distractor.gif"",""img/Fire_Down_Distractor.gif"",""img/Fire_Down_Distractor.gif""]","targetUp_distractorsDown"
"","","","","","html-keyboard-response","202","286444","0.0-14.0-0.0-0.94","616faf3ab8c53e7a73a5dea5","6186fb1cc52d38b480598eb7","61872fdf7d2baf4c343bb995","null","","null","","","","","fixation","","","",""
"","","","","","visual-search-circle","203","288496","0.0-14.0-0.0-1.94","616faf3ab8c53e7a73a5dea5","6186fb1cc52d38b480598eb7","61872fdf7d2baf4c343bb995","1040.7999999821186","","s","true","[[40,450],[450,559],[559,150],[150,40]]","false","4","","","img/Fire_Up_Target.gif","[""img/Fire_Down_Distractor.gif"",""img/Fire_Down_Distractor.gif"",""img/Fire_Down_Distractor.gif"",""img/Fire_Down_Distractor.gif"",""img/Fire_Down_Distractor.gif"",""img/Fire_Down_Distractor.gif"",""img/Fire_Down_Distractor.gif"",""img/Fire_Down_Distractor.gif"",""img/Fire_Down_Distractor.gif"",""img/Fire_Down_Distractor.gif"",""img/Fire_Down_Distractor.gif"",""img/Fire_Down_Distractor.gif""]","targetUp_distractorsDown"
"","","","","","html-keyboard-response","204","288497","0.0-14.0-0.0-0.95","616faf3ab8c53e7a73a5dea5","6186fb1cc52d38b480598eb7","61872fdf7d2baf4c343bb995","null","","null","","","","","fixation","","","",""
"","","","","","visual-search-circle","205","290213","0.0-14.0-0.0-1.95","616faf3ab8c53e7a73a5dea5","6186fb1cc52d38b480598eb7","61872fdf7d2baf4c343bb995","700.4000000059605","","s","false","[[536,115],[302,0],[67,110],[6,363],[167,568],[427,571],[591,369]]","true","7","","","img/Fire_Up_Target.gif","[""img/Fire_Down_Distractor.gif"",""img/Fire_Down_Distractor.gif"",""img/Fire_Down_Distractor.gif"",""img/Fire_Down_Distractor.gif"",""img/Fire_Down_Distractor.gif"",""img/Fire_Down_Distractor.gif"",""img/Fire_Down_Distractor.gif"",""img/Fire_Down_Distractor.gif"",""img/Fire_Down_Distractor.gif"",""img/Fire_Down_Distractor.gif"",""img/Fire_Down_Distractor.gif"",""img/Fire_Down_Distractor.gif""]","targetUp_distractorsDown"
"","","","","","html-keyboard-response","206","290215","0.0-14.0-0.0-0.96","616faf3ab8c53e7a73a5dea5","6186fb1cc52d38b480598eb7","61872fdf7d2baf4c343bb995","null","","null","","","","","fixation","","","",""
"","","","","","visual-search-circle","207","292261","0.0-14.0-0.0-1.96","616faf3ab8c53e7a73a5dea5","6186fb1cc52d38b480598eb7","61872fdf7d2baf4c343bb995","1034","","s","true","[[18,197],[115,536],[467,548],[588,217],[310,0]]","false","5","","","img/Fire_Down_Target.gif","[""img/Fire_Up_Distractor.gif"",""img/Fire_Up_Distractor.gif"",""img/Fire_Up_Distractor.gif"",""img/Fire_Up_Distractor.gif"",""img/Fire_Up_Distractor.gif"",""img/Fire_Up_Distractor.gif"",""img/Fire_Up_Distractor.gif"",""img/Fire_Up_Distractor.gif"",""img/Fire_Up_Distractor.gif"",""img/Fire_Up_Distractor.gif"",""img/Fire_Up_Distractor.gif"",""img/Fire_Up_Distractor.gif""]","targetDown_distractorsUp"
"","","","","","html-keyboard-response","208","292263","0.0-14.0-0.0-0.97","616faf3ab8c53e7a73a5dea5","6186fb1cc52d38b480598eb7","61872fdf7d2baf4c343bb995","null","","null","","","","","fixation","","","",""
"","","","","","visual-search-circle","209","293860","0.0-14.0-0.0-1.97","616faf3ab8c53e7a73a5dea5","6186fb1cc52d38b480598eb7","61872fdf7d2baf4c343bb995","587.2000000178814","","d","true","[[454,42],[42,145],[145,557],[557,454]]","true","4","","","img/Fire_Up_Target.gif","[""img/Fire_Down_Distractor.gif"",""img/Fire_Down_Distractor.gif"",""img/Fire_Down_Distractor.gif"",""img/Fire_Down_Distractor.gif"",""img/Fire_Down_Distractor.gif"",""img/Fire_Down_Distractor.gif"",""img/Fire_Down_Distractor.gif"",""img/Fire_Down_Distractor.gif"",""img/Fire_Down_Distractor.gif"",""img/Fire_Down_Distractor.gif"",""img/Fire_Down_Distractor.gif"",""img/Fire_Down_Distractor.gif""]","targetUp_distractorsDown"
"","","","","","html-keyboard-response","210","293862","0.0-14.0-0.0-0.98","616faf3ab8c53e7a73a5dea5","6186fb1cc52d38b480598eb7","61872fdf7d2baf4c343bb995","null","","null","","","","","fixation","","","",""
"","","","","","visual-search-circle","211","295712","0.0-14.0-0.0-1.98","616faf3ab8c53e7a73a5dea5","6186fb1cc52d38b480598eb7","61872fdf7d2baf4c343bb995","839.6999999880791","","d","true","[[372,8],[145,42],[8,227],[42,454],[227,591],[454,557],[591,372],[557,145]]","true","8","","","img/Fire_Up_Target.gif","[""img/Fire_Down_Distractor.gif"",""img/Fire_Down_Distractor.gif"",""img/Fire_Down_Distractor.gif"",""img/Fire_Down_Distractor.gif"",""img/Fire_Down_Distractor.gif"",""img/Fire_Down_Distractor.gif"",""img/Fire_Down_Distractor.gif"",""img/Fire_Down_Distractor.gif"",""img/Fire_Down_Distractor.gif"",""img/Fire_Down_Distractor.gif"",""img/Fire_Down_Distractor.gif"",""img/Fire_Down_Distractor.gif""]","targetUp_distractorsDown"
"","","","","","html-keyboard-response","212","296606","0.0-14.0-0.0-0.99","616faf3ab8c53e7a73a5dea5","6186fb1cc52d38b480598eb7","61872fdf7d2baf4c343bb995","893.5999999940395","Wow! You've completed 100 out of 120 trials! </p> <p>  </p><p> Take a quick break, then press any key when you're ready to continue.","d","","","","","fixation","","","",""
"","","","","","visual-search-circle","213","298628","0.0-14.0-0.0-1.99","616faf3ab8c53e7a73a5dea5","6186fb1cc52d38b480598eb7","61872fdf7d2baf4c343bb995","1008.9000000059605","","d","true","[[519,504],[596,256],[450,40],[191,20],[13,210],[51,468],[276,599]]","true","7","","","img/Fire_Down_Target.gif","[""img/Fire_Up_Distractor.gif"",""img/Fire_Up_Distractor.gif"",""img/Fire_Up_Distractor.gif"",""img/Fire_Up_Distractor.gif"",""img/Fire_Up_Distractor.gif"",""img/Fire_Up_Distractor.gif"",""img/Fire_Up_Distractor.gif"",""img/Fire_Up_Distractor.gif"",""img/Fire_Up_Distractor.gif"",""img/Fire_Up_Distractor.gif"",""img/Fire_Up_Distractor.gif"",""img/Fire_Up_Distractor.gif""]","targetDown_distractorsUp"
"","","","","","html-keyboard-response","214","298630","0.0-14.0-0.0-0.100","616faf3ab8c53e7a73a5dea5","6186fb1cc52d38b480598eb7","61872fdf7d2baf4c343bb995","null","","null","","","","","fixation","","","",""
"","","","","","visual-search-circle","215","300852","0.0-14.0-0.0-1.100","616faf3ab8c53e7a73a5dea5","6186fb1cc52d38b480598eb7","61872fdf7d2baf4c343bb995","1209.4000000059605","","s","true","[[123,542],[346,596],[542,476],[596,253],[476,57],[253,3],[57,123],[3,346]]","false","8","","","img/Fire_Down_Target.gif","[""img/Fire_Up_Distractor.gif"",""img/Fire_Up_Distractor.gif"",""img/Fire_Up_Distractor.gif"",""img/Fire_Up_Distractor.gif"",""img/Fire_Up_Distractor.gif"",""img/Fire_Up_Distractor.gif"",""img/Fire_Up_Distractor.gif"",""img/Fire_Up_Distractor.gif"",""img/Fire_Up_Distractor.gif"",""img/Fire_Up_Distractor.gif"",""img/Fire_Up_Distractor.gif"",""img/Fire_Up_Distractor.gif""]","targetDown_distractorsUp"
"","","","","","html-keyboard-response","216","300853","0.0-14.0-0.0-0.101","616faf3ab8c53e7a73a5dea5","6186fb1cc52d38b480598eb7","61872fdf7d2baf4c343bb995","null","","null","","","","","fixation","","","",""
"","","","","","visual-search-circle","217","302709","0.0-14.0-0.0-1.101","616faf3ab8c53e7a73a5dea5","6186fb1cc52d38b480598eb7","61872fdf7d2baf4c343bb995","843","","d","false","[[508,84],[217,11],[8,227],[91,515],[382,588],[591,372]]","false","6","","","img/Fire_Up_Target.gif","[""img/Fire_Down_Distractor.gif"",""img/Fire_Down_Distractor.gif"",""img/Fire_Down_Distractor.gif"",""img/Fire_Down_Distractor.gif"",""img/Fire_Down_Distractor.gif"",""img/Fire_Down_Distractor.gif"",""img/Fire_Down_Distractor.gif"",""img/Fire_Down_Distractor.gif"",""img/Fire_Down_Distractor.gif"",""img/Fire_Down_Distractor.gif"",""img/Fire_Down_Distractor.gif"",""img/Fire_Down_Distractor.gif""]","targetUp_distractorsDown"
"","","","","","html-keyboard-response","218","302710","0.0-14.0-0.0-0.102","616faf3ab8c53e7a73a5dea5","6186fb1cc52d38b480598eb7","61872fdf7d2baf4c343bb995","null","","null","","","","","fixation","","","",""
"","","","","","visual-search-circle","219","304754","0.0-14.0-0.0-1.102","616faf3ab8c53e7a73a5dea5","6186fb1cc52d38b480598eb7","61872fdf7d2baf4c343bb995","1029.5999999940395","","s","true","[[440,564],[586,387],[564,159],[387,13],[159,35],[13,212],[35,440],[212,586]]","false","8","","","img/Fire_Down_Target.gif","[""img/Fire_Up_Distractor.gif"",""img/Fire_Up_Distractor.gif"",""img/Fire_Up_Distractor.gif"",""img/Fire_Up_Distractor.gif"",""img/Fire_Up_Distractor.gif"",""img/Fire_Up_Distractor.gif"",""img/Fire_Up_Distractor.gif"",""img/Fire_Up_Distractor.gif"",""img/Fire_Up_Distractor.gif"",""img/Fire_Up_Distractor.gif"",""img/Fire_Up_Distractor.gif"",""img/Fire_Up_Distractor.gif""]","targetDown_distractorsUp"
"","","","","","html-keyboard-response","220","304755","0.0-14.0-0.0-0.103","616faf3ab8c53e7a73a5dea5","6186fb1cc52d38b480598eb7","61872fdf7d2baf4c343bb995","null","","null","","","","","fixation","","","",""
"","","","","","visual-search-circle","221","306686","0.0-14.0-0.0-1.103","616faf3ab8c53e7a73a5dea5","6186fb1cc52d38b480598eb7","61872fdf7d2baf4c343bb995","924.4000000059605","","d","true","[[182,23],[2,263],[119,539],[417,576],[597,336],[480,60]]","true","6","","","img/Fire_Down_Target.gif","[""img/Fire_Up_Distractor.gif"",""img/Fire_Up_Distractor.gif"",""img/Fire_Up_Distractor.gif"",""img/Fire_Up_Distractor.gif"",""img/Fire_Up_Distractor.gif"",""img/Fire_Up_Distractor.gif"",""img/Fire_Up_Distractor.gif"",""img/Fire_Up_Distractor.gif"",""img/Fire_Up_Distractor.gif"",""img/Fire_Up_Distractor.gif"",""img/Fire_Up_Distractor.gif"",""img/Fire_Up_Distractor.gif""]","targetDown_distractorsUp"
"","","","","","html-keyboard-response","222","306688","0.0-14.0-0.0-0.104","616faf3ab8c53e7a73a5dea5","6186fb1cc52d38b480598eb7","61872fdf7d2baf4c343bb995","null","","null","","","","","fixation","","","",""
