"success","timeout","failed_images","failed_audio","failed_video","trial_type","trial_index","time_elapsed","internal_node_id","subject_id","study_id","session_id","rt","stimulus","response","position_of_items","colors_of_items","color_of_target","wheel_spin","response_angle","physical_response_angle","reported_color_angle","reported_color_discrete","locs","which_test","set_size","wheel_num_options","actual_mask_duration","actual_stim_duration","CMDispTime","maskArray","maskRotation","item_positions","task","randomSpinAmount","mainTask"
"true","false","[]","[]","[]","preload","0","6170","0.0-0.0","55899b8dfdf99b7ae47f5fa4","640759fa512f630a2bdc333d","6408c18356bfc13724548624","","","","","","","","","","","","","","","","","","","","","","","",""
"true","","","","","fullscreen","1","10757","0.0-1.0","55899b8dfdf99b7ae47f5fa4","640759fa512f630a2bdc333d","6408c18356bfc13724548624","","","","","","","","","","","","","","","","","","","","","","","",""
"","","","","","html-keyboard-response","2","20308","0.0-2.0","55899b8dfdf99b7ae47f5fa4","640759fa512f630a2bdc333d","6408c18356bfc13724548624","9550.5","What a beautiful Wednesday to do some awesome science! </p> <p>  </p><p> </p>
    By completing this survey or questionnaire, you are consenting to be in this research study. </p>
    Your participation is voluntary and you can stop at any time.<p> [Press any key to continue] </p>","enter","","","","","","","","","","","","","","","","","","","","",""
"","","","","","html-keyboard-response","3","30309","0.0-3.0","55899b8dfdf99b7ae47f5fa4","640759fa512f630a2bdc333d","6408c18356bfc13724548624","null","
    <div style='width: 1000px;'>
    <div style='float: center;'><img src='img/TaskInstructions1.png'></img>
    </div>
    ","null","","","","","","","","","","","","","","","","","","","","",""
"","","","","","html-keyboard-response","4","33275","0.0-4.0","55899b8dfdf99b7ae47f5fa4","640759fa512f630a2bdc333d","6408c18356bfc13724548624","2965.300000011921","
    <div style='width: 1000px;'>
    <div style='float: center;'><img src='img/TaskInstructions1.png'></img>
    </div>
    ","enter","","","","","","","","","","","","","","","","","","","","",""
"","","","","","html-keyboard-response","5","43277","0.0-5.0","55899b8dfdf99b7ae47f5fa4","640759fa512f630a2bdc333d","6408c18356bfc13724548624","null","
    <div style='width: 1000px;'>
    <div style='float: center;'><img src='img/TaskInstructions2.png'></img>
    </div>
    ","null","","","","","","","","","","","","","","","","","","","","",""
"","","","","","html-keyboard-response","6","60300","0.0-6.0","55899b8dfdf99b7ae47f5fa4","640759fa512f630a2bdc333d","6408c18356bfc13724548624","17021.19999998808","
    <div style='width: 1000px;'>
    <div style='float: center;'><img src='img/TaskInstructions2.png'></img>
    </div>
    ","enter","","","","","","","","","","","","","","","","","","","","",""
"","","","","","video-keyboard-response","7","85716","0.0-7.0","55899b8dfdf99b7ae47f5fa4","640759fa512f630a2bdc333d","6408c18356bfc13724548624","25414.5","[""video/TaskInstructions3.mp4""]","enter","","","","","","","","","","","","","","","","","","","","",""
"","","","","","image-keyboard-response","8","97188","0.0-8.0-0.0","55899b8dfdf99b7ae47f5fa4","640759fa512f630a2bdc333d","6408c18356bfc13724548624","11470.599999964237","img/training1.png","enter","","","","","","","","","","","","","","","","","","","","",""
"","","","","","color-precision2","9","116590","0.0-8.0-1.0-0.0","55899b8dfdf99b7ae47f5fa4","640759fa512f630a2bdc333d","6408c18356bfc13724548624","[6982.800000011921]","","","[11]","[354]","354","294","265.52720859558","[265.52720859558]","[331.52720859558]","[332]","0","0","1","0","498.5969999523222","1002.3369999880815","1000","","","0","training","",""
"","","","","","image-keyboard-response","10","131916","0.0-8.0-0.1","55899b8dfdf99b7ae47f5fa4","640759fa512f630a2bdc333d","6408c18356bfc13724548624","15324.800000011921","img/training2.png","enter","","","","","","","","","","","","","","","","","","","","",""
"","","","","","many-guess-6","11","140076","0.0-8.0-1.1-0.1","55899b8dfdf99b7ae47f5fa4","640759fa512f630a2bdc333d","6408c18356bfc13724548624","[2073.400000035763]","","","[1,8,5]","[309,271,255]","309","253","309.12808064086573","[309.12808064086573]","[56.12808064086573]","[56]","[300,30,210,300,300,210,300,300,300,30,120,210,210,30,30,30,120,120,30,300,30,30,300,300,30,210,30,120,210,120,210,300,300,120,120,120]","0","3","0","999.5869999642309","996.2929999761691","1000","[[[""img/mask92.png""],[""img/mask27.png""],[""img/mask65.png""]]]","","[1,8,5]","training","",""
"","","","","","image-keyboard-response","12","149588","0.0-8.0-0.2","55899b8dfdf99b7ae47f5fa4","640759fa512f630a2bdc333d","6408c18356bfc13724548624","9511.099999964237","img/training3.png","enter","","","","","","","","","","","","","","","","","","","","",""
"","","","","","[""many-guess-6""]","13","156932","0.0-8.0-1.2-0.2","55899b8dfdf99b7ae47f5fa4","640759fa512f630a2bdc333d","6408c18356bfc13724548624","[3413.399999976158]","","","[7,21,3,31,0]","[143,214,329,280,179]","143","145","146.74192000336174","[146.74192000336174]","[1.7419200033617415]","[0]","[210,30,300,210,120,120,210,210,300,30,300,120,210,120,210,120,30,210,300,30,30,300,300,300,30,30,300,300,30,120,120,120,300,120,300,120]","0","5","0","499.3319999880914","499.30199995232397","500","[[[""img/mask1.png""],[""img/mask99.png""],[""img/mask8.png""],[""img/mask30.png""],[""img/mask50.png""]]]","","[7,21,3,31,0]","training","",""
"","","","","","image-keyboard-response","14","160372","0.0-8.0-0.3","55899b8dfdf99b7ae47f5fa4","640759fa512f630a2bdc333d","6408c18356bfc13724548624","3439.399999976158","img/training4.png","enter","","","","","","","","","","","","","","","","","","","","",""
"","","","","","[""many-guess-6""]","15","168939","0.0-8.0-1.3-0.3","55899b8dfdf99b7ae47f5fa4","640759fa512f630a2bdc333d","6408c18356bfc13724548624","[5076.799999952316]","","","[35,22,6,27,19,9,15,25,28,14]","[85,267,318,2,240,50,287,38,332,73]","85","287","190.2371537260135","[190.2371537260135]","[263.2371537260135]","[262]","[120,210,120,30,210,300,300,210,210,120,300,300,120,120,300,210,120,120,30,30,300,210,210,210,210,30,300,120,120,120,30,30,300,30,120,30]","0","10","0","132.29799997614464","127.17999997615698","132","[[[""img/mask63.png""],[""img/mask70.png""],[""img/mask83.png""],[""img/mask14.png""],[""img/mask36.png""],[""img/mask47.png""],[""img/mask61.png""],[""img/mask90.png""],[""img/mask24.png""],[""img/mask67.png""]]]","","[35,22,6,27,19,9,15,25,28,14]","training","",""
"","","","","","image-keyboard-response","16","176276","0.0-8.0-0.4","55899b8dfdf99b7ae47f5fa4","640759fa512f630a2bdc333d","6408c18356bfc13724548624","7335.700000047684","img/training5.png","enter","","","","","","","","","","","","","","","","","","","","",""
"","","","","","[""many-guess-6""]","17","183377","0.0-8.0-1.4-0.4","55899b8dfdf99b7ae47f5fa4","640759fa512f630a2bdc333d","6408c18356bfc13724548624","[4066.699999988079]","","","[26,34,22,19,10,23,9,28,25,0,35,1,29,6,27,15,12,33,4,24,17,21,18,13,20,5,14,2,3,8,31,32,7,30,16,11]","[324,215,344,185,165,274,294,145,75,334,265,105,45,65,175,125,5,225,235,245,55,255,85,95,195,205,115,354,15,135,314,25,304,35,284,155]","324","150","151.6828089413824","[151.6828089413824]","[1.6828089413824046]","[0]","[300,120,210,30,30,30,30,30,30,300,210,30,300,300,120,300,120,120,210,120,30,210,30,120,30,120,120,210,300,300,120,30,30,300,120,120]","0","36","0","132.63999997614883","11.03200000000652","16","[[[""img/mask9.png""],[""img/mask86.png""],[""img/mask85.png""],[""img/mask69.png""],[""img/mask8.png""],[""img/mask11.png""],[""img/mask61.png""],[""img/mask38.png""],[""img/mask57.png""],[""img/mask10.png""],[""img/mask18.png""],[""img/mask32.png""],[""img/mask80.png""],[""img/mask56.png""],[""img/mask9.png""],[""img/mask80.png""],[""img/mask63.png""],[""img/mask67.png""],[""img/mask14.png""],[""img/mask76.png""],[""img/mask57.png""],[""img/mask39.png""],[""img/mask93.png""],[""img/mask35.png""],[""img/mask92.png""],[""img/mask10.png""],[""img/mask59.png""],[""img/mask51.png""],[""img/mask11.png""],[""img/mask55.png""],[""img/mask57.png""],[""img/mask85.png""],[""img/mask37.png""],[""img/mask80.png""],[""img/mask34.png""],[""img/mask71.png""]]]","","[26,34,22,19,10,23,9,28,25,0,35,1,29,6,27,15,12,33,4,24,17,21,18,13,20,5,14,2,3,8,31,32,7,30,16,11]","training","",""
"","","","","","image-keyboard-response","18","189092","0.0-9.0","55899b8dfdf99b7ae47f5fa4","640759fa512f630a2bdc333d","6408c18356bfc13724548624","5713.800000011921","[""img/endTraining.png""]","enter","","","","","","","","","","","","","","","","","","","","",""
"","","","","","html-keyboard-response","19","189593","0.0-10.0-0.0","55899b8dfdf99b7ae47f5fa4","640759fa512f630a2bdc333d","6408c18356bfc13724548624","null","","null","","","","","","","","","","","","","","","","","","","fixation","",""
"","","","","","color-precision2","20","194390","0.0-10.0-1.0-0.0","55899b8dfdf99b7ae47f5fa4","640759fa512f630a2bdc333d","6408c18356bfc13724548624","[864.5]","","","[3]","[109]","109","32","146.20480105553585","[146.20480105553585]","[114.20480105553585]","[113]","0","0","1","0","147.5909999999858","992.2099999761558","1000","[[[""img/mask25.png""]]]","","","main","32","color-precision2"
"","","","","","html-keyboard-response","21","194891","0.0-10.0-0.1","55899b8dfdf99b7ae47f5fa4","640759fa512f630a2bdc333d","6408c18356bfc13724548624","null","","null","","","","","","","","","","","","","","","","","","","fixation","",""
"","","","","","color-precision2","22","199684","0.0-10.0-1.1-0.1","55899b8dfdf99b7ae47f5fa4","640759fa512f630a2bdc333d","6408c18356bfc13724548624","[986.2999999523163]","","","[33]","[116]","116","205","325.3638798242982","[325.3638798242982]","[120.36387982429818]","[120]","0","0","1","0","147.66699998808326","995.4719999761437","1000","[[[""img/mask82.png""]]]","","","main","205","color-precision2"
"","","","","","html-keyboard-response","23","200185","0.0-10.0-0.2","55899b8dfdf99b7ae47f5fa4","640759fa512f630a2bdc333d","6408c18356bfc13724548624","null","","null","","","","","","","","","","","","","","","","","","","fixation","",""
"","","","","","color-precision2","24","204221","0.0-10.0-1.2-0.2","55899b8dfdf99b7ae47f5fa4","640759fa512f630a2bdc333d","6408c18356bfc13724548624","[952.8999999761581]","","","[31]","[358]","358","45","65.1649949790869","[65.1649949790869]","[20.1649949790869]","[18]","0","0","1","0","149.57999997615116","1004.0359999880893","1000","[[[""img/mask80.png""]]]","","","main","45","color-precision2"
"","","","","","html-keyboard-response","25","204722","0.0-10.0-0.3","55899b8dfdf99b7ae47f5fa4","640759fa512f630a2bdc333d","6408c18356bfc13724548624","null","","null","","","","","","","","","","","","","","","","","","","fixation","",""
"","","","","","color-precision2","26","209325","0.0-10.0-1.3-0.3","55899b8dfdf99b7ae47f5fa4","640759fa512f630a2bdc333d","6408c18356bfc13724548624","[1019.0999999642372]","","","[24]","[205]","205","290","139.3518806424263","[139.3518806424263]","[209.3518806424263]","[208]","0","0","1","0","147.99199997616233","992.2690000000002","1000","[[[""img/mask18.png""]]]","","","main","290","color-precision2"
"","","","","","html-keyboard-response","27","209826","0.0-10.0-0.4","55899b8dfdf99b7ae47f5fa4","640759fa512f630a2bdc333d","6408c18356bfc13724548624","null","","null","","","","","","","","","","","","","","","","","","","fixation","",""
"","","","","","many-guess-6","28","217890","0.0-10.0-1.4-0.4","55899b8dfdf99b7ae47f5fa4","640759fa512f630a2bdc333d","6408c18356bfc13724548624","[4711.5]","","","[0,4,35,20,12,2,25,21,3,18,28,10,31,24,1,19,15,33,8,6,29,7,11,27,14,30,9,22,17,26,23,32,5,13,34,16]","[264,304,344,185,175,195,274,25,95,354,235,45,55,155,65,145,125,245,284,135,105,205,5,35,75,324,15,254,334,225,85,165,314,115,215,294]","264","186","160.98566312018644","[160.98566312018644]","[334.9856631201865]","[334]","[300,120,120,30,120,120,210,120,30]","0","36","0","148.96199995232746","12.09999998807325","16","[[[""img/mask79.png""],[""img/mask2.png""],[""img/mask36.png""],[""img/mask54.png""],[""img/mask39.png""],[""img/mask37.png""],[""img/mask1.png""],[""img/mask30.png""],[""img/mask27.png""],[""img/mask68.png""],[""img/mask22.png""],[""img/mask1.png""],[""img/mask77.png""],[""img/mask10.png""],[""img/mask73.png""],[""img/mask32.png""],[""img/mask1.png""],[""img/mask41.png""],[""img/mask54.png""],[""img/mask30.png""],[""img/mask26.png""],[""img/mask13.png""],[""img/mask23.png""],[""img/mask79.png""],[""img/mask31.png""],[""img/mask55.png""],[""img/mask16.png""],[""img/mask53.png""],[""img/mask3.png""],[""img/mask38.png""],[""img/mask45.png""],[""img/mask87.png""],[""img/mask12.png""],[""img/mask14.png""],[""img/mask55.png""],[""img/mask26.png""]]]","","[0,4,35,20,12,2,25,21,3,18,28,10,31,24,1,19,15,33,8,6,29,7,11,27,14,30,9,22,17,26,23,32,5,13,34,16]","main","186","many-guess-6"
"","","","","","html-keyboard-response","29","218391","0.0-10.0-0.5","55899b8dfdf99b7ae47f5fa4","640759fa512f630a2bdc333d","6408c18356bfc13724548624","null","","null","","","","","","","","","","","","","","","","","","","fixation","",""
"","","","","","color-precision2","30","222737","0.0-10.0-1.5-0.5","55899b8dfdf99b7ae47f5fa4","640759fa512f630a2bdc333d","6408c18356bfc13724548624","[1151.6000000238419]","","","[12]","[74]","74","303","16.651120305276596","[16.651120305276596]","[73.6511203052766]","[74]","0","0","1","0","148.8649999523186","1001.2770000000019","1000","[[[""img/mask44.png""]]]","","","main","303","color-precision2"
"","","","","","html-keyboard-response","31","223238","0.0-10.0-0.6","55899b8dfdf99b7ae47f5fa4","640759fa512f630a2bdc333d","6408c18356bfc13724548624","null","","null","","","","","","","","","","","","","","","","","","","fixation","",""
"","","","","","many-guess-6","32","230050","0.0-10.0-1.6-0.6","55899b8dfdf99b7ae47f5fa4","640759fa512f630a2bdc333d","6408c18356bfc13724548624","[2207]","","","[28,3,34,19,21,24,0,6,35,25,26,1,11,7,30,23,33,16,8,29,14,4,18,17,20,32,10,9,31,27,22,13,12,2,15,5]","[257,7,127,27,336,147,207,277,57,137,167,107,267,237,117,187,177,306,17,346,157,247,356,197,326,77,296,97,227,286,87,47,217,316,67,37]","257","34","251.76940920119182","[251.76940920119182]","[217.76940920119182]","[218]","[300,30,210,300,120,120,120,30,30]","0","36","0","149.60999998808256","13.24799998808885","16","[[[""img/mask40.png""],[""img/mask79.png""],[""img/mask5.png""],[""img/mask30.png""],[""img/mask69.png""],[""img/mask43.png""],[""img/mask72.png""],[""img/mask76.png""],[""img/mask37.png""],[""img/mask40.png""],[""img/mask52.png""],[""img/mask29.png""],[""img/mask63.png""],[""img/mask19.png""],[""img/mask34.png""],[""img/mask73.png""],[""img/mask15.png""],[""img/mask100.png""],[""img/mask100.png""],[""img/mask86.png""],[""img/mask51.png""],[""img/mask93.png""],[""img/mask60.png""],[""img/mask68.png""],[""img/mask85.png""],[""img/mask67.png""],[""img/mask12.png""],[""img/mask65.png""],[""img/mask55.png""],[""img/mask19.png""],[""img/mask86.png""],[""img/mask10.png""],[""img/mask74.png""],[""img/mask51.png""],[""img/mask25.png""],[""img/mask93.png""]]]","","[28,3,34,19,21,24,0,6,35,25,26,1,11,7,30,23,33,16,8,29,14,4,18,17,20,32,10,9,31,27,22,13,12,2,15,5]","main","34","many-guess-6"
"","","","","","html-keyboard-response","33","230551","0.0-10.0-0.7","55899b8dfdf99b7ae47f5fa4","640759fa512f630a2bdc333d","6408c18356bfc13724548624","null","","null","","","","","","","","","","","","","","","","","","","fixation","",""
"","","","","","many-guess-6","34","236281","0.0-10.0-1.7-0.7","55899b8dfdf99b7ae47f5fa4","640759fa512f630a2bdc333d","6408c18356bfc13724548624","[2015.199999988079]","","","[17,27,30,4,23,32,34,25,5,1,19,10,20,21,35,11,31,8,9,12,26,14,7,29,33,18,16,22,0,2,15,3,24,6,13,28]","[97,187,47,257,77,277,326,297,197,7,67,336,137,287,167,27,306,217,117,37,227,207,157,356,127,177,346,17,237,107,316,247,147,267,57,87]","97","177","161.51063924707927","[161.51063924707927]","[344.51063924707927]","[343]","[210,30,120,30,210,120,120,300,30]","0","36","0","149.3829999761656","26.82599998806836","16","[[[""img/mask66.png""],[""img/mask6.png""],[""img/mask43.png""],[""img/mask10.png""],[""img/mask87.png""],[""img/mask67.png""],[""img/mask94.png""],[""img/mask52.png""],[""img/mask90.png""],[""img/mask91.png""],[""img/mask14.png""],[""img/mask66.png""],[""img/mask21.png""],[""img/mask71.png""],[""img/mask1.png""],[""img/mask75.png""],[""img/mask99.png""],[""img/mask6.png""],[""img/mask38.png""],[""img/mask64.png""],[""img/mask98.png""],[""img/mask22.png""],[""img/mask61.png""],[""img/mask35.png""],[""img/mask5.png""],[""img/mask24.png""],[""img/mask54.png""],[""img/mask79.png""],[""img/mask49.png""],[""img/mask93.png""],[""img/mask70.png""],[""img/mask32.png""],[""img/mask4.png""],[""img/mask98.png""],[""img/mask88.png""],[""img/mask49.png""]]]","","[17,27,30,4,23,32,34,25,5,1,19,10,20,21,35,11,31,8,9,12,26,14,7,29,33,18,16,22,0,2,15,3,24,6,13,28]","main","177","many-guess-6"
"","","","","","html-keyboard-response","35","236782","0.0-10.0-0.8","55899b8dfdf99b7ae47f5fa4","640759fa512f630a2bdc333d","6408c18356bfc13724548624","null","","null","","","","","","","","","","","","","","","","","","","fixation","",""
"","","","","","many-guess-6","36","241452","0.0-10.0-1.8-0.8","55899b8dfdf99b7ae47f5fa4","640759fa512f630a2bdc333d","6408c18356bfc13724548624","[2814.899999976158]","","","[34,21,10,15,11,3,25,4,26,28,12,6,0,18,2,14,23,17,5,35,7,19,24,32,31,20,27,8,29,13,9,22,16,33,30,1]","[294,224,214,204,45,35,134,114,84,324,184,64,54,174,254,354,264,334,5,15,234,244,74,194,94,25,164,144,274,284,104,304,124,314,154,344]","294","355","186.7769856689321","[186.7769856689321]","[191.7769856689321]","[191]","[210,300,120,300,300,30,300,300,210]","0","36","0","148.88099995232187","15.772999976150459","16","[[[""img/mask66.png""],[""img/mask6.png""],[""img/mask36.png""],[""img/mask29.png""],[""img/mask70.png""],[""img/mask93.png""],[""img/mask100.png""],[""img/mask94.png""],[""img/mask75.png""],[""img/mask39.png""],[""img/mask66.png""],[""img/mask77.png""],[""img/mask43.png""],[""img/mask69.png""],[""img/mask69.png""],[""img/mask47.png""],[""img/mask98.png""],[""img/mask46.png""],[""img/mask97.png""],[""img/mask40.png""],[""img/mask25.png""],[""img/mask19.png""],[""img/mask55.png""],[""img/mask7.png""],[""img/mask57.png""],[""img/mask82.png""],[""img/mask35.png""],[""img/mask6.png""],[""img/mask50.png""],[""img/mask91.png""],[""img/mask79.png""],[""img/mask23.png""],[""img/mask60.png""],[""img/mask53.png""],[""img/mask18.png""],[""img/mask4.png""]]]","","[34,21,10,15,11,3,25,4,26,28,12,6,0,18,2,14,23,17,5,35,7,19,24,32,31,20,27,8,29,13,9,22,16,33,30,1]","main","355","many-guess-6"
"","","","","","html-keyboard-response","37","241953","0.0-10.0-0.9","55899b8dfdf99b7ae47f5fa4","640759fa512f630a2bdc333d","6408c18356bfc13724548624","null","","null","","","","","","","","","","","","","","","","","","","fixation","",""
"","","","","","many-guess-6","38","246145","0.0-10.0-1.9-0.9","55899b8dfdf99b7ae47f5fa4","640759fa512f630a2bdc333d","6408c18356bfc13724548624","[1936.300000011921]","","","[2,15,7,5,34,17,1,6,14,26,20,30,23,11,22,12,35,8,0,13,25,29,3,28,18,10,16,33,32,31,4,27,21,24,9,19]","[94,293,34,124,214,273,164,323,343,353,4,54,14,263,313,144,134,244,283,154,174,224,44,64,234,84,184,253,333,74,194,204,114,104,24,303]","94","149","69.41125871177044","[69.41125871177044]","[280.4112587117704]","[279]","[120,300,30,300,30,300,120,210,210]","0","36","0","149.0599999880651","13.817999952327227","16","[[[""img/mask49.png""],[""img/mask45.png""],[""img/mask7.png""],[""img/mask49.png""],[""img/mask94.png""],[""img/mask22.png""],[""img/mask53.png""],[""img/mask38.png""],[""img/mask72.png""],[""img/mask78.png""],[""img/mask1.png""],[""img/mask47.png""],[""img/mask73.png""],[""img/mask43.png""],[""img/mask76.png""],[""img/mask75.png""],[""img/mask73.png""],[""img/mask52.png""],[""img/mask43.png""],[""img/mask85.png""],[""img/mask54.png""],[""img/mask60.png""],[""img/mask34.png""],[""img/mask96.png""],[""img/mask70.png""],[""img/mask47.png""],[""img/mask12.png""],[""img/mask43.png""],[""img/mask44.png""],[""img/mask26.png""],[""img/mask75.png""],[""img/mask21.png""],[""img/mask37.png""],[""img/mask26.png""],[""img/mask83.png""],[""img/mask86.png""]]]","","[2,15,7,5,34,17,1,6,14,26,20,30,23,11,22,12,35,8,0,13,25,29,3,28,18,10,16,33,32,31,4,27,21,24,9,19]","main","149","many-guess-6"
"","","","","","html-keyboard-response","39","246647","0.0-10.0-0.10","55899b8dfdf99b7ae47f5fa4","640759fa512f630a2bdc333d","6408c18356bfc13724548624","null","","null","","","","","","","","","","","","","","","","","","","fixation","",""
"","","","","","many-guess-6","40","251414","0.0-10.0-1.10-0.10","55899b8dfdf99b7ae47f5fa4","640759fa512f630a2bdc333d","6408c18356bfc13724548624","[2766.199999988079]","","","[4,14,19,3,10,33,1,27,35,32,18,0,25,28,7,30,23,6,15,11,22,16,5,20,26,17,8,13,21,34,29,12,9,2,24,31]","[189,239,358,169,318,338,229,288,59,39,79,99,278,149,159,348,129,179,119,209,259,298,219,29,89,9,249,269,109,199,69,19,49,308,139,328]","189","339","144.8839381807607","[144.8839381807607]","[165.8839381807607]","[165]","[120,300,30,120,120,210,120,120,300]","0","36","0","148.26699996422394","24.35099999999511","16","[[[""img/mask59.png""],[""img/mask81.png""],[""img/mask90.png""],[""img/mask3.png""],[""img/mask35.png""],[""img/mask21.png""],[""img/mask78.png""],[""img/mask49.png""],[""img/mask42.png""],[""img/mask10.png""],[""img/mask44.png""],[""img/mask87.png""],[""img/mask7.png""],[""img/mask61.png""],[""img/mask23.png""],[""img/mask57.png""],[""img/mask3.png""],[""img/mask77.png""],[""img/mask72.png""],[""img/mask72.png""],[""img/mask39.png""],[""img/mask32.png""],[""img/mask91.png""],[""img/mask58.png""],[""img/mask64.png""],[""img/mask22.png""],[""img/mask63.png""],[""img/mask1.png""],[""img/mask5.png""],[""img/mask48.png""],[""img/mask67.png""],[""img/mask46.png""],[""img/mask72.png""],[""img/mask14.png""],[""img/mask45.png""],[""img/mask47.png""]]]","","[4,14,19,3,10,33,1,27,35,32,18,0,25,28,7,30,23,6,15,11,22,16,5,20,26,17,8,13,21,34,29,12,9,2,24,31]","main","339","many-guess-6"
"","","","","","html-keyboard-response","41","251916","0.0-10.0-0.11","55899b8dfdf99b7ae47f5fa4","640759fa512f630a2bdc333d","6408c18356bfc13724548624","null","","null","","","","","","","","","","","","","","","","","","","fixation","",""
"","","","","","color-precision2","42","257072","0.0-10.0-1.11-0.11","55899b8dfdf99b7ae47f5fa4","640759fa512f630a2bdc333d","6408c18356bfc13724548624","[1918.0999999642372]","","","[9]","[266]","266","179","84.22622960368521","[84.22622960368521]","[265.2262296036852]","[263]","0","0","1","0","148.04699997615535","998.9059999642195","1000","[[[""img/mask72.png""]]]","","","main","179","color-precision2"
"","","","","","html-keyboard-response","43","257573","0.0-10.0-0.12","55899b8dfdf99b7ae47f5fa4","640759fa512f630a2bdc333d","6408c18356bfc13724548624","null","","null","","","","","","","","","","","","","","","","","","","fixation","",""
"","","","","","many-guess-6","44","263294","0.0-10.0-1.12-0.12","55899b8dfdf99b7ae47f5fa4","640759fa512f630a2bdc333d","6408c18356bfc13724548624","[3170.5]","","","[11,24,7,14,35,12,2,5,29,15,16,8,6,3,10,9,17,18,31,22,27,19,13,25,1,32,26,23,4,30,21,34,0,28,20,33]","[32,102,172,182,202,112,142,242,22,322,282,72,341,222,232,212,192,302,132,122,292,262,62,92,272,42,351,152,312,2,52,162,82,331,252,12]","32","354","229.81431899885632","[229.81431899885632]","[235.81431899885632]","[236]","[210,300,120,210,30,210,30,300,300]","0","36","0","149.7949999999837","21.097999964258634","16","[[[""img/mask25.png""],[""img/mask90.png""],[""img/mask71.png""],[""img/mask33.png""],[""img/mask75.png""],[""img/mask68.png""],[""img/mask20.png""],[""img/mask52.png""],[""img/mask42.png""],[""img/mask39.png""],[""img/mask16.png""],[""img/mask59.png""],[""img/mask14.png""],[""img/mask86.png""],[""img/mask49.png""],[""img/mask47.png""],[""img/mask74.png""],[""img/mask60.png""],[""img/mask53.png""],[""img/mask44.png""],[""img/mask86.png""],[""img/mask14.png""],[""img/mask8.png""],[""img/mask80.png""],[""img/mask37.png""],[""img/mask28.png""],[""img/mask82.png""],[""img/mask66.png""],[""img/mask82.png""],[""img/mask80.png""],[""img/mask28.png""],[""img/mask7.png""],[""img/mask72.png""],[""img/mask24.png""],[""img/mask66.png""],[""img/mask35.png""]]]","","[11,24,7,14,35,12,2,5,29,15,16,8,6,3,10,9,17,18,31,22,27,19,13,25,1,32,26,23,4,30,21,34,0,28,20,33]","main","354","many-guess-6"
"","","","","","html-keyboard-response","45","263796","0.0-10.0-0.13","55899b8dfdf99b7ae47f5fa4","640759fa512f630a2bdc333d","6408c18356bfc13724548624","null","","null","","","","","","","","","","","","","","","","","","","fixation","",""
"","","","","","many-guess-6","46","269249","0.0-10.0-1.13-0.13","55899b8dfdf99b7ae47f5fa4","640759fa512f630a2bdc333d","6408c18356bfc13724548624","[2651.199999988079]","","","[20,30,7,22,2,34,5,13,16,28,31,24,12,14,0,29,25,10,23,32,26,18,6,4,1,19,8,15,21,11,17,3,35,33,9,27]","[191,121,221,111,181,341,321,151,231,351,301,91,52,171,261,251,211,32,72,101,311,81,271,201,2,291,241,62,161,42,131,22,12,281,331,141]","191","220","249.66626113057941","[249.66626113057941]","[29.666261130579414]","[31]","[120,300,300,30,120,210,30,210,300]","0","36","0","148.4379999761586","13.988999952329323","16","[[[""img/mask25.png""],[""img/mask91.png""],[""img/mask94.png""],[""img/mask33.png""],[""img/mask86.png""],[""img/mask12.png""],[""img/mask36.png""],[""img/mask35.png""],[""img/mask6.png""],[""img/mask33.png""],[""img/mask78.png""],[""img/mask18.png""],[""img/mask56.png""],[""img/mask50.png""],[""img/mask90.png""],[""img/mask30.png""],[""img/mask17.png""],[""img/mask81.png""],[""img/mask65.png""],[""img/mask56.png""],[""img/mask6.png""],[""img/mask17.png""],[""img/mask78.png""],[""img/mask15.png""],[""img/mask36.png""],[""img/mask72.png""],[""img/mask70.png""],[""img/mask45.png""],[""img/mask52.png""],[""img/mask70.png""],[""img/mask96.png""],[""img/mask1.png""],[""img/mask33.png""],[""img/mask66.png""],[""img/mask97.png""],[""img/mask46.png""]]]","","[20,30,7,22,2,34,5,13,16,28,31,24,12,14,0,29,25,10,23,32,26,18,6,4,1,19,8,15,21,11,17,3,35,33,9,27]","main","220","many-guess-6"
"","","","","","html-keyboard-response","47","269750","0.0-10.0-0.14","55899b8dfdf99b7ae47f5fa4","640759fa512f630a2bdc333d","6408c18356bfc13724548624","null","","null","","","","","","","","","","","","","","","","","","","fixation","",""
"","","","","","many-guess-6","48","276528","0.0-10.0-1.14-0.14","55899b8dfdf99b7ae47f5fa4","640759fa512f630a2bdc333d","6408c18356bfc13724548624","[3858.400000035763]","","","[5,28,35,11,26,0,13,31,17,32,15,7,34,20,2,6,16,33,14,19,25,24,8,10,23,30,12,22,9,21,4,3,18,1,29,27]","[66,26,236,355,246,166,216,116,146,126,226,6,106,196,46,276,186,325,335,315,136,56,266,156,16,295,206,256,176,86,76,96,305,285,345,36]","66","231","55.60249010591279","[55.60249010591279]","[184.6024901059128]","[183]","[210,300,300,30,210,120,30,300,30]","0","36","0","148.91099998808932","26.270999952335842","16","[[[""img/mask78.png""],[""img/mask2.png""],[""img/mask36.png""],[""img/mask9.png""],[""img/mask48.png""],[""img/mask46.png""],[""img/mask7.png""],[""img/mask9.png""],[""img/mask54.png""],[""img/mask10.png""],[""img/mask72.png""],[""img/mask48.png""],[""img/mask58.png""],[""img/mask36.png""],[""img/mask22.png""],[""img/mask82.png""],[""img/mask9.png""],[""img/mask60.png""],[""img/mask60.png""],[""img/mask16.png""],[""img/mask48.png""],[""img/mask84.png""],[""img/mask58.png""],[""img/mask34.png""],[""img/mask84.png""],[""img/mask14.png""],[""img/mask15.png""],[""img/mask40.png""],[""img/mask4.png""],[""img/mask18.png""],[""img/mask71.png""],[""img/mask33.png""],[""img/mask67.png""],[""img/mask35.png""],[""img/mask76.png""],[""img/mask57.png""]]]","","[5,28,35,11,26,0,13,31,17,32,15,7,34,20,2,6,16,33,14,19,25,24,8,10,23,30,12,22,9,21,4,3,18,1,29,27]","main","231","many-guess-6"
"","","","","","html-keyboard-response","49","277029","0.0-10.0-0.15","55899b8dfdf99b7ae47f5fa4","640759fa512f630a2bdc333d","6408c18356bfc13724548624","null","","null","","","","","","","","","","","","","","","","","","","fixation","",""
"","","","","","many-guess-6","50","281635","0.0-10.0-1.15-0.15","55899b8dfdf99b7ae47f5fa4","640759fa512f630a2bdc333d","6408c18356bfc13724548624","[2524.899999976158]","","","[15,16,11,3,1,12,4,31,26,14,23,5,0,18,10,20,30,6,19,8,33,9,27,7,13,35,34,24,17,32,25,21,28,2,22,29]","[135,344,85,264,174,234,204,5,25,304,65,125,105,314,165,75,55,145,274,184,294,115,224,324,214,254,95,354,45,35,284,194,334,155,244,15]","135","114","205.59637426214422","[205.59637426214422]","[91.59637426214422]","[91]","[300,30,120,300,300,210,120,30,30]","0","36","0","149.70199996425072","18.328999964229297","16","[[[""img/mask59.png""],[""img/mask53.png""],[""img/mask82.png""],[""img/mask72.png""],[""img/mask12.png""],[""img/mask85.png""],[""img/mask68.png""],[""img/mask86.png""],[""img/mask25.png""],[""img/mask10.png""],[""img/mask45.png""],[""img/mask94.png""],[""img/mask54.png""],[""img/mask29.png""],[""img/mask4.png""],[""img/mask35.png""],[""img/mask82.png""],[""img/mask77.png""],[""img/mask75.png""],[""img/mask41.png""],[""img/mask48.png""],[""img/mask59.png""],[""img/mask70.png""],[""img/mask21.png""],[""img/mask25.png""],[""img/mask96.png""],[""img/mask68.png""],[""img/mask71.png""],[""img/mask75.png""],[""img/mask53.png""],[""img/mask77.png""],[""img/mask17.png""],[""img/mask58.png""],[""img/mask87.png""],[""img/mask57.png""],[""img/mask18.png""]]]","","[15,16,11,3,1,12,4,31,26,14,23,5,0,18,10,20,30,6,19,8,33,9,27,7,13,35,34,24,17,32,25,21,28,2,22,29]","main","114","many-guess-6"
"","","","","","html-keyboard-response","51","282136","0.0-10.0-0.16","55899b8dfdf99b7ae47f5fa4","640759fa512f630a2bdc333d","6408c18356bfc13724548624","null","","null","","","","","","","","","","","","","","","","","","","fixation","",""
"","","","","","color-precision2","52","286226","0.0-10.0-1.16-0.16","55899b8dfdf99b7ae47f5fa4","640759fa512f630a2bdc333d","6408c18356bfc13724548624","[726.1999999880791]","","","[2]","[321]","321","131","95.48108915923997","[95.48108915923997]","[324.48108915923996]","[323]","0","0","1","0","149.45299996424","996.5520000000251","1000","[[[""img/mask45.png""]]]","","","main","131","color-precision2"
"","","","","","html-keyboard-response","53","286728","0.0-10.0-0.17","55899b8dfdf99b7ae47f5fa4","640759fa512f630a2bdc333d","6408c18356bfc13724548624","null","","null","","","","","","","","","","","","","","","","","","","fixation","",""
"","","","","","color-precision2","54","290819","0.0-10.0-1.17-0.17","55899b8dfdf99b7ae47f5fa4","640759fa512f630a2bdc333d","6408c18356bfc13724548624","[497.19999998807907]","","","[6]","[7]","7","2","10.143409766504366","[10.143409766504366]","[8.143409766504366]","[7]","0","0","1","0","149.50199998810422","1002.0969999642111","1000","[[[""img/mask48.png""]]]","","","main","2","color-precision2"
"","","","","","html-keyboard-response","55","291321","0.0-10.0-0.18","55899b8dfdf99b7ae47f5fa4","640759fa512f630a2bdc333d","6408c18356bfc13724548624","null","","null","","","","","","","","","","","","","","","","","","","fixation","",""
"","","","","","color-precision2","56","295434","0.0-10.0-1.18-0.18","55899b8dfdf99b7ae47f5fa4","640759fa512f630a2bdc333d","6408c18356bfc13724548624","[1159.2999999523163]","","","[21]","[14]","14","219","218.3056787257867","[218.3056787257867]","[359.3056787257867]","[359]","0","0","1","0","147.65599995234516","999.0449999999837","1000","[[[""img/mask57.png""]]]","","","main","219","color-precision2"
"","","","","","html-keyboard-response","57","310180","0.0-10.0-0.19","55899b8dfdf99b7ae47f5fa4","640759fa512f630a2bdc333d","6408c18356bfc13724548624","14744.799999952316","Wow! You've completed 20 out of 180 trials! </p> <p>  </p><p> Take a quick break, then press any key when you're ready to continue.","enter","","","","","","","","","","","","","","","","","","","fixation","",""
"","","","","","many-guess-6","58","314991","0.0-10.0-1.19-0.19","55899b8dfdf99b7ae47f5fa4","640759fa512f630a2bdc333d","6408c18356bfc13724548624","[2212.800000011921]","","","[5,22,16,9,3,28,33,10,23,2,20,13,24,34,15,35,7,26,25,12,6,11,17,31,19,30,21,8,14,27,1,32,0,4,18,29]","[273,104,224,54,44,144,353,94,204,214,84,184,134,34,313,24,234,194,253,114,333,154,124,14,244,343,263,293,64,283,4,174,164,74,303,323]","273","316","317.23443182671025","[317.23443182671025]","[1.2344318267102494]","[1]","[120,30,120,210,300,300,300,30,210]","0","36","0","149.64499997615349","17.10799998807488","16","[[[""img/mask21.png""],[""img/mask82.png""],[""img/mask35.png""],[""img/mask87.png""],[""img/mask14.png""],[""img/mask43.png""],[""img/mask68.png""],[""img/mask14.png""],[""img/mask76.png""],[""img/mask67.png""],[""img/mask49.png""],[""img/mask18.png""],[""img/mask3.png""],[""img/mask24.png""],[""img/mask59.png""],[""img/mask46.png""],[""img/mask61.png""],[""img/mask27.png""],[""img/mask5.png""],[""img/mask61.png""],[""img/mask7.png""],[""img/mask81.png""],[""img/mask13.png""],[""img/mask38.png""],[""img/mask82.png""],[""img/mask50.png""],[""img/mask58.png""],[""img/mask47.png""],[""img/mask14.png""],[""img/mask17.png""],[""img/mask39.png""],[""img/mask53.png""],[""img/mask37.png""],[""img/mask11.png""],[""img/mask80.png""],[""img/mask63.png""]]]","","[5,22,16,9,3,28,33,10,23,2,20,13,24,34,15,35,7,26,25,12,6,11,17,31,19,30,21,8,14,27,1,32,0,4,18,29]","main","316","many-guess-6"
"","","","","","html-keyboard-response","59","315492","0.0-10.0-0.20","55899b8dfdf99b7ae47f5fa4","640759fa512f630a2bdc333d","6408c18356bfc13724548624","null","","null","","","","","","","","","","","","","","","","","","","fixation","",""
"","","","","","many-guess-6","60","319295","0.0-10.0-1.20-0.20","55899b8dfdf99b7ae47f5fa4","640759fa512f630a2bdc333d","6408c18356bfc13724548624","[1745.7999999523163]","","","[26,3,15,28,18,23,25,11,12,9,0,22,27,14,35,33,13,32,17,31,7,19,21,16,29,8,30,20,24,2,10,6,1,34,5,4]","[236,335,96,36,106,226,355,325,216,46,276,296,186,116,146,126,196,66,206,306,6,156,246,86,345,256,26,266,166,286,76,16,136,56,316,176]","236","65","251.59786036198955","[251.59786036198955]","[186.59786036198955]","[187]","[120,300,120,120,210,120,210,210,210]","0","36","0","149.15299997618422","11.72799995233072","16","[[[""img/mask23.png""],[""img/mask7.png""],[""img/mask49.png""],[""img/mask80.png""],[""img/mask81.png""],[""img/mask28.png""],[""img/mask60.png""],[""img/mask94.png""],[""img/mask5.png""],[""img/mask39.png""],[""img/mask30.png""],[""img/mask75.png""],[""img/mask8.png""],[""img/mask65.png""],[""img/mask77.png""],[""img/mask100.png""],[""img/mask21.png""],[""img/mask89.png""],[""img/mask57.png""],[""img/mask69.png""],[""img/mask30.png""],[""img/mask1.png""],[""img/mask71.png""],[""img/mask56.png""],[""img/mask92.png""],[""img/mask24.png""],[""img/mask9.png""],[""img/mask81.png""],[""img/mask40.png""],[""img/mask58.png""],[""img/mask86.png""],[""img/mask41.png""],[""img/mask96.png""],[""img/mask72.png""],[""img/mask28.png""],[""img/mask74.png""]]]","","[26,3,15,28,18,23,25,11,12,9,0,22,27,14,35,33,13,32,17,31,7,19,21,16,29,8,30,20,24,2,10,6,1,34,5,4]","main","65","many-guess-6"
"","","","","","html-keyboard-response","61","319795","0.0-10.0-0.21","55899b8dfdf99b7ae47f5fa4","640759fa512f630a2bdc333d","6408c18356bfc13724548624","null","","null","","","","","","","","","","","","","","","","","","","fixation","",""
"","","","","","many-guess-6","62","323639","0.0-10.0-1.21-0.21","55899b8dfdf99b7ae47f5fa4","640759fa512f630a2bdc333d","6408c18356bfc13724548624","[1535.199999988079]","","","[8,0,15,2,27,29,18,17,7,11,13,10,24,21,14,20,3,26,33,31,32,28,30,9,5,4,1,6,19,12,34,35,25,16,22,23]","[266,146,57,286,17,127,117,37,236,97,356,336,206,107,27,166,156,316,276,226,246,216,87,296,306,136,7,346,196,326,256,47,186,77,176,67]","266","279","316.42646773077763","[316.42646773077763]","[37.42646773077763]","[37]","[300,30,300,120,120,120,120,210,210]","0","36","0","149.03899996425025","26.878999976150226","16","[[[""img/mask5.png""],[""img/mask56.png""],[""img/mask20.png""],[""img/mask11.png""],[""img/mask89.png""],[""img/mask98.png""],[""img/mask45.png""],[""img/mask64.png""],[""img/mask30.png""],[""img/mask71.png""],[""img/mask62.png""],[""img/mask58.png""],[""img/mask77.png""],[""img/mask28.png""],[""img/mask34.png""],[""img/mask28.png""],[""img/mask21.png""],[""img/mask52.png""],[""img/mask14.png""],[""img/mask93.png""],[""img/mask87.png""],[""img/mask100.png""],[""img/mask21.png""],[""img/mask86.png""],[""img/mask66.png""],[""img/mask91.png""],[""img/mask99.png""],[""img/mask35.png""],[""img/mask7.png""],[""img/mask69.png""],[""img/mask54.png""],[""img/mask32.png""],[""img/mask75.png""],[""img/mask66.png""],[""img/mask71.png""],[""img/mask1.png""]]]","","[8,0,15,2,27,29,18,17,7,11,13,10,24,21,14,20,3,26,33,31,32,28,30,9,5,4,1,6,19,12,34,35,25,16,22,23]","main","279","many-guess-6"
"","","","","","html-keyboard-response","63","324140","0.0-10.0-0.22","55899b8dfdf99b7ae47f5fa4","640759fa512f630a2bdc333d","6408c18356bfc13724548624","null","","null","","","","","","","","","","","","","","","","","","","fixation","",""
"","","","","","color-precision2","64","327794","0.0-10.0-1.22-0.22","55899b8dfdf99b7ae47f5fa4","640759fa512f630a2bdc333d","6408c18356bfc13724548624","[769.8999999761581]","","","[8]","[232]","232","197","66.89585978849045","[66.89585978849045]","[229.89585978849044]","[228]","0","0","1","0","149.49399996420834","1001.0449999999837","1000","[[[""img/mask70.png""]]]","","","main","197","color-precision2"
"","","","","","html-keyboard-response","65","328295","0.0-10.0-0.23","55899b8dfdf99b7ae47f5fa4","640759fa512f630a2bdc333d","6408c18356bfc13724548624","null","","null","","","","","","","","","","","","","","","","","","","fixation","",""
"","","","","","color-precision2","66","331564","0.0-10.0-1.23-0.23","55899b8dfdf99b7ae47f5fa4","640759fa512f630a2bdc333d","6408c18356bfc13724548624","[285.39999997615814]","","","[26]","[188]","188","267","98.329548190069","[98.329548190069]","[191.329548190069]","[189]","0","0","1","0","148.21999999997206","995.9999999642605","1000","[[[""img/mask31.png""]]]","","","main","267","color-precision2"
"","","","","","html-keyboard-response","67","332066","0.0-10.0-0.24","55899b8dfdf99b7ae47f5fa4","640759fa512f630a2bdc333d","6408c18356bfc13724548624","null","","null","","","","","","","","","","","","","","","","","","","fixation","",""
"","","","","","many-guess-6","68","335839","0.0-10.0-1.24-0.24","55899b8dfdf99b7ae47f5fa4","640759fa512f630a2bdc333d","6408c18356bfc13724548624","[1740.0999999642372]","","","[21,9,5,3,33,10,12,15,17,30,14,29,13,27,25,23,35,7,0,34,2,28,18,6,4,11,20,26,32,16,8,19,24,1,22,31]","[283,113,73,103,333,223,33,63,43,233,203,352,123,93,243,3,293,133,143,183,343,163,53,153,83,273,193,303,173,323,13,213,253,313,23,263]","283","67","65.00255152343925","[65.00255152343925]","[358.00255152343925]","[356]","[300,210,120,30,300,120,210,300,300]","0","36","0","149.84299996425398","24.84399999998277","16","[[[""img/mask53.png""],[""img/mask14.png""],[""img/mask52.png""],[""img/mask19.png""],[""img/mask86.png""],[""img/mask48.png""],[""img/mask75.png""],[""img/mask12.png""],[""img/mask93.png""],[""img/mask8.png""],[""img/mask16.png""],[""img/mask93.png""],[""img/mask43.png""],[""img/mask61.png""],[""img/mask44.png""],[""img/mask84.png""],[""img/mask26.png""],[""img/mask25.png""],[""img/mask36.png""],[""img/mask91.png""],[""img/mask11.png""],[""img/mask95.png""],[""img/mask89.png""],[""img/mask7.png""],[""img/mask52.png""],[""img/mask37.png""],[""img/mask56.png""],[""img/mask32.png""],[""img/mask28.png""],[""img/mask96.png""],[""img/mask24.png""],[""img/mask48.png""],[""img/mask77.png""],[""img/mask86.png""],[""img/mask56.png""],[""img/mask30.png""]]]","","[21,9,5,3,33,10,12,15,17,30,14,29,13,27,25,23,35,7,0,34,2,28,18,6,4,11,20,26,32,16,8,19,24,1,22,31]","main","67","many-guess-6"
"","","","","","html-keyboard-response","69","336341","0.0-10.0-0.25","55899b8dfdf99b7ae47f5fa4","640759fa512f630a2bdc333d","6408c18356bfc13724548624","null","","null","","","","","","","","","","","","","","","","","","","fixation","",""
"","","","","","many-guess-6","70","341083","0.0-10.0-1.25-0.25","55899b8dfdf99b7ae47f5fa4","640759fa512f630a2bdc333d","6408c18356bfc13724548624","[2544.7999999523163]","","","[31,3,17,26,11,16,35,24,27,6,25,34,4,32,28,22,10,15,2,19,20,0,29,13,30,21,23,7,33,12,9,18,1,5,14,8]","[343,313,4,14,194,283,204,164,104,94,24,144,64,333,84,274,353,184,244,34,114,264,54,124,214,74,154,44,303,254,134,234,293,224,323,174]","343","85","232.9373039199216","[232.9373039199216]","[147.9373039199216]","[148]","[300,120,300,300,120,120,30,210,30]","0","36","0","148.93099997617537","15.5749999761465","16","[[[""img/mask59.png""],[""img/mask75.png""],[""img/mask62.png""],[""img/mask44.png""],[""img/mask39.png""],[""img/mask28.png""],[""img/mask100.png""],[""img/mask7.png""],[""img/mask49.png""],[""img/mask70.png""],[""img/mask96.png""],[""img/mask80.png""],[""img/mask77.png""],[""img/mask48.png""],[""img/mask97.png""],[""img/mask52.png""],[""img/mask46.png""],[""img/mask13.png""],[""img/mask58.png""],[""img/mask17.png""],[""img/mask58.png""],[""img/mask38.png""],[""img/mask11.png""],[""img/mask67.png""],[""img/mask37.png""],[""img/mask83.png""],[""img/mask86.png""],[""img/mask69.png""],[""img/mask69.png""],[""img/mask64.png""],[""img/mask14.png""],[""img/mask9.png""],[""img/mask58.png""],[""img/mask31.png""],[""img/mask57.png""],[""img/mask42.png""]]]","","[31,3,17,26,11,16,35,24,27,6,25,34,4,32,28,22,10,15,2,19,20,0,29,13,30,21,23,7,33,12,9,18,1,5,14,8]","main","85","many-guess-6"
"","","","","","html-keyboard-response","71","341584","0.0-10.0-0.26","55899b8dfdf99b7ae47f5fa4","640759fa512f630a2bdc333d","6408c18356bfc13724548624","null","","null","","","","","","","","","","","","","","","","","","","fixation","",""
"","","","","","color-precision2","72","345218","0.0-10.0-1.26-0.26","55899b8dfdf99b7ae47f5fa4","640759fa512f630a2bdc333d","6408c18356bfc13724548624","[508.10000002384186]","","","[33]","[91]","91","338","78.13197249245744","[78.13197249245744]","[100.13197249245741]","[98]","0","0","1","0","149.48499999998603","1007.0139999761595","1000","[[[""img/mask15.png""]]]","","","main","338","color-precision2"
"","","","","","html-keyboard-response","73","345720","0.0-10.0-0.27","55899b8dfdf99b7ae47f5fa4","640759fa512f630a2bdc333d","6408c18356bfc13724548624","null","","null","","","","","","","","","","","","","","","","","","","fixation","",""
"","","","","","color-precision2","74","349098","0.0-10.0-1.27-0.27","55899b8dfdf99b7ae47f5fa4","640759fa512f630a2bdc333d","6408c18356bfc13724548624","[515.4000000357628]","","","[15]","[350]","350","355","333.93429278572177","[333.93429278572177]","[338.93429278572177]","[339]","0","0","1","0","148.13599995232653","1000.0479999761446","1000","[[[""img/mask70.png""]]]","","","main","355","color-precision2"
"","","","","","html-keyboard-response","75","349599","0.0-10.0-0.28","55899b8dfdf99b7ae47f5fa4","640759fa512f630a2bdc333d","6408c18356bfc13724548624","null","","null","","","","","","","","","","","","","","","","","","","fixation","",""
"","","","","","color-precision2","76","352701","0.0-10.0-1.28-0.28","55899b8dfdf99b7ae47f5fa4","640759fa512f630a2bdc333d","6408c18356bfc13724548624","[249.5999999642372]","","","[16]","[224]","224","127","357.1648378699709","[357.1648378699709]","[230.16483786997088]","[229]","0","0","1","0","149.49800000002142","999.9189999523223","1000","[[[""img/mask55.png""]]]","","","main","127","color-precision2"
"","","","","","html-keyboard-response","77","353202","0.0-10.0-0.29","55899b8dfdf99b7ae47f5fa4","640759fa512f630a2bdc333d","6408c18356bfc13724548624","null","","null","","","","","","","","","","","","","","","","","","","fixation","",""
"","","","","","color-precision2","78","356688","0.0-10.0-1.29-0.29","55899b8dfdf99b7ae47f5fa4","640759fa512f630a2bdc333d","6408c18356bfc13724548624","[500.80000001192093]","","","[35]","[291]","291","302","237.24739939465923","[237.24739939465923]","[295.2473993946592]","[295]","0","0","1","0","148.8549999523093","1007.1869999761693","1000","[[[""img/mask75.png""]]]","","","main","302","color-precision2"
"","","","","","html-keyboard-response","79","357189","0.0-10.0-0.30","55899b8dfdf99b7ae47f5fa4","640759fa512f630a2bdc333d","6408c18356bfc13724548624","null","","null","","","","","","","","","","","","","","","","","","","fixation","",""
"","","","","","many-guess-6","80","360511","0.0-10.0-1.30-0.30","55899b8dfdf99b7ae47f5fa4","640759fa512f630a2bdc333d","6408c18356bfc13724548624","[1636.3999999761581]","","","[18,8,10,14,23,13,22,19,33,30,17,0,32,26,5,27,31,29,21,15,11,4,1,2,20,12,28,24,34,3,6,25,16,35,9,7]","[181,211,42,161,112,171,231,22,32,301,351,62,261,82,151,241,131,141,251,331,52,311,191,12,271,92,221,102,72,2,291,281,321,122,341,201]","181","308","323.35470529634597","[323.35470529634597]","[15.35470529634597]","[16]","[30,120,30,300,210,30,120,30,30]","0","36","0","148.92099995230092","19.878999964217655","16","[[[""img/mask75.png""],[""img/mask43.png""],[""img/mask85.png""],[""img/mask51.png""],[""img/mask31.png""],[""img/mask28.png""],[""img/mask22.png""],[""img/mask88.png""],[""img/mask25.png""],[""img/mask26.png""],[""img/mask81.png""],[""img/mask23.png""],[""img/mask39.png""],[""img/mask57.png""],[""img/mask85.png""],[""img/mask25.png""],[""img/mask40.png""],[""img/mask46.png""],[""img/mask68.png""],[""img/mask65.png""],[""img/mask35.png""],[""img/mask87.png""],[""img/mask86.png""],[""img/mask23.png""],[""img/mask52.png""],[""img/mask63.png""],[""img/mask13.png""],[""img/mask65.png""],[""img/mask67.png""],[""img/mask78.png""],[""img/mask90.png""],[""img/mask25.png""],[""img/mask41.png""],[""img/mask93.png""],[""img/mask73.png""],[""img/mask79.png""]]]","","[18,8,10,14,23,13,22,19,33,30,17,0,32,26,5,27,31,29,21,15,11,4,1,2,20,12,28,24,34,3,6,25,16,35,9,7]","main","308","many-guess-6"
"","","","","","html-keyboard-response","81","361013","0.0-10.0-0.31","55899b8dfdf99b7ae47f5fa4","640759fa512f630a2bdc333d","6408c18356bfc13724548624","null","","null","","","","","","","","","","","","","","","","","","","fixation","",""
"","","","","","color-precision2","82","364590","0.0-10.0-1.31-0.31","55899b8dfdf99b7ae47f5fa4","640759fa512f630a2bdc333d","6408c18356bfc13724548624","[528.3999999761581]","","","[23]","[44]","44","319","341.4683237499413","[341.4683237499413]","[22.468323749941305]","[22]","0","0","1","0","149.19799996423535","996.6809999523102","1000","[[[""img/mask54.png""]]]","","","main","319","color-precision2"
"","","","","","html-keyboard-response","83","365093","0.0-10.0-0.32","55899b8dfdf99b7ae47f5fa4","640759fa512f630a2bdc333d","6408c18356bfc13724548624","null","","null","","","","","","","","","","","","","","","","","","","fixation","",""
"","","","","","many-guess-6","84","368195","0.0-10.0-1.32-0.32","55899b8dfdf99b7ae47f5fa4","640759fa512f630a2bdc333d","6408c18356bfc13724548624","[1313.1000000238419]","","","[32,18,5,27,10,11,1,26,9,12,23,7,28,13,3,6,31,30,8,29,16,33,15,21,25,34,24,20,35,17,0,14,22,2,19,4]","[27,236,266,176,186,116,316,166,136,216,67,346,256,57,246,356,7,87,156,206,17,146,126,196,336,276,77,296,37,47,97,286,326,106,226,306]","27","25","255.0843036766181","[255.0843036766181]","[230.0843036766181]","[230]","[120,120,210,300,210,300,300,30,30]","0","36","0","148.73499996424653","23.13399995228974","16","[[[""img/mask89.png""],[""img/mask16.png""],[""img/mask23.png""],[""img/mask30.png""],[""img/mask95.png""],[""img/mask83.png""],[""img/mask22.png""],[""img/mask69.png""],[""img/mask8.png""],[""img/mask88.png""],[""img/mask25.png""],[""img/mask48.png""],[""img/mask91.png""],[""img/mask11.png""],[""img/mask74.png""],[""img/mask15.png""],[""img/mask96.png""],[""img/mask41.png""],[""img/mask84.png""],[""img/mask82.png""],[""img/mask98.png""],[""img/mask28.png""],[""img/mask14.png""],[""img/mask26.png""],[""img/mask52.png""],[""img/mask51.png""],[""img/mask17.png""],[""img/mask86.png""],[""img/mask94.png""],[""img/mask34.png""],[""img/mask16.png""],[""img/mask77.png""],[""img/mask78.png""],[""img/mask10.png""],[""img/mask13.png""],[""img/mask95.png""]]]","","[32,18,5,27,10,11,1,26,9,12,23,7,28,13,3,6,31,30,8,29,16,33,15,21,25,34,24,20,35,17,0,14,22,2,19,4]","main","25","many-guess-6"
"","","","","","html-keyboard-response","85","368695","0.0-10.0-0.33","55899b8dfdf99b7ae47f5fa4","640759fa512f630a2bdc333d","6408c18356bfc13724548624","null","","null","","","","","","","","","","","","","","","","","","","fixation","",""
"","","","","","color-precision2","86","374480","0.0-10.0-1.33-0.33","55899b8dfdf99b7ae47f5fa4","640759fa512f630a2bdc333d","6408c18356bfc13724548624","[2827.5]","","","[9]","[4]","4","166","170.03610347811488","[170.03610347811488]","[4.036103478114882]","[4]","0","0","1","0","148.27499996422557","1002.94399996422","1000","[[[""img/mask85.png""]]]","","","main","166","color-precision2"
"","","","","","html-keyboard-response","87","374981","0.0-10.0-0.34","55899b8dfdf99b7ae47f5fa4","640759fa512f630a2bdc333d","6408c18356bfc13724548624","null","","null","","","","","","","","","","","","","","","","","","","fixation","",""
"","","","","","color-precision2","88","378995","0.0-10.0-1.34-0.34","55899b8dfdf99b7ae47f5fa4","640759fa512f630a2bdc333d","6408c18356bfc13724548624","[584.5]","","","[13]","[28]","28","142","169.65033170905448","[169.65033170905448]","[27.650331709054484]","[28]","0","0","1","0","149.88399995228974","992.0009999761824","1000","[[[""img/mask26.png""]]]","","","main","142","color-precision2"
"","","","","","html-keyboard-response","89","379495","0.0-10.0-0.35","55899b8dfdf99b7ae47f5fa4","640759fa512f630a2bdc333d","6408c18356bfc13724548624","null","","null","","","","","","","","","","","","","","","","","","","fixation","",""
"","","","","","color-precision2","90","383113","0.0-10.0-1.35-0.35","55899b8dfdf99b7ae47f5fa4","640759fa512f630a2bdc333d","6408c18356bfc13724548624","[1065.199999988079]","","","[1]","[176]","176","146","308.30873283319045","[308.30873283319045]","[162.30873283319045]","[162]","0","0","1","0","149.022999964247","992.4139999523177","1000","[[[""img/mask78.png""]]]","","","main","146","color-precision2"
"","","","","","html-keyboard-response","91","383614","0.0-10.0-0.36","55899b8dfdf99b7ae47f5fa4","640759fa512f630a2bdc333d","6408c18356bfc13724548624","null","","null","","","","","","","","","","","","","","","","","","","fixation","",""
"","","","","","many-guess-6","92","387432","0.0-10.0-1.36-0.36","55899b8dfdf99b7ae47f5fa4","640759fa512f630a2bdc333d","6408c18356bfc13724548624","[1715.6000000238419]","","","[16,35,1,34,12,25,10,33,4,23,0,11,8,26,13,5,28,31,20,15,3,27,19,32,6,9,22,17,2,30,14,18,24,29,21,7]","[320,91,160,101,350,240,111,280,180,310,51,61,131,41,290,220,31,260,210,21,190,300,250,11,200,170,81,141,151,71,230,121,270,340,1,330]","320","247","5.579132135272955","[5.579132135272955]","[118.57913213527294]","[118]","[300,120,30,210,300,300,30,30,300]","0","36","0","148.49699998809956","17.094999964232557","16","[[[""img/mask1.png""],[""img/mask82.png""],[""img/mask59.png""],[""img/mask51.png""],[""img/mask54.png""],[""img/mask94.png""],[""img/mask82.png""],[""img/mask1.png""],[""img/mask10.png""],[""img/mask100.png""],[""img/mask19.png""],[""img/mask54.png""],[""img/mask90.png""],[""img/mask37.png""],[""img/mask78.png""],[""img/mask72.png""],[""img/mask94.png""],[""img/mask43.png""],[""img/mask56.png""],[""img/mask82.png""],[""img/mask88.png""],[""img/mask75.png""],[""img/mask18.png""],[""img/mask60.png""],[""img/mask25.png""],[""img/mask41.png""],[""img/mask10.png""],[""img/mask32.png""],[""img/mask6.png""],[""img/mask12.png""],[""img/mask29.png""],[""img/mask39.png""],[""img/mask63.png""],[""img/mask58.png""],[""img/mask27.png""],[""img/mask46.png""]]]","","[16,35,1,34,12,25,10,33,4,23,0,11,8,26,13,5,28,31,20,15,3,27,19,32,6,9,22,17,2,30,14,18,24,29,21,7]","main","247","many-guess-6"
"","","","","","html-keyboard-response","93","387934","0.0-10.0-0.37","55899b8dfdf99b7ae47f5fa4","640759fa512f630a2bdc333d","6408c18356bfc13724548624","null","","null","","","","","","","","","","","","","","","","","","","fixation","",""
"","","","","","color-precision2","94","393656","0.0-10.0-1.37-0.37","55899b8dfdf99b7ae47f5fa4","640759fa512f630a2bdc333d","6408c18356bfc13724548624","[2984.199999988079]","","","[15]","[221]","221","210","59.17895515077696","[59.17895515077696]","[209.17895515077697]","[208]","0","0","1","0","149.0809999523335","1000.9879999642144","1000","[[[""img/mask54.png""]]]","","","main","210","color-precision2"
"","","","","","html-keyboard-response","95","394157","0.0-10.0-0.38","55899b8dfdf99b7ae47f5fa4","640759fa512f630a2bdc333d","6408c18356bfc13724548624","null","","null","","","","","","","","","","","","","","","","","","","fixation","",""
"","","","","","color-precision2","96","397223","0.0-10.0-1.38-0.38","55899b8dfdf99b7ae47f5fa4","640759fa512f630a2bdc333d","6408c18356bfc13724548624","[394.30000001192093]","","","[3]","[73]","73","255","332.853558320326","[332.853558320326]","[77.85355832032599]","[78]","0","0","1","0","148.49599996424513","1003.4549999523442","1000","[[[""img/mask39.png""]]]","","","main","255","color-precision2"
"","","","","","html-keyboard-response","97","406212","0.0-10.0-0.39","55899b8dfdf99b7ae47f5fa4","640759fa512f630a2bdc333d","6408c18356bfc13724548624","8988.600000023842","Wow! You've completed 40 out of 180 trials! </p> <p>  </p><p> Take a quick break, then press any key when you're ready to continue.","enter","","","","","","","","","","","","","","","","","","","fixation","",""
"","","","","","many-guess-6","98","410355","0.0-10.0-1.39-0.39","55899b8dfdf99b7ae47f5fa4","640759fa512f630a2bdc333d","6408c18356bfc13724548624","[1797.800000011921]","","","[23,5,24,31,19,26,34,29,8,1,10,0,25,11,28,30,3,22,16,17,20,15,13,9,21,4,35,27,2,12,6,14,18,7,33,32]","[239,319,249,129,309,69,209,349,229,99,159,179,279,149,10,49,359,289,30,299,329,39,109,199,79,219,169,59,119,269,139,20,259,189,89,339]","239","303","303.9957736034294","[303.9957736034294]","[0.9957736034294271]","[1]","[120,30,300,210,300,30,300,210,120]","0","36","0","149.11999998806277","12.657999964256305","16","[[[""img/mask23.png""],[""img/mask39.png""],[""img/mask44.png""],[""img/mask40.png""],[""img/mask83.png""],[""img/mask81.png""],[""img/mask93.png""],[""img/mask3.png""],[""img/mask58.png""],[""img/mask56.png""],[""img/mask23.png""],[""img/mask13.png""],[""img/mask22.png""],[""img/mask38.png""],[""img/mask22.png""],[""img/mask55.png""],[""img/mask32.png""],[""img/mask90.png""],[""img/mask93.png""],[""img/mask100.png""],[""img/mask76.png""],[""img/mask20.png""],[""img/mask47.png""],[""img/mask100.png""],[""img/mask84.png""],[""img/mask2.png""],[""img/mask48.png""],[""img/mask31.png""],[""img/mask90.png""],[""img/mask51.png""],[""img/mask7.png""],[""img/mask10.png""],[""img/mask86.png""],[""img/mask1.png""],[""img/mask13.png""],[""img/mask35.png""]]]","","[23,5,24,31,19,26,34,29,8,1,10,0,25,11,28,30,3,22,16,17,20,15,13,9,21,4,35,27,2,12,6,14,18,7,33,32]","main","303","many-guess-6"
"","","","","","html-keyboard-response","99","410856","0.0-10.0-0.40","55899b8dfdf99b7ae47f5fa4","640759fa512f630a2bdc333d","6408c18356bfc13724548624","null","","null","","","","","","","","","","","","","","","","","","","fixation","",""
"","","","","","color-precision2","100","414418","0.0-10.0-1.40-0.40","55899b8dfdf99b7ae47f5fa4","640759fa512f630a2bdc333d","6408c18356bfc13724548624","[873.1999999880791]","","","[31]","[101]","101","46","149.84225204218222","[149.84225204218222]","[103.84225204218222]","[102]","0","0","1","0","147.96499998809304","1007.0799999880837","1000","[[[""img/mask17.png""]]]","","","main","46","color-precision2"
"","","","","","html-keyboard-response","101","414920","0.0-10.0-0.41","55899b8dfdf99b7ae47f5fa4","640759fa512f630a2bdc333d","6408c18356bfc13724548624","null","","null","","","","","","","","","","","","","","","","","","","fixation","",""
"","","","","","color-precision2","102","418049","0.0-10.0-1.41-0.41","55899b8dfdf99b7ae47f5fa4","640759fa512f630a2bdc333d","6408c18356bfc13724548624","[815.9000000357628]","","","[22]","[218]","218","176","30.805292593800704","[30.805292593800704]","[214.80529259380071]","[214]","0","0","1","0","149.36499996425118","1001.9799999999814","1000","[[[""img/mask5.png""]]]","","","main","176","color-precision2"
"","","","","","html-keyboard-response","103","418550","0.0-10.0-0.42","55899b8dfdf99b7ae47f5fa4","640759fa512f630a2bdc333d","6408c18356bfc13724548624","null","","null","","","","","","","","","","","","","","","","","","","fixation","",""
"","","","","","many-guess-6","104","422781","0.0-10.0-1.42-0.42","55899b8dfdf99b7ae47f5fa4","640759fa512f630a2bdc333d","6408c18356bfc13724548624","[2078.199999988079]","","","[11,2,14,0,20,29,10,31,1,19,28,12,15,34,30,8,18,13,35,33,23,16,24,5,22,25,4,17,3,7,6,32,27,26,21,9]","[97,187,67,217,87,8,77,157,247,297,227,107,327,47,127,307,177,337,277,37,287,117,257,207,17,27,137,357,347,167,267,317,57,147,197,237]","97","298","298.60765627133424","[298.60765627133424]","[0.6076562713342355]","[1]","[120,120,300,300,210,210,300,120,300]","0","36","0","149.70999995229067","12.23299996420974","16","[[[""img/mask99.png""],[""img/mask71.png""],[""img/mask78.png""],[""img/mask28.png""],[""img/mask48.png""],[""img/mask1.png""],[""img/mask98.png""],[""img/mask73.png""],[""img/mask100.png""],[""img/mask30.png""],[""img/mask76.png""],[""img/mask26.png""],[""img/mask7.png""],[""img/mask64.png""],[""img/mask93.png""],[""img/mask22.png""],[""img/mask57.png""],[""img/mask95.png""],[""img/mask95.png""],[""img/mask75.png""],[""img/mask48.png""],[""img/mask26.png""],[""img/mask96.png""],[""img/mask15.png""],[""img/mask38.png""],[""img/mask42.png""],[""img/mask35.png""],[""img/mask93.png""],[""img/mask75.png""],[""img/mask90.png""],[""img/mask32.png""],[""img/mask91.png""],[""img/mask65.png""],[""img/mask9.png""],[""img/mask24.png""],[""img/mask63.png""]]]","","[11,2,14,0,20,29,10,31,1,19,28,12,15,34,30,8,18,13,35,33,23,16,24,5,22,25,4,17,3,7,6,32,27,26,21,9]","main","298","many-guess-6"
"","","","","","html-keyboard-response","105","423284","0.0-10.0-0.43","55899b8dfdf99b7ae47f5fa4","640759fa512f630a2bdc333d","6408c18356bfc13724548624","null","","null","","","","","","","","","","","","","","","","","","","fixation","",""
"","","","","","color-precision2","106","427682","0.0-10.0-1.43-0.43","55899b8dfdf99b7ae47f5fa4","640759fa512f630a2bdc333d","6408c18356bfc13724548624","[523.3999999761581]","","","[28]","[38]","38","156","195.3447602149429","[195.3447602149429]","[39.34476021494291]","[39]","0","0","1","0","149.1159999881056","992.6080000000075","1000","[[[""img/mask86.png""]]]","","","main","156","color-precision2"
"","","","","","html-keyboard-response","107","428183","0.0-10.0-0.44","55899b8dfdf99b7ae47f5fa4","640759fa512f630a2bdc333d","6408c18356bfc13724548624","null","","null","","","","","","","","","","","","","","","","","","","fixation","",""
"","","","","","many-guess-6","108","432973","0.0-10.0-1.44-0.44","55899b8dfdf99b7ae47f5fa4","640759fa512f630a2bdc333d","6408c18356bfc13724548624","[2810.399999976158]","","","[11,1,35,5,24,31,13,28,4,16,10,34,12,23,21,33,14,2,25,19,7,18,20,32,22,9,26,8,17,27,30,29,0,3,15,6]","[141,240,41,121,171,201,310,350,81,181,220,210,21,300,11,260,250,1,320,51,161,91,280,151,71,61,230,31,290,270,191,101,340,111,131,330]","141","125","38.256047087625575","[38.256047087625575]","[273.2560470876256]","[272]","[30,120,300,30,30,210,300,120,300]","0","36","0","149.2909999761614","26.132999976165593","16","[[[""img/mask83.png""],[""img/mask23.png""],[""img/mask64.png""],[""img/mask79.png""],[""img/mask17.png""],[""img/mask81.png""],[""img/mask58.png""],[""img/mask91.png""],[""img/mask61.png""],[""img/mask97.png""],[""img/mask19.png""],[""img/mask59.png""],[""img/mask100.png""],[""img/mask87.png""],[""img/mask25.png""],[""img/mask71.png""],[""img/mask47.png""],[""img/mask35.png""],[""img/mask15.png""],[""img/mask25.png""],[""img/mask55.png""],[""img/mask62.png""],[""img/mask12.png""],[""img/mask9.png""],[""img/mask25.png""],[""img/mask95.png""],[""img/mask35.png""],[""img/mask47.png""],[""img/mask1.png""],[""img/mask80.png""],[""img/mask97.png""],[""img/mask22.png""],[""img/mask5.png""],[""img/mask38.png""],[""img/mask100.png""],[""img/mask47.png""]]]","","[11,1,35,5,24,31,13,28,4,16,10,34,12,23,21,33,14,2,25,19,7,18,20,32,22,9,26,8,17,27,30,29,0,3,15,6]","main","125","many-guess-6"
"","","","","","html-keyboard-response","109","433475","0.0-10.0-0.45","55899b8dfdf99b7ae47f5fa4","640759fa512f630a2bdc333d","6408c18356bfc13724548624","null","","null","","","","","","","","","","","","","","","","","","","fixation","",""
"","","","","","many-guess-6","110","437120","0.0-10.0-1.45-0.45","55899b8dfdf99b7ae47f5fa4","640759fa512f630a2bdc333d","6408c18356bfc13724548624","[1819.800000011921]","","","[19,0,27,31,22,16,17,25,21,32,5,18,10,6,8,14,33,20,4,35,3,1,26,28,13,23,9,34,12,11,2,24,15,29,30,7]","[224,334,35,314,174,324,204,105,65,234,184,15,45,274,134,164,55,115,304,144,264,5,95,294,124,344,85,75,25,194,284,244,154,354,214,254]","224","173","316.5454201381442","[316.5454201381442]","[143.5454201381442]","[144]","[30,30,300,30,300,300,210,300,30]","0","36","0","149.02499996422557","20.70099997613579","16","[[[""img/mask54.png""],[""img/mask81.png""],[""img/mask82.png""],[""img/mask30.png""],[""img/mask16.png""],[""img/mask23.png""],[""img/mask22.png""],[""img/mask97.png""],[""img/mask97.png""],[""img/mask11.png""],[""img/mask91.png""],[""img/mask99.png""],[""img/mask73.png""],[""img/mask36.png""],[""img/mask63.png""],[""img/mask91.png""],[""img/mask76.png""],[""img/mask16.png""],[""img/mask64.png""],[""img/mask56.png""],[""img/mask59.png""],[""img/mask4.png""],[""img/mask89.png""],[""img/mask54.png""],[""img/mask73.png""],[""img/mask24.png""],[""img/mask93.png""],[""img/mask74.png""],[""img/mask55.png""],[""img/mask89.png""],[""img/mask53.png""],[""img/mask24.png""],[""img/mask9.png""],[""img/mask20.png""],[""img/mask57.png""],[""img/mask21.png""]]]","","[19,0,27,31,22,16,17,25,21,32,5,18,10,6,8,14,33,20,4,35,3,1,26,28,13,23,9,34,12,11,2,24,15,29,30,7]","main","173","many-guess-6"
"","","","","","html-keyboard-response","111","437621","0.0-10.0-0.46","55899b8dfdf99b7ae47f5fa4","640759fa512f630a2bdc333d","6408c18356bfc13724548624","null","","null","","","","","","","","","","","","","","","","","","","fixation","",""
"","","","","","color-precision2","112","440826","0.0-10.0-1.46-0.46","55899b8dfdf99b7ae47f5fa4","640759fa512f630a2bdc333d","6408c18356bfc13724548624","[320.89999997615814]","","","[10]","[243]","243","13","266.1564260648514","[266.1564260648514]","[253.15642606485142]","[254]","0","0","1","0","148.39899998810142","992.4330000000191","1000","[[[""img/mask64.png""]]]","","","main","13","color-precision2"
"","","","","","html-keyboard-response","113","441328","0.0-10.0-0.47","55899b8dfdf99b7ae47f5fa4","640759fa512f630a2bdc333d","6408c18356bfc13724548624","null","","null","","","","","","","","","","","","","","","","","","","fixation","",""
"","","","","","color-precision2","114","444641","0.0-10.0-1.47-0.47","55899b8dfdf99b7ae47f5fa4","640759fa512f630a2bdc333d","6408c18356bfc13724548624","[498]","","","[19]","[355]","355","278","258.77764560944064","[258.77764560944064]","[340.77764560944064]","[341]","0","0","1","0","148.1599999999744","991.8300000000163","1000","[[[""img/mask77.png""]]]","","","main","278","color-precision2"
"","","","","","html-keyboard-response","115","445142","0.0-10.0-0.48","55899b8dfdf99b7ae47f5fa4","640759fa512f630a2bdc333d","6408c18356bfc13724548624","null","","null","","","","","","","","","","","","","","","","","","","fixation","",""
"","","","","","color-precision2","116","448222","0.0-10.0-1.48-0.48","55899b8dfdf99b7ae47f5fa4","640759fa512f630a2bdc333d","6408c18356bfc13724548624","[674.6999999880791]","","","[27]","[13]","13","151","193.79925176198654","[193.79925176198654]","[42.79925176198654]","[42]","0","0","1","0","148.2069999880623","1001.9849999880535","1000","[[[""img/mask27.png""]]]","","","main","151","color-precision2"
"","","","","","html-keyboard-response","117","448723","0.0-10.0-0.49","55899b8dfdf99b7ae47f5fa4","640759fa512f630a2bdc333d","6408c18356bfc13724548624","null","","null","","","","","","","","","","","","","","","","","","","fixation","",""
"","","","","","many-guess-6","118","453017","0.0-10.0-1.49-0.49","55899b8dfdf99b7ae47f5fa4","640759fa512f630a2bdc333d","6408c18356bfc13724548624","[2216.899999976158]","","","[5,24,35,0,21,14,29,20,6,16,22,28,33,23,32,3,10,17,31,18,12,8,25,34,2,30,4,15,13,9,7,26,11,1,27,19]","[19,269,9,328,249,119,159,89,358,39,99,129,189,338,139,348,109,169,308,279,69,179,149,49,199,318,59,79,29,289,299,239,209,259,219,229]","19","277","298.853782073993","[298.853782073993]","[21.85378207399299]","[22]","[300,300,30,120,120,120,30,300,30]","0","36","0","148.3180000000284","21.2309999880963","16","[[[""img/mask83.png""],[""img/mask19.png""],[""img/mask21.png""],[""img/mask79.png""],[""img/mask55.png""],[""img/mask65.png""],[""img/mask83.png""],[""img/mask44.png""],[""img/mask100.png""],[""img/mask99.png""],[""img/mask58.png""],[""img/mask88.png""],[""img/mask47.png""],[""img/mask36.png""],[""img/mask12.png""],[""img/mask92.png""],[""img/mask89.png""],[""img/mask30.png""],[""img/mask51.png""],[""img/mask60.png""],[""img/mask59.png""],[""img/mask49.png""],[""img/mask61.png""],[""img/mask19.png""],[""img/mask53.png""],[""img/mask33.png""],[""img/mask85.png""],[""img/mask72.png""],[""img/mask46.png""],[""img/mask86.png""],[""img/mask75.png""],[""img/mask8.png""],[""img/mask24.png""],[""img/mask85.png""],[""img/mask26.png""],[""img/mask75.png""]]]","","[5,24,35,0,21,14,29,20,6,16,22,28,33,23,32,3,10,17,31,18,12,8,25,34,2,30,4,15,13,9,7,26,11,1,27,19]","main","277","many-guess-6"
"","","","","","html-keyboard-response","119","453519","0.0-10.0-0.50","55899b8dfdf99b7ae47f5fa4","640759fa512f630a2bdc333d","6408c18356bfc13724548624","null","","null","","","","","","","","","","","","","","","","","","","fixation","",""
"","","","","","many-guess-6","120","457731","0.0-10.0-1.50-0.50","55899b8dfdf99b7ae47f5fa4","640759fa512f630a2bdc333d","6408c18356bfc13724548624","[2527]","","","[34,13,11,0,1,15,10,4,16,32,2,6,19,35,24,18,28,22,26,20,27,5,23,21,17,8,12,29,7,33,14,30,9,3,31,25]","[261,52,171,32,71,341,231,271,351,22,201,131,311,301,221,211,331,81,191,12,281,321,91,291,151,62,111,181,141,2,161,121,42,251,101,241]","261","206","163.64741840505062","[163.64741840505062]","[317.64741840505064]","[316]","[300,300,210,30,30,300,210,120,210]","0","36","0","149.6489999523037","12.07499996421393","16","[[[""img/mask31.png""],[""img/mask55.png""],[""img/mask41.png""],[""img/mask60.png""],[""img/mask82.png""],[""img/mask50.png""],[""img/mask19.png""],[""img/mask90.png""],[""img/mask6.png""],[""img/mask55.png""],[""img/mask24.png""],[""img/mask76.png""],[""img/mask58.png""],[""img/mask48.png""],[""img/mask55.png""],[""img/mask18.png""],[""img/mask48.png""],[""img/mask97.png""],[""img/mask17.png""],[""img/mask81.png""],[""img/mask17.png""],[""img/mask76.png""],[""img/mask8.png""],[""img/mask56.png""],[""img/mask53.png""],[""img/mask35.png""],[""img/mask37.png""],[""img/mask50.png""],[""img/mask26.png""],[""img/mask2.png""],[""img/mask24.png""],[""img/mask43.png""],[""img/mask8.png""],[""img/mask6.png""],[""img/mask31.png""],[""img/mask34.png""]]]","","[34,13,11,0,1,15,10,4,16,32,2,6,19,35,24,18,28,22,26,20,27,5,23,21,17,8,12,29,7,33,14,30,9,3,31,25]","main","206","many-guess-6"
"","","","","","html-keyboard-response","121","458232","0.0-10.0-0.51","55899b8dfdf99b7ae47f5fa4","640759fa512f630a2bdc333d","6408c18356bfc13724548624","null","","null","","","","","","","","","","","","","","","","","","","fixation","",""
"","","","","","color-precision2","122","462104","0.0-10.0-1.51-0.51","55899b8dfdf99b7ae47f5fa4","640759fa512f630a2bdc333d","6408c18356bfc13724548624","[577.8000000119209]","","","[29]","[343]","343","297","269.841225598559","[269.841225598559]","[332.841225598559]","[333]","0","0","1","0","149.8119999881019","1006.7549999880721","1000","[[[""img/mask86.png""]]]","","","main","297","color-precision2"
"","","","","","html-keyboard-response","123","462606","0.0-10.0-0.52","55899b8dfdf99b7ae47f5fa4","640759fa512f630a2bdc333d","6408c18356bfc13724548624","null","","null","","","","","","","","","","","","","","","","","","","fixation","",""
"","","","","","many-guess-6","124","466991","0.0-10.0-1.52-0.52","55899b8dfdf99b7ae47f5fa4","640759fa512f630a2bdc333d","6408c18356bfc13724548624","[1976.9000000357628]","","","[0,6,16,19,33,17,29,12,13,25,35,27,24,4,20,15,21,31,1,32,23,11,8,34,14,2,18,26,30,3,5,10,9,22,7,28]","[72,22,271,141,161,131,341,211,42,301,231,281,2,191,151,241,311,221,12,251,331,321,291,181,52,171,82,261,62,121,112,102,32,201,351,92]","72","3","249.18413016816015","[249.18413016816015]","[246.18413016816015]","[246]","[210,300,30,300,120,210,300,120,120]","0","36","0","148.3909999880707","12.536999988078605","16","[[[""img/mask11.png""],[""img/mask82.png""],[""img/mask19.png""],[""img/mask75.png""],[""img/mask1.png""],[""img/mask24.png""],[""img/mask80.png""],[""img/mask51.png""],[""img/mask62.png""],[""img/mask59.png""],[""img/mask30.png""],[""img/mask8.png""],[""img/mask10.png""],[""img/mask63.png""],[""img/mask75.png""],[""img/mask35.png""],[""img/mask16.png""],[""img/mask36.png""],[""img/mask52.png""],[""img/mask12.png""],[""img/mask15.png""],[""img/mask42.png""],[""img/mask82.png""],[""img/mask2.png""],[""img/mask43.png""],[""img/mask80.png""],[""img/mask10.png""],[""img/mask90.png""],[""img/mask49.png""],[""img/mask30.png""],[""img/mask44.png""],[""img/mask80.png""],[""img/mask65.png""],[""img/mask18.png""],[""img/mask8.png""],[""img/mask88.png""]]]","","[0,6,16,19,33,17,29,12,13,25,35,27,24,4,20,15,21,31,1,32,23,11,8,34,14,2,18,26,30,3,5,10,9,22,7,28]","main","3","many-guess-6"
"","","","","","html-keyboard-response","125","467493","0.0-10.0-0.53","55899b8dfdf99b7ae47f5fa4","640759fa512f630a2bdc333d","6408c18356bfc13724548624","null","","null","","","","","","","","","","","","","","","","","","","fixation","",""
"","","","","","color-precision2","126","471195","0.0-10.0-1.53-0.53","55899b8dfdf99b7ae47f5fa4","640759fa512f630a2bdc333d","6408c18356bfc13724548624","[758.6999999880791]","","","[18]","[204]","204","321","159.78905860422287","[159.78905860422287]","[198.78905860422287]","[197]","0","0","1","0","149.49899998807814","1006.2119999523275","1000","[[[""img/mask73.png""]]]","","","main","321","color-precision2"
"","","","","","html-keyboard-response","127","471697","0.0-10.0-0.54","55899b8dfdf99b7ae47f5fa4","640759fa512f630a2bdc333d","6408c18356bfc13724548624","null","","null","","","","","","","","","","","","","","","","","","","fixation","",""
"","","","","","color-precision2","128","475350","0.0-10.0-1.54-0.54","55899b8dfdf99b7ae47f5fa4","640759fa512f630a2bdc333d","6408c18356bfc13724548624","[743.3000000119209]","","","[10]","[240]","240","96","334.12434423407785","[334.12434423407785]","[238.12434423407785]","[240]","0","0","1","0","148.97199995233677","1004.7029999761726","1000","[[[""img/mask27.png""]]]","","","main","96","color-precision2"
"","","","","","html-keyboard-response","129","475851","0.0-10.0-0.55","55899b8dfdf99b7ae47f5fa4","640759fa512f630a2bdc333d","6408c18356bfc13724548624","null","","null","","","","","","","","","","","","","","","","","","","fixation","",""
"","","","","","color-precision2","130","479835","0.0-10.0-1.55-0.55","55899b8dfdf99b7ae47f5fa4","640759fa512f630a2bdc333d","6408c18356bfc13724548624","[1173.2000000476837]","","","[4]","[334]","334","191","165.02937815938964","[165.02937815938964]","[334.02937815938964]","[334]","0","0","1","0","148.56699995230883","1001.5779999881051","1000","[[[""img/mask1.png""]]]","","","main","191","color-precision2"
"","","","","","html-keyboard-response","131","480336","0.0-10.0-0.56","55899b8dfdf99b7ae47f5fa4","640759fa512f630a2bdc333d","6408c18356bfc13724548624","null","","null","","","","","","","","","","","","","","","","","","","fixation","",""
"","","","","","many-guess-6","132","484301","0.0-10.0-1.56-0.56","55899b8dfdf99b7ae47f5fa4","640759fa512f630a2bdc333d","6408c18356bfc13724548624","[2051.800000011921]","","","[9,34,3,12,16,8,10,24,14,6,30,4,7,21,17,29,20,31,11,13,19,35,28,1,32,0,15,2,26,23,5,22,25,27,18,33]","[57,157,197,177,336,316,87,117,137,326,267,77,17,346,97,147,67,207,127,167,286,296,237,27,217,7,187,37,356,247,277,107,257,306,227,47]","57","25","195.28854858175748","[195.28854858175748]","[170.28854858175748]","[170]","[30,300,210,120,30,30,120,30,120]","0","36","0","148.4689999523107","13.571999988052994","16","[[[""img/mask68.png""],[""img/mask27.png""],[""img/mask42.png""],[""img/mask32.png""],[""img/mask91.png""],[""img/mask81.png""],[""img/mask70.png""],[""img/mask60.png""],[""img/mask76.png""],[""img/mask40.png""],[""img/mask89.png""],[""img/mask25.png""],[""img/mask2.png""],[""img/mask7.png""],[""img/mask54.png""],[""img/mask10.png""],[""img/mask51.png""],[""img/mask9.png""],[""img/mask55.png""],[""img/mask10.png""],[""img/mask20.png""],[""img/mask5.png""],[""img/mask75.png""],[""img/mask47.png""],[""img/mask4.png""],[""img/mask48.png""],[""img/mask99.png""],[""img/mask24.png""],[""img/mask65.png""],[""img/mask41.png""],[""img/mask57.png""],[""img/mask13.png""],[""img/mask32.png""],[""img/mask88.png""],[""img/mask15.png""],[""img/mask86.png""]]]","","[9,34,3,12,16,8,10,24,14,6,30,4,7,21,17,29,20,31,11,13,19,35,28,1,32,0,15,2,26,23,5,22,25,27,18,33]","main","25","many-guess-6"
"","","","","","html-keyboard-response","133","484802","0.0-10.0-0.57","55899b8dfdf99b7ae47f5fa4","640759fa512f630a2bdc333d","6408c18356bfc13724548624","null","","null","","","","","","","","","","","","","","","","","","","fixation","",""
"","","","","","many-guess-6","134","488465","0.0-10.0-1.57-0.57","55899b8dfdf99b7ae47f5fa4","640759fa512f630a2bdc333d","6408c18356bfc13724548624","[2178.7000000476837]","","","[27,29,25,19,9,28,15,10,8,5,3,12,11,20,22,16,26,4,2,17,21,34,23,6,31,32,33,1,24,7,35,13,18,14,0,30]","[30,200,319,259,60,180,40,150,229,339,359,140,170,289,100,80,299,279,20,160,329,90,349,120,249,309,110,130,190,10,219,209,50,239,70,269]","30","197","335.14172645048257","[335.14172645048257]","[138.14172645048257]","[138]","[120,210,300,300,30,120,210,120,120]","0","36","0","148.3789999523433","19.926999988092575","16","[[[""img/mask5.png""],[""img/mask88.png""],[""img/mask5.png""],[""img/mask63.png""],[""img/mask21.png""],[""img/mask61.png""],[""img/mask10.png""],[""img/mask78.png""],[""img/mask48.png""],[""img/mask48.png""],[""img/mask39.png""],[""img/mask46.png""],[""img/mask99.png""],[""img/mask6.png""],[""img/mask95.png""],[""img/mask77.png""],[""img/mask4.png""],[""img/mask2.png""],[""img/mask26.png""],[""img/mask10.png""],[""img/mask3.png""],[""img/mask78.png""],[""img/mask90.png""],[""img/mask99.png""],[""img/mask40.png""],[""img/mask61.png""],[""img/mask99.png""],[""img/mask64.png""],[""img/mask19.png""],[""img/mask4.png""],[""img/mask25.png""],[""img/mask43.png""],[""img/mask33.png""],[""img/mask37.png""],[""img/mask33.png""],[""img/mask59.png""]]]","","[27,29,25,19,9,28,15,10,8,5,3,12,11,20,22,16,26,4,2,17,21,34,23,6,31,32,33,1,24,7,35,13,18,14,0,30]","main","197","many-guess-6"
"","","","","","html-keyboard-response","135","488966","0.0-10.0-0.58","55899b8dfdf99b7ae47f5fa4","640759fa512f630a2bdc333d","6408c18356bfc13724548624","null","","null","","","","","","","","","","","","","","","","","","","fixation","",""
"","","","","","color-precision2","136","492117","0.0-10.0-1.58-0.58","55899b8dfdf99b7ae47f5fa4","640759fa512f630a2bdc333d","6408c18356bfc13724548624","[442.80000001192093]","","","[28]","[354]","354","76","79.5244097283977","[79.5244097283977]","[3.5244097283977]","[2]","0","0","1","0","148.78200000000652","1002.1239999880781","1000","[[[""img/mask84.png""]]]","","","main","76","color-precision2"
"","","","","","html-keyboard-response","137","506572","0.0-10.0-0.59","55899b8dfdf99b7ae47f5fa4","640759fa512f630a2bdc333d","6408c18356bfc13724548624","14454.399999976158","Wow! You've completed 60 out of 180 trials! </p> <p>  </p><p> Take a quick break, then press any key when you're ready to continue."," ","","","","","","","","","","","","","","","","","","","fixation","",""
"","","","","","color-precision2","138","510482","0.0-10.0-1.59-0.59","55899b8dfdf99b7ae47f5fa4","640759fa512f630a2bdc333d","6408c18356bfc13724548624","[540.3999999761581]","","","[12]","[273]","273","248","165.63727505032327","[165.63727505032327]","[277.6372750503233]","[276]","0","0","1","0","149.73499999998603","996.9939999880735","1000","[[[""img/mask1.png""]]]","","","main","248","color-precision2"
"","","","","","html-keyboard-response","139","510984","0.0-10.0-0.60","55899b8dfdf99b7ae47f5fa4","640759fa512f630a2bdc333d","6408c18356bfc13724548624","null","","null","","","","","","","","","","","","","","","","","","","fixation","",""
"","","","","","many-guess-6","140","514879","0.0-10.0-1.60-0.60","55899b8dfdf99b7ae47f5fa4","640759fa512f630a2bdc333d","6408c18356bfc13724548624","[2250.300000011921]","","","[35,30,0,33,23,34,29,8,1,11,21,25,14,17,2,15,19,4,26,9,12,27,3,10,13,31,24,16,28,7,6,22,32,5,18,20]","[285,265,235,335,245,76,56,155,16,145,36,355,175,345,275,185,96,205,136,315,86,46,116,106,225,126,295,66,255,195,325,165,305,26,6,215]","285","257","219.4755806184877","[219.4755806184877]","[322.4755806184877]","[322]","[300,210,210,30,120,210,120,210,210]","0","36","0","148.78999996423954","24.97999996424187","16","[[[""img/mask15.png""],[""img/mask47.png""],[""img/mask36.png""],[""img/mask74.png""],[""img/mask34.png""],[""img/mask28.png""],[""img/mask40.png""],[""img/mask17.png""],[""img/mask20.png""],[""img/mask61.png""],[""img/mask72.png""],[""img/mask32.png""],[""img/mask37.png""],[""img/mask30.png""],[""img/mask21.png""],[""img/mask100.png""],[""img/mask1.png""],[""img/mask63.png""],[""img/mask3.png""],[""img/mask85.png""],[""img/mask30.png""],[""img/mask91.png""],[""img/mask50.png""],[""img/mask73.png""],[""img/mask86.png""],[""img/mask70.png""],[""img/mask41.png""],[""img/mask72.png""],[""img/mask75.png""],[""img/mask61.png""],[""img/mask10.png""],[""img/mask89.png""],[""img/mask43.png""],[""img/mask53.png""],[""img/mask37.png""],[""img/mask64.png""]]]","","[35,30,0,33,23,34,29,8,1,11,21,25,14,17,2,15,19,4,26,9,12,27,3,10,13,31,24,16,28,7,6,22,32,5,18,20]","main","257","many-guess-6"
"","","","","","html-keyboard-response","141","515380","0.0-10.0-0.61","55899b8dfdf99b7ae47f5fa4","640759fa512f630a2bdc333d","6408c18356bfc13724548624","null","","null","","","","","","","","","","","","","","","","","","","fixation","",""
"","","","","","color-precision2","142","519160","0.0-10.0-1.61-0.61","55899b8dfdf99b7ae47f5fa4","640759fa512f630a2bdc333d","6408c18356bfc13724548624","[1010]","","","[19]","[89]","89","293","29.49171745471111","[29.49171745471111]","[96.49171745471114]","[95]","0","0","1","0","149.6469999642577","994.3099999880651","1000","[[[""img/mask100.png""]]]","","","main","293","color-precision2"
"","","","","","html-keyboard-response","143","519663","0.0-10.0-0.62","55899b8dfdf99b7ae47f5fa4","640759fa512f630a2bdc333d","6408c18356bfc13724548624","null","","null","","","","","","","","","","","","","","","","","","","fixation","",""
"","","","","","many-guess-6","144","524309","0.0-10.0-1.62-0.62","55899b8dfdf99b7ae47f5fa4","640759fa512f630a2bdc333d","6408c18356bfc13724548624","[2337.899999976158]","","","[29,27,18,33,12,10,6,19,34,23,17,21,13,26,25,3,5,14,2,32,15,8,16,28,9,0,7,30,31,20,35,4,22,24,11,1]","[315,295,105,205,35,115,245,75,65,285,305,25,135,95,354,235,225,215,255,85,325,275,125,155,175,265,45,345,165,15,335,145,195,5,185,55]","315","265","58.9560059750089","[58.9560059750089]","[153.9560059750089]","[153]","[300,210,300,210,210,30,120,30,300]","0","36","0","149.6059999880381","26.382999976165593","16","[[[""img/mask13.png""],[""img/mask12.png""],[""img/mask28.png""],[""img/mask4.png""],[""img/mask26.png""],[""img/mask71.png""],[""img/mask14.png""],[""img/mask73.png""],[""img/mask67.png""],[""img/mask15.png""],[""img/mask78.png""],[""img/mask88.png""],[""img/mask54.png""],[""img/mask9.png""],[""img/mask19.png""],[""img/mask44.png""],[""img/mask56.png""],[""img/mask38.png""],[""img/mask100.png""],[""img/mask59.png""],[""img/mask17.png""],[""img/mask19.png""],[""img/mask6.png""],[""img/mask59.png""],[""img/mask13.png""],[""img/mask81.png""],[""img/mask94.png""],[""img/mask18.png""],[""img/mask57.png""],[""img/mask14.png""],[""img/mask82.png""],[""img/mask42.png""],[""img/mask73.png""],[""img/mask51.png""],[""img/mask59.png""],[""img/mask40.png""]]]","","[29,27,18,33,12,10,6,19,34,23,17,21,13,26,25,3,5,14,2,32,15,8,16,28,9,0,7,30,31,20,35,4,22,24,11,1]","main","265","many-guess-6"
"","","","","","html-keyboard-response","145","524810","0.0-10.0-0.63","55899b8dfdf99b7ae47f5fa4","640759fa512f630a2bdc333d","6408c18356bfc13724548624","null","","null","","","","","","","","","","","","","","","","","","","fixation","",""
"","","","","","many-guess-6","146","529919","0.0-10.0-1.63-0.63","55899b8dfdf99b7ae47f5fa4","640759fa512f630a2bdc333d","6408c18356bfc13724548624","[3075]","","","[32,34,11,31,10,19,30,25,18,27,6,13,16,35,3,29,23,14,4,1,26,33,2,8,15,24,0,20,7,9,28,22,5,12,17,21]","[29,229,268,209,39,248,89,308,258,219,49,278,338,348,358,79,199,288,239,328,99,69,19,149,139,298,318,109,169,59,189,159,179,119,129,9]","29","150","3.8882580265557043","[3.8882580265557043]","[213.88825802655572]","[213]","[210,120,30,210,300,120,210,30,300]","0","36","0","149.08199996419717","23.769999964279123","16","[[[""img/mask8.png""],[""img/mask86.png""],[""img/mask82.png""],[""img/mask69.png""],[""img/mask23.png""],[""img/mask82.png""],[""img/mask14.png""],[""img/mask46.png""],[""img/mask94.png""],[""img/mask91.png""],[""img/mask41.png""],[""img/mask86.png""],[""img/mask76.png""],[""img/mask2.png""],[""img/mask93.png""],[""img/mask39.png""],[""img/mask13.png""],[""img/mask22.png""],[""img/mask62.png""],[""img/mask92.png""],[""img/mask20.png""],[""img/mask57.png""],[""img/mask22.png""],[""img/mask57.png""],[""img/mask22.png""],[""img/mask21.png""],[""img/mask32.png""],[""img/mask54.png""],[""img/mask51.png""],[""img/mask38.png""],[""img/mask93.png""],[""img/mask14.png""],[""img/mask46.png""],[""img/mask68.png""],[""img/mask28.png""],[""img/mask11.png""]]]","","[32,34,11,31,10,19,30,25,18,27,6,13,16,35,3,29,23,14,4,1,26,33,2,8,15,24,0,20,7,9,28,22,5,12,17,21]","main","150","many-guess-6"
"","","","","","html-keyboard-response","147","530419","0.0-10.0-0.64","55899b8dfdf99b7ae47f5fa4","640759fa512f630a2bdc333d","6408c18356bfc13724548624","null","","null","","","","","","","","","","","","","","","","","","","fixation","",""
"","","","","","color-precision2","148","534376","0.0-10.0-1.64-0.64","55899b8dfdf99b7ae47f5fa4","640759fa512f630a2bdc333d","6408c18356bfc13724548624","[1461.1000000238419]","","","[25]","[319]","319","335","310.5852024407245","[310.5852024407245]","[335.5852024407245]","[336]","0","0","1","0","149.2489999999525","993.1789999522734","1000","[[[""img/mask67.png""]]]","","","main","335","color-precision2"
"","","","","","html-keyboard-response","149","534878","0.0-10.0-0.65","55899b8dfdf99b7ae47f5fa4","640759fa512f630a2bdc333d","6408c18356bfc13724548624","null","","null","","","","","","","","","","","","","","","","","","","fixation","",""
"","","","","","many-guess-6","150","539341","0.0-10.0-1.65-0.65","55899b8dfdf99b7ae47f5fa4","640759fa512f630a2bdc333d","6408c18356bfc13724548624","[2370.800000011921]","","","[35,7,22,0,29,21,11,15,16,4,8,24,6,32,28,34,1,3,26,17,23,2,31,5,18,20,13,19,30,27,10,12,9,25,33,14]","[179,319,49,309,349,359,99,269,219,249,279,69,119,29,259,89,299,39,329,129,289,109,79,169,239,199,10,339,139,19,189,149,159,59,229,209]","179","77","252.4178931384406","[252.4178931384406]","[175.4178931384406]","[176]","[300,30,30,210,30,30,210,300,210]","0","36","0","149.1069999880856","12.605999964289367","16","[[[""img/mask3.png""],[""img/mask30.png""],[""img/mask52.png""],[""img/mask53.png""],[""img/mask99.png""],[""img/mask80.png""],[""img/mask52.png""],[""img/mask35.png""],[""img/mask2.png""],[""img/mask68.png""],[""img/mask26.png""],[""img/mask68.png""],[""img/mask4.png""],[""img/mask82.png""],[""img/mask17.png""],[""img/mask37.png""],[""img/mask36.png""],[""img/mask20.png""],[""img/mask14.png""],[""img/mask33.png""],[""img/mask53.png""],[""img/mask57.png""],[""img/mask90.png""],[""img/mask57.png""],[""img/mask80.png""],[""img/mask16.png""],[""img/mask49.png""],[""img/mask54.png""],[""img/mask69.png""],[""img/mask9.png""],[""img/mask42.png""],[""img/mask2.png""],[""img/mask66.png""],[""img/mask48.png""],[""img/mask76.png""],[""img/mask11.png""]]]","","[35,7,22,0,29,21,11,15,16,4,8,24,6,32,28,34,1,3,26,17,23,2,31,5,18,20,13,19,30,27,10,12,9,25,33,14]","main","77","many-guess-6"
"","","","","","html-keyboard-response","151","539842","0.0-10.0-0.66","55899b8dfdf99b7ae47f5fa4","640759fa512f630a2bdc333d","6408c18356bfc13724548624","null","","null","","","","","","","","","","","","","","","","","","","fixation","",""
"","","","","","many-guess-6","152","544755","0.0-10.0-1.66-0.66","55899b8dfdf99b7ae47f5fa4","640759fa512f630a2bdc333d","6408c18356bfc13724548624","[2379.800000011921]","","","[13,28,9,15,24,18,0,2,25,7,12,31,11,19,34,6,30,22,14,17,29,4,23,16,35,8,1,20,3,33,10,21,5,27,26,32]","[312,83,292,183,73,302,163,352,93,332,262,53,342,282,222,202,33,113,63,43,232,153,3,23,212,13,123,143,272,192,252,133,242,103,173,322]","312","136","38.81316625000191","[38.81316625000191]","[262.8131662500019]","[262]","[120,30,30,210,210,120,30,120,30]","0","36","0","148.23300000000745","27.32199997617863","16","[[[""img/mask18.png""],[""img/mask28.png""],[""img/mask13.png""],[""img/mask49.png""],[""img/mask48.png""],[""img/mask48.png""],[""img/mask21.png""],[""img/mask12.png""],[""img/mask98.png""],[""img/mask100.png""],[""img/mask31.png""],[""img/mask29.png""],[""img/mask48.png""],[""img/mask39.png""],[""img/mask81.png""],[""img/mask22.png""],[""img/mask49.png""],[""img/mask40.png""],[""img/mask1.png""],[""img/mask9.png""],[""img/mask65.png""],[""img/mask98.png""],[""img/mask13.png""],[""img/mask28.png""],[""img/mask55.png""],[""img/mask42.png""],[""img/mask37.png""],[""img/mask14.png""],[""img/mask41.png""],[""img/mask36.png""],[""img/mask92.png""],[""img/mask7.png""],[""img/mask68.png""],[""img/mask49.png""],[""img/mask83.png""],[""img/mask68.png""]]]","","[13,28,9,15,24,18,0,2,25,7,12,31,11,19,34,6,30,22,14,17,29,4,23,16,35,8,1,20,3,33,10,21,5,27,26,32]","main","136","many-guess-6"
"","","","","","html-keyboard-response","153","545256","0.0-10.0-0.67","55899b8dfdf99b7ae47f5fa4","640759fa512f630a2bdc333d","6408c18356bfc13724548624","null","","null","","","","","","","","","","","","","","","","","","","fixation","",""
"","","","","","many-guess-6","154","550045","0.0-10.0-1.67-0.67","55899b8dfdf99b7ae47f5fa4","640759fa512f630a2bdc333d","6408c18356bfc13724548624","[2447.300000011921]","","","[27,22,10,5,32,23,19,31,15,1,20,29,28,4,26,35,16,18,11,30,17,9,21,0,8,3,12,6,13,34,14,7,2,33,25,24]","[153,343,233,73,103,113,4,143,263,303,213,24,63,323,193,253,293,53,333,123,163,313,273,133,183,203,353,243,14,283,43,83,223,34,93,173]","153","86","14.606120344175181","[14.606120344175181]","[288.60612034417517]","[288]","[30,30,120,30,300,120,120,300,210]","0","36","0","148.9019999881275","23.127999964286573","16","[[[""img/mask74.png""],[""img/mask50.png""],[""img/mask68.png""],[""img/mask12.png""],[""img/mask12.png""],[""img/mask23.png""],[""img/mask71.png""],[""img/mask82.png""],[""img/mask31.png""],[""img/mask45.png""],[""img/mask51.png""],[""img/mask29.png""],[""img/mask76.png""],[""img/mask56.png""],[""img/mask46.png""],[""img/mask30.png""],[""img/mask1.png""],[""img/mask65.png""],[""img/mask90.png""],[""img/mask18.png""],[""img/mask83.png""],[""img/mask4.png""],[""img/mask58.png""],[""img/mask62.png""],[""img/mask47.png""],[""img/mask76.png""],[""img/mask12.png""],[""img/mask3.png""],[""img/mask85.png""],[""img/mask97.png""],[""img/mask96.png""],[""img/mask67.png""],[""img/mask11.png""],[""img/mask49.png""],[""img/mask36.png""],[""img/mask81.png""]]]","","[27,22,10,5,32,23,19,31,15,1,20,29,28,4,26,35,16,18,11,30,17,9,21,0,8,3,12,6,13,34,14,7,2,33,25,24]","main","86","many-guess-6"
"","","","","","html-keyboard-response","155","550546","0.0-10.0-0.68","55899b8dfdf99b7ae47f5fa4","640759fa512f630a2bdc333d","6408c18356bfc13724548624","null","","null","","","","","","","","","","","","","","","","","","","fixation","",""
"","","","","","many-guess-6","156","554419","0.0-10.0-1.68-0.68","55899b8dfdf99b7ae47f5fa4","640759fa512f630a2bdc333d","6408c18356bfc13724548624","[2083.699999988079]","","","[30,10,4,19,34,32,14,9,7,27,6,31,13,17,5,15,11,2,25,20,22,8,26,29,23,16,33,1,24,35,18,21,3,0,12,28]","[74,14,333,164,104,284,274,194,304,4,44,214,34,294,353,154,343,324,54,144,224,134,64,174,184,124,84,234,204,314,24,94,244,254,264,114]","74","152","146.83387588659616","[146.83387588659616]","[354.83387588659616]","[353]","[300,120,210,30,30,300,300,300,120]","0","36","0","148.40699996426702","13.35599997616373","16","[[[""img/mask98.png""],[""img/mask35.png""],[""img/mask91.png""],[""img/mask89.png""],[""img/mask82.png""],[""img/mask5.png""],[""img/mask57.png""],[""img/mask65.png""],[""img/mask36.png""],[""img/mask64.png""],[""img/mask49.png""],[""img/mask5.png""],[""img/mask74.png""],[""img/mask25.png""],[""img/mask2.png""],[""img/mask63.png""],[""img/mask91.png""],[""img/mask1.png""],[""img/mask40.png""],[""img/mask100.png""],[""img/mask5.png""],[""img/mask12.png""],[""img/mask10.png""],[""img/mask23.png""],[""img/mask8.png""],[""img/mask24.png""],[""img/mask94.png""],[""img/mask81.png""],[""img/mask81.png""],[""img/mask7.png""],[""img/mask43.png""],[""img/mask22.png""],[""img/mask84.png""],[""img/mask25.png""],[""img/mask96.png""],[""img/mask53.png""]]]","","[30,10,4,19,34,32,14,9,7,27,6,31,13,17,5,15,11,2,25,20,22,8,26,29,23,16,33,1,24,35,18,21,3,0,12,28]","main","152","many-guess-6"
"","","","","","html-keyboard-response","157","554919","0.0-10.0-0.69","55899b8dfdf99b7ae47f5fa4","640759fa512f630a2bdc333d","6408c18356bfc13724548624","null","","null","","","","","","","","","","","","","","","","","","","fixation","",""
"","","","","","many-guess-6","158","559353","0.0-10.0-1.69-0.69","55899b8dfdf99b7ae47f5fa4","640759fa512f630a2bdc333d","6408c18356bfc13724548624","[1545.5]","","","[14,23,12,28,32,2,26,34,5,1,31,21,15,20,0,9,30,22,29,24,27,13,11,25,10,18,3,33,8,35,17,6,7,4,19,16]","[41,171,291,111,311,261,141,12,81,101,321,61,351,91,2,161,121,71,32,181,151,51,301,191,131,22,341,271,241,231,331,221,201,251,211,281]","41","98","285.00939785338784","[285.00939785338784]","[187.00939785338784]","[187]","[30,30,30,210,300,210,210,300,30]","0","36","0","148.847999976133","15.618000000016764","16","[[[""img/mask98.png""],[""img/mask55.png""],[""img/mask7.png""],[""img/mask39.png""],[""img/mask38.png""],[""img/mask90.png""],[""img/mask27.png""],[""img/mask8.png""],[""img/mask57.png""],[""img/mask3.png""],[""img/mask62.png""],[""img/mask57.png""],[""img/mask21.png""],[""img/mask90.png""],[""img/mask63.png""],[""img/mask16.png""],[""img/mask35.png""],[""img/mask56.png""],[""img/mask35.png""],[""img/mask40.png""],[""img/mask93.png""],[""img/mask9.png""],[""img/mask33.png""],[""img/mask27.png""],[""img/mask42.png""],[""img/mask33.png""],[""img/mask71.png""],[""img/mask5.png""],[""img/mask10.png""],[""img/mask71.png""],[""img/mask100.png""],[""img/mask56.png""],[""img/mask29.png""],[""img/mask68.png""],[""img/mask27.png""],[""img/mask58.png""]]]","","[14,23,12,28,32,2,26,34,5,1,31,21,15,20,0,9,30,22,29,24,27,13,11,25,10,18,3,33,8,35,17,6,7,4,19,16]","main","98","many-guess-6"
"","","","","","html-keyboard-response","159","559854","0.0-10.0-0.70","55899b8dfdf99b7ae47f5fa4","640759fa512f630a2bdc333d","6408c18356bfc13724548624","null","","null","","","","","","","","","","","","","","","","","","","fixation","",""
"","","","","","color-precision2","160","562741","0.0-10.0-1.70-0.70","55899b8dfdf99b7ae47f5fa4","640759fa512f630a2bdc333d","6408c18356bfc13724548624","[178.80000001192093]","","","[17]","[86]","86","282","","[null]","[null]","[83]","0","0","1","0","148.3899999880232","1001.5039999642177","1000","[[[""img/mask23.png""]]]","","","main","282","color-precision2"
"","","","","","html-keyboard-response","161","563241","0.0-10.0-0.71","55899b8dfdf99b7ae47f5fa4","640759fa512f630a2bdc333d","6408c18356bfc13724548624","null","","null","","","","","","","","","","","","","","","","","","","fixation","",""
"","","","","","many-guess-6","162","567472","0.0-10.0-1.71-0.71","55899b8dfdf99b7ae47f5fa4","640759fa512f630a2bdc333d","6408c18356bfc13724548624","[2375.100000023842]","","","[16,0,23,28,6,33,2,10,9,25,7,31,34,13,24,5,29,32,20,4,11,30,22,35,12,8,27,17,19,3,26,15,14,21,1,18]","[222,33,192,312,202,123,93,292,3,173,272,13,322,143,262,282,43,83,73,232,23,252,103,163,332,302,63,182,53,342,113,352,153,242,133,212]","222","299","331.3381360697411","[331.3381360697411]","[32.3381360697411]","[32]","[120,30,30,120,120,120,300,30,300]","0","36","0","149.8579999881331","17.38799996417947","16","[[[""img/mask84.png""],[""img/mask41.png""],[""img/mask40.png""],[""img/mask81.png""],[""img/mask53.png""],[""img/mask51.png""],[""img/mask69.png""],[""img/mask10.png""],[""img/mask21.png""],[""img/mask94.png""],[""img/mask40.png""],[""img/mask41.png""],[""img/mask50.png""],[""img/mask73.png""],[""img/mask28.png""],[""img/mask4.png""],[""img/mask29.png""],[""img/mask78.png""],[""img/mask59.png""],[""img/mask84.png""],[""img/mask96.png""],[""img/mask49.png""],[""img/mask75.png""],[""img/mask85.png""],[""img/mask85.png""],[""img/mask79.png""],[""img/mask26.png""],[""img/mask5.png""],[""img/mask77.png""],[""img/mask23.png""],[""img/mask91.png""],[""img/mask74.png""],[""img/mask91.png""],[""img/mask63.png""],[""img/mask83.png""],[""img/mask88.png""]]]","","[16,0,23,28,6,33,2,10,9,25,7,31,34,13,24,5,29,32,20,4,11,30,22,35,12,8,27,17,19,3,26,15,14,21,1,18]","main","299","many-guess-6"
"","","","","","html-keyboard-response","163","567973","0.0-10.0-0.72","55899b8dfdf99b7ae47f5fa4","640759fa512f630a2bdc333d","6408c18356bfc13724548624","null","","null","","","","","","","","","","","","","","","","","","","fixation","",""
"","","","","","color-precision2","164","571219","0.0-10.0-1.72-0.72","55899b8dfdf99b7ae47f5fa4","640759fa512f630a2bdc333d","6408c18356bfc13724548624","[915.4000000357628]","","","[3]","[250]","250","172","65.35285399980448","[65.35285399980448]","[253.3528539998045]","[251]","0","0","1","0","149.53599998808932","1002.141999964253","1000","[[[""img/mask10.png""]]]","","","main","172","color-precision2"
"","","","","","html-keyboard-response","165","571720","0.0-10.0-0.73","55899b8dfdf99b7ae47f5fa4","640759fa512f630a2bdc333d","6408c18356bfc13724548624","null","","null","","","","","","","","","","","","","","","","","","","fixation","",""
"","","","","","color-precision2","166","575135","0.0-10.0-1.73-0.73","55899b8dfdf99b7ae47f5fa4","640759fa512f630a2bdc333d","6408c18356bfc13724548624","[560.4000000357628]","","","[10]","[34]","34","236","246.19732558637503","[246.19732558637503]","[10.19732558637503]","[11]","0","0","1","0","149.3869999642484","994.6239999880781","1000","[[[""img/mask42.png""]]]","","","main","236","color-precision2"
"","","","","","html-keyboard-response","167","575635","0.0-10.0-0.74","55899b8dfdf99b7ae47f5fa4","640759fa512f630a2bdc333d","6408c18356bfc13724548624","null","","null","","","","","","","","","","","","","","","","","","","fixation","",""
"","","","","","many-guess-6","168","579702","0.0-10.0-1.74-0.74","55899b8dfdf99b7ae47f5fa4","640759fa512f630a2bdc333d","6408c18356bfc13724548624","[2292.699999988079]","","","[20,13,31,26,30,17,18,35,16,14,15,1,24,29,0,10,12,21,19,25,7,27,32,22,4,5,6,8,2,3,9,11,28,33,34,23]","[115,5,334,85,305,265,35,314,165,235,205,215,255,195,275,95,354,65,55,175,285,105,75,125,344,185,295,145,25,245,324,155,225,45,135,15]","115","185","57.88963151405998","[57.88963151405998]","[232.88963151405997]","[231]","[300,30,30,300,300,210,210,30,120]","0","36","0","148.84499997610692","22.20999995234888","16","[[[""img/mask83.png""],[""img/mask97.png""],[""img/mask19.png""],[""img/mask47.png""],[""img/mask42.png""],[""img/mask57.png""],[""img/mask31.png""],[""img/mask96.png""],[""img/mask45.png""],[""img/mask92.png""],[""img/mask35.png""],[""img/mask54.png""],[""img/mask26.png""],[""img/mask51.png""],[""img/mask72.png""],[""img/mask59.png""],[""img/mask59.png""],[""img/mask56.png""],[""img/mask47.png""],[""img/mask99.png""],[""img/mask24.png""],[""img/mask44.png""],[""img/mask81.png""],[""img/mask52.png""],[""img/mask20.png""],[""img/mask85.png""],[""img/mask22.png""],[""img/mask34.png""],[""img/mask85.png""],[""img/mask86.png""],[""img/mask92.png""],[""img/mask98.png""],[""img/mask20.png""],[""img/mask70.png""],[""img/mask97.png""],[""img/mask77.png""]]]","","[20,13,31,26,30,17,18,35,16,14,15,1,24,29,0,10,12,21,19,25,7,27,32,22,4,5,6,8,2,3,9,11,28,33,34,23]","main","185","many-guess-6"
"","","","","","html-keyboard-response","169","580203","0.0-10.0-0.75","55899b8dfdf99b7ae47f5fa4","640759fa512f630a2bdc333d","6408c18356bfc13724548624","null","","null","","","","","","","","","","","","","","","","","","","fixation","",""
"","","","","","color-precision2","170","583395","0.0-10.0-1.75-0.75","55899b8dfdf99b7ae47f5fa4","640759fa512f630a2bdc333d","6408c18356bfc13724548624","[460.5]","","","[4]","[298]","298","91","29.894201198473006","[29.894201198473006]","[298.894201198473]","[298]","0","0","1","0","148.40999998804182","991.9189999642549","1000","[[[""img/mask82.png""]]]","","","main","91","color-precision2"
"","","","","","html-keyboard-response","171","583896","0.0-10.0-0.76","55899b8dfdf99b7ae47f5fa4","640759fa512f630a2bdc333d","6408c18356bfc13724548624","null","","null","","","","","","","","","","","","","","","","","","","fixation","",""
"","","","","","many-guess-6","172","588329","0.0-10.0-1.76-0.76","55899b8dfdf99b7ae47f5fa4","640759fa512f630a2bdc333d","6408c18356bfc13724548624","[1842.3999999761581]","","","[6,28,25,1,15,19,31,23,27,14,3,11,7,34,20,32,35,5,26,16,33,2,13,9,12,10,18,29,17,4,30,22,24,0,21,8]","[210,61,21,11,41,170,160,270,180,51,80,320,300,31,200,150,190,140,70,340,90,330,130,260,290,310,120,230,1,240,280,220,350,250,100,110]","210","338","337.89568495070074","[337.89568495070074]","[359.89568495070074]","[359]","[120,30,30,120,120,210,210,300,30]","0","36","0","148.66199997614603","15.699999988079071","16","[[[""img/mask22.png""],[""img/mask15.png""],[""img/mask43.png""],[""img/mask14.png""],[""img/mask11.png""],[""img/mask55.png""],[""img/mask33.png""],[""img/mask52.png""],[""img/mask19.png""],[""img/mask69.png""],[""img/mask16.png""],[""img/mask35.png""],[""img/mask16.png""],[""img/mask49.png""],[""img/mask5.png""],[""img/mask66.png""],[""img/mask12.png""],[""img/mask59.png""],[""img/mask66.png""],[""img/mask13.png""],[""img/mask85.png""],[""img/mask27.png""],[""img/mask7.png""],[""img/mask95.png""],[""img/mask7.png""],[""img/mask25.png""],[""img/mask78.png""],[""img/mask42.png""],[""img/mask25.png""],[""img/mask84.png""],[""img/mask96.png""],[""img/mask38.png""],[""img/mask94.png""],[""img/mask45.png""],[""img/mask14.png""],[""img/mask97.png""]]]","","[6,28,25,1,15,19,31,23,27,14,3,11,7,34,20,32,35,5,26,16,33,2,13,9,12,10,18,29,17,4,30,22,24,0,21,8]","main","338","many-guess-6"
