"success","timeout","failed_images","failed_audio","failed_video","trial_type","trial_index","time_elapsed","internal_node_id","subject_id","study_id","session_id","rt","stimulus","response","position_of_items","colors_of_items","color_of_target","wheel_spin","response_angle","physical_response_angle","reported_color_angle","reported_color_discrete","locs","which_test","set_size","wheel_num_options","actual_mask_duration","actual_stim_duration","CMDispTime","maskArray","maskRotation","item_positions","task","randomSpinAmount","mainTask"
"true","false","[]","[]","[]","preload","0","1099","0.0-0.0","565c6791c121fe0012fc3caf","640759fa512f630a2bdc333d","640785cd275d18f9bcdc3327","","","","","","","","","","","","","","","","","","","","","","","",""
"true","","","","","fullscreen","1","4615","0.0-1.0","565c6791c121fe0012fc3caf","640759fa512f630a2bdc333d","640785cd275d18f9bcdc3327","","","","","","","","","","","","","","","","","","","","","","","",""
"","","","","","html-keyboard-response","2","12601","0.0-2.0","565c6791c121fe0012fc3caf","640759fa512f630a2bdc333d","640785cd275d18f9bcdc3327","7983.700000047684","What a beautiful Tuesday to do some awesome science! </p> <p>  </p><p> </p>
    By completing this survey or questionnaire, you are consenting to be in this research study. </p>
    Your participation is voluntary and you can stop at any time.<p> [Press any key to continue] </p>","v","","","","","","","","","","","","","","","","","","","","",""
"","","","","","html-keyboard-response","3","22607","0.0-3.0","565c6791c121fe0012fc3caf","640759fa512f630a2bdc333d","640785cd275d18f9bcdc3327","null","
    <div style='width: 1000px;'>
    <div style='float: center;'><img src='img/TaskInstructions1.png'></img>
    </div>
    ","null","","","","","","","","","","","","","","","","","","","","",""
"","","","","","html-keyboard-response","4","24448","0.0-4.0","565c6791c121fe0012fc3caf","640759fa512f630a2bdc333d","640785cd275d18f9bcdc3327","1838.7000000476837","
    <div style='width: 1000px;'>
    <div style='float: center;'><img src='img/TaskInstructions1.png'></img>
    </div>
    ","v","","","","","","","","","","","","","","","","","","","","",""
"","","","","","html-keyboard-response","5","34456","0.0-5.0","565c6791c121fe0012fc3caf","640759fa512f630a2bdc333d","640785cd275d18f9bcdc3327","null","
    <div style='width: 1000px;'>
    <div style='float: center;'><img src='img/TaskInstructions2.png'></img>
    </div>
    ","null","","","","","","","","","","","","","","","","","","","","",""
"","","","","","html-keyboard-response","6","46614","0.0-6.0","565c6791c121fe0012fc3caf","640759fa512f630a2bdc333d","640785cd275d18f9bcdc3327","12157.100000023842","
    <div style='width: 1000px;'>
    <div style='float: center;'><img src='img/TaskInstructions2.png'></img>
    </div>
    ","c","","","","","","","","","","","","","","","","","","","","",""
"","","","","","video-keyboard-response","7","74310","0.0-7.0","565c6791c121fe0012fc3caf","640759fa512f630a2bdc333d","640785cd275d18f9bcdc3327","27685.299999952316","[""video/TaskInstructions3.mp4""]"," ","","","","","","","","","","","","","","","","","","","","",""
"","","","","","image-keyboard-response","8","81196","0.0-8.0-0.0","565c6791c121fe0012fc3caf","640759fa512f630a2bdc333d","640785cd275d18f9bcdc3327","6881.199999928474","img/training1.png"," ","","","","","","","","","","","","","","","","","","","","",""
"","","","","","color-precision2","9","97380","0.0-8.0-1.0-0.0","565c6791c121fe0012fc3caf","640759fa512f630a2bdc333d","640785cd275d18f9bcdc3327","[8405.799999952316]","","","[5]","[70]","70","335","46.61673354335331","[46.61673354335331]","[71.61673354335329]","[70]","0","0","1","0","498.80599995231023","995.5869999523129","1000","","","0","training","",""
"","","","","","image-keyboard-response","10","113385","0.0-8.0-0.1","565c6791c121fe0012fc3caf","640759fa512f630a2bdc333d","640785cd275d18f9bcdc3327","16002.600000023842","img/training2.png"," ","","","","","","","","","","","","","","","","","","","","",""
"","","","","","many-guess-6","11","122474","0.0-8.0-1.1-0.1","565c6791c121fe0012fc3caf","640759fa512f630a2bdc333d","640785cd275d18f9bcdc3327","[4070]","","","[33,30,20]","[81,152,321]","81","15","1.4237020534503835","[1.4237020534503835]","[346.42370205345037]","[346]","[120,210,300,120,30,300,120,300,210,300,120,210,210,30,210,300,120,300,300,30,30,30,30,120,300,30,30,210,30,300,120,30,30,210,300,30]","0","3","0","998.6330000000016","996.1370000238385","1000","[[[""img/mask89.png""],[""img/mask11.png""],[""img/mask94.png""]]]","","[33,30,20]","training","",""
"","","","","","image-keyboard-response","12","133444","0.0-8.0-0.2","565c6791c121fe0012fc3caf","640759fa512f630a2bdc333d","640785cd275d18f9bcdc3327","10968.100000023842","img/training3.png"," ","","","","","","","","","","","","","","","","","","","","",""
"","","","","","[""many-guess-6""]","13","141934","0.0-8.0-1.2-0.2","565c6791c121fe0012fc3caf","640759fa512f630a2bdc333d","640785cd275d18f9bcdc3327","[4282.600000023842]","","","[9,20,34,3,29]","[241,175,83,116,230]","241","319","196.2737813474793","[196.2737813474793]","[237.2737813474793]","[237]","[120,210,210,30,30,30,210,300,300,300,120,300,210,120,210,120,300,300,120,30,30,120,30,30,120,210,210,30,120,300,210,300,30,120,210,210]","0","5","0","498.9589999523305","497.37399995230953","500","[[[""img/mask41.png""],[""img/mask99.png""],[""img/mask12.png""],[""img/mask3.png""],[""img/mask67.png""]]]","","[9,20,34,3,29]","training","",""
"","","","","","image-keyboard-response","14","148059","0.0-8.0-0.3","565c6791c121fe0012fc3caf","640759fa512f630a2bdc333d","640785cd275d18f9bcdc3327","6123.599999904633","img/training4.png"," ","","","","","","","","","","","","","","","","","","","","",""
"","","","","","[""many-guess-6""]","15","156464","0.0-8.0-1.3-0.3","565c6791c121fe0012fc3caf","640759fa512f630a2bdc333d","640785cd275d18f9bcdc3327","[4964.200000047684]","","","[32,33,10,28,9,35,5,16,30,20]","[72,107,193,135,346,42,289,320,9,167]","72","240","60.87391783626936","[60.87391783626936]","[180.87391783626936]","[179]","[210,120,210,210,120,210,120,30,210,30,300,30,210,300,120,30,30,210,30,30,210,210,120,210,300,120,210,30,120,300,300,210,300,300,120,30]","0","10","0","132.22599997615907","129.97899999999208","132","[[[""img/mask22.png""],[""img/mask77.png""],[""img/mask87.png""],[""img/mask83.png""],[""img/mask20.png""],[""img/mask18.png""],[""img/mask28.png""],[""img/mask100.png""],[""img/mask98.png""],[""img/mask14.png""]]]","","[32,33,10,28,9,35,5,16,30,20]","training","",""
"","","","","","image-keyboard-response","16","163442","0.0-8.0-0.4","565c6791c121fe0012fc3caf","640759fa512f630a2bdc333d","640785cd275d18f9bcdc3327","6977.100000023842","img/training5.png"," ","","","","","","","","","","","","","","","","","","","","",""
"","","","","","[""many-guess-6""]","17","170076","0.0-8.0-1.4-0.4","565c6791c121fe0012fc3caf","640759fa512f630a2bdc333d","640785cd275d18f9bcdc3327","[2844.399999976158]","","","[30,12,15,31,10,33,11,6,16,14,24,20,34,19,0,2,23,18,4,8,21,17,9,26,22,27,29,7,1,25,28,32,35,5,13,3]","[125,265,145,185,315,115,95,105,65,85,285,305,275,25,45,215,175,255,235,75,155,205,344,15,55,165,335,354,225,325,295,195,245,5,135,35]","125","2","356.1225371501058","[356.1225371501058]","[354.1225371501058]","[353]","[210,210,210,300,120,120,30,210,300,300,30,210,30,300,120,120,300,30,120,300,210,210,210,210,120,210,30,210,210,300,300,120,30,210,300,210]","0","36","0","132.04999995231628","13.046999952319311","16","[[[""img/mask9.png""],[""img/mask46.png""],[""img/mask72.png""],[""img/mask71.png""],[""img/mask100.png""],[""img/mask45.png""],[""img/mask52.png""],[""img/mask58.png""],[""img/mask9.png""],[""img/mask13.png""],[""img/mask77.png""],[""img/mask74.png""],[""img/mask47.png""],[""img/mask66.png""],[""img/mask26.png""],[""img/mask43.png""],[""img/mask89.png""],[""img/mask26.png""],[""img/mask37.png""],[""img/mask72.png""],[""img/mask34.png""],[""img/mask38.png""],[""img/mask56.png""],[""img/mask71.png""],[""img/mask42.png""],[""img/mask89.png""],[""img/mask96.png""],[""img/mask4.png""],[""img/mask85.png""],[""img/mask3.png""],[""img/mask28.png""],[""img/mask24.png""],[""img/mask56.png""],[""img/mask54.png""],[""img/mask66.png""],[""img/mask100.png""]]]","","[30,12,15,31,10,33,11,6,16,14,24,20,34,19,0,2,23,18,4,8,21,17,9,26,22,27,29,7,1,25,28,32,35,5,13,3]","training","",""
"","","","","","image-keyboard-response","18","174936","0.0-9.0","565c6791c121fe0012fc3caf","640759fa512f630a2bdc333d","640785cd275d18f9bcdc3327","4859.5","[""img/endTraining.png""]"," ","","","","","","","","","","","","","","","","","","","","",""
"","","","","","html-keyboard-response","19","175439","0.0-10.0-0.0","565c6791c121fe0012fc3caf","640759fa512f630a2bdc333d","640785cd275d18f9bcdc3327","null","","null","","","","","","","","","","","","","","","","","","","fixation","",""
"","","","","","many-guess-6","20","179521","0.0-10.0-1.0-0.0","565c6791c121fe0012fc3caf","640759fa512f630a2bdc333d","640785cd275d18f9bcdc3327","[2258.100000023842]","","","[17,19,4,5,1,32,26,24,3,2,12,29,28,15,11,7,21,35,9,25,33,8,23,22,18,6,34,10,14,13,30,20,27,16,0,31]","[167,327,28,18,77,107,217,57,347,137,337,307,197,8,227,37,147,297,187,47,357,287,257,247,117,127,317,87,157,267,177,277,237,67,97,207]","167","355","346.08073316708396","[346.08073316708396]","[351.08073316708396]","[351]","[210,30,210,210,210,30,30,30,210]","0","36","0","148.75399999998626","13.26800002384698","16","[[[""img/mask41.png""],[""img/mask40.png""],[""img/mask3.png""],[""img/mask57.png""],[""img/mask51.png""],[""img/mask34.png""],[""img/mask90.png""],[""img/mask55.png""],[""img/mask3.png""],[""img/mask2.png""],[""img/mask51.png""],[""img/mask58.png""],[""img/mask59.png""],[""img/mask64.png""],[""img/mask35.png""],[""img/mask31.png""],[""img/mask71.png""],[""img/mask30.png""],[""img/mask68.png""],[""img/mask8.png""],[""img/mask19.png""],[""img/mask19.png""],[""img/mask18.png""],[""img/mask47.png""],[""img/mask68.png""],[""img/mask7.png""],[""img/mask57.png""],[""img/mask98.png""],[""img/mask29.png""],[""img/mask33.png""],[""img/mask67.png""],[""img/mask14.png""],[""img/mask51.png""],[""img/mask33.png""],[""img/mask17.png""],[""img/mask76.png""]]]","","[17,19,4,5,1,32,26,24,3,2,12,29,28,15,11,7,21,35,9,25,33,8,23,22,18,6,34,10,14,13,30,20,27,16,0,31]","main","355","many-guess-6"
"","","","","","html-keyboard-response","21","180024","0.0-10.0-0.1","565c6791c121fe0012fc3caf","640759fa512f630a2bdc333d","640785cd275d18f9bcdc3327","null","","null","","","","","","","","","","","","","","","","","","","fixation","",""
"","","","","","color-precision2","22","186576","0.0-10.0-1.1-0.1","565c6791c121fe0012fc3caf","640759fa512f630a2bdc333d","640785cd275d18f9bcdc3327","[2830.1999999284744]","","","[35]","[119]","119","76","223.5075940712627","[223.5075940712627]","[147.5075940712627]","[147]","0","0","1","0","148.99800002382835","996.2589999999909","1000","[[[""img/mask18.png""]]]","","","main","76","color-precision2"
"","","","","","html-keyboard-response","23","187077","0.0-10.0-0.2","565c6791c121fe0012fc3caf","640759fa512f630a2bdc333d","640785cd275d18f9bcdc3327","null","","null","","","","","","","","","","","","","","","","","","","fixation","",""
"","","","","","color-precision2","24","192450","0.0-10.0-1.2-0.2","565c6791c121fe0012fc3caf","640759fa512f630a2bdc333d","640785cd275d18f9bcdc3327","[2288.1999999284744]","","","[35]","[290]","290","28","334.94895669697826","[334.94895669697826]","[306.94895669697826]","[306]","0","0","1","0","149.20899997616652","996.3759999523172","1000","[[[""img/mask58.png""]]]","","","main","28","color-precision2"
"","","","","","html-keyboard-response","25","192951","0.0-10.0-0.3","565c6791c121fe0012fc3caf","640759fa512f630a2bdc333d","640785cd275d18f9bcdc3327","null","","null","","","","","","","","","","","","","","","","","","","fixation","",""
"","","","","","color-precision2","26","197250","0.0-10.0-1.3-0.3","565c6791c121fe0012fc3caf","640759fa512f630a2bdc333d","640785cd275d18f9bcdc3327","[1572.3999999761581]","","","[12]","[168]","168","55","233.8262781624914","[233.8262781624914]","[178.8262781624914]","[179]","0","0","1","0","149.1419999761565","995.9949999761593","1000","[[[""img/mask24.png""]]]","","","main","55","color-precision2"
"","","","","","html-keyboard-response","27","197751","0.0-10.0-0.4","565c6791c121fe0012fc3caf","640759fa512f630a2bdc333d","640785cd275d18f9bcdc3327","null","","null","","","","","","","","","","","","","","","","","","","fixation","",""
"","","","","","color-precision2","28","202938","0.0-10.0-1.4-0.4","565c6791c121fe0012fc3caf","640759fa512f630a2bdc333d","640785cd275d18f9bcdc3327","[2394.100000023842]","","","[5]","[113]","113","61","177.7981454220844","[177.7981454220844]","[116.79814542208439]","[116]","0","0","1","0","148.97900004769326","1008.2260000238311","1000","[[[""img/mask66.png""]]]","","","main","61","color-precision2"
"","","","","","html-keyboard-response","29","203439","0.0-10.0-0.5","565c6791c121fe0012fc3caf","640759fa512f630a2bdc333d","640785cd275d18f9bcdc3327","null","","null","","","","","","","","","","","","","","","","","","","fixation","",""
"","","","","","color-precision2","30","208527","0.0-10.0-1.5-0.5","565c6791c121fe0012fc3caf","640759fa512f630a2bdc333d","640785cd275d18f9bcdc3327","[1818.2999999523163]","","","[13]","[218]","218","98","308.4674601424099","[308.4674601424099]","[210.4674601424099]","[210]","0","0","1","0","148.9899999523186","996.2360000476765","1000","[[[""img/mask54.png""]]]","","","main","98","color-precision2"
"","","","","","html-keyboard-response","31","209028","0.0-10.0-0.6","565c6791c121fe0012fc3caf","640759fa512f630a2bdc333d","640785cd275d18f9bcdc3327","null","","null","","","","","","","","","","","","","","","","","","","fixation","",""
"","","","","","color-precision2","32","213595","0.0-10.0-1.6-0.6","565c6791c121fe0012fc3caf","640759fa512f630a2bdc333d","640785cd275d18f9bcdc3327","[1803.6000000238419]","","","[22]","[67]","67","247","316.51224587293444","[316.51224587293444]","[69.51224587293444]","[70]","0","0","1","0","149.00600002382998","998.2360000000044","1000","[[[""img/mask50.png""]]]","","","main","247","color-precision2"
"","","","","","html-keyboard-response","33","214097","0.0-10.0-0.7","565c6791c121fe0012fc3caf","640759fa512f630a2bdc333d","640785cd275d18f9bcdc3327","null","","null","","","","","","","","","","","","","","","","","","","fixation","",""
"","","","","","color-precision2","34","218591","0.0-10.0-1.7-0.7","565c6791c121fe0012fc3caf","640759fa512f630a2bdc333d","640785cd275d18f9bcdc3327","[1783.3999999761581]","","","[26]","[154]","154","113","292.0179097362819","[292.0179097362819]","[179.01790973628192]","[179]","0","0","1","0","148.99600002384977","996.1709999761661","1000","[[[""img/mask3.png""]]]","","","main","113","color-precision2"
"","","","","","html-keyboard-response","35","219094","0.0-10.0-0.8","565c6791c121fe0012fc3caf","640759fa512f630a2bdc333d","640785cd275d18f9bcdc3327","null","","null","","","","","","","","","","","","","","","","","","","fixation","",""
"","","","","","many-guess-6","36","223060","0.0-10.0-1.8-0.8","565c6791c121fe0012fc3caf","640759fa512f630a2bdc333d","640785cd275d18f9bcdc3327","[2168.8000000715256]","","","[17,32,27,31,19,7,24,33,18,10,35,6,21,0,8,4,30,29,34,12,2,14,28,13,1,16,20,25,9,22,5,11,3,26,23,15]","[169,239,289,30,139,109,339,259,50,159,119,20,199,309,70,99,359,149,179,80,129,249,209,329,229,269,60,10,299,189,219,319,349,279,89,40]","169","166","56.0322996201294","[56.0322996201294]","[250.0322996201294]","[248]","[210,30,210,120,30,300,30,120,300]","0","36","0","148.8850000476814","12.81399995231186","16","[[[""img/mask77.png""],[""img/mask64.png""],[""img/mask26.png""],[""img/mask75.png""],[""img/mask77.png""],[""img/mask84.png""],[""img/mask73.png""],[""img/mask98.png""],[""img/mask40.png""],[""img/mask17.png""],[""img/mask65.png""],[""img/mask43.png""],[""img/mask60.png""],[""img/mask23.png""],[""img/mask64.png""],[""img/mask56.png""],[""img/mask9.png""],[""img/mask63.png""],[""img/mask65.png""],[""img/mask25.png""],[""img/mask7.png""],[""img/mask66.png""],[""img/mask6.png""],[""img/mask96.png""],[""img/mask26.png""],[""img/mask10.png""],[""img/mask28.png""],[""img/mask10.png""],[""img/mask55.png""],[""img/mask83.png""],[""img/mask3.png""],[""img/mask60.png""],[""img/mask40.png""],[""img/mask87.png""],[""img/mask3.png""],[""img/mask17.png""]]]","","[17,32,27,31,19,7,24,33,18,10,35,6,21,0,8,4,30,29,34,12,2,14,28,13,1,16,20,25,9,22,5,11,3,26,23,15]","main","166","many-guess-6"
"","","","","","html-keyboard-response","37","223561","0.0-10.0-0.9","565c6791c121fe0012fc3caf","640759fa512f630a2bdc333d","640785cd275d18f9bcdc3327","null","","null","","","","","","","","","","","","","","","","","","","fixation","",""
"","","","","","color-precision2","38","229373","0.0-10.0-1.9-0.9","565c6791c121fe0012fc3caf","640759fa512f630a2bdc333d","640785cd275d18f9bcdc3327","[1866.8999999761581]","","","[30]","[103]","103","272","30.09167262763642","[30.09167262763642]","[118.09167262763643]","[117]","0","0","1","0","148.97899997615605","995.6000000476779","1000","[[[""img/mask58.png""]]]","","","main","272","color-precision2"
"","","","","","html-keyboard-response","39","229876","0.0-10.0-0.10","565c6791c121fe0012fc3caf","640759fa512f630a2bdc333d","640785cd275d18f9bcdc3327","null","","null","","","","","","","","","","","","","","","","","","","fixation","",""
"","","","","","many-guess-6","40","233781","0.0-10.0-1.10-0.10","565c6791c121fe0012fc3caf","640759fa512f630a2bdc333d","640785cd275d18f9bcdc3327","[2125.4000000953674]","","","[23,0,28,35,9,4,32,14,29,27,22,16,10,11,31,20,19,17,24,8,13,6,7,34,21,1,30,12,25,18,5,3,33,15,26,2]","[325,76,276,36,305,335,116,286,345,355,216,96,186,26,136,126,196,56,206,6,156,66,146,226,256,16,106,46,176,236,166,295,266,315,246,86]","325","207","186.22372399930197","[186.22372399930197]","[339.22372399930197]","[338]","[120,210,120,30,300,210,210,300,210]","0","36","0","149.03200000000652","14.160999952320708","16","[[[""img/mask75.png""],[""img/mask90.png""],[""img/mask59.png""],[""img/mask19.png""],[""img/mask58.png""],[""img/mask74.png""],[""img/mask4.png""],[""img/mask44.png""],[""img/mask94.png""],[""img/mask19.png""],[""img/mask8.png""],[""img/mask33.png""],[""img/mask81.png""],[""img/mask7.png""],[""img/mask81.png""],[""img/mask42.png""],[""img/mask50.png""],[""img/mask10.png""],[""img/mask30.png""],[""img/mask39.png""],[""img/mask60.png""],[""img/mask55.png""],[""img/mask80.png""],[""img/mask46.png""],[""img/mask97.png""],[""img/mask89.png""],[""img/mask14.png""],[""img/mask83.png""],[""img/mask59.png""],[""img/mask80.png""],[""img/mask64.png""],[""img/mask44.png""],[""img/mask38.png""],[""img/mask87.png""],[""img/mask14.png""],[""img/mask7.png""]]]","","[23,0,28,35,9,4,32,14,29,27,22,16,10,11,31,20,19,17,24,8,13,6,7,34,21,1,30,12,25,18,5,3,33,15,26,2]","main","207","many-guess-6"
"","","","","","html-keyboard-response","41","234283","0.0-10.0-0.11","565c6791c121fe0012fc3caf","640759fa512f630a2bdc333d","640785cd275d18f9bcdc3327","null","","null","","","","","","","","","","","","","","","","","","","fixation","",""
"","","","","","many-guess-6","42","239142","0.0-10.0-1.11-0.11","565c6791c121fe0012fc3caf","640759fa512f630a2bdc333d","640785cd275d18f9bcdc3327","[3069.2000000476837]","","","[18,5,0,8,11,14,17,25,12,26,16,31,22,28,13,15,4,32,1,29,33,19,23,3,21,7,9,20,30,27,24,2,10,6,34,35]","[173,14,73,193,343,163,24,333,33,113,153,203,63,133,123,313,213,223,43,253,83,353,293,93,263,103,233,283,143,53,323,243,273,183,303,4]","173","127","196.63480722111404","[196.63480722111404]","[69.63480722111404]","[69]","[30,30,210,300,210,300,300,300,120]","0","36","0","148.8370000476716","13.231999952316983","16","[[[""img/mask34.png""],[""img/mask5.png""],[""img/mask30.png""],[""img/mask61.png""],[""img/mask23.png""],[""img/mask4.png""],[""img/mask36.png""],[""img/mask27.png""],[""img/mask33.png""],[""img/mask76.png""],[""img/mask82.png""],[""img/mask90.png""],[""img/mask40.png""],[""img/mask69.png""],[""img/mask69.png""],[""img/mask3.png""],[""img/mask44.png""],[""img/mask58.png""],[""img/mask15.png""],[""img/mask25.png""],[""img/mask56.png""],[""img/mask50.png""],[""img/mask4.png""],[""img/mask57.png""],[""img/mask28.png""],[""img/mask82.png""],[""img/mask68.png""],[""img/mask78.png""],[""img/mask77.png""],[""img/mask23.png""],[""img/mask91.png""],[""img/mask92.png""],[""img/mask60.png""],[""img/mask100.png""],[""img/mask16.png""],[""img/mask12.png""]]]","","[18,5,0,8,11,14,17,25,12,26,16,31,22,28,13,15,4,32,1,29,33,19,23,3,21,7,9,20,30,27,24,2,10,6,34,35]","main","127","many-guess-6"
"","","","","","html-keyboard-response","43","239643","0.0-10.0-0.12","565c6791c121fe0012fc3caf","640759fa512f630a2bdc333d","640785cd275d18f9bcdc3327","null","","null","","","","","","","","","","","","","","","","","","","fixation","",""
"","","","","","color-precision2","44","243634","0.0-10.0-1.12-0.12","565c6791c121fe0012fc3caf","640759fa512f630a2bdc333d","640785cd275d18f9bcdc3327","[1545.6000000238419]","","","[16]","[87]","87","116","220.64792705676032","[220.64792705676032]","[104.64792705676032]","[104]","0","0","1","0","148.89400000000023","995.7109999523091","1000","[[[""img/mask19.png""]]]","","","main","116","color-precision2"
"","","","","","html-keyboard-response","45","244136","0.0-10.0-0.13","565c6791c121fe0012fc3caf","640759fa512f630a2bdc333d","640785cd275d18f9bcdc3327","null","","null","","","","","","","","","","","","","","","","","","","fixation","",""
"","","","","","color-precision2","46","249086","0.0-10.0-1.13-0.13","565c6791c121fe0012fc3caf","640759fa512f630a2bdc333d","640785cd275d18f9bcdc3327","[1681.2000000476837]","","","[35]","[236]","236","70","297.3668068176354","[297.3668068176354]","[227.3668068176354]","[227]","0","0","1","0","149.57099999999627","1004.3720000238391","1000","[[[""img/mask7.png""]]]","","","main","70","color-precision2"
"","","","","","html-keyboard-response","47","249587","0.0-10.0-0.14","565c6791c121fe0012fc3caf","640759fa512f630a2bdc333d","640785cd275d18f9bcdc3327","null","","null","","","","","","","","","","","","","","","","","","","fixation","",""
"","","","","","many-guess-6","48","254678","0.0-10.0-1.14-0.14","565c6791c121fe0012fc3caf","640759fa512f630a2bdc333d","640785cd275d18f9bcdc3327","[3424.100000023842]","","","[17,8,6,24,26,10,13,21,30,33,27,20,31,1,11,12,5,29,19,18,16,14,34,35,22,2,28,15,9,7,23,32,0,25,3,4]","[11,131,140,41,200,101,340,310,330,220,61,91,260,190,250,121,320,290,111,230,170,210,280,81,160,270,150,1,240,300,71,21,51,180,350,31]","11","43","174.03650829779872","[174.03650829779872]","[131.03650829779872]","[130]","[30,210,30,300,210,120,30,300,30]","0","36","0","148.78700004768325","20.753999976150226","16","[[[""img/mask24.png""],[""img/mask67.png""],[""img/mask11.png""],[""img/mask80.png""],[""img/mask69.png""],[""img/mask99.png""],[""img/mask92.png""],[""img/mask18.png""],[""img/mask100.png""],[""img/mask36.png""],[""img/mask65.png""],[""img/mask20.png""],[""img/mask28.png""],[""img/mask47.png""],[""img/mask13.png""],[""img/mask72.png""],[""img/mask58.png""],[""img/mask75.png""],[""img/mask100.png""],[""img/mask10.png""],[""img/mask13.png""],[""img/mask58.png""],[""img/mask67.png""],[""img/mask60.png""],[""img/mask97.png""],[""img/mask19.png""],[""img/mask13.png""],[""img/mask42.png""],[""img/mask44.png""],[""img/mask62.png""],[""img/mask13.png""],[""img/mask22.png""],[""img/mask96.png""],[""img/mask100.png""],[""img/mask45.png""],[""img/mask68.png""]]]","","[17,8,6,24,26,10,13,21,30,33,27,20,31,1,11,12,5,29,19,18,16,14,34,35,22,2,28,15,9,7,23,32,0,25,3,4]","main","43","many-guess-6"
"","","","","","html-keyboard-response","49","255183","0.0-10.0-0.15","565c6791c121fe0012fc3caf","640759fa512f630a2bdc333d","640785cd275d18f9bcdc3327","null","","null","","","","","","","","","","","","","","","","","","","fixation","",""
"","","","","","color-precision2","50","260621","0.0-10.0-1.15-0.15","565c6791c121fe0012fc3caf","640759fa512f630a2bdc333d","640785cd275d18f9bcdc3327","[2668.600000023842]","","","[12]","[243]","243","53","302.1221151575216","[302.1221151575216]","[249.1221151575216]","[249]","0","0","1","0","149.04999995231628","996.0989999999874","1000","[[[""img/mask22.png""]]]","","","main","53","color-precision2"
"","","","","","html-keyboard-response","51","261124","0.0-10.0-0.16","565c6791c121fe0012fc3caf","640759fa512f630a2bdc333d","640785cd275d18f9bcdc3327","null","","null","","","","","","","","","","","","","","","","","","","fixation","",""
"","","","","","many-guess-6","52","266344","0.0-10.0-1.16-0.16","565c6791c121fe0012fc3caf","640759fa512f630a2bdc333d","640785cd275d18f9bcdc3327","[3475]","","","[5,23,22,7,20,35,6,1,28,10,11,0,33,21,15,12,19,26,16,8,34,29,24,30,9,25,4,14,2,3,27,32,18,13,31,17]","[311,162,192,321,301,72,122,92,102,42,22,281,82,341,202,232,271,132,32,152,2,172,62,291,331,12,252,212,351,52,112,182,222,262,242,142]","311","285","45.06469460939389","[45.06469460939389]","[120.06469460939388]","[118]","[210,300,210,300,210,210,210,300,300]","0","36","0","149.54999997618143","14.277999952319078","16","[[[""img/mask9.png""],[""img/mask76.png""],[""img/mask40.png""],[""img/mask14.png""],[""img/mask20.png""],[""img/mask85.png""],[""img/mask9.png""],[""img/mask85.png""],[""img/mask74.png""],[""img/mask34.png""],[""img/mask32.png""],[""img/mask71.png""],[""img/mask82.png""],[""img/mask91.png""],[""img/mask27.png""],[""img/mask52.png""],[""img/mask78.png""],[""img/mask67.png""],[""img/mask4.png""],[""img/mask61.png""],[""img/mask94.png""],[""img/mask52.png""],[""img/mask8.png""],[""img/mask36.png""],[""img/mask96.png""],[""img/mask77.png""],[""img/mask90.png""],[""img/mask9.png""],[""img/mask33.png""],[""img/mask59.png""],[""img/mask77.png""],[""img/mask59.png""],[""img/mask16.png""],[""img/mask35.png""],[""img/mask6.png""],[""img/mask8.png""]]]","","[5,23,22,7,20,35,6,1,28,10,11,0,33,21,15,12,19,26,16,8,34,29,24,30,9,25,4,14,2,3,27,32,18,13,31,17]","main","285","many-guess-6"
"","","","","","html-keyboard-response","53","266846","0.0-10.0-0.17","565c6791c121fe0012fc3caf","640759fa512f630a2bdc333d","640785cd275d18f9bcdc3327","null","","null","","","","","","","","","","","","","","","","","","","fixation","",""
"","","","","","color-precision2","54","270847","0.0-10.0-1.17-0.17","565c6791c121fe0012fc3caf","640759fa512f630a2bdc333d","640785cd275d18f9bcdc3327","[1146.3000000715256]","","","[22]","[27]","27","112","137.44352237323895","[137.44352237323895]","[25.44352237323895]","[24]","0","0","1","0","148.99699995230185","997.4529999761726","1000","[[[""img/mask83.png""]]]","","","main","112","color-precision2"
"","","","","","html-keyboard-response","55","271362","0.0-10.0-0.18","565c6791c121fe0012fc3caf","640759fa512f630a2bdc333d","640785cd275d18f9bcdc3327","null","","null","","","","","","","","","","","","","","","","","","","fixation","",""
"","","","","","color-precision2","56","276364","0.0-10.0-1.18-0.18","565c6791c121fe0012fc3caf","640759fa512f630a2bdc333d","640785cd275d18f9bcdc3327","[2229.100000023842]","","","[17]","[171]","171","235","46.519271863520125","[46.519271863520125]","[171.51927186352012]","[171]","0","0","1","0","148.95499997615116","996.1559999523452","1000","[[[""img/mask91.png""]]]","","","main","235","color-precision2"
"","","","","","html-keyboard-response","57","282633","0.0-10.0-0.19","565c6791c121fe0012fc3caf","640759fa512f630a2bdc333d","640785cd275d18f9bcdc3327","6268.799999952316","Wow! You've completed 20 out of 180 trials! </p> <p>  </p><p> Take a quick break, then press any key when you're ready to continue.","b","","","","","","","","","","","","","","","","","","","fixation","",""
"","","","","","many-guess-6","58","287657","0.0-10.0-1.19-0.19","565c6791c121fe0012fc3caf","640759fa512f630a2bdc333d","640785cd275d18f9bcdc3327","[3041.100000023842]","","","[15,23,10,9,26,4,32,16,6,1,21,31,17,18,29,28,19,33,7,2,20,3,14,34,12,13,11,0,8,25,30,22,24,27,5,35]","[84,344,94,64,234,4,204,34,304,114,174,284,124,224,24,254,164,334,154,244,264,14,184,74,274,324,54,294,353,194,44,144,214,104,314,134]","84","158","271.0308450593151","[271.0308450593151]","[113.03084505931508]","[113]","[210,210,30,210,30,300,300,300,300]","0","36","0","148.93199997616466","13.221999976143707","16","[[[""img/mask25.png""],[""img/mask89.png""],[""img/mask50.png""],[""img/mask86.png""],[""img/mask35.png""],[""img/mask56.png""],[""img/mask88.png""],[""img/mask64.png""],[""img/mask100.png""],[""img/mask4.png""],[""img/mask76.png""],[""img/mask30.png""],[""img/mask59.png""],[""img/mask15.png""],[""img/mask72.png""],[""img/mask93.png""],[""img/mask97.png""],[""img/mask59.png""],[""img/mask82.png""],[""img/mask24.png""],[""img/mask82.png""],[""img/mask47.png""],[""img/mask27.png""],[""img/mask21.png""],[""img/mask46.png""],[""img/mask81.png""],[""img/mask66.png""],[""img/mask88.png""],[""img/mask57.png""],[""img/mask61.png""],[""img/mask85.png""],[""img/mask27.png""],[""img/mask17.png""],[""img/mask33.png""],[""img/mask63.png""],[""img/mask58.png""]]]","","[15,23,10,9,26,4,32,16,6,1,21,31,17,18,29,28,19,33,7,2,20,3,14,34,12,13,11,0,8,25,30,22,24,27,5,35]","main","158","many-guess-6"
"","","","","","html-keyboard-response","59","288162","0.0-10.0-0.20","565c6791c121fe0012fc3caf","640759fa512f630a2bdc333d","640785cd275d18f9bcdc3327","null","","null","","","","","","","","","","","","","","","","","","","fixation","",""
"","","","","","color-precision2","60","295049","0.0-10.0-1.20-0.20","565c6791c121fe0012fc3caf","640759fa512f630a2bdc333d","640785cd275d18f9bcdc3327","[3584]","","","[21]","[253]","253","180","68.74603839421631","[68.74603839421631]","[248.74603839421633]","[247]","0","0","1","0","149.03699997614603","996.1770000238321","1000","[[[""img/mask8.png""]]]","","","main","180","color-precision2"
"","","","","","html-keyboard-response","61","295551","0.0-10.0-0.21","565c6791c121fe0012fc3caf","640759fa512f630a2bdc333d","640785cd275d18f9bcdc3327","null","","null","","","","","","","","","","","","","","","","","","","fixation","",""
"","","","","","many-guess-6","62","298969","0.0-10.0-1.21-0.21","565c6791c121fe0012fc3caf","640759fa512f630a2bdc333d","640785cd275d18f9bcdc3327","[1871.3999999761581]","","","[16,7,32,20,21,14,6,24,1,33,34,11,0,8,5,19,4,31,30,18,29,23,22,26,17,28,13,10,27,9,12,15,2,25,3,35]","[301,2,201,101,62,291,161,52,42,32,311,181,281,191,341,12,111,271,141,72,121,351,251,321,261,231,81,211,151,171,331,241,131,91,22,221]","301","272","285.2422362907449","[285.2422362907449]","[13.242236290744927]","[13]","[30,210,120,120,120,300,300,300,30]","0","36","0","148.92700002383208","12.200000023818575","16","[[[""img/mask55.png""],[""img/mask37.png""],[""img/mask24.png""],[""img/mask68.png""],[""img/mask72.png""],[""img/mask87.png""],[""img/mask79.png""],[""img/mask26.png""],[""img/mask14.png""],[""img/mask81.png""],[""img/mask92.png""],[""img/mask36.png""],[""img/mask9.png""],[""img/mask36.png""],[""img/mask25.png""],[""img/mask42.png""],[""img/mask49.png""],[""img/mask61.png""],[""img/mask81.png""],[""img/mask43.png""],[""img/mask87.png""],[""img/mask80.png""],[""img/mask73.png""],[""img/mask16.png""],[""img/mask64.png""],[""img/mask76.png""],[""img/mask38.png""],[""img/mask53.png""],[""img/mask7.png""],[""img/mask15.png""],[""img/mask40.png""],[""img/mask69.png""],[""img/mask34.png""],[""img/mask47.png""],[""img/mask27.png""],[""img/mask20.png""]]]","","[16,7,32,20,21,14,6,24,1,33,34,11,0,8,5,19,4,31,30,18,29,23,22,26,17,28,13,10,27,9,12,15,2,25,3,35]","main","272","many-guess-6"
"","","","","","html-keyboard-response","63","299471","0.0-10.0-0.22","565c6791c121fe0012fc3caf","640759fa512f630a2bdc333d","640785cd275d18f9bcdc3327","null","","null","","","","","","","","","","","","","","","","","","","fixation","",""
"","","","","","many-guess-6","64","303797","0.0-10.0-1.22-0.22","565c6791c121fe0012fc3caf","640759fa512f630a2bdc333d","640785cd275d18f9bcdc3327","[2783]","","","[12,9,25,30,15,13,3,27,21,26,22,5,1,19,11,23,28,18,35,34,20,2,31,32,6,17,7,16,14,8,33,4,29,0,10,24]","[77,187,87,67,37,117,27,97,127,167,327,257,197,337,217,137,57,207,247,107,147,287,277,227,237,17,47,317,267,7,307,356,297,157,177,347]","77","6","132.48188131718032","[132.48188131718032]","[126.48188131718032]","[125]","[30,120,300,210,30,300,30,300,210]","0","36","0","148.89799997617956","12.475000047706999","16","[[[""img/mask61.png""],[""img/mask76.png""],[""img/mask5.png""],[""img/mask34.png""],[""img/mask6.png""],[""img/mask7.png""],[""img/mask32.png""],[""img/mask80.png""],[""img/mask44.png""],[""img/mask42.png""],[""img/mask40.png""],[""img/mask6.png""],[""img/mask73.png""],[""img/mask75.png""],[""img/mask77.png""],[""img/mask96.png""],[""img/mask15.png""],[""img/mask60.png""],[""img/mask33.png""],[""img/mask29.png""],[""img/mask96.png""],[""img/mask56.png""],[""img/mask98.png""],[""img/mask3.png""],[""img/mask31.png""],[""img/mask97.png""],[""img/mask44.png""],[""img/mask4.png""],[""img/mask56.png""],[""img/mask60.png""],[""img/mask12.png""],[""img/mask42.png""],[""img/mask49.png""],[""img/mask67.png""],[""img/mask54.png""],[""img/mask98.png""]]]","","[12,9,25,30,15,13,3,27,21,26,22,5,1,19,11,23,28,18,35,34,20,2,31,32,6,17,7,16,14,8,33,4,29,0,10,24]","main","6","many-guess-6"
"","","","","","html-keyboard-response","65","304298","0.0-10.0-0.23","565c6791c121fe0012fc3caf","640759fa512f630a2bdc333d","640785cd275d18f9bcdc3327","null","","null","","","","","","","","","","","","","","","","","","","fixation","",""
"","","","","","many-guess-6","66","309031","0.0-10.0-1.23-0.23","565c6791c121fe0012fc3caf","640759fa512f630a2bdc333d","640785cd275d18f9bcdc3327","[2968]","","","[8,27,3,20,10,23,5,2,12,26,7,6,34,9,4,29,25,32,22,30,15,19,17,24,0,21,33,14,28,11,16,18,1,31,13,35]","[52,301,281,271,311,101,251,2,351,191,161,22,321,221,331,111,181,211,261,241,171,32,81,131,42,91,12,231,151,341,141,201,71,291,62,121]","52","172","30.742403075458544","[30.742403075458544]","[218.74240307545855]","[217]","[120,210,300,210,300,30,300,120,210]","0","36","0","149.0640000476851","14.94899995229207","16","[[[""img/mask1.png""],[""img/mask98.png""],[""img/mask52.png""],[""img/mask93.png""],[""img/mask98.png""],[""img/mask80.png""],[""img/mask95.png""],[""img/mask16.png""],[""img/mask4.png""],[""img/mask99.png""],[""img/mask70.png""],[""img/mask99.png""],[""img/mask10.png""],[""img/mask41.png""],[""img/mask59.png""],[""img/mask99.png""],[""img/mask43.png""],[""img/mask5.png""],[""img/mask16.png""],[""img/mask100.png""],[""img/mask17.png""],[""img/mask31.png""],[""img/mask89.png""],[""img/mask60.png""],[""img/mask67.png""],[""img/mask7.png""],[""img/mask67.png""],[""img/mask20.png""],[""img/mask75.png""],[""img/mask60.png""],[""img/mask52.png""],[""img/mask83.png""],[""img/mask48.png""],[""img/mask100.png""],[""img/mask8.png""],[""img/mask78.png""]]]","","[8,27,3,20,10,23,5,2,12,26,7,6,34,9,4,29,25,32,22,30,15,19,17,24,0,21,33,14,28,11,16,18,1,31,13,35]","main","172","many-guess-6"
"","","","","","html-keyboard-response","67","309538","0.0-10.0-0.24","565c6791c121fe0012fc3caf","640759fa512f630a2bdc333d","640785cd275d18f9bcdc3327","null","","null","","","","","","","","","","","","","","","","","","","fixation","",""
"","","","","","many-guess-6","68","314793","0.0-10.0-1.24-0.24","565c6791c121fe0012fc3caf","640759fa512f630a2bdc333d","640785cd275d18f9bcdc3327","[3297.2999999523163]","","","[14,31,8,15,12,19,32,21,3,27,10,20,35,29,0,18,30,24,16,28,23,4,17,2,22,5,25,33,7,13,11,6,34,9,26,1]","[301,22,321,12,151,251,351,161,271,311,291,191,181,141,231,331,341,121,201,82,221,111,42,281,211,102,52,62,32,131,261,92,2,72,241,171]","301","317","340.56118036561173","[340.56118036561173]","[23.561180365611733]","[23]","[210,30,210,210,210,300,300,120,300]","0","36","0","148.9780000000028","11.294999999983702","16","[[[""img/mask76.png""],[""img/mask8.png""],[""img/mask82.png""],[""img/mask95.png""],[""img/mask72.png""],[""img/mask20.png""],[""img/mask34.png""],[""img/mask60.png""],[""img/mask58.png""],[""img/mask46.png""],[""img/mask13.png""],[""img/mask38.png""],[""img/mask75.png""],[""img/mask3.png""],[""img/mask55.png""],[""img/mask6.png""],[""img/mask100.png""],[""img/mask95.png""],[""img/mask43.png""],[""img/mask19.png""],[""img/mask63.png""],[""img/mask99.png""],[""img/mask54.png""],[""img/mask45.png""],[""img/mask10.png""],[""img/mask100.png""],[""img/mask29.png""],[""img/mask11.png""],[""img/mask61.png""],[""img/mask17.png""],[""img/mask88.png""],[""img/mask84.png""],[""img/mask87.png""],[""img/mask21.png""],[""img/mask64.png""],[""img/mask27.png""]]]","","[14,31,8,15,12,19,32,21,3,27,10,20,35,29,0,18,30,24,16,28,23,4,17,2,22,5,25,33,7,13,11,6,34,9,26,1]","main","317","many-guess-6"
"","","","","","html-keyboard-response","69","315294","0.0-10.0-0.25","565c6791c121fe0012fc3caf","640759fa512f630a2bdc333d","640785cd275d18f9bcdc3327","null","","null","","","","","","","","","","","","","","","","","","","fixation","",""
"","","","","","many-guess-6","70","320067","0.0-10.0-1.25-0.25","565c6791c121fe0012fc3caf","640759fa512f630a2bdc333d","640785cd275d18f9bcdc3327","[2705.2999999523163]","","","[1,3,20,9,19,34,27,6,14,23,2,24,31,4,35,13,18,16,30,28,12,21,25,22,5,32,26,10,15,33,17,7,8,11,29,0]","[49,229,29,269,59,209,69,39,328,338,99,139,249,199,109,239,119,9,179,129,309,259,149,79,289,279,19,169,219,159,189,348,89,299,358,319]","49","24","149.43323604129003","[149.43323604129003]","[125.43323604129003]","[124]","[30,120,120,120,120,30,120,120,30]","0","36","0","149.64300004771212","13.38200004765531","16","[[[""img/mask52.png""],[""img/mask80.png""],[""img/mask22.png""],[""img/mask24.png""],[""img/mask72.png""],[""img/mask48.png""],[""img/mask90.png""],[""img/mask4.png""],[""img/mask38.png""],[""img/mask52.png""],[""img/mask70.png""],[""img/mask9.png""],[""img/mask17.png""],[""img/mask67.png""],[""img/mask83.png""],[""img/mask61.png""],[""img/mask21.png""],[""img/mask69.png""],[""img/mask71.png""],[""img/mask37.png""],[""img/mask5.png""],[""img/mask90.png""],[""img/mask70.png""],[""img/mask12.png""],[""img/mask18.png""],[""img/mask4.png""],[""img/mask29.png""],[""img/mask64.png""],[""img/mask83.png""],[""img/mask22.png""],[""img/mask78.png""],[""img/mask97.png""],[""img/mask58.png""],[""img/mask100.png""],[""img/mask47.png""],[""img/mask72.png""]]]","","[1,3,20,9,19,34,27,6,14,23,2,24,31,4,35,13,18,16,30,28,12,21,25,22,5,32,26,10,15,33,17,7,8,11,29,0]","main","24","many-guess-6"
"","","","","","html-keyboard-response","71","320574","0.0-10.0-0.26","565c6791c121fe0012fc3caf","640759fa512f630a2bdc333d","640785cd275d18f9bcdc3327","null","","null","","","","","","","","","","","","","","","","","","","fixation","",""
"","","","","","many-guess-6","72","324379","0.0-10.0-1.26-0.26","565c6791c121fe0012fc3caf","640759fa512f630a2bdc333d","640785cd275d18f9bcdc3327","[2084.5]","","","[6,15,30,5,18,9,28,1,14,0,35,29,31,34,20,33,4,24,3,11,32,12,17,26,25,7,2,21,22,23,13,27,10,16,19,8]","[150,170,51,190,61,230,1,320,11,81,310,260,250,91,101,71,280,290,200,121,270,21,180,41,240,31,210,111,330,340,300,350,140,160,220,131]","150","191","203.07338276341028","[203.07338276341028]","[12.07338276341028]","[11]","[210,210,300,210,210,120,120,300,30]","0","36","0","149.04899997613393","13.13200004765531","16","[[[""img/mask18.png""],[""img/mask47.png""],[""img/mask93.png""],[""img/mask58.png""],[""img/mask85.png""],[""img/mask23.png""],[""img/mask43.png""],[""img/mask71.png""],[""img/mask76.png""],[""img/mask39.png""],[""img/mask83.png""],[""img/mask15.png""],[""img/mask61.png""],[""img/mask85.png""],[""img/mask80.png""],[""img/mask58.png""],[""img/mask60.png""],[""img/mask55.png""],[""img/mask14.png""],[""img/mask29.png""],[""img/mask46.png""],[""img/mask34.png""],[""img/mask61.png""],[""img/mask66.png""],[""img/mask83.png""],[""img/mask91.png""],[""img/mask38.png""],[""img/mask16.png""],[""img/mask1.png""],[""img/mask99.png""],[""img/mask45.png""],[""img/mask32.png""],[""img/mask80.png""],[""img/mask45.png""],[""img/mask91.png""],[""img/mask20.png""]]]","","[6,15,30,5,18,9,28,1,14,0,35,29,31,34,20,33,4,24,3,11,32,12,17,26,25,7,2,21,22,23,13,27,10,16,19,8]","main","191","many-guess-6"
"","","","","","html-keyboard-response","73","324880","0.0-10.0-0.27","565c6791c121fe0012fc3caf","640759fa512f630a2bdc333d","640785cd275d18f9bcdc3327","null","","null","","","","","","","","","","","","","","","","","","","fixation","",""
"","","","","","many-guess-6","74","329793","0.0-10.0-1.27-0.27","565c6791c121fe0012fc3caf","640759fa512f630a2bdc333d","640785cd275d18f9bcdc3327","[2999.100000023842]","","","[35,18,6,8,24,34,31,9,4,5,25,1,30,11,10,3,21,17,33,29,19,20,23,14,28,27,12,15,32,22,26,16,13,0,2,7]","[294,224,115,85,284,5,185,75,244,95,304,314,344,35,175,334,264,105,145,234,165,354,15,125,274,254,204,324,214,194,25,55,155,45,65,135]","294","174","301.64171154568993","[301.64171154568993]","[127.64171154568993]","[128]","[210,210,30,300,30,300,120,30,30]","0","36","0","148.80099995230557","12.847000000008848","16","[[[""img/mask9.png""],[""img/mask70.png""],[""img/mask80.png""],[""img/mask95.png""],[""img/mask28.png""],[""img/mask31.png""],[""img/mask1.png""],[""img/mask47.png""],[""img/mask10.png""],[""img/mask96.png""],[""img/mask80.png""],[""img/mask28.png""],[""img/mask6.png""],[""img/mask48.png""],[""img/mask81.png""],[""img/mask16.png""],[""img/mask98.png""],[""img/mask2.png""],[""img/mask84.png""],[""img/mask46.png""],[""img/mask26.png""],[""img/mask49.png""],[""img/mask23.png""],[""img/mask65.png""],[""img/mask42.png""],[""img/mask39.png""],[""img/mask82.png""],[""img/mask49.png""],[""img/mask94.png""],[""img/mask95.png""],[""img/mask72.png""],[""img/mask96.png""],[""img/mask5.png""],[""img/mask73.png""],[""img/mask56.png""],[""img/mask94.png""]]]","","[35,18,6,8,24,34,31,9,4,5,25,1,30,11,10,3,21,17,33,29,19,20,23,14,28,27,12,15,32,22,26,16,13,0,2,7]","main","174","many-guess-6"
"","","","","","html-keyboard-response","75","330294","0.0-10.0-0.28","565c6791c121fe0012fc3caf","640759fa512f630a2bdc333d","640785cd275d18f9bcdc3327","null","","null","","","","","","","","","","","","","","","","","","","fixation","",""
"","","","","","color-precision2","76","334291","0.0-10.0-1.28-0.28","565c6791c121fe0012fc3caf","640759fa512f630a2bdc333d","640785cd275d18f9bcdc3327","[1147.6999999284744]","","","[19]","[11]","11","122","136.3497640619672","[136.3497640619672]","[14.349764061967193]","[13]","0","0","1","0","148.5080000477028","997.4519999523181","1000","[[[""img/mask3.png""]]]","","","main","122","color-precision2"
"","","","","","html-keyboard-response","77","334792","0.0-10.0-0.29","565c6791c121fe0012fc3caf","640759fa512f630a2bdc333d","640785cd275d18f9bcdc3327","null","","null","","","","","","","","","","","","","","","","","","","fixation","",""
"","","","","","many-guess-6","78","339967","0.0-10.0-1.29-0.29","565c6791c121fe0012fc3caf","640759fa512f630a2bdc333d","640785cd275d18f9bcdc3327","[3390.899999976158]","","","[32,29,27,22,1,10,0,2,35,28,8,33,5,20,30,13,23,11,31,3,15,14,24,19,18,21,6,17,25,26,9,12,7,4,34,16]","[60,20,139,339,149,319,199,70,309,299,179,189,10,129,159,229,249,90,169,40,30,259,110,359,269,239,349,219,50,119,209,329,100,289,80,279]","60","5","353.3965920248535","[353.3965920248535]","[348.3965920248535]","[348]","[210,30,30,210,300,120,120,300,210]","0","36","0","149.00399997615023","13.158000047667883","16","[[[""img/mask86.png""],[""img/mask49.png""],[""img/mask11.png""],[""img/mask13.png""],[""img/mask96.png""],[""img/mask3.png""],[""img/mask46.png""],[""img/mask92.png""],[""img/mask98.png""],[""img/mask99.png""],[""img/mask69.png""],[""img/mask29.png""],[""img/mask29.png""],[""img/mask10.png""],[""img/mask82.png""],[""img/mask69.png""],[""img/mask22.png""],[""img/mask50.png""],[""img/mask43.png""],[""img/mask93.png""],[""img/mask5.png""],[""img/mask44.png""],[""img/mask57.png""],[""img/mask70.png""],[""img/mask75.png""],[""img/mask47.png""],[""img/mask47.png""],[""img/mask91.png""],[""img/mask43.png""],[""img/mask86.png""],[""img/mask44.png""],[""img/mask40.png""],[""img/mask42.png""],[""img/mask85.png""],[""img/mask82.png""],[""img/mask50.png""]]]","","[32,29,27,22,1,10,0,2,35,28,8,33,5,20,30,13,23,11,31,3,15,14,24,19,18,21,6,17,25,26,9,12,7,4,34,16]","main","5","many-guess-6"
"","","","","","html-keyboard-response","79","340469","0.0-10.0-0.30","565c6791c121fe0012fc3caf","640759fa512f630a2bdc333d","640785cd275d18f9bcdc3327","null","","null","","","","","","","","","","","","","","","","","","","fixation","",""
"","","","","","many-guess-6","80","344381","0.0-10.0-1.30-0.30","565c6791c121fe0012fc3caf","640759fa512f630a2bdc333d","640785cd275d18f9bcdc3327","[1939]","","","[26,30,14,12,13,27,2,9,22,15,32,1,16,5,3,8,28,29,24,33,25,19,0,7,4,17,6,31,34,23,35,10,18,11,20,21]","[64,283,154,253,273,114,124,104,293,263,343,243,303,194,34,134,174,24,224,54,164,333,204,4,234,214,323,74,94,144,184,44,14,313,353,84]","64","116","259.1998339175053","[259.1998339175053]","[143.19983391750532]","[143]","[120,300,300,300,30,210,30,120,210]","0","36","0","149.61700000002747","14.867000000027474","16","[[[""img/mask35.png""],[""img/mask38.png""],[""img/mask59.png""],[""img/mask91.png""],[""img/mask63.png""],[""img/mask60.png""],[""img/mask14.png""],[""img/mask55.png""],[""img/mask55.png""],[""img/mask53.png""],[""img/mask73.png""],[""img/mask42.png""],[""img/mask23.png""],[""img/mask86.png""],[""img/mask90.png""],[""img/mask99.png""],[""img/mask37.png""],[""img/mask69.png""],[""img/mask51.png""],[""img/mask35.png""],[""img/mask30.png""],[""img/mask34.png""],[""img/mask41.png""],[""img/mask51.png""],[""img/mask55.png""],[""img/mask79.png""],[""img/mask95.png""],[""img/mask50.png""],[""img/mask99.png""],[""img/mask99.png""],[""img/mask8.png""],[""img/mask41.png""],[""img/mask7.png""],[""img/mask83.png""],[""img/mask29.png""],[""img/mask20.png""]]]","","[26,30,14,12,13,27,2,9,22,15,32,1,16,5,3,8,28,29,24,33,25,19,0,7,4,17,6,31,34,23,35,10,18,11,20,21]","main","116","many-guess-6"
"","","","","","html-keyboard-response","81","344883","0.0-10.0-0.31","565c6791c121fe0012fc3caf","640759fa512f630a2bdc333d","640785cd275d18f9bcdc3327","null","","null","","","","","","","","","","","","","","","","","","","fixation","",""
"","","","","","many-guess-6","82","348337","0.0-10.0-1.31-0.31","565c6791c121fe0012fc3caf","640759fa512f630a2bdc333d","640785cd275d18f9bcdc3327","[2012.1999999284744]","","","[12,6,18,31,35,32,33,34,16,17,15,1,0,11,29,2,25,20,30,21,7,24,26,14,27,28,10,4,3,22,13,23,19,8,5,9]","[69,199,249,358,209,348,278,328,129,159,189,229,308,49,79,179,318,219,288,169,259,9,149,29,298,89,99,338,268,239,19,59,119,139,39,109]","69","100","88.09188826099746","[88.09188826099746]","[348.09188826099745]","[346]","[210,210,30,120,300,210,210,210,120]","0","36","0","148.73299995233538","13.046999952290207","16","[[[""img/mask21.png""],[""img/mask88.png""],[""img/mask39.png""],[""img/mask12.png""],[""img/mask73.png""],[""img/mask39.png""],[""img/mask39.png""],[""img/mask14.png""],[""img/mask75.png""],[""img/mask64.png""],[""img/mask19.png""],[""img/mask12.png""],[""img/mask18.png""],[""img/mask3.png""],[""img/mask88.png""],[""img/mask19.png""],[""img/mask10.png""],[""img/mask75.png""],[""img/mask61.png""],[""img/mask25.png""],[""img/mask49.png""],[""img/mask44.png""],[""img/mask83.png""],[""img/mask78.png""],[""img/mask28.png""],[""img/mask97.png""],[""img/mask5.png""],[""img/mask89.png""],[""img/mask51.png""],[""img/mask86.png""],[""img/mask38.png""],[""img/mask86.png""],[""img/mask24.png""],[""img/mask36.png""],[""img/mask36.png""],[""img/mask10.png""]]]","","[12,6,18,31,35,32,33,34,16,17,15,1,0,11,29,2,25,20,30,21,7,24,26,14,27,28,10,4,3,22,13,23,19,8,5,9]","main","100","many-guess-6"
"","","","","","html-keyboard-response","83","348840","0.0-10.0-0.32","565c6791c121fe0012fc3caf","640759fa512f630a2bdc333d","640785cd275d18f9bcdc3327","null","","null","","","","","","","","","","","","","","","","","","","fixation","",""
"","","","","","color-precision2","84","354195","0.0-10.0-1.32-0.32","565c6791c121fe0012fc3caf","640759fa512f630a2bdc333d","640785cd275d18f9bcdc3327","[2553.9000000953674]","","","[11]","[149]","149","126","289.9284729719128","[289.9284729719128]","[163.9284729719128]","[164]","0","0","1","0","149.04600002383813","994.3910000238684","1000","[[[""img/mask38.png""]]]","","","main","126","color-precision2"
"","","","","","html-keyboard-response","85","354696","0.0-10.0-0.33","565c6791c121fe0012fc3caf","640759fa512f630a2bdc333d","640785cd275d18f9bcdc3327","null","","null","","","","","","","","","","","","","","","","","","","fixation","",""
"","","","","","many-guess-6","86","359357","0.0-10.0-1.33-0.33","565c6791c121fe0012fc3caf","640759fa512f630a2bdc333d","640785cd275d18f9bcdc3327","[3017]","","","[19,13,14,23,34,5,9,33,31,17,35,10,32,18,22,6,4,11,29,26,7,21,27,1,15,30,2,28,0,12,25,20,3,24,16,8]","[301,222,291,262,142,12,32,132,341,242,82,22,162,102,62,331,212,42,52,122,112,272,172,2,72,351,232,192,252,311,92,202,152,281,321,182]","301","99","233.6319565710096","[233.6319565710096]","[134.6319565710096]","[135]","[30,30,120,210,30,120,210,210,300]","0","36","0","149.60399995232","13.279000047710724","16","[[[""img/mask3.png""],[""img/mask5.png""],[""img/mask90.png""],[""img/mask42.png""],[""img/mask38.png""],[""img/mask56.png""],[""img/mask82.png""],[""img/mask53.png""],[""img/mask17.png""],[""img/mask61.png""],[""img/mask39.png""],[""img/mask28.png""],[""img/mask45.png""],[""img/mask99.png""],[""img/mask12.png""],[""img/mask1.png""],[""img/mask10.png""],[""img/mask25.png""],[""img/mask97.png""],[""img/mask91.png""],[""img/mask64.png""],[""img/mask28.png""],[""img/mask34.png""],[""img/mask89.png""],[""img/mask57.png""],[""img/mask35.png""],[""img/mask78.png""],[""img/mask81.png""],[""img/mask67.png""],[""img/mask67.png""],[""img/mask55.png""],[""img/mask43.png""],[""img/mask18.png""],[""img/mask85.png""],[""img/mask77.png""],[""img/mask21.png""]]]","","[19,13,14,23,34,5,9,33,31,17,35,10,32,18,22,6,4,11,29,26,7,21,27,1,15,30,2,28,0,12,25,20,3,24,16,8]","main","99","many-guess-6"
"","","","","","html-keyboard-response","87","359868","0.0-10.0-0.34","565c6791c121fe0012fc3caf","640759fa512f630a2bdc333d","640785cd275d18f9bcdc3327","null","","null","","","","","","","","","","","","","","","","","","","fixation","",""
"","","","","","color-precision2","88","363479","0.0-10.0-1.34-0.34","565c6791c121fe0012fc3caf","640759fa512f630a2bdc333d","640785cd275d18f9bcdc3327","[837]","","","[25]","[32]","32","342","7.446317899977767","[7.446317899977767]","[25.44631789997777]","[24]","0","0","1","0","149.06300000002375","995.9949999999953","1000","[[[""img/mask18.png""]]]","","","main","342","color-precision2"
"","","","","","html-keyboard-response","89","363980","0.0-10.0-0.35","565c6791c121fe0012fc3caf","640759fa512f630a2bdc333d","640785cd275d18f9bcdc3327","null","","null","","","","","","","","","","","","","","","","","","","fixation","",""
"","","","","","many-guess-6","90","368237","0.0-10.0-1.35-0.35","565c6791c121fe0012fc3caf","640759fa512f630a2bdc333d","640785cd275d18f9bcdc3327","[2314.5]","","","[6,9,7,35,23,30,33,20,19,17,32,14,2,27,21,15,4,25,22,24,34,26,18,12,0,10,1,31,16,8,11,29,5,28,13,3]","[203,283,73,193,103,133,303,333,14,113,34,183,63,293,243,213,153,4,263,273,54,163,323,223,83,123,24,173,143,353,93,253,313,44,343,233]","203","138","268.3737083905165","[268.3737083905165]","[130.37370839051653]","[130]","[120,300,30,120,300,30,210,300,300]","0","36","0","148.9089999999851","14.143999976164196","16","[[[""img/mask24.png""],[""img/mask34.png""],[""img/mask93.png""],[""img/mask6.png""],[""img/mask66.png""],[""img/mask29.png""],[""img/mask17.png""],[""img/mask69.png""],[""img/mask4.png""],[""img/mask17.png""],[""img/mask97.png""],[""img/mask50.png""],[""img/mask66.png""],[""img/mask96.png""],[""img/mask12.png""],[""img/mask73.png""],[""img/mask60.png""],[""img/mask41.png""],[""img/mask67.png""],[""img/mask48.png""],[""img/mask93.png""],[""img/mask47.png""],[""img/mask85.png""],[""img/mask8.png""],[""img/mask7.png""],[""img/mask12.png""],[""img/mask68.png""],[""img/mask25.png""],[""img/mask94.png""],[""img/mask100.png""],[""img/mask61.png""],[""img/mask81.png""],[""img/mask71.png""],[""img/mask39.png""],[""img/mask79.png""],[""img/mask46.png""]]]","","[6,9,7,35,23,30,33,20,19,17,32,14,2,27,21,15,4,25,22,24,34,26,18,12,0,10,1,31,16,8,11,29,5,28,13,3]","main","138","many-guess-6"
"","","","","","html-keyboard-response","91","368739","0.0-10.0-0.36","565c6791c121fe0012fc3caf","640759fa512f630a2bdc333d","640785cd275d18f9bcdc3327","null","","null","","","","","","","","","","","","","","","","","","","fixation","",""
"","","","","","color-precision2","92","373076","0.0-10.0-1.36-0.36","565c6791c121fe0012fc3caf","640759fa512f630a2bdc333d","640785cd275d18f9bcdc3327","[1805.0999999046326]","","","[26]","[33]","33","238","275.2002087302618","[275.2002087302618]","[37.20020873026181]","[37]","0","0","1","0","149.13699995231582","997.125","1000","[[[""img/mask99.png""]]]","","","main","238","color-precision2"
"","","","","","html-keyboard-response","93","373578","0.0-10.0-0.37","565c6791c121fe0012fc3caf","640759fa512f630a2bdc333d","640785cd275d18f9bcdc3327","null","","null","","","","","","","","","","","","","","","","","","","fixation","",""
"","","","","","color-precision2","94","377412","0.0-10.0-1.37-0.37","565c6791c121fe0012fc3caf","640759fa512f630a2bdc333d","640785cd275d18f9bcdc3327","[1241.5]","","","[2]","[1]","1","155","144.8395653450744","[144.8395653450744]","[349.8395653450744]","[348]","0","0","1","0","148.94799995230278","995.4959999761777","1000","[[[""img/mask100.png""]]]","","","main","155","color-precision2"
"","","","","","html-keyboard-response","95","377913","0.0-10.0-0.38","565c6791c121fe0012fc3caf","640759fa512f630a2bdc333d","640785cd275d18f9bcdc3327","null","","null","","","","","","","","","","","","","","","","","","","fixation","",""
"","","","","","many-guess-6","96","383307","0.0-10.0-1.38-0.38","565c6791c121fe0012fc3caf","640759fa512f630a2bdc333d","640785cd275d18f9bcdc3327","[3503.100000023842]","","","[12,23,5,27,31,6,16,0,30,25,21,24,7,29,4,10,22,9,14,35,2,20,28,8,33,32,19,3,26,18,15,1,11,17,34,13]","[230,350,320,50,70,1,310,21,220,340,330,41,250,240,31,280,90,160,120,60,290,180,200,300,11,260,80,100,130,270,190,150,140,110,170,210]","230","144","274.62910384809396","[274.62910384809396]","[130.62910384809396]","[131]","[300,120,120,300,300,300,210,120,210]","0","36","0","149.0339999999851","14.140999952331185","16","[[[""img/mask38.png""],[""img/mask98.png""],[""img/mask100.png""],[""img/mask40.png""],[""img/mask64.png""],[""img/mask66.png""],[""img/mask63.png""],[""img/mask97.png""],[""img/mask62.png""],[""img/mask46.png""],[""img/mask7.png""],[""img/mask95.png""],[""img/mask89.png""],[""img/mask11.png""],[""img/mask91.png""],[""img/mask18.png""],[""img/mask88.png""],[""img/mask97.png""],[""img/mask82.png""],[""img/mask52.png""],[""img/mask11.png""],[""img/mask39.png""],[""img/mask53.png""],[""img/mask91.png""],[""img/mask77.png""],[""img/mask56.png""],[""img/mask67.png""],[""img/mask44.png""],[""img/mask23.png""],[""img/mask87.png""],[""img/mask81.png""],[""img/mask12.png""],[""img/mask94.png""],[""img/mask80.png""],[""img/mask25.png""],[""img/mask82.png""]]]","","[12,23,5,27,31,6,16,0,30,25,21,24,7,29,4,10,22,9,14,35,2,20,28,8,33,32,19,3,26,18,15,1,11,17,34,13]","main","144","many-guess-6"
"","","","","","html-keyboard-response","97","388194","0.0-10.0-0.39","565c6791c121fe0012fc3caf","640759fa512f630a2bdc333d","640785cd275d18f9bcdc3327","4886.399999976158","Wow! You've completed 40 out of 180 trials! </p> <p>  </p><p> Take a quick break, then press any key when you're ready to continue.","b","","","","","","","","","","","","","","","","","","","fixation","",""
"","","","","","color-precision2","98","393179","0.0-10.0-1.39-0.39","565c6791c121fe0012fc3caf","640759fa512f630a2bdc333d","640785cd275d18f9bcdc3327","[1942.9000000953674]","","","[14]","[285]","285","53","343.7341533342498","[343.7341533342498]","[290.7341533342498]","[290]","0","0","1","0","149.07000002381392","996.0260000476846","1000","[[[""img/mask81.png""]]]","","","main","53","color-precision2"
"","","","","","html-keyboard-response","99","393680","0.0-10.0-0.40","565c6791c121fe0012fc3caf","640759fa512f630a2bdc333d","640785cd275d18f9bcdc3327","null","","null","","","","","","","","","","","","","","","","","","","fixation","",""
"","","","","","many-guess-6","100","397398","0.0-10.0-1.40-0.40","565c6791c121fe0012fc3caf","640759fa512f630a2bdc333d","640785cd275d18f9bcdc3327","[2229.9000000953674]","","","[27,15,35,25,19,33,4,1,17,7,5,10,12,30,29,31,9,32,8,6,2,18,16,24,34,21,13,26,14,28,20,22,11,3,0,23]","[113,173,153,74,333,303,353,183,14,253,54,34,223,283,133,44,233,143,94,123,64,323,104,24,243,263,203,4,273,193,313,343,163,293,213,84]","113","70","71.92038123782937","[71.92038123782937]","[1.9203812378293748]","[0]","[30,210,300,210,120,210,210,210,210]","0","36","0","148.9470000238507","12.09499999997206","16","[[[""img/mask94.png""],[""img/mask34.png""],[""img/mask40.png""],[""img/mask16.png""],[""img/mask7.png""],[""img/mask31.png""],[""img/mask4.png""],[""img/mask52.png""],[""img/mask28.png""],[""img/mask89.png""],[""img/mask35.png""],[""img/mask8.png""],[""img/mask95.png""],[""img/mask17.png""],[""img/mask99.png""],[""img/mask63.png""],[""img/mask87.png""],[""img/mask78.png""],[""img/mask58.png""],[""img/mask7.png""],[""img/mask39.png""],[""img/mask22.png""],[""img/mask69.png""],[""img/mask76.png""],[""img/mask22.png""],[""img/mask68.png""],[""img/mask8.png""],[""img/mask3.png""],[""img/mask43.png""],[""img/mask54.png""],[""img/mask13.png""],[""img/mask13.png""],[""img/mask42.png""],[""img/mask34.png""],[""img/mask24.png""],[""img/mask43.png""]]]","","[27,15,35,25,19,33,4,1,17,7,5,10,12,30,29,31,9,32,8,6,2,18,16,24,34,21,13,26,14,28,20,22,11,3,0,23]","main","70","many-guess-6"
"","","","","","html-keyboard-response","101","397899","0.0-10.0-0.41","565c6791c121fe0012fc3caf","640759fa512f630a2bdc333d","640785cd275d18f9bcdc3327","null","","null","","","","","","","","","","","","","","","","","","","fixation","",""
"","","","","","color-precision2","102","401434","0.0-10.0-1.41-0.41","565c6791c121fe0012fc3caf","640759fa512f630a2bdc333d","640785cd275d18f9bcdc3327","[1017]","","","[25]","[216]","216","220","71.13289645021413","[71.13289645021413]","[211.13289645021413]","[209]","0","0","1","0","148.9839999761316","995.9129999761353","1000","[[[""img/mask54.png""]]]","","","main","220","color-precision2"
"","","","","","html-keyboard-response","103","401935","0.0-10.0-0.42","565c6791c121fe0012fc3caf","640759fa512f630a2bdc333d","640785cd275d18f9bcdc3327","null","","null","","","","","","","","","","","","","","","","","","","fixation","",""
"","","","","","color-precision2","104","405246","0.0-10.0-1.42-0.42","565c6791c121fe0012fc3caf","640759fa512f630a2bdc333d","640785cd275d18f9bcdc3327","[727.8999999761581]","","","[19]","[102]","102","102","211.07074621325862","[211.07074621325862]","[109.07074621325862]","[109]","0","0","1","0","147.53699997614603","996.347999976133","1000","[[[""img/mask63.png""]]]","","","main","102","color-precision2"
"","","","","","html-keyboard-response","105","405748","0.0-10.0-0.43","565c6791c121fe0012fc3caf","640759fa512f630a2bdc333d","640785cd275d18f9bcdc3327","null","","null","","","","","","","","","","","","","","","","","","","fixation","",""
"","","","","","many-guess-6","106","409336","0.0-10.0-1.43-0.43","565c6791c121fe0012fc3caf","640759fa512f630a2bdc333d","640785cd275d18f9bcdc3327","[2002.8000000715256]","","","[22,6,25,16,15,20,0,26,9,5,30,28,4,23,10,34,14,18,27,1,2,29,11,19,7,33,8,12,21,17,31,13,32,3,24,35]","[7,316,97,196,67,117,137,356,166,276,156,17,186,27,146,216,346,326,206,236,47,286,296,57,256,87,37,336,127,77,306,107,266,176,226,246]","7","185","217.53970596396792","[217.53970596396792]","[32.53970596396792]","[32]","[300,120,30,120,300,30,300,30,120]","0","36","0","148.63600004767068","13.117999976151623","16","[[[""img/mask33.png""],[""img/mask91.png""],[""img/mask76.png""],[""img/mask78.png""],[""img/mask74.png""],[""img/mask29.png""],[""img/mask99.png""],[""img/mask88.png""],[""img/mask72.png""],[""img/mask76.png""],[""img/mask76.png""],[""img/mask15.png""],[""img/mask8.png""],[""img/mask28.png""],[""img/mask20.png""],[""img/mask88.png""],[""img/mask54.png""],[""img/mask27.png""],[""img/mask64.png""],[""img/mask34.png""],[""img/mask22.png""],[""img/mask64.png""],[""img/mask70.png""],[""img/mask32.png""],[""img/mask10.png""],[""img/mask49.png""],[""img/mask7.png""],[""img/mask10.png""],[""img/mask62.png""],[""img/mask24.png""],[""img/mask94.png""],[""img/mask62.png""],[""img/mask43.png""],[""img/mask86.png""],[""img/mask43.png""],[""img/mask2.png""]]]","","[22,6,25,16,15,20,0,26,9,5,30,28,4,23,10,34,14,18,27,1,2,29,11,19,7,33,8,12,21,17,31,13,32,3,24,35]","main","185","many-guess-6"
"","","","","","html-keyboard-response","107","409838","0.0-10.0-0.44","565c6791c121fe0012fc3caf","640759fa512f630a2bdc333d","640785cd275d18f9bcdc3327","null","","null","","","","","","","","","","","","","","","","","","","fixation","",""
"","","","","","many-guess-6","108","414336","0.0-10.0-1.44-0.44","565c6791c121fe0012fc3caf","640759fa512f630a2bdc333d","640785cd275d18f9bcdc3327","[2603.5]","","","[23,16,5,2,22,21,9,27,4,10,28,14,15,29,1,13,0,3,24,35,6,12,17,8,18,31,30,34,26,32,25,33,11,20,7,19]","[320,280,21,140,41,71,180,260,340,230,80,190,350,11,300,170,310,330,61,250,120,130,51,100,270,150,90,220,290,240,31,110,210,1,160,200]","320","26","252.34931871623442","[252.34931871623442]","[226.34931871623442]","[226]","[300,120,300,300,120,300,300,120,120]","0","36","0","149.33199997612974","12.670999999972992","16","[[[""img/mask63.png""],[""img/mask25.png""],[""img/mask75.png""],[""img/mask26.png""],[""img/mask27.png""],[""img/mask63.png""],[""img/mask66.png""],[""img/mask87.png""],[""img/mask86.png""],[""img/mask10.png""],[""img/mask70.png""],[""img/mask50.png""],[""img/mask89.png""],[""img/mask35.png""],[""img/mask99.png""],[""img/mask59.png""],[""img/mask9.png""],[""img/mask40.png""],[""img/mask21.png""],[""img/mask57.png""],[""img/mask13.png""],[""img/mask22.png""],[""img/mask87.png""],[""img/mask18.png""],[""img/mask86.png""],[""img/mask79.png""],[""img/mask38.png""],[""img/mask6.png""],[""img/mask92.png""],[""img/mask66.png""],[""img/mask45.png""],[""img/mask59.png""],[""img/mask49.png""],[""img/mask38.png""],[""img/mask38.png""],[""img/mask2.png""]]]","","[23,16,5,2,22,21,9,27,4,10,28,14,15,29,1,13,0,3,24,35,6,12,17,8,18,31,30,34,26,32,25,33,11,20,7,19]","main","26","many-guess-6"
"","","","","","html-keyboard-response","109","414838","0.0-10.0-0.45","565c6791c121fe0012fc3caf","640759fa512f630a2bdc333d","640785cd275d18f9bcdc3327","null","","null","","","","","","","","","","","","","","","","","","","fixation","",""
"","","","","","color-precision2","110","418871","0.0-10.0-1.45-0.45","565c6791c121fe0012fc3caf","640759fa512f630a2bdc333d","640785cd275d18f9bcdc3327","[1537.8999999761581]","","","[1]","[283]","283","212","146.5881607847808","[146.5881607847808]","[294.5881607847808]","[293]","0","0","1","0","148.96599995234283","997.4469999761786","1000","[[[""img/mask25.png""]]]","","","main","212","color-precision2"
"","","","","","html-keyboard-response","111","419372","0.0-10.0-0.46","565c6791c121fe0012fc3caf","640759fa512f630a2bdc333d","640785cd275d18f9bcdc3327","null","","null","","","","","","","","","","","","","","","","","","","fixation","",""
"","","","","","many-guess-6","112","422369","0.0-10.0-1.46-0.46","565c6791c121fe0012fc3caf","640759fa512f630a2bdc333d","640785cd275d18f9bcdc3327","[1469.6000000238419]","","","[9,5,7,16,18,12,6,4,20,24,2,1,25,35,31,22,33,11,27,30,23,3,10,34,17,19,26,21,13,0,14,32,28,8,29,15]","[4,274,254,204,64,304,134,214,224,74,124,54,144,314,24,44,184,84,284,154,164,194,174,114,234,14,264,104,343,34,294,353,324,244,94,334]","4","317","307.4975702961374","[307.4975702961374]","[350.4975702961374]","[351]","[120,300,120,120,120,210,210,300,120]","0","36","0","149.70999995229067","13.38100004766602","16","[[[""img/mask71.png""],[""img/mask92.png""],[""img/mask73.png""],[""img/mask73.png""],[""img/mask83.png""],[""img/mask31.png""],[""img/mask3.png""],[""img/mask16.png""],[""img/mask95.png""],[""img/mask75.png""],[""img/mask29.png""],[""img/mask41.png""],[""img/mask44.png""],[""img/mask3.png""],[""img/mask20.png""],[""img/mask95.png""],[""img/mask77.png""],[""img/mask68.png""],[""img/mask2.png""],[""img/mask77.png""],[""img/mask28.png""],[""img/mask92.png""],[""img/mask63.png""],[""img/mask52.png""],[""img/mask82.png""],[""img/mask60.png""],[""img/mask80.png""],[""img/mask79.png""],[""img/mask13.png""],[""img/mask49.png""],[""img/mask8.png""],[""img/mask65.png""],[""img/mask63.png""],[""img/mask7.png""],[""img/mask59.png""],[""img/mask87.png""]]]","","[9,5,7,16,18,12,6,4,20,24,2,1,25,35,31,22,33,11,27,30,23,3,10,34,17,19,26,21,13,0,14,32,28,8,29,15]","main","317","many-guess-6"
"","","","","","html-keyboard-response","113","422871","0.0-10.0-0.47","565c6791c121fe0012fc3caf","640759fa512f630a2bdc333d","640785cd275d18f9bcdc3327","null","","null","","","","","","","","","","","","","","","","","","","fixation","",""
"","","","","","color-precision2","114","427441","0.0-10.0-1.47-0.47","565c6791c121fe0012fc3caf","640759fa512f630a2bdc333d","640785cd275d18f9bcdc3327","[1459.1000000238419]","","","[23]","[197]","197","223","36.12178926601806","[36.12178926601806]","[173.12178926601806]","[172]","0","0","1","0","148.50299997616094","995.9820000238251","1000","[[[""img/mask54.png""]]]","","","main","223","color-precision2"
"","","","","","html-keyboard-response","115","427948","0.0-10.0-0.48","565c6791c121fe0012fc3caf","640759fa512f630a2bdc333d","640785cd275d18f9bcdc3327","null","","null","","","","","","","","","","","","","","","","","","","fixation","",""
"","","","","","many-guess-6","116","431898","0.0-10.0-1.48-0.48","565c6791c121fe0012fc3caf","640759fa512f630a2bdc333d","640785cd275d18f9bcdc3327","[1899]","","","[29,16,23,30,27,8,0,31,3,11,2,6,28,12,21,34,25,19,4,18,1,14,5,20,9,7,10,24,26,15,22,35,33,32,17,13]","[165,284,175,314,294,115,15,35,55,105,234,145,354,25,304,194,85,45,5,244,334,75,155,95,135,204,214,65,224,324,274,264,184,125,254,344]","165","152","170.89106330243166","[170.89106330243166]","[18.89106330243166]","[18]","[120,300,300,120,300,120,30,30,120]","0","36","0","148.88800002384232","11.452999976172578","16","[[[""img/mask50.png""],[""img/mask99.png""],[""img/mask34.png""],[""img/mask35.png""],[""img/mask72.png""],[""img/mask80.png""],[""img/mask95.png""],[""img/mask41.png""],[""img/mask34.png""],[""img/mask87.png""],[""img/mask68.png""],[""img/mask22.png""],[""img/mask58.png""],[""img/mask38.png""],[""img/mask71.png""],[""img/mask25.png""],[""img/mask77.png""],[""img/mask34.png""],[""img/mask80.png""],[""img/mask32.png""],[""img/mask81.png""],[""img/mask64.png""],[""img/mask24.png""],[""img/mask14.png""],[""img/mask84.png""],[""img/mask31.png""],[""img/mask1.png""],[""img/mask28.png""],[""img/mask29.png""],[""img/mask7.png""],[""img/mask72.png""],[""img/mask37.png""],[""img/mask68.png""],[""img/mask71.png""],[""img/mask88.png""],[""img/mask2.png""]]]","","[29,16,23,30,27,8,0,31,3,11,2,6,28,12,21,34,25,19,4,18,1,14,5,20,9,7,10,24,26,15,22,35,33,32,17,13]","main","152","many-guess-6"
"","","","","","html-keyboard-response","117","432399","0.0-10.0-0.49","565c6791c121fe0012fc3caf","640759fa512f630a2bdc333d","640785cd275d18f9bcdc3327","null","","null","","","","","","","","","","","","","","","","","","","fixation","",""
"","","","","","color-precision2","118","437055","0.0-10.0-1.49-0.49","565c6791c121fe0012fc3caf","640759fa512f630a2bdc333d","640785cd275d18f9bcdc3327","[1541]","","","[9]","[207]","207","32","232.30528915100186","[232.30528915100186]","[200.30528915100186]","[200]","0","0","1","0","149.03199995233444","995.8370000476716","1000","[[[""img/mask96.png""]]]","","","main","32","color-precision2"
"","","","","","html-keyboard-response","119","437561","0.0-10.0-0.50","565c6791c121fe0012fc3caf","640759fa512f630a2bdc333d","640785cd275d18f9bcdc3327","null","","null","","","","","","","","","","","","","","","","","","","fixation","",""
"","","","","","many-guess-6","120","441749","0.0-10.0-1.50-0.50","565c6791c121fe0012fc3caf","640759fa512f630a2bdc333d","640785cd275d18f9bcdc3327","[2435.5]","","","[34,4,26,10,5,8,2,29,30,18,27,15,19,11,24,23,3,28,20,17,1,9,14,21,12,16,0,7,13,22,25,6,35,31,32,33]","[214,284,94,5,65,114,75,314,45,174,154,194,294,254,164,274,104,234,184,334,134,55,354,84,244,204,35,15,344,25,304,224,324,124,144,264]","214","255","281.6345180985386","[281.6345180985386]","[26.634518098538592]","[27]","[30,300,210,210,120,300,210,30,120]","0","36","0","149.31900002382463","19.146000000007916","16","[[[""img/mask26.png""],[""img/mask74.png""],[""img/mask58.png""],[""img/mask17.png""],[""img/mask85.png""],[""img/mask12.png""],[""img/mask46.png""],[""img/mask97.png""],[""img/mask40.png""],[""img/mask47.png""],[""img/mask67.png""],[""img/mask34.png""],[""img/mask61.png""],[""img/mask45.png""],[""img/mask19.png""],[""img/mask83.png""],[""img/mask92.png""],[""img/mask33.png""],[""img/mask18.png""],[""img/mask65.png""],[""img/mask49.png""],[""img/mask28.png""],[""img/mask72.png""],[""img/mask27.png""],[""img/mask33.png""],[""img/mask72.png""],[""img/mask35.png""],[""img/mask57.png""],[""img/mask68.png""],[""img/mask85.png""],[""img/mask34.png""],[""img/mask31.png""],[""img/mask54.png""],[""img/mask21.png""],[""img/mask52.png""],[""img/mask58.png""]]]","","[34,4,26,10,5,8,2,29,30,18,27,15,19,11,24,23,3,28,20,17,1,9,14,21,12,16,0,7,13,22,25,6,35,31,32,33]","main","255","many-guess-6"
"","","","","","html-keyboard-response","121","442250","0.0-10.0-0.51","565c6791c121fe0012fc3caf","640759fa512f630a2bdc333d","640785cd275d18f9bcdc3327","null","","null","","","","","","","","","","","","","","","","","","","fixation","",""
"","","","","","many-guess-6","122","446263","0.0-10.0-1.51-0.51","565c6791c121fe0012fc3caf","640759fa512f630a2bdc333d","640785cd275d18f9bcdc3327","[2414.7999999523163]","","","[16,33,9,14,23,2,6,8,20,13,4,30,26,11,31,3,29,12,19,34,15,28,10,22,21,25,5,32,24,17,27,18,7,1,0,35]","[254,64,224,25,134,214,354,344,44,74,94,274,114,234,284,324,294,144,154,314,334,164,244,174,184,194,304,264,35,204,104,124,84,15,5,54]","254","331","211.43575896285026","[211.43575896285026]","[240.43575896285026]","[240]","[30,300,30,300,300,30,30,210,300]","0","36","0","148.84799995232606","12.833999999973457","16","[[[""img/mask94.png""],[""img/mask38.png""],[""img/mask8.png""],[""img/mask38.png""],[""img/mask71.png""],[""img/mask13.png""],[""img/mask64.png""],[""img/mask8.png""],[""img/mask35.png""],[""img/mask26.png""],[""img/mask75.png""],[""img/mask90.png""],[""img/mask5.png""],[""img/mask67.png""],[""img/mask100.png""],[""img/mask3.png""],[""img/mask59.png""],[""img/mask97.png""],[""img/mask59.png""],[""img/mask22.png""],[""img/mask57.png""],[""img/mask15.png""],[""img/mask52.png""],[""img/mask12.png""],[""img/mask59.png""],[""img/mask82.png""],[""img/mask74.png""],[""img/mask98.png""],[""img/mask93.png""],[""img/mask38.png""],[""img/mask29.png""],[""img/mask44.png""],[""img/mask95.png""],[""img/mask36.png""],[""img/mask25.png""],[""img/mask80.png""]]]","","[16,33,9,14,23,2,6,8,20,13,4,30,26,11,31,3,29,12,19,34,15,28,10,22,21,25,5,32,24,17,27,18,7,1,0,35]","main","331","many-guess-6"
"","","","","","html-keyboard-response","123","446765","0.0-10.0-0.52","565c6791c121fe0012fc3caf","640759fa512f630a2bdc333d","640785cd275d18f9bcdc3327","null","","null","","","","","","","","","","","","","","","","","","","fixation","",""
"","","","","","many-guess-6","124","450995","0.0-10.0-1.52-0.52","565c6791c121fe0012fc3caf","640759fa512f630a2bdc333d","640785cd275d18f9bcdc3327","[2582.600000023842]","","","[21,2,10,20,29,30,13,12,31,33,23,17,8,5,16,6,11,22,25,15,35,3,1,9,19,32,34,0,18,14,4,24,26,7,27,28]","[340,1,11,51,300,21,310,161,201,131,181,41,31,330,171,111,320,221,241,251,350,231,151,211,101,71,141,290,281,91,261,81,271,191,61,121]","340","179","301.42595487319204","[301.42595487319204]","[122.42595487319204]","[123]","[210,120,120,120,120,300,210,210,210]","0","36","0","148.91899995232234","14.05500004766509","16","[[[""img/mask60.png""],[""img/mask69.png""],[""img/mask14.png""],[""img/mask76.png""],[""img/mask15.png""],[""img/mask42.png""],[""img/mask49.png""],[""img/mask84.png""],[""img/mask30.png""],[""img/mask25.png""],[""img/mask97.png""],[""img/mask13.png""],[""img/mask57.png""],[""img/mask52.png""],[""img/mask76.png""],[""img/mask84.png""],[""img/mask94.png""],[""img/mask73.png""],[""img/mask57.png""],[""img/mask46.png""],[""img/mask26.png""],[""img/mask8.png""],[""img/mask5.png""],[""img/mask70.png""],[""img/mask54.png""],[""img/mask41.png""],[""img/mask51.png""],[""img/mask29.png""],[""img/mask2.png""],[""img/mask36.png""],[""img/mask47.png""],[""img/mask17.png""],[""img/mask86.png""],[""img/mask86.png""],[""img/mask45.png""],[""img/mask9.png""]]]","","[21,2,10,20,29,30,13,12,31,33,23,17,8,5,16,6,11,22,25,15,35,3,1,9,19,32,34,0,18,14,4,24,26,7,27,28]","main","179","many-guess-6"
"","","","","","html-keyboard-response","125","451496","0.0-10.0-0.53","565c6791c121fe0012fc3caf","640759fa512f630a2bdc333d","640785cd275d18f9bcdc3327","null","","null","","","","","","","","","","","","","","","","","","","fixation","",""
"","","","","","color-precision2","126","455709","0.0-10.0-1.53-0.53","565c6791c121fe0012fc3caf","640759fa512f630a2bdc333d","640785cd275d18f9bcdc3327","[1480.1999999284744]","","","[21]","[185]","185","71","259.41261835085606","[259.41261835085606]","[188.41261835085606]","[189]","0","0","1","0","149.1530000238563","996.0250000238302","1000","[[[""img/mask29.png""]]]","","","main","71","color-precision2"
"","","","","","html-keyboard-response","127","456225","0.0-10.0-0.54","565c6791c121fe0012fc3caf","640759fa512f630a2bdc333d","640785cd275d18f9bcdc3327","null","","null","","","","","","","","","","","","","","","","","","","fixation","",""
"","","","","","color-precision2","128","459547","0.0-10.0-1.54-0.54","565c6791c121fe0012fc3caf","640759fa512f630a2bdc333d","640785cd275d18f9bcdc3327","[700.8999999761581]","","","[20]","[252]","252","39","286.6665553423102","[286.6665553423102]","[247.66655534231018]","[248]","0","0","1","0","147.65600000001723","996.0830000238493","1000","[[[""img/mask95.png""]]]","","","main","39","color-precision2"
"","","","","","html-keyboard-response","129","460047","0.0-10.0-0.55","565c6791c121fe0012fc3caf","640759fa512f630a2bdc333d","640785cd275d18f9bcdc3327","null","","null","","","","","","","","","","","","","","","","","","","fixation","",""
"","","","","","color-precision2","130","463503","0.0-10.0-1.55-0.55","565c6791c121fe0012fc3caf","640759fa512f630a2bdc333d","640785cd275d18f9bcdc3327","[924.7999999523163]","","","[35]","[198]","198","150","324.79822824576763","[324.79822824576763]","[174.79822824576763]","[174]","0","0","1","0","149.08900002384325","995.3600000238512","1000","[[[""img/mask48.png""]]]","","","main","150","color-precision2"
"","","","","","html-keyboard-response","131","464004","0.0-10.0-0.56","565c6791c121fe0012fc3caf","640759fa512f630a2bdc333d","640785cd275d18f9bcdc3327","null","","null","","","","","","","","","","","","","","","","","","","fixation","",""
"","","","","","color-precision2","132","468129","0.0-10.0-1.56-0.56","565c6791c121fe0012fc3caf","640759fa512f630a2bdc333d","640785cd275d18f9bcdc3327","[1385.6999999284744]","","","[8]","[68]","68","321","36.57388053907055","[36.57388053907055]","[75.57388053907056]","[74]","0","0","1","0","149.04499997617677","997.5210000000079","1000","[[[""img/mask12.png""]]]","","","main","321","color-precision2"
"","","","","","html-keyboard-response","133","468641","0.0-10.0-0.57","565c6791c121fe0012fc3caf","640759fa512f630a2bdc333d","640785cd275d18f9bcdc3327","null","","null","","","","","","","","","","","","","","","","","","","fixation","",""
"","","","","","many-guess-6","134","473105","0.0-10.0-1.57-0.57","565c6791c121fe0012fc3caf","640759fa512f630a2bdc333d","640785cd275d18f9bcdc3327","[2828.5999999046326]","","","[7,14,35,26,33,24,11,34,20,10,8,25,23,13,12,17,22,0,30,6,31,28,29,4,2,32,9,21,1,3,15,16,18,27,19,5]","[130,330,310,71,51,240,61,260,31,1,41,200,81,210,170,91,320,101,270,111,350,290,140,190,180,21,150,120,280,160,11,250,300,220,230,340]","130","236","4.959205334779354","[4.959205334779354]","[128.95920533477934]","[130]","[30,300,210,210,300,30,30,210,300]","0","36","0","148.81299995229347","12.815000000002328","16","[[[""img/mask62.png""],[""img/mask18.png""],[""img/mask12.png""],[""img/mask68.png""],[""img/mask83.png""],[""img/mask7.png""],[""img/mask49.png""],[""img/mask8.png""],[""img/mask8.png""],[""img/mask30.png""],[""img/mask55.png""],[""img/mask89.png""],[""img/mask75.png""],[""img/mask55.png""],[""img/mask87.png""],[""img/mask78.png""],[""img/mask74.png""],[""img/mask25.png""],[""img/mask87.png""],[""img/mask23.png""],[""img/mask17.png""],[""img/mask98.png""],[""img/mask66.png""],[""img/mask51.png""],[""img/mask98.png""],[""img/mask59.png""],[""img/mask93.png""],[""img/mask18.png""],[""img/mask58.png""],[""img/mask18.png""],[""img/mask49.png""],[""img/mask1.png""],[""img/mask52.png""],[""img/mask57.png""],[""img/mask96.png""],[""img/mask97.png""]]]","","[7,14,35,26,33,24,11,34,20,10,8,25,23,13,12,17,22,0,30,6,31,28,29,4,2,32,9,21,1,3,15,16,18,27,19,5]","main","236","many-guess-6"
"","","","","","html-keyboard-response","135","473606","0.0-10.0-0.58","565c6791c121fe0012fc3caf","640759fa512f630a2bdc333d","640785cd275d18f9bcdc3327","null","","null","","","","","","","","","","","","","","","","","","","fixation","",""
"","","","","","color-precision2","136","478565","0.0-10.0-1.58-0.58","565c6791c121fe0012fc3caf","640759fa512f630a2bdc333d","640785cd275d18f9bcdc3327","[1856.1999999284744]","","","[26]","[65]","65","182","253.56053866138515","[253.56053866138515]","[71.56053866138515]","[72]","0","0","1","0","149.0329999999958","994.2059999523335","1000","[[[""img/mask14.png""]]]","","","main","182","color-precision2"
"","","","","","html-keyboard-response","137","484774","0.0-10.0-0.59","565c6791c121fe0012fc3caf","640759fa512f630a2bdc333d","640785cd275d18f9bcdc3327","6208.5","Wow! You've completed 60 out of 180 trials! </p> <p>  </p><p> Take a quick break, then press any key when you're ready to continue.","b","","","","","","","","","","","","","","","","","","","fixation","",""
"","","","","","color-precision2","138","490065","0.0-10.0-1.59-0.59","565c6791c121fe0012fc3caf","640759fa512f630a2bdc333d","640785cd275d18f9bcdc3327","[2107.399999976158]","","","[25]","[89]","89","31","116.70772111584527","[116.70772111584527]","[85.70772111584527]","[84]","0","0","1","0","149.0749999761465","993.7050000476884","1000","[[[""img/mask29.png""]]]","","","main","31","color-precision2"
"","","","","","html-keyboard-response","139","490566","0.0-10.0-0.60","565c6791c121fe0012fc3caf","640759fa512f630a2bdc333d","640785cd275d18f9bcdc3327","null","","null","","","","","","","","","","","","","","","","","","","fixation","",""
"","","","","","color-precision2","140","495436","0.0-10.0-1.60-0.60","565c6791c121fe0012fc3caf","640759fa512f630a2bdc333d","640785cd275d18f9bcdc3327","[1480]","","","[5]","[281]","281","297","227.04164300415312","[227.04164300415312]","[290.0416430041531]","[290]","0","0","1","0","148.91800002387026","996.2679999999818","1000","[[[""img/mask31.png""]]]","","","main","297","color-precision2"
"","","","","","html-keyboard-response","141","495938","0.0-10.0-0.61","565c6791c121fe0012fc3caf","640759fa512f630a2bdc333d","640785cd275d18f9bcdc3327","null","","null","","","","","","","","","","","","","","","","","","","fixation","",""
"","","","","","color-precision2","142","499230","0.0-10.0-1.61-0.61","565c6791c121fe0012fc3caf","640759fa512f630a2bdc333d","640785cd275d18f9bcdc3327","[791]","","","[4]","[146]","146","145","291.91451205544274","[291.91451205544274]","[146.91451205544274]","[147]","0","0","1","0","148.97799997613765","997.4880000000121","1000","[[[""img/mask29.png""]]]","","","main","145","color-precision2"
"","","","","","html-keyboard-response","143","499732","0.0-10.0-0.62","565c6791c121fe0012fc3caf","640759fa512f630a2bdc333d","640785cd275d18f9bcdc3327","null","","null","","","","","","","","","","","","","","","","","","","fixation","",""
"","","","","","many-guess-6","144","503344","0.0-10.0-1.62-0.62","565c6791c121fe0012fc3caf","640759fa512f630a2bdc333d","640785cd275d18f9bcdc3327","[1888.6000000238419]","","","[21,0,1,5,20,17,4,34,15,26,19,29,18,10,2,16,7,12,11,32,27,24,6,9,22,25,30,31,13,8,23,3,28,35,33,14]","[316,67,296,107,197,27,226,187,127,306,7,217,117,47,97,57,276,147,356,346,137,266,17,256,87,236,77,167,177,336,246,157,326,37,286,207]","316","201","220.41175364171957","[220.41175364171957]","[19.41175364171957]","[19]","[210,300,120,210,120,300,120,210,210]","0","36","0","148.8709999761777","12.742000000027474","16","[[[""img/mask35.png""],[""img/mask92.png""],[""img/mask95.png""],[""img/mask95.png""],[""img/mask69.png""],[""img/mask12.png""],[""img/mask92.png""],[""img/mask59.png""],[""img/mask14.png""],[""img/mask50.png""],[""img/mask96.png""],[""img/mask24.png""],[""img/mask15.png""],[""img/mask59.png""],[""img/mask83.png""],[""img/mask58.png""],[""img/mask44.png""],[""img/mask3.png""],[""img/mask61.png""],[""img/mask74.png""],[""img/mask12.png""],[""img/mask46.png""],[""img/mask94.png""],[""img/mask45.png""],[""img/mask21.png""],[""img/mask5.png""],[""img/mask25.png""],[""img/mask99.png""],[""img/mask82.png""],[""img/mask77.png""],[""img/mask100.png""],[""img/mask86.png""],[""img/mask94.png""],[""img/mask81.png""],[""img/mask41.png""],[""img/mask90.png""]]]","","[21,0,1,5,20,17,4,34,15,26,19,29,18,10,2,16,7,12,11,32,27,24,6,9,22,25,30,31,13,8,23,3,28,35,33,14]","main","201","many-guess-6"
"","","","","","html-keyboard-response","145","503846","0.0-10.0-0.63","565c6791c121fe0012fc3caf","640759fa512f630a2bdc333d","640785cd275d18f9bcdc3327","null","","null","","","","","","","","","","","","","","","","","","","fixation","",""
"","","","","","many-guess-6","146","508180","0.0-10.0-1.63-0.63","565c6791c121fe0012fc3caf","640759fa512f630a2bdc333d","640785cd275d18f9bcdc3327","[2625.6999999284744]","","","[20,10,16,22,6,2,12,7,9,23,17,11,32,29,5,28,14,31,33,30,35,34,18,3,0,13,25,1,19,4,24,27,21,26,15,8]","[356,196,137,37,127,266,336,246,177,326,316,97,226,276,7,167,206,77,147,117,87,216,57,236,296,47,346,256,107,67,187,286,306,157,27,17]","356","13","141.56615800207797","[141.56615800207797]","[128.56615800207797]","[127]","[210,300,30,300,210,210,30,120,210]","0","36","0","152.05400002386887","33.501999952306505","16","[[[""img/mask41.png""],[""img/mask72.png""],[""img/mask50.png""],[""img/mask41.png""],[""img/mask24.png""],[""img/mask95.png""],[""img/mask59.png""],[""img/mask83.png""],[""img/mask63.png""],[""img/mask61.png""],[""img/mask9.png""],[""img/mask11.png""],[""img/mask46.png""],[""img/mask43.png""],[""img/mask55.png""],[""img/mask83.png""],[""img/mask39.png""],[""img/mask52.png""],[""img/mask65.png""],[""img/mask58.png""],[""img/mask24.png""],[""img/mask21.png""],[""img/mask85.png""],[""img/mask2.png""],[""img/mask98.png""],[""img/mask36.png""],[""img/mask12.png""],[""img/mask86.png""],[""img/mask24.png""],[""img/mask94.png""],[""img/mask70.png""],[""img/mask91.png""],[""img/mask95.png""],[""img/mask63.png""],[""img/mask57.png""],[""img/mask99.png""]]]","","[20,10,16,22,6,2,12,7,9,23,17,11,32,29,5,28,14,31,33,30,35,34,18,3,0,13,25,1,19,4,24,27,21,26,15,8]","main","13","many-guess-6"
"","","","","","html-keyboard-response","147","508682","0.0-10.0-0.64","565c6791c121fe0012fc3caf","640759fa512f630a2bdc333d","640785cd275d18f9bcdc3327","null","","null","","","","","","","","","","","","","","","","","","","fixation","",""
"","","","","","color-precision2","148","512564","0.0-10.0-1.64-0.64","565c6791c121fe0012fc3caf","640759fa512f630a2bdc333d","640785cd275d18f9bcdc3327","[1376.7000000476837]","","","[0]","[275]","275","44","330.2627914252803","[330.2627914252803]","[286.2627914252803]","[286]","0","0","1","0","148.63500002381625","995.9160000000265","1000","[[[""img/mask10.png""]]]","","","main","44","color-precision2"
"","","","","","html-keyboard-response","149","513066","0.0-10.0-0.65","565c6791c121fe0012fc3caf","640759fa512f630a2bdc333d","640785cd275d18f9bcdc3327","null","","null","","","","","","","","","","","","","","","","","","","fixation","",""
"","","","","","color-precision2","150","517170","0.0-10.0-1.65-0.65","565c6791c121fe0012fc3caf","640759fa512f630a2bdc333d","640785cd275d18f9bcdc3327","[1399.6999999284744]","","","[18]","[281]","281","275","199.90608107562866","[199.90608107562866]","[284.90608107562866]","[284]","0","0","1","0","148.3680000238237","995.408999952313","1000","[[[""img/mask97.png""]]]","","","main","275","color-precision2"
"","","","","","html-keyboard-response","151","517672","0.0-10.0-0.66","565c6791c121fe0012fc3caf","640759fa512f630a2bdc333d","640785cd275d18f9bcdc3327","null","","null","","","","","","","","","","","","","","","","","","","fixation","",""
"","","","","","many-guess-6","152","521562","0.0-10.0-1.66-0.66","565c6791c121fe0012fc3caf","640759fa512f630a2bdc333d","640785cd275d18f9bcdc3327","[2459.0999999046326]","","","[16,3,5,24,22,35,7,20,8,26,21,34,11,28,18,31,2,23,4,13,14,27,25,19,12,10,29,17,33,1,32,0,6,15,9,30]","[278,38,9,78,248,178,338,138,328,68,238,19,198,98,108,88,48,58,288,258,318,158,218,228,208,358,348,268,298,168,29,308,188,118,128,148]","278","140","189.86242891423754","[189.86242891423754]","[49.86242891423754]","[50]","[300,300,210,300,30,300,300,120,120]","0","36","0","149.4459999523242","13.061000023852102","16","[[[""img/mask10.png""],[""img/mask90.png""],[""img/mask18.png""],[""img/mask32.png""],[""img/mask6.png""],[""img/mask2.png""],[""img/mask93.png""],[""img/mask89.png""],[""img/mask55.png""],[""img/mask99.png""],[""img/mask74.png""],[""img/mask43.png""],[""img/mask38.png""],[""img/mask20.png""],[""img/mask93.png""],[""img/mask57.png""],[""img/mask30.png""],[""img/mask20.png""],[""img/mask6.png""],[""img/mask13.png""],[""img/mask15.png""],[""img/mask88.png""],[""img/mask42.png""],[""img/mask100.png""],[""img/mask50.png""],[""img/mask12.png""],[""img/mask37.png""],[""img/mask43.png""],[""img/mask35.png""],[""img/mask52.png""],[""img/mask11.png""],[""img/mask28.png""],[""img/mask24.png""],[""img/mask31.png""],[""img/mask16.png""],[""img/mask47.png""]]]","","[16,3,5,24,22,35,7,20,8,26,21,34,11,28,18,31,2,23,4,13,14,27,25,19,12,10,29,17,33,1,32,0,6,15,9,30]","main","140","many-guess-6"
"","","","","","html-keyboard-response","153","522064","0.0-10.0-0.67","565c6791c121fe0012fc3caf","640759fa512f630a2bdc333d","640785cd275d18f9bcdc3327","null","","null","","","","","","","","","","","","","","","","","","","fixation","",""
"","","","","","color-precision2","154","526518","0.0-10.0-1.67-0.67","565c6791c121fe0012fc3caf","640759fa512f630a2bdc333d","640785cd275d18f9bcdc3327","[1698.8999999761581]","","","[33]","[222]","222","242","117.97362325943784","[117.97362325943784]","[235.97362325943783]","[235]","0","0","1","0","148.15399999998044","995.9529999761144","1000","[[[""img/mask17.png""]]]","","","main","242","color-precision2"
"","","","","","html-keyboard-response","155","527020","0.0-10.0-0.68","565c6791c121fe0012fc3caf","640759fa512f630a2bdc333d","640785cd275d18f9bcdc3327","null","","null","","","","","","","","","","","","","","","","","","","fixation","",""
"","","","","","color-precision2","156","530994","0.0-10.0-1.68-0.68","565c6791c121fe0012fc3caf","640759fa512f630a2bdc333d","640785cd275d18f9bcdc3327","[1359.1000000238419]","","","[31]","[352]","352","94","101.66117616986568","[101.66117616986568]","[7.6611761698656835]","[6]","0","0","1","0","149.0689999522874","995.4249999523163","1000","[[[""img/mask100.png""]]]","","","main","94","color-precision2"
"","","","","","html-keyboard-response","157","531496","0.0-10.0-0.69","565c6791c121fe0012fc3caf","640759fa512f630a2bdc333d","640785cd275d18f9bcdc3327","null","","null","","","","","","","","","","","","","","","","","","","fixation","",""
"","","","","","many-guess-6","158","535806","0.0-10.0-1.69-0.69","565c6791c121fe0012fc3caf","640759fa512f630a2bdc333d","640785cd275d18f9bcdc3327","[2488.100000023842]","","","[11,4,22,24,27,19,6,18,35,28,17,31,9,32,30,23,20,0,26,2,8,25,14,5,1,12,16,13,21,3,29,7,15,10,34,33]","[131,191,151,32,261,92,221,301,291,2,311,181,281,82,331,341,211,351,251,62,321,42,201,22,241,161,141,231,12,171,52,121,271,112,72,102]","131","352","123.725486425004","[123.725486425004]","[131.725486425004]","[131]","[300,30,120,30,120,30,120,210,300]","0","36","0","148.9219999522902","13.109000047668815","16","[[[""img/mask93.png""],[""img/mask86.png""],[""img/mask100.png""],[""img/mask2.png""],[""img/mask69.png""],[""img/mask42.png""],[""img/mask42.png""],[""img/mask34.png""],[""img/mask70.png""],[""img/mask17.png""],[""img/mask23.png""],[""img/mask8.png""],[""img/mask55.png""],[""img/mask3.png""],[""img/mask23.png""],[""img/mask97.png""],[""img/mask47.png""],[""img/mask15.png""],[""img/mask98.png""],[""img/mask92.png""],[""img/mask39.png""],[""img/mask45.png""],[""img/mask15.png""],[""img/mask73.png""],[""img/mask63.png""],[""img/mask50.png""],[""img/mask20.png""],[""img/mask51.png""],[""img/mask39.png""],[""img/mask24.png""],[""img/mask54.png""],[""img/mask41.png""],[""img/mask76.png""],[""img/mask21.png""],[""img/mask11.png""],[""img/mask2.png""]]]","","[11,4,22,24,27,19,6,18,35,28,17,31,9,32,30,23,20,0,26,2,8,25,14,5,1,12,16,13,21,3,29,7,15,10,34,33]","main","352","many-guess-6"
"","","","","","html-keyboard-response","159","536307","0.0-10.0-0.70","565c6791c121fe0012fc3caf","640759fa512f630a2bdc333d","640785cd275d18f9bcdc3327","null","","null","","","","","","","","","","","","","","","","","","","fixation","",""
"","","","","","many-guess-6","160","540688","0.0-10.0-1.70-0.70","565c6791c121fe0012fc3caf","640759fa512f630a2bdc333d","640785cd275d18f9bcdc3327","[2704.100000023842]","","","[8,6,9,23,7,1,26,14,4,24,0,28,27,30,18,12,17,33,20,16,32,13,22,2,21,5,34,19,11,29,25,10,31,15,35,3]","[210,81,220,71,230,51,41,100,21,160,190,110,350,61,150,200,270,140,290,300,330,130,180,91,280,310,170,320,1,31,340,11,120,260,240,250]","210","300","283.13755984718847","[283.13755984718847]","[343.13755984718847]","[343]","[210,120,120,30,30,30,300,300,210]","0","36","0","148.9699999523582","12.986000000033528","16","[[[""img/mask99.png""],[""img/mask97.png""],[""img/mask98.png""],[""img/mask3.png""],[""img/mask18.png""],[""img/mask49.png""],[""img/mask15.png""],[""img/mask31.png""],[""img/mask81.png""],[""img/mask16.png""],[""img/mask29.png""],[""img/mask32.png""],[""img/mask76.png""],[""img/mask31.png""],[""img/mask95.png""],[""img/mask36.png""],[""img/mask99.png""],[""img/mask21.png""],[""img/mask9.png""],[""img/mask38.png""],[""img/mask31.png""],[""img/mask74.png""],[""img/mask61.png""],[""img/mask98.png""],[""img/mask39.png""],[""img/mask61.png""],[""img/mask31.png""],[""img/mask78.png""],[""img/mask96.png""],[""img/mask73.png""],[""img/mask54.png""],[""img/mask21.png""],[""img/mask22.png""],[""img/mask23.png""],[""img/mask56.png""],[""img/mask3.png""]]]","","[8,6,9,23,7,1,26,14,4,24,0,28,27,30,18,12,17,33,20,16,32,13,22,2,21,5,34,19,11,29,25,10,31,15,35,3]","main","300","many-guess-6"
"","","","","","html-keyboard-response","161","541191","0.0-10.0-0.71","565c6791c121fe0012fc3caf","640759fa512f630a2bdc333d","640785cd275d18f9bcdc3327","null","","null","","","","","","","","","","","","","","","","","","","fixation","",""
"","","","","","many-guess-6","162","546821","0.0-10.0-1.71-0.71","565c6791c121fe0012fc3caf","640759fa512f630a2bdc333d","640785cd275d18f9bcdc3327","[2370.100000023842]","","","[23,28,34,4,30,10,32,14,8,12,35,20,16,5,25,24,18,33,19,21,17,22,1,6,15,2,3,9,29,13,26,0,31,11,7,27]","[36,185,115,135,305,355,195,56,245,345,335,255,295,16,155,105,285,26,325,6,165,66,125,145,225,76,275,175,215,315,96,46,86,205,235,265]","36","172","19.414963838240393","[19.414963838240393]","[207.4149638382404]","[206]","[300,30,120,120,300,210,30,120,120]","0","36","0","148.84199995233212","12.54000004765112","16","[[[""img/mask5.png""],[""img/mask11.png""],[""img/mask7.png""],[""img/mask2.png""],[""img/mask3.png""],[""img/mask10.png""],[""img/mask97.png""],[""img/mask26.png""],[""img/mask16.png""],[""img/mask49.png""],[""img/mask91.png""],[""img/mask19.png""],[""img/mask43.png""],[""img/mask48.png""],[""img/mask89.png""],[""img/mask55.png""],[""img/mask94.png""],[""img/mask45.png""],[""img/mask61.png""],[""img/mask98.png""],[""img/mask50.png""],[""img/mask84.png""],[""img/mask88.png""],[""img/mask9.png""],[""img/mask93.png""],[""img/mask92.png""],[""img/mask58.png""],[""img/mask3.png""],[""img/mask60.png""],[""img/mask62.png""],[""img/mask3.png""],[""img/mask88.png""],[""img/mask49.png""],[""img/mask19.png""],[""img/mask26.png""],[""img/mask57.png""]]]","","[23,28,34,4,30,10,32,14,8,12,35,20,16,5,25,24,18,33,19,21,17,22,1,6,15,2,3,9,29,13,26,0,31,11,7,27]","main","172","many-guess-6"
"","","","","","html-keyboard-response","163","547322","0.0-10.0-0.72","565c6791c121fe0012fc3caf","640759fa512f630a2bdc333d","640785cd275d18f9bcdc3327","null","","null","","","","","","","","","","","","","","","","","","","fixation","",""
"","","","","","many-guess-6","164","551484","0.0-10.0-1.72-0.72","565c6791c121fe0012fc3caf","640759fa512f630a2bdc333d","640785cd275d18f9bcdc3327","[2634.7999999523163]","","","[28,24,22,3,13,16,18,15,8,4,26,1,9,0,23,27,34,19,35,7,5,17,33,10,21,12,31,14,30,25,29,11,20,2,32,6]","[167,316,286,47,97,87,197,117,276,127,157,7,326,177,257,217,37,266,77,147,306,57,227,296,247,27,67,137,207,237,356,187,17,107,336,346]","167","116","125.35093665331412","[125.35093665331412]","[9.350936653314122]","[7]","[30,30,120,120,210,300,30,120,210]","0","36","0","149.00300000002608","13.686999976169318","16","[[[""img/mask33.png""],[""img/mask92.png""],[""img/mask63.png""],[""img/mask52.png""],[""img/mask6.png""],[""img/mask79.png""],[""img/mask99.png""],[""img/mask99.png""],[""img/mask86.png""],[""img/mask86.png""],[""img/mask65.png""],[""img/mask23.png""],[""img/mask64.png""],[""img/mask14.png""],[""img/mask5.png""],[""img/mask22.png""],[""img/mask84.png""],[""img/mask84.png""],[""img/mask61.png""],[""img/mask89.png""],[""img/mask3.png""],[""img/mask47.png""],[""img/mask24.png""],[""img/mask81.png""],[""img/mask100.png""],[""img/mask36.png""],[""img/mask8.png""],[""img/mask47.png""],[""img/mask67.png""],[""img/mask23.png""],[""img/mask6.png""],[""img/mask49.png""],[""img/mask29.png""],[""img/mask68.png""],[""img/mask18.png""],[""img/mask30.png""]]]","","[28,24,22,3,13,16,18,15,8,4,26,1,9,0,23,27,34,19,35,7,5,17,33,10,21,12,31,14,30,25,29,11,20,2,32,6]","main","116","many-guess-6"
"","","","","","html-keyboard-response","165","551986","0.0-10.0-0.73","565c6791c121fe0012fc3caf","640759fa512f630a2bdc333d","640785cd275d18f9bcdc3327","null","","null","","","","","","","","","","","","","","","","","","","fixation","",""
"","","","","","color-precision2","166","556241","0.0-10.0-1.73-0.73","565c6791c121fe0012fc3caf","640759fa512f630a2bdc333d","640785cd275d18f9bcdc3327","[1241.5999999046326]","","","[0]","[21]","21","11","17.098175631926235","[17.098175631926235]","[6.098175631926235]","[5]","0","0","1","0","149.11499997612555","994.0649999999441","1000","[[[""img/mask73.png""]]]","","","main","11","color-precision2"
"","","","","","html-keyboard-response","167","556741","0.0-10.0-0.74","565c6791c121fe0012fc3caf","640759fa512f630a2bdc333d","640785cd275d18f9bcdc3327","null","","null","","","","","","","","","","","","","","","","","","","fixation","",""
"","","","","","color-precision2","168","560322","0.0-10.0-1.74-0.74","565c6791c121fe0012fc3caf","640759fa512f630a2bdc333d","640785cd275d18f9bcdc3327","[907.2999999523163]","","","[26]","[70]","70","154","244.77399924086575","[244.77399924086575]","[90.77399924086575]","[91]","0","0","1","0","148.2760000238195","996.189000000013","1000","[[[""img/mask70.png""]]]","","","main","154","color-precision2"
"","","","","","html-keyboard-response","169","560823","0.0-10.0-0.75","565c6791c121fe0012fc3caf","640759fa512f630a2bdc333d","640785cd275d18f9bcdc3327","null","","null","","","","","","","","","","","","","","","","","","","fixation","",""
"","","","","","color-precision2","170","564956","0.0-10.0-1.75-0.75","565c6791c121fe0012fc3caf","640759fa512f630a2bdc333d","640785cd275d18f9bcdc3327","[1591.8000000715256]","","","[14]","[336]","336","314","280.8238958830444","[280.8238958830444]","[326.8238958830444]","[327]","0","0","1","0","149.0530000476865","997.4120000477415","1000","[[[""img/mask83.png""]]]","","","main","314","color-precision2"
"","","","","","html-keyboard-response","171","565458","0.0-10.0-0.76","565c6791c121fe0012fc3caf","640759fa512f630a2bdc333d","640785cd275d18f9bcdc3327","null","","null","","","","","","","","","","","","","","","","","","","fixation","",""
"","","","","","many-guess-6","172","568543","0.0-10.0-1.76-0.76","565c6791c121fe0012fc3caf","640759fa512f630a2bdc333d","640785cd275d18f9bcdc3327","[1678.2999999523163]","","","[16,24,4,27,22,31,32,2,14,18,8,19,10,13,21,33,17,28,0,25,20,35,29,7,11,34,26,5,1,30,9,12,6,3,23,15]","[149,278,169,288,189,19,129,258,199,209,348,219,308,99,139,69,268,49,239,338,89,79,229,248,109,298,29,159,179,119,59,328,39,358,318,9]","149","350","178.07546559306687","[178.07546559306687]","[188.07546559306687]","[187]","[120,300,300,30,300,300,120,210,210]","0","36","0","148.86699999996927","13.204000000027008","16","[[[""img/mask27.png""],[""img/mask25.png""],[""img/mask1.png""],[""img/mask39.png""],[""img/mask85.png""],[""img/mask40.png""],[""img/mask38.png""],[""img/mask10.png""],[""img/mask18.png""],[""img/mask83.png""],[""img/mask43.png""],[""img/mask68.png""],[""img/mask6.png""],[""img/mask77.png""],[""img/mask38.png""],[""img/mask52.png""],[""img/mask87.png""],[""img/mask9.png""],[""img/mask46.png""],[""img/mask97.png""],[""img/mask63.png""],[""img/mask12.png""],[""img/mask97.png""],[""img/mask2.png""],[""img/mask16.png""],[""img/mask49.png""],[""img/mask31.png""],[""img/mask39.png""],[""img/mask10.png""],[""img/mask63.png""],[""img/mask58.png""],[""img/mask42.png""],[""img/mask32.png""],[""img/mask8.png""],[""img/mask96.png""],[""img/mask69.png""]]]","","[16,24,4,27,22,31,32,2,14,18,8,19,10,13,21,33,17,28,0,25,20,35,29,7,11,34,26,5,1,30,9,12,6,3,23,15]","main","350","many-guess-6"
"","","","","","html-keyboard-response","173","569044","0.0-10.0-0.77","565c6791c121fe0012fc3caf","640759fa512f630a2bdc333d","640785cd275d18f9bcdc3327","null","","null","","","","","","","","","","","","","","","","","","","fixation","",""
