"success","timeout","failed_images","failed_audio","failed_video","trial_type","trial_index","time_elapsed","internal_node_id","subject_id","study_id","session_id","rt","stimulus","response","position_of_items","colors_of_items","color_of_target","wheel_spin","response_angle","physical_response_angle","reported_color_angle","reported_color_discrete","locs","which_test","set_size","wheel_num_options","actual_mask_duration","actual_stim_duration","CMDispTime","maskArray","maskRotation","item_positions","task","randomSpinAmount","mainTask"
"true","false","[]","[]","[]","preload","0","1008","0.0-0.0","56de362a6893b5000dea58f5","640759fa512f630a2bdc333d","640785c9903930be7597e7bf","","","","","","","","","","","","","","","","","","","","","","","",""
"true","","","","","fullscreen","1","3515","0.0-1.0","56de362a6893b5000dea58f5","640759fa512f630a2bdc333d","640785c9903930be7597e7bf","","","","","","","","","","","","","","","","","","","","","","","",""
"","","","","","html-keyboard-response","2","10136","0.0-2.0","56de362a6893b5000dea58f5","640759fa512f630a2bdc333d","640785c9903930be7597e7bf","6619.300000011921","What a beautiful Tuesday to do some awesome science! </p> <p>  </p><p> </p>
    By completing this survey or questionnaire, you are consenting to be in this research study. </p>
    Your participation is voluntary and you can stop at any time.<p> [Press any key to continue] </p>"," ","","","","","","","","","","","","","","","","","","","","",""
"","","","","","html-keyboard-response","3","20139","0.0-3.0","56de362a6893b5000dea58f5","640759fa512f630a2bdc333d","640785c9903930be7597e7bf","5907.5","
    <div style='width: 1000px;'>
    <div style='float: center;'><img src='img/TaskInstructions1.png'></img>
    </div>
    "," ","","","","","","","","","","","","","","","","","","","","",""
"","","","","","html-keyboard-response","4","23947","0.0-4.0","56de362a6893b5000dea58f5","640759fa512f630a2bdc333d","640785c9903930be7597e7bf","3806.800000011921","
    <div style='width: 1000px;'>
    <div style='float: center;'><img src='img/TaskInstructions1.png'></img>
    </div>
    "," ","","","","","","","","","","","","","","","","","","","","",""
"","","","","","html-keyboard-response","5","33955","0.0-5.0","56de362a6893b5000dea58f5","640759fa512f630a2bdc333d","640785c9903930be7597e7bf","null","
    <div style='width: 1000px;'>
    <div style='float: center;'><img src='img/TaskInstructions2.png'></img>
    </div>
    ","null","","","","","","","","","","","","","","","","","","","","",""
"","","","","","html-keyboard-response","6","44936","0.0-6.0","56de362a6893b5000dea58f5","640759fa512f630a2bdc333d","640785c9903930be7597e7bf","10981.5","
    <div style='width: 1000px;'>
    <div style='float: center;'><img src='img/TaskInstructions2.png'></img>
    </div>
    "," ","","","","","","","","","","","","","","","","","","","","",""
"","","","","","video-keyboard-response","7","59000","0.0-7.0","56de362a6893b5000dea58f5","640759fa512f630a2bdc333d","640785c9903930be7597e7bf","14061.5","[""video/TaskInstructions3.mp4""]"," ","","","","","","","","","","","","","","","","","","","","",""
"","","","","","image-keyboard-response","8","65302","0.0-8.0-0.0","56de362a6893b5000dea58f5","640759fa512f630a2bdc333d","640785c9903930be7597e7bf","6301.099999964237","img/training1.png"," ","","","","","","","","","","","","","","","","","","","","",""
"","","","","","color-precision2","9","79044","0.0-8.0-1.0-0.0","56de362a6893b5000dea58f5","640759fa512f630a2bdc333d","640785c9903930be7597e7bf","[2492.699999988079]","","","[4]","[175]","175","35","223.59838626524865","[223.59838626524865]","[188.59838626524865]","[189]","0","0","1","0","498.15899999999965","998.7630000000063","1000","","","0","training","",""
"","","","","","image-keyboard-response","10","90790","0.0-8.0-0.1","56de362a6893b5000dea58f5","640759fa512f630a2bdc333d","640785c9903930be7597e7bf","11745.100000023842","img/training2.png"," ","","","","","","","","","","","","","","","","","","","","",""
"","","","","","many-guess-6","11","98976","0.0-8.0-1.1-0.1","56de362a6893b5000dea58f5","640759fa512f630a2bdc333d","640785c9903930be7597e7bf","[2553.800000011921]","","","[17,32,9]","[267,89,332]","267","87","74.26867971738932","[74.26867971738932]","[347.2686797173893]","[345]","[210,210,210,30,120,120,30,210,120,120,210,210,300,210,210,30,30,120,300,300,120,210,30,120,30,120,30,300,30,120,300,300,30,300,300,30]","0","3","0","997.5240000000049","995.1150000357593","1000","[[[""img/mask52.png""],[""img/mask24.png""],[""img/mask80.png""]]]","","[17,32,9]","training","",""
"","","","","","image-keyboard-response","12","106326","0.0-8.0-0.2","56de362a6893b5000dea58f5","640759fa512f630a2bdc333d","640785c9903930be7597e7bf","7348.800000011921","img/training3.png"," ","","","","","","","","","","","","","","","","","","","","",""
"","","","","","[""many-guess-6""]","13","113024","0.0-8.0-1.2-0.2","56de362a6893b5000dea58f5","640759fa512f630a2bdc333d","640785c9903930be7597e7bf","[2787.7000000476837]","","","[1,22,25,28,31]","[128,296,250,171,182]","128","294","96.77943135783308","[96.77943135783308]","[162.77943135783306]","[161]","[120,210,210,30,210,210,210,30,120,210,300,120,120,120,300,300,300,300,300,120,30,210,300,120,210,210,210,30,300,210,300,30,300,30,210,300]","0","5","0","497.7830000119138","492.74400000000605","500","[[[""img/mask39.png""],[""img/mask97.png""],[""img/mask26.png""],[""img/mask93.png""],[""img/mask90.png""]]]","","[1,22,25,28,31]","training","",""
"","","","","","image-keyboard-response","14","119061","0.0-8.0-0.3","56de362a6893b5000dea58f5","640759fa512f630a2bdc333d","640785c9903930be7597e7bf","6036.099999964237","img/training4.png"," ","","","","","","","","","","","","","","","","","","","","",""
"","","","","","[""many-guess-6""]","15","126058","0.0-8.0-1.3-0.3","56de362a6893b5000dea58f5","640759fa512f630a2bdc333d","640785c9903930be7597e7bf","[3552.400000035763]","","","[0,11,32,21,2,4,31,9,17,8]","[277,311,163,266,290,191,218,3,335,241]","277","354","259.12585849122803","[259.12585849122803]","[265.12585849122803]","[266]","[300,210,30,210,300,30,120,120,300,30,210,30,300,210,210,120,120,30,300,30,210,300,30,300,210,120,120,300,300,300,300,300,210,210,210,120]","0","10","0","131.89200001192512","138.77099998807535","132","[[[""img/mask87.png""],[""img/mask64.png""],[""img/mask42.png""],[""img/mask48.png""],[""img/mask91.png""],[""img/mask72.png""],[""img/mask31.png""],[""img/mask16.png""],[""img/mask85.png""],[""img/mask56.png""]]]","","[0,11,32,21,2,4,31,9,17,8]","training","",""
"","","","","","image-keyboard-response","16","132220","0.0-8.0-0.4","56de362a6893b5000dea58f5","640759fa512f630a2bdc333d","640785c9903930be7597e7bf","6161.199999988079","img/training5.png"," ","","","","","","","","","","","","","","","","","","","","",""
"","","","","","[""many-guess-6""]","17","137892","0.0-8.0-1.4-0.4","56de362a6893b5000dea58f5","640759fa512f630a2bdc333d","640785c9903930be7597e7bf","[2536.399999976158]","","","[21,12,33,20,34,2,19,17,24,31,25,23,5,29,0,13,11,18,16,8,26,15,9,30,14,10,6,27,3,7,35,32,4,28,22,1]","[234,214,74,334,45,15,354,134,84,224,194,344,144,154,184,284,274,64,114,174,204,25,264,5,254,294,55,104,244,164,35,314,124,304,324,94]","234","226","185.0566965877395","[185.0566965877395]","[319.0566965877395]","[318]","[210,210,210,210,300,300,30,210,300,300,30,210,30,30,120,30,120,120,300,210,210,300,300,300,30,300,30,120,120,120,210,300,300,210,120,300]","0","36","0","131.47100001192302","19.14999999999418","16","[[[""img/mask21.png""],[""img/mask38.png""],[""img/mask80.png""],[""img/mask61.png""],[""img/mask22.png""],[""img/mask33.png""],[""img/mask63.png""],[""img/mask38.png""],[""img/mask10.png""],[""img/mask43.png""],[""img/mask66.png""],[""img/mask31.png""],[""img/mask97.png""],[""img/mask100.png""],[""img/mask47.png""],[""img/mask74.png""],[""img/mask62.png""],[""img/mask83.png""],[""img/mask60.png""],[""img/mask5.png""],[""img/mask61.png""],[""img/mask96.png""],[""img/mask15.png""],[""img/mask16.png""],[""img/mask85.png""],[""img/mask6.png""],[""img/mask74.png""],[""img/mask21.png""],[""img/mask13.png""],[""img/mask95.png""],[""img/mask26.png""],[""img/mask58.png""],[""img/mask23.png""],[""img/mask90.png""],[""img/mask51.png""],[""img/mask55.png""]]]","","[21,12,33,20,34,2,19,17,24,31,25,23,5,29,0,13,11,18,16,8,26,15,9,30,14,10,6,27,3,7,35,32,4,28,22,1]","training","",""
"","","","","","image-keyboard-response","18","144627","0.0-9.0","56de362a6893b5000dea58f5","640759fa512f630a2bdc333d","640785c9903930be7597e7bf","6734.700000047684","[""img/endTraining.png""]"," ","","","","","","","","","","","","","","","","","","","","",""
"","","","","","html-keyboard-response","19","145136","0.0-10.0-0.0","56de362a6893b5000dea58f5","640759fa512f630a2bdc333d","640785c9903930be7597e7bf","null","","null","","","","","","","","","","","","","","","","","","","fixation","",""
"","","","","","color-precision2","20","149626","0.0-10.0-1.0-0.0","56de362a6893b5000dea58f5","640759fa512f630a2bdc333d","640785c9903930be7597e7bf","[1176.6000000238419]","","","[17]","[173]","173","226","34.13761400209392","[34.13761400209392]","[168.13761400209393]","[167]","0","0","1","0","147.94400001192116","999.8540000357607","1000","[[[""img/mask62.png""]]]","","","main","226","color-precision2"
"","","","","","html-keyboard-response","21","150130","0.0-10.0-0.1","56de362a6893b5000dea58f5","640759fa512f630a2bdc333d","640785c9903930be7597e7bf","null","","null","","","","","","","","","","","","","","","","","","","fixation","",""
"","","","","","color-precision2","22","154318","0.0-10.0-1.1-0.1","56de362a6893b5000dea58f5","640759fa512f630a2bdc333d","640785c9903930be7597e7bf","[643.3000000119209]","","","[22]","[314]","314","136","94.63319655798611","[94.63319655798611]","[318.63319655798614]","[317]","0","0","1","0","148.40999998807092","994.1200000238314","1000","[[[""img/mask88.png""]]]","","","main","136","color-precision2"
"","","","","","html-keyboard-response","23","154821","0.0-10.0-0.2","56de362a6893b5000dea58f5","640759fa512f630a2bdc333d","640785c9903930be7597e7bf","null","","null","","","","","","","","","","","","","","","","","","","fixation","",""
"","","","","","color-precision2","24","158552","0.0-10.0-1.2-0.2","56de362a6893b5000dea58f5","640759fa512f630a2bdc333d","640785c9903930be7597e7bf","[443.7999999523163]","","","[8]","[354]","354","156","148.22328554381278","[148.22328554381278]","[352.2232855438128]","[351]","0","0","1","0","148.78700003575068","995.0970000357484","1000","[[[""img/mask4.png""]]]","","","main","156","color-precision2"
"","","","","","html-keyboard-response","25","159063","0.0-10.0-0.3","56de362a6893b5000dea58f5","640759fa512f630a2bdc333d","640785c9903930be7597e7bf","null","","null","","","","","","","","","","","","","","","","","","","fixation","",""
"","","","","","color-precision2","26","162756","0.0-10.0-1.3-0.3","56de362a6893b5000dea58f5","640759fa512f630a2bdc333d","640785c9903930be7597e7bf","[914.1000000238419]","","","[15]","[89]","89","71","165.3318961672693","[165.3318961672693]","[94.33189616726929]","[93]","0","0","1","0","147.64300003575045","993.3530000119354","1000","[[[""img/mask73.png""]]]","","","main","71","color-precision2"
"","","","","","html-keyboard-response","27","163258","0.0-10.0-0.4","56de362a6893b5000dea58f5","640759fa512f630a2bdc333d","640785c9903930be7597e7bf","null","","null","","","","","","","","","","","","","","","","","","","fixation","",""
"","","","","","color-precision2","28","166423","0.0-10.0-1.4-0.4","56de362a6893b5000dea58f5","640759fa512f630a2bdc333d","640785c9903930be7597e7bf","[463.2999999523163]","","","[8]","[276]","276","274","196.758419638302","[196.758419638302]","[282.75841963830203]","[282]","0","0","1","0","148.60200001191697","998.096000011923","1000","[[[""img/mask12.png""]]]","","","main","274","color-precision2"
"","","","","","html-keyboard-response","29","166930","0.0-10.0-0.5","56de362a6893b5000dea58f5","640759fa512f630a2bdc333d","640785c9903930be7597e7bf","null","","null","","","","","","","","","","","","","","","","","","","fixation","",""
"","","","","","color-precision2","30","170779","0.0-10.0-1.5-0.5","56de362a6893b5000dea58f5","640759fa512f630a2bdc333d","640785c9903930be7597e7bf","[1050.1000000238419]","","","[30]","[207]","207","50","256.0112698493623","[256.0112698493623]","[206.0112698493623]","[207]","0","0","1","0","147.39600003577652","997.8060000000114","1000","[[[""img/mask68.png""]]]","","","main","50","color-precision2"
"","","","","","html-keyboard-response","31","171285","0.0-10.0-0.6","56de362a6893b5000dea58f5","640759fa512f630a2bdc333d","640785c9903930be7597e7bf","null","","null","","","","","","","","","","","","","","","","","","","fixation","",""
"","","","","","many-guess-6","32","176147","0.0-10.0-1.6-0.6","56de362a6893b5000dea58f5","640759fa512f630a2bdc333d","640785c9903930be7597e7bf","[2919.699999988079]","","","[35,19,17,8,31,18,6,1,24,20,25,34,0,22,32,4,12,23,14,33,16,28,21,13,2,11,29,10,5,30,27,15,26,9,7,3]","[192,232,62,32,42,82,182,212,132,162,2,321,331,172,22,351,271,102,72,301,281,252,202,92,311,222,122,12,142,262,52,341,242,112,291,152]","192","330","43.205450325797244","[43.205450325797244]","[73.20545032579724]","[72]","[120,30,30,120,120,210,120,210,210]","0","36","0","148.6859999880835","23.796000000002095","16","[[[""img/mask28.png""],[""img/mask15.png""],[""img/mask30.png""],[""img/mask58.png""],[""img/mask41.png""],[""img/mask96.png""],[""img/mask72.png""],[""img/mask13.png""],[""img/mask77.png""],[""img/mask25.png""],[""img/mask86.png""],[""img/mask31.png""],[""img/mask6.png""],[""img/mask57.png""],[""img/mask12.png""],[""img/mask60.png""],[""img/mask52.png""],[""img/mask75.png""],[""img/mask57.png""],[""img/mask44.png""],[""img/mask51.png""],[""img/mask92.png""],[""img/mask50.png""],[""img/mask68.png""],[""img/mask61.png""],[""img/mask14.png""],[""img/mask44.png""],[""img/mask86.png""],[""img/mask24.png""],[""img/mask38.png""],[""img/mask62.png""],[""img/mask95.png""],[""img/mask74.png""],[""img/mask87.png""],[""img/mask74.png""],[""img/mask46.png""]]]","","[35,19,17,8,31,18,6,1,24,20,25,34,0,22,32,4,12,23,14,33,16,28,21,13,2,11,29,10,5,30,27,15,26,9,7,3]","main","330","many-guess-6"
"","","","","","html-keyboard-response","33","176653","0.0-10.0-0.7","56de362a6893b5000dea58f5","640759fa512f630a2bdc333d","640785c9903930be7597e7bf","null","","null","","","","","","","","","","","","","","","","","","","fixation","",""
"","","","","","many-guess-6","34","180445","0.0-10.0-1.7-0.7","56de362a6893b5000dea58f5","640759fa512f630a2bdc333d","640785c9903930be7597e7bf","[1816.8999999761581]","","","[10,5,11,14,7,24,22,15,30,21,8,3,32,2,28,12,31,9,17,13,1,33,6,18,29,19,23,26,4,16,0,35,20,34,27,25]","[185,175,95,334,344,284,145,324,265,25,35,155,15,45,5,125,195,304,215,245,314,225,105,75,274,115,255,294,205,235,135,65,55,85,354,165]","185","3","214.70984235751953","[214.70984235751953]","[211.70984235751953]","[211]","[120,300,120,30,120,120,120,30,210]","0","36","0","148.3070000357693","19.81700002384605","16","[[[""img/mask40.png""],[""img/mask54.png""],[""img/mask29.png""],[""img/mask63.png""],[""img/mask38.png""],[""img/mask88.png""],[""img/mask6.png""],[""img/mask68.png""],[""img/mask51.png""],[""img/mask59.png""],[""img/mask63.png""],[""img/mask25.png""],[""img/mask86.png""],[""img/mask64.png""],[""img/mask80.png""],[""img/mask59.png""],[""img/mask57.png""],[""img/mask44.png""],[""img/mask87.png""],[""img/mask29.png""],[""img/mask74.png""],[""img/mask18.png""],[""img/mask2.png""],[""img/mask85.png""],[""img/mask53.png""],[""img/mask15.png""],[""img/mask90.png""],[""img/mask88.png""],[""img/mask7.png""],[""img/mask33.png""],[""img/mask51.png""],[""img/mask45.png""],[""img/mask16.png""],[""img/mask45.png""],[""img/mask8.png""],[""img/mask52.png""]]]","","[10,5,11,14,7,24,22,15,30,21,8,3,32,2,28,12,31,9,17,13,1,33,6,18,29,19,23,26,4,16,0,35,20,34,27,25]","main","3","many-guess-6"
"","","","","","html-keyboard-response","35","180951","0.0-10.0-0.8","56de362a6893b5000dea58f5","640759fa512f630a2bdc333d","640785c9903930be7597e7bf","null","","null","","","","","","","","","","","","","","","","","","","fixation","",""
"","","","","","many-guess-6","36","185059","0.0-10.0-1.8-0.8","56de362a6893b5000dea58f5","640759fa512f630a2bdc333d","640785c9903930be7597e7bf","[2314.400000035763]","","","[33,34,4,16,26,23,13,11,24,10,8,17,35,28,14,6,2,12,15,21,25,3,30,0,22,18,31,32,19,29,9,7,1,27,5,20]","[242,222,172,322,342,103,63,53,272,3,282,23,43,123,202,262,113,302,212,153,33,162,143,352,73,232,252,332,93,83,192,182,133,312,13,292]","242","45","334.32406262726704","[334.32406262726704]","[289.32406262726704]","[289]","[210,30,300,300,120,300,300,30,210]","0","36","0","147.34999998807325","15.959999999991851","16","[[[""img/mask32.png""],[""img/mask68.png""],[""img/mask56.png""],[""img/mask65.png""],[""img/mask43.png""],[""img/mask22.png""],[""img/mask43.png""],[""img/mask51.png""],[""img/mask5.png""],[""img/mask62.png""],[""img/mask29.png""],[""img/mask55.png""],[""img/mask29.png""],[""img/mask57.png""],[""img/mask34.png""],[""img/mask13.png""],[""img/mask90.png""],[""img/mask3.png""],[""img/mask82.png""],[""img/mask58.png""],[""img/mask84.png""],[""img/mask5.png""],[""img/mask53.png""],[""img/mask17.png""],[""img/mask42.png""],[""img/mask56.png""],[""img/mask52.png""],[""img/mask80.png""],[""img/mask45.png""],[""img/mask23.png""],[""img/mask89.png""],[""img/mask87.png""],[""img/mask30.png""],[""img/mask77.png""],[""img/mask55.png""],[""img/mask66.png""]]]","","[33,34,4,16,26,23,13,11,24,10,8,17,35,28,14,6,2,12,15,21,25,3,30,0,22,18,31,32,19,29,9,7,1,27,5,20]","main","45","many-guess-6"
"","","","","","html-keyboard-response","37","185561","0.0-10.0-0.9","56de362a6893b5000dea58f5","640759fa512f630a2bdc333d","640785c9903930be7597e7bf","null","","null","","","","","","","","","","","","","","","","","","","fixation","",""
"","","","","","many-guess-6","38","189599","0.0-10.0-1.9-0.9","56de362a6893b5000dea58f5","640759fa512f630a2bdc333d","640785c9903930be7597e7bf","[2336.600000023842]","","","[22,0,13,16,30,31,29,25,33,3,21,28,35,19,17,12,4,32,11,26,1,10,23,20,5,8,15,14,34,27,2,6,9,24,18,7]","[331,72,162,281,42,311,52,22,182,172,152,341,351,271,251,211,92,231,62,122,192,112,221,291,2,82,301,321,202,32,12,261,132,241,142,102]","331","268","249.63819369332617","[249.63819369332617]","[341.6381936933262]","[342]","[120,30,300,120,300,30,120,210,30]","0","36","0","147.48700001192628","15.497000000003027","16","[[[""img/mask20.png""],[""img/mask78.png""],[""img/mask26.png""],[""img/mask15.png""],[""img/mask84.png""],[""img/mask80.png""],[""img/mask96.png""],[""img/mask77.png""],[""img/mask22.png""],[""img/mask86.png""],[""img/mask57.png""],[""img/mask9.png""],[""img/mask24.png""],[""img/mask99.png""],[""img/mask3.png""],[""img/mask100.png""],[""img/mask67.png""],[""img/mask64.png""],[""img/mask97.png""],[""img/mask80.png""],[""img/mask63.png""],[""img/mask68.png""],[""img/mask55.png""],[""img/mask19.png""],[""img/mask31.png""],[""img/mask5.png""],[""img/mask38.png""],[""img/mask43.png""],[""img/mask2.png""],[""img/mask93.png""],[""img/mask2.png""],[""img/mask33.png""],[""img/mask18.png""],[""img/mask61.png""],[""img/mask44.png""],[""img/mask29.png""]]]","","[22,0,13,16,30,31,29,25,33,3,21,28,35,19,17,12,4,32,11,26,1,10,23,20,5,8,15,14,34,27,2,6,9,24,18,7]","main","268","many-guess-6"
"","","","","","html-keyboard-response","39","190100","0.0-10.0-0.10","56de362a6893b5000dea58f5","640759fa512f630a2bdc333d","640785c9903930be7597e7bf","null","","null","","","","","","","","","","","","","","","","","","","fixation","",""
"","","","","","many-guess-6","40","193934","0.0-10.0-1.10-0.10","56de362a6893b5000dea58f5","640759fa512f630a2bdc333d","640785c9903930be7597e7bf","[1936.7999999523163]","","","[24,10,25,21,2,16,6,19,4,18,35,34,17,13,14,30,12,32,11,1,31,28,23,27,0,20,29,33,8,9,26,7,3,22,5,15]","[145,175,295,355,225,16,185,96,335,315,86,6,106,76,345,305,285,66,205,195,165,116,325,215,245,135,255,56,26,126,155,36,235,275,46,265]","145","32","238.92317038261473","[238.92317038261473]","[206.92317038261473]","[207]","[120,30,210,210,30,210,120,30,210]","0","36","0","147.68299999999","21.593000023829518","16","[[[""img/mask40.png""],[""img/mask88.png""],[""img/mask85.png""],[""img/mask100.png""],[""img/mask74.png""],[""img/mask52.png""],[""img/mask7.png""],[""img/mask76.png""],[""img/mask67.png""],[""img/mask59.png""],[""img/mask21.png""],[""img/mask100.png""],[""img/mask39.png""],[""img/mask67.png""],[""img/mask30.png""],[""img/mask3.png""],[""img/mask89.png""],[""img/mask57.png""],[""img/mask39.png""],[""img/mask39.png""],[""img/mask85.png""],[""img/mask41.png""],[""img/mask51.png""],[""img/mask83.png""],[""img/mask77.png""],[""img/mask62.png""],[""img/mask51.png""],[""img/mask29.png""],[""img/mask28.png""],[""img/mask43.png""],[""img/mask30.png""],[""img/mask56.png""],[""img/mask26.png""],[""img/mask46.png""],[""img/mask28.png""],[""img/mask13.png""]]]","","[24,10,25,21,2,16,6,19,4,18,35,34,17,13,14,30,12,32,11,1,31,28,23,27,0,20,29,33,8,9,26,7,3,22,5,15]","main","32","many-guess-6"
"","","","","","html-keyboard-response","41","194434","0.0-10.0-0.11","56de362a6893b5000dea58f5","640759fa512f630a2bdc333d","640785c9903930be7597e7bf","null","","null","","","","","","","","","","","","","","","","","","","fixation","",""
"","","","","","many-guess-6","42","198605","0.0-10.0-1.11-0.11","56de362a6893b5000dea58f5","640759fa512f630a2bdc333d","640785c9903930be7597e7bf","[2558.699999988079]","","","[7,11,5,34,29,24,9,27,16,33,35,26,8,31,6,13,4,28,21,1,30,20,15,10,25,0,18,23,14,22,2,3,17,12,19,32]","[241,211,281,161,321,311,122,171,181,331,261,291,341,82,22,102,201,221,72,32,351,191,2,42,231,92,141,131,12,112,251,151,271,52,301,62]","241","228","67.31107974170067","[67.31107974170067]","[199.31107974170067]","[198]","[120,210,120,300,210,300,30,210,30]","0","36","0","147.55000001192093","16.259999988076743","16","[[[""img/mask42.png""],[""img/mask37.png""],[""img/mask95.png""],[""img/mask42.png""],[""img/mask89.png""],[""img/mask78.png""],[""img/mask34.png""],[""img/mask69.png""],[""img/mask23.png""],[""img/mask93.png""],[""img/mask55.png""],[""img/mask9.png""],[""img/mask48.png""],[""img/mask16.png""],[""img/mask89.png""],[""img/mask67.png""],[""img/mask97.png""],[""img/mask27.png""],[""img/mask62.png""],[""img/mask27.png""],[""img/mask32.png""],[""img/mask54.png""],[""img/mask19.png""],[""img/mask60.png""],[""img/mask40.png""],[""img/mask51.png""],[""img/mask65.png""],[""img/mask55.png""],[""img/mask11.png""],[""img/mask25.png""],[""img/mask80.png""],[""img/mask94.png""],[""img/mask53.png""],[""img/mask20.png""],[""img/mask100.png""],[""img/mask77.png""]]]","","[7,11,5,34,29,24,9,27,16,33,35,26,8,31,6,13,4,28,21,1,30,20,15,10,25,0,18,23,14,22,2,3,17,12,19,32]","main","228","many-guess-6"
"","","","","","html-keyboard-response","43","199108","0.0-10.0-0.12","56de362a6893b5000dea58f5","640759fa512f630a2bdc333d","640785c9903930be7597e7bf","null","","null","","","","","","","","","","","","","","","","","","","fixation","",""
"","","","","","many-guess-6","44","203802","0.0-10.0-1.12-0.12","56de362a6893b5000dea58f5","640759fa512f630a2bdc333d","640785c9903930be7597e7bf","[2870.7999999523163]","","","[19,8,31,32,12,21,2,25,26,30,3,5,33,28,13,24,7,15,27,22,17,35,16,0,34,14,23,4,29,9,1,18,11,20,6,10]","[302,63,23,3,342,332,113,162,232,272,33,322,352,292,13,282,43,93,103,202,312,172,83,212,73,182,262,192,142,152,222,252,242,53,133,123]","302","238","311.73704377515844","[311.73704377515844]","[73.73704377515844]","[74]","[300,30,120,300,210,210,300,120,120]","0","36","0","149.59599999999045","12.105999988067197","16","[[[""img/mask32.png""],[""img/mask7.png""],[""img/mask54.png""],[""img/mask60.png""],[""img/mask14.png""],[""img/mask70.png""],[""img/mask84.png""],[""img/mask33.png""],[""img/mask64.png""],[""img/mask9.png""],[""img/mask28.png""],[""img/mask75.png""],[""img/mask46.png""],[""img/mask51.png""],[""img/mask10.png""],[""img/mask94.png""],[""img/mask88.png""],[""img/mask34.png""],[""img/mask59.png""],[""img/mask6.png""],[""img/mask13.png""],[""img/mask77.png""],[""img/mask90.png""],[""img/mask28.png""],[""img/mask78.png""],[""img/mask15.png""],[""img/mask75.png""],[""img/mask19.png""],[""img/mask82.png""],[""img/mask94.png""],[""img/mask4.png""],[""img/mask58.png""],[""img/mask38.png""],[""img/mask36.png""],[""img/mask89.png""],[""img/mask92.png""]]]","","[19,8,31,32,12,21,2,25,26,30,3,5,33,28,13,24,7,15,27,22,17,35,16,0,34,14,23,4,29,9,1,18,11,20,6,10]","main","238","many-guess-6"
"","","","","","html-keyboard-response","45","204308","0.0-10.0-0.13","56de362a6893b5000dea58f5","640759fa512f630a2bdc333d","640785c9903930be7597e7bf","null","","null","","","","","","","","","","","","","","","","","","","fixation","",""
"","","","","","color-precision2","46","208176","0.0-10.0-1.13-0.13","56de362a6893b5000dea58f5","640759fa512f630a2bdc333d","640785c9903930be7597e7bf","[1128.5]","","","[5]","[175]","175","200","26.511078138839213","[26.511078138839213]","[186.51107813883922]","[185]","0","0","1","0","142.51900003576884","1006.7290000119247","1000","[[[""img/mask78.png""]]]","","","main","200","color-precision2"
"","","","","","html-keyboard-response","47","208680","0.0-10.0-0.14","56de362a6893b5000dea58f5","640759fa512f630a2bdc333d","640785c9903930be7597e7bf","null","","null","","","","","","","","","","","","","","","","","","","fixation","",""
"","","","","","many-guess-6","48","213365","0.0-10.0-1.14-0.14","56de362a6893b5000dea58f5","640759fa512f630a2bdc333d","640785c9903930be7597e7bf","[2832.2000000476837]","","","[31,1,13,17,24,25,28,3,15,29,21,16,32,27,19,10,7,23,5,34,35,18,26,8,12,6,33,11,0,4,20,30,2,22,14,9]","[224,134,164,254,104,94,234,354,314,264,344,74,114,5,84,204,274,35,184,45,144,214,174,15,284,194,25,154,124,324,304,244,334,294,65,55]","224","205","183.30864389466214","[183.30864389466214]","[338.30864389466217]","[337]","[300,210,30,210,210,210,120,210,120]","0","36","0","149.60000003577443","18.11000002385117","16","[[[""img/mask61.png""],[""img/mask80.png""],[""img/mask3.png""],[""img/mask93.png""],[""img/mask14.png""],[""img/mask40.png""],[""img/mask96.png""],[""img/mask6.png""],[""img/mask80.png""],[""img/mask12.png""],[""img/mask53.png""],[""img/mask24.png""],[""img/mask98.png""],[""img/mask68.png""],[""img/mask58.png""],[""img/mask46.png""],[""img/mask45.png""],[""img/mask21.png""],[""img/mask18.png""],[""img/mask84.png""],[""img/mask78.png""],[""img/mask69.png""],[""img/mask66.png""],[""img/mask47.png""],[""img/mask22.png""],[""img/mask68.png""],[""img/mask85.png""],[""img/mask11.png""],[""img/mask45.png""],[""img/mask80.png""],[""img/mask43.png""],[""img/mask23.png""],[""img/mask60.png""],[""img/mask45.png""],[""img/mask78.png""],[""img/mask30.png""]]]","","[31,1,13,17,24,25,28,3,15,29,21,16,32,27,19,10,7,23,5,34,35,18,26,8,12,6,33,11,0,4,20,30,2,22,14,9]","main","205","many-guess-6"
"","","","","","html-keyboard-response","49","213870","0.0-10.0-0.15","56de362a6893b5000dea58f5","640759fa512f630a2bdc333d","640785c9903930be7597e7bf","null","","null","","","","","","","","","","","","","","","","","","","fixation","",""
"","","","","","many-guess-6","50","217462","0.0-10.0-1.15-0.15","56de362a6893b5000dea58f5","640759fa512f630a2bdc333d","640785c9903930be7597e7bf","[1812.2000000476837]","","","[18,29,9,30,7,5,11,28,19,21,25,33,31,4,23,0,34,12,2,32,10,8,13,27,17,22,15,16,3,14,1,20,24,26,6,35]","[219,209,328,268,238,149,169,29,129,69,99,308,109,89,189,358,248,348,39,9,318,159,179,288,119,278,298,139,338,19,49,258,199,59,229,79]","219","179","343.4065775951894","[343.4065775951894]","[164.4065775951894]","[165]","[30,300,120,300,30,120,210,120,120]","0","36","0","149.3830000119342","7.993000023852801","16","[[[""img/mask75.png""],[""img/mask61.png""],[""img/mask56.png""],[""img/mask74.png""],[""img/mask69.png""],[""img/mask43.png""],[""img/mask49.png""],[""img/mask100.png""],[""img/mask92.png""],[""img/mask75.png""],[""img/mask25.png""],[""img/mask81.png""],[""img/mask97.png""],[""img/mask56.png""],[""img/mask54.png""],[""img/mask64.png""],[""img/mask81.png""],[""img/mask23.png""],[""img/mask75.png""],[""img/mask63.png""],[""img/mask14.png""],[""img/mask86.png""],[""img/mask71.png""],[""img/mask32.png""],[""img/mask8.png""],[""img/mask61.png""],[""img/mask74.png""],[""img/mask1.png""],[""img/mask63.png""],[""img/mask35.png""],[""img/mask46.png""],[""img/mask36.png""],[""img/mask59.png""],[""img/mask52.png""],[""img/mask10.png""],[""img/mask78.png""]]]","","[18,29,9,30,7,5,11,28,19,21,25,33,31,4,23,0,34,12,2,32,10,8,13,27,17,22,15,16,3,14,1,20,24,26,6,35]","main","179","many-guess-6"
"","","","","","html-keyboard-response","51","217965","0.0-10.0-0.16","56de362a6893b5000dea58f5","640759fa512f630a2bdc333d","640785c9903930be7597e7bf","null","","null","","","","","","","","","","","","","","","","","","","fixation","",""
"","","","","","many-guess-6","52","221739","0.0-10.0-1.16-0.16","56de362a6893b5000dea58f5","640759fa512f630a2bdc333d","640785c9903930be7597e7bf","[1805]","","","[4,12,3,33,8,34,24,29,26,28,18,9,23,27,31,19,11,35,30,16,25,0,14,21,5,7,2,20,10,1,15,17,32,22,13,6]","[211,301,81,61,271,1,151,31,330,41,261,51,221,141,131,281,171,350,21,241,251,321,340,91,311,291,11,201,121,231,161,71,181,101,111,191]","211","245","50.11976515978916","[50.11976515978916]","[165.11976515978915]","[163]","[30,120,30,300,120,300,120,120,120]","0","36","0","147.57000001191045","18.48000003574998","16","[[[""img/mask28.png""],[""img/mask75.png""],[""img/mask72.png""],[""img/mask68.png""],[""img/mask91.png""],[""img/mask55.png""],[""img/mask74.png""],[""img/mask18.png""],[""img/mask66.png""],[""img/mask74.png""],[""img/mask39.png""],[""img/mask10.png""],[""img/mask80.png""],[""img/mask16.png""],[""img/mask60.png""],[""img/mask97.png""],[""img/mask62.png""],[""img/mask37.png""],[""img/mask45.png""],[""img/mask36.png""],[""img/mask46.png""],[""img/mask75.png""],[""img/mask84.png""],[""img/mask40.png""],[""img/mask85.png""],[""img/mask73.png""],[""img/mask15.png""],[""img/mask12.png""],[""img/mask35.png""],[""img/mask96.png""],[""img/mask79.png""],[""img/mask76.png""],[""img/mask73.png""],[""img/mask74.png""],[""img/mask45.png""],[""img/mask49.png""]]]","","[4,12,3,33,8,34,24,29,26,28,18,9,23,27,31,19,11,35,30,16,25,0,14,21,5,7,2,20,10,1,15,17,32,22,13,6]","main","245","many-guess-6"
"","","","","","html-keyboard-response","53","222243","0.0-10.0-0.17","56de362a6893b5000dea58f5","640759fa512f630a2bdc333d","640785c9903930be7597e7bf","null","","null","","","","","","","","","","","","","","","","","","","fixation","",""
"","","","","","color-precision2","54","225386","0.0-10.0-1.17-0.17","56de362a6893b5000dea58f5","640759fa512f630a2bdc333d","640785c9903930be7597e7bf","[567.1999999880791]","","","[0]","[267]","267","92","12.517842219288832","[12.517842219288832]","[280.5178422192888]","[280]","0","0","1","0","142.88700002385303","998.5970000000088","1000","[[[""img/mask77.png""]]]","","","main","92","color-precision2"
"","","","","","html-keyboard-response","55","225890","0.0-10.0-0.18","56de362a6893b5000dea58f5","640759fa512f630a2bdc333d","640785c9903930be7597e7bf","null","","null","","","","","","","","","","","","","","","","","","","fixation","",""
"","","","","","color-precision2","56","229163","0.0-10.0-1.18-0.18","56de362a6893b5000dea58f5","640759fa512f630a2bdc333d","640785c9903930be7597e7bf","[645.9000000357628]","","","[28]","[177]","177","178","349.9065080048935","[349.9065080048935]","[171.9065080048935]","[171]","0","0","1","0","147.40500002383487","1007.5150000357535","1000","[[[""img/mask47.png""]]]","","","main","178","color-precision2"
"","","","","","html-keyboard-response","57","231791","0.0-10.0-0.19","56de362a6893b5000dea58f5","640759fa512f630a2bdc333d","640785c9903930be7597e7bf","2627","Wow! You've completed 20 out of 180 trials! </p> <p>  </p><p> Take a quick break, then press any key when you're ready to continue."," ","","","","","","","","","","","","","","","","","","","fixation","",""
"","","","","","color-precision2","58","235606","0.0-10.0-1.19-0.19","56de362a6893b5000dea58f5","640759fa512f630a2bdc333d","640785c9903930be7597e7bf","[636.5]","","","[15]","[250]","250","278","170.92939221799872","[170.92939221799872]","[252.92939221799872]","[252]","0","0","1","0","147.81300001192722","1002.7230000357667","1000","[[[""img/mask22.png""]]]","","","main","278","color-precision2"
"","","","","","html-keyboard-response","59","236111","0.0-10.0-0.20","56de362a6893b5000dea58f5","640759fa512f630a2bdc333d","640785c9903930be7597e7bf","null","","null","","","","","","","","","","","","","","","","","","","fixation","",""
"","","","","","many-guess-6","60","239404","0.0-10.0-1.20-0.20","56de362a6893b5000dea58f5","640759fa512f630a2bdc333d","640785c9903930be7597e7bf","[1635]","","","[22,26,1,33,21,9,32,20,14,0,12,31,13,35,4,24,34,23,17,18,2,11,27,30,5,25,29,19,10,6,15,8,28,3,16,7]","[244,65,294,284,105,25,55,334,254,274,174,154,304,85,194,95,164,344,115,324,234,214,184,75,45,134,354,15,224,5,264,144,314,204,125,35]","244","114","353.70381877882096","[353.70381877882096]","[239.70381877882096]","[240]","[210,210,210,120,30,210,300,120,300]","0","36","0","147.70500001191976","19.815000023838365","16","[[[""img/mask45.png""],[""img/mask3.png""],[""img/mask58.png""],[""img/mask72.png""],[""img/mask100.png""],[""img/mask38.png""],[""img/mask3.png""],[""img/mask88.png""],[""img/mask80.png""],[""img/mask66.png""],[""img/mask77.png""],[""img/mask79.png""],[""img/mask31.png""],[""img/mask18.png""],[""img/mask16.png""],[""img/mask60.png""],[""img/mask48.png""],[""img/mask80.png""],[""img/mask67.png""],[""img/mask11.png""],[""img/mask48.png""],[""img/mask29.png""],[""img/mask38.png""],[""img/mask27.png""],[""img/mask30.png""],[""img/mask52.png""],[""img/mask97.png""],[""img/mask57.png""],[""img/mask29.png""],[""img/mask31.png""],[""img/mask46.png""],[""img/mask9.png""],[""img/mask88.png""],[""img/mask19.png""],[""img/mask94.png""],[""img/mask20.png""]]]","","[22,26,1,33,21,9,32,20,14,0,12,31,13,35,4,24,34,23,17,18,2,11,27,30,5,25,29,19,10,6,15,8,28,3,16,7]","main","114","many-guess-6"
"","","","","","html-keyboard-response","61","239906","0.0-10.0-0.21","56de362a6893b5000dea58f5","640759fa512f630a2bdc333d","640785c9903930be7597e7bf","null","","null","","","","","","","","","","","","","","","","","","","fixation","",""
"","","","","","many-guess-6","62","243397","0.0-10.0-1.21-0.21","56de362a6893b5000dea58f5","640759fa512f630a2bdc333d","640785c9903930be7597e7bf","[1711.1000000238419]","","","[20,22,25,18,12,17,5,3,33,4,29,1,19,35,28,34,14,30,9,0,16,32,13,23,2,26,11,24,7,8,15,6,10,21,27,31]","[289,80,90,20,309,339,329,319,219,349,299,259,189,160,229,269,100,180,40,279,10,60,249,110,239,170,50,150,130,120,70,30,359,209,199,140]","289","68","58.76256788312374","[58.76256788312374]","[350.7625678831237]","[349]","[210,120,30,210,120,120,120,210,300]","0","36","0","147.81999998807441","23.730000011913944","16","[[[""img/mask25.png""],[""img/mask34.png""],[""img/mask60.png""],[""img/mask2.png""],[""img/mask2.png""],[""img/mask18.png""],[""img/mask89.png""],[""img/mask62.png""],[""img/mask34.png""],[""img/mask37.png""],[""img/mask10.png""],[""img/mask65.png""],[""img/mask25.png""],[""img/mask54.png""],[""img/mask27.png""],[""img/mask84.png""],[""img/mask3.png""],[""img/mask40.png""],[""img/mask8.png""],[""img/mask66.png""],[""img/mask26.png""],[""img/mask49.png""],[""img/mask93.png""],[""img/mask36.png""],[""img/mask95.png""],[""img/mask62.png""],[""img/mask62.png""],[""img/mask99.png""],[""img/mask40.png""],[""img/mask53.png""],[""img/mask33.png""],[""img/mask48.png""],[""img/mask79.png""],[""img/mask39.png""],[""img/mask77.png""],[""img/mask2.png""]]]","","[20,22,25,18,12,17,5,3,33,4,29,1,19,35,28,34,14,30,9,0,16,32,13,23,2,26,11,24,7,8,15,6,10,21,27,31]","main","68","many-guess-6"
"","","","","","html-keyboard-response","63","243900","0.0-10.0-0.22","56de362a6893b5000dea58f5","640759fa512f630a2bdc333d","640785c9903930be7597e7bf","null","","null","","","","","","","","","","","","","","","","","","","fixation","",""
"","","","","","many-guess-6","64","248091","0.0-10.0-1.22-0.22","56de362a6893b5000dea58f5","640759fa512f630a2bdc333d","640785c9903930be7597e7bf","[2537.099999964237]","","","[14,35,33,34,24,15,13,23,12,5,29,22,32,25,11,17,10,30,1,31,16,26,20,19,2,9,7,0,3,6,8,18,27,21,4,28]","[213,54,173,263,83,323,14,353,193,143,74,123,203,333,223,253,233,293,303,283,163,93,64,44,133,313,273,34,243,183,24,4,343,153,103,113]","213","330","181.22423979428416","[181.22423979428416]","[211.22423979428416]","[210]","[30,30,30,30,30,30,120,30,210]","0","36","0","149.3730000119249","23.283000035764417","16","[[[""img/mask41.png""],[""img/mask32.png""],[""img/mask80.png""],[""img/mask49.png""],[""img/mask16.png""],[""img/mask12.png""],[""img/mask97.png""],[""img/mask39.png""],[""img/mask5.png""],[""img/mask42.png""],[""img/mask54.png""],[""img/mask8.png""],[""img/mask30.png""],[""img/mask76.png""],[""img/mask29.png""],[""img/mask9.png""],[""img/mask53.png""],[""img/mask95.png""],[""img/mask79.png""],[""img/mask69.png""],[""img/mask95.png""],[""img/mask16.png""],[""img/mask27.png""],[""img/mask24.png""],[""img/mask16.png""],[""img/mask30.png""],[""img/mask80.png""],[""img/mask76.png""],[""img/mask85.png""],[""img/mask80.png""],[""img/mask46.png""],[""img/mask80.png""],[""img/mask96.png""],[""img/mask61.png""],[""img/mask65.png""],[""img/mask59.png""]]]","","[14,35,33,34,24,15,13,23,12,5,29,22,32,25,11,17,10,30,1,31,16,26,20,19,2,9,7,0,3,6,8,18,27,21,4,28]","main","330","many-guess-6"
"","","","","","html-keyboard-response","65","248593","0.0-10.0-0.23","56de362a6893b5000dea58f5","640759fa512f630a2bdc333d","640785c9903930be7597e7bf","null","","null","","","","","","","","","","","","","","","","","","","fixation","",""
"","","","","","many-guess-6","66","252283","0.0-10.0-1.23-0.23","56de362a6893b5000dea58f5","640759fa512f630a2bdc333d","640785c9903930be7597e7bf","[1878.699999988079]","","","[30,20,7,14,35,21,31,25,18,0,34,32,29,9,33,24,16,4,23,1,27,10,3,11,13,22,2,19,26,17,5,8,12,15,28,6]","[347,97,187,207,327,28,117,317,227,237,287,137,297,167,47,247,217,197,8,87,337,77,357,177,307,18,67,147,107,157,267,127,277,57,38,257]","347","335","223.62687559205318","[223.62687559205318]","[248.62687559205318]","[248]","[120,300,300,30,210,120,120,30,30]","0","36","0","148.95199998808675","14.362000011926284","16","[[[""img/mask30.png""],[""img/mask12.png""],[""img/mask53.png""],[""img/mask30.png""],[""img/mask69.png""],[""img/mask53.png""],[""img/mask77.png""],[""img/mask8.png""],[""img/mask77.png""],[""img/mask99.png""],[""img/mask36.png""],[""img/mask88.png""],[""img/mask9.png""],[""img/mask66.png""],[""img/mask27.png""],[""img/mask8.png""],[""img/mask79.png""],[""img/mask55.png""],[""img/mask21.png""],[""img/mask23.png""],[""img/mask85.png""],[""img/mask75.png""],[""img/mask98.png""],[""img/mask61.png""],[""img/mask80.png""],[""img/mask56.png""],[""img/mask25.png""],[""img/mask62.png""],[""img/mask78.png""],[""img/mask20.png""],[""img/mask45.png""],[""img/mask92.png""],[""img/mask5.png""],[""img/mask54.png""],[""img/mask13.png""],[""img/mask85.png""]]]","","[30,20,7,14,35,21,31,25,18,0,34,32,29,9,33,24,16,4,23,1,27,10,3,11,13,22,2,19,26,17,5,8,12,15,28,6]","main","335","many-guess-6"
"","","","","","html-keyboard-response","67","252785","0.0-10.0-0.24","56de362a6893b5000dea58f5","640759fa512f630a2bdc333d","640785c9903930be7597e7bf","null","","null","","","","","","","","","","","","","","","","","","","fixation","",""
"","","","","","color-precision2","68","255835","0.0-10.0-1.24-0.24","56de362a6893b5000dea58f5","640759fa512f630a2bdc333d","640785c9903930be7597e7bf","[613.3000000119209]","","","[21]","[204]","204","204","38.495885086399184","[38.495885086399184]","[194.4958850863992]","[193]","0","0","1","0","148.75599999999395","999.7659999880707","1000","[[[""img/mask27.png""]]]","","","main","204","color-precision2"
"","","","","","html-keyboard-response","69","256336","0.0-10.0-0.25","56de362a6893b5000dea58f5","640759fa512f630a2bdc333d","640785c9903930be7597e7bf","null","","null","","","","","","","","","","","","","","","","","","","fixation","",""
"","","","","","color-precision2","70","259245","0.0-10.0-1.25-0.25","56de362a6893b5000dea58f5","640759fa512f630a2bdc333d","640785c9903930be7597e7bf","[306.30000001192093]","","","[19]","[196]","196","155","0.5717179810291099","[0.5717179810291099]","[205.5717179810291]","[205]","0","0","1","0","148.54300002384116","996.6530000357598","1000","[[[""img/mask39.png""]]]","","","main","155","color-precision2"
"","","","","","html-keyboard-response","71","259748","0.0-10.0-0.26","56de362a6893b5000dea58f5","640759fa512f630a2bdc333d","640785c9903930be7597e7bf","null","","null","","","","","","","","","","","","","","","","","","","fixation","",""
"","","","","","many-guess-6","72","262989","0.0-10.0-1.26-0.26","56de362a6893b5000dea58f5","640759fa512f630a2bdc333d","640785c9903930be7597e7bf","[1665.699999988079]","","","[15,3,16,14,19,9,13,26,18,35,20,5,11,0,4,1,34,17,21,32,29,25,27,33,12,24,8,6,2,22,23,28,10,31,30,7]","[28,227,267,197,217,58,357,177,187,237,137,78,327,8,107,97,207,307,347,88,127,38,277,167,257,297,147,287,48,247,157,68,117,317,18,337]","28","231","148.0352441179203","[148.0352441179203]","[277.03524411792034]","[276]","[30,120,30,120,120,300,120,30,300]","0","36","0","149.01000003574882","20.52000002382556","16","[[[""img/mask65.png""],[""img/mask42.png""],[""img/mask79.png""],[""img/mask18.png""],[""img/mask59.png""],[""img/mask87.png""],[""img/mask7.png""],[""img/mask67.png""],[""img/mask47.png""],[""img/mask65.png""],[""img/mask59.png""],[""img/mask15.png""],[""img/mask35.png""],[""img/mask53.png""],[""img/mask32.png""],[""img/mask90.png""],[""img/mask63.png""],[""img/mask26.png""],[""img/mask56.png""],[""img/mask33.png""],[""img/mask92.png""],[""img/mask17.png""],[""img/mask74.png""],[""img/mask59.png""],[""img/mask100.png""],[""img/mask83.png""],[""img/mask81.png""],[""img/mask43.png""],[""img/mask58.png""],[""img/mask83.png""],[""img/mask48.png""],[""img/mask79.png""],[""img/mask16.png""],[""img/mask73.png""],[""img/mask58.png""],[""img/mask66.png""]]]","","[15,3,16,14,19,9,13,26,18,35,20,5,11,0,4,1,34,17,21,32,29,25,27,33,12,24,8,6,2,22,23,28,10,31,30,7]","main","231","many-guess-6"
"","","","","","html-keyboard-response","73","263494","0.0-10.0-0.27","56de362a6893b5000dea58f5","640759fa512f630a2bdc333d","640785c9903930be7597e7bf","null","","null","","","","","","","","","","","","","","","","","","","fixation","",""
"","","","","","many-guess-6","74","266584","0.0-10.0-1.27-0.27","56de362a6893b5000dea58f5","640759fa512f630a2bdc333d","640785c9903930be7597e7bf","[1445.699999988079]","","","[13,32,5,1,10,28,29,12,9,18,16,14,25,31,33,8,3,30,35,4,23,19,17,6,15,21,7,34,0,27,11,2,24,20,26,22]","[307,187,58,167,18,197,8,48,207,217,277,177,247,337,88,117,107,147,227,287,78,347,317,327,97,257,357,38,127,237,28,267,157,297,137,68]","307","182","202.45437370531053","[202.45437370531053]","[20.45437370531053]","[20]","[120,300,210,300,120,210,300,300,30]","0","36","0","148.72300002386328","21.23300001194002","16","[[[""img/mask9.png""],[""img/mask69.png""],[""img/mask14.png""],[""img/mask22.png""],[""img/mask59.png""],[""img/mask27.png""],[""img/mask42.png""],[""img/mask86.png""],[""img/mask30.png""],[""img/mask83.png""],[""img/mask49.png""],[""img/mask55.png""],[""img/mask19.png""],[""img/mask18.png""],[""img/mask5.png""],[""img/mask59.png""],[""img/mask86.png""],[""img/mask9.png""],[""img/mask75.png""],[""img/mask67.png""],[""img/mask51.png""],[""img/mask3.png""],[""img/mask86.png""],[""img/mask57.png""],[""img/mask50.png""],[""img/mask25.png""],[""img/mask14.png""],[""img/mask39.png""],[""img/mask25.png""],[""img/mask26.png""],[""img/mask75.png""],[""img/mask71.png""],[""img/mask30.png""],[""img/mask94.png""],[""img/mask4.png""],[""img/mask29.png""]]]","","[13,32,5,1,10,28,29,12,9,18,16,14,25,31,33,8,3,30,35,4,23,19,17,6,15,21,7,34,0,27,11,2,24,20,26,22]","main","182","many-guess-6"
"","","","","","html-keyboard-response","75","267087","0.0-10.0-0.28","56de362a6893b5000dea58f5","640759fa512f630a2bdc333d","640785c9903930be7597e7bf","null","","null","","","","","","","","","","","","","","","","","","","fixation","",""
"","","","","","many-guess-6","76","270210","0.0-10.0-1.28-0.28","56de362a6893b5000dea58f5","640759fa512f630a2bdc333d","640785c9903930be7597e7bf","[1487.3999999761581]","","","[14,19,33,29,31,26,16,21,34,27,17,1,18,15,25,24,20,8,22,9,35,30,5,2,6,11,13,7,32,10,3,0,23,28,12,4]","[49,339,119,349,319,249,30,149,359,209,259,179,59,69,219,269,279,159,189,129,309,109,10,239,199,20,79,139,99,39,329,229,169,89,289,299]","49","143","348.5465439597674","[348.5465439597674]","[205.5465439597674]","[205]","[30,30,210,210,30,30,30,30,120]","0","36","0","147.7580000119051","13.368000023823697","16","[[[""img/mask39.png""],[""img/mask32.png""],[""img/mask79.png""],[""img/mask29.png""],[""img/mask37.png""],[""img/mask4.png""],[""img/mask90.png""],[""img/mask65.png""],[""img/mask20.png""],[""img/mask56.png""],[""img/mask30.png""],[""img/mask87.png""],[""img/mask11.png""],[""img/mask90.png""],[""img/mask55.png""],[""img/mask26.png""],[""img/mask67.png""],[""img/mask19.png""],[""img/mask96.png""],[""img/mask72.png""],[""img/mask23.png""],[""img/mask32.png""],[""img/mask13.png""],[""img/mask88.png""],[""img/mask80.png""],[""img/mask70.png""],[""img/mask60.png""],[""img/mask68.png""],[""img/mask69.png""],[""img/mask79.png""],[""img/mask54.png""],[""img/mask30.png""],[""img/mask77.png""],[""img/mask85.png""],[""img/mask43.png""],[""img/mask21.png""]]]","","[14,19,33,29,31,26,16,21,34,27,17,1,18,15,25,24,20,8,22,9,35,30,5,2,6,11,13,7,32,10,3,0,23,28,12,4]","main","143","many-guess-6"
"","","","","","html-keyboard-response","77","270714","0.0-10.0-0.29","56de362a6893b5000dea58f5","640759fa512f630a2bdc333d","640785c9903930be7597e7bf","null","","null","","","","","","","","","","","","","","","","","","","fixation","",""
"","","","","","many-guess-6","78","274982","0.0-10.0-1.29-0.29","56de362a6893b5000dea58f5","640759fa512f630a2bdc333d","640785c9903930be7597e7bf","[2526.199999988079]","","","[33,21,6,7,20,13,14,8,34,28,26,3,12,10,17,2,9,11,0,32,15,25,22,5,30,31,27,35,1,19,16,18,4,29,24,23]","[117,357,68,58,107,177,277,187,18,257,197,307,167,8,157,78,247,147,38,337,127,137,267,207,97,217,347,297,287,227,88,327,48,28,317,237]","117","207","56.487027093118236","[56.487027093118236]","[209.48702709311823]","[208]","[120,30,210,300,300,30,120,210,30]","0","36","0","148.71400003577583","20.82399998808978","16","[[[""img/mask25.png""],[""img/mask18.png""],[""img/mask53.png""],[""img/mask70.png""],[""img/mask91.png""],[""img/mask93.png""],[""img/mask19.png""],[""img/mask92.png""],[""img/mask53.png""],[""img/mask50.png""],[""img/mask87.png""],[""img/mask33.png""],[""img/mask40.png""],[""img/mask94.png""],[""img/mask19.png""],[""img/mask20.png""],[""img/mask23.png""],[""img/mask10.png""],[""img/mask33.png""],[""img/mask27.png""],[""img/mask100.png""],[""img/mask53.png""],[""img/mask21.png""],[""img/mask14.png""],[""img/mask33.png""],[""img/mask52.png""],[""img/mask86.png""],[""img/mask32.png""],[""img/mask31.png""],[""img/mask11.png""],[""img/mask4.png""],[""img/mask49.png""],[""img/mask51.png""],[""img/mask89.png""],[""img/mask29.png""],[""img/mask95.png""]]]","","[33,21,6,7,20,13,14,8,34,28,26,3,12,10,17,2,9,11,0,32,15,25,22,5,30,31,27,35,1,19,16,18,4,29,24,23]","main","207","many-guess-6"
"","","","","","html-keyboard-response","79","275484","0.0-10.0-0.30","56de362a6893b5000dea58f5","640759fa512f630a2bdc333d","640785c9903930be7597e7bf","null","","null","","","","","","","","","","","","","","","","","","","fixation","",""
"","","","","","many-guess-6","80","279800","0.0-10.0-1.30-0.30","56de362a6893b5000dea58f5","640759fa512f630a2bdc333d","640785c9903930be7597e7bf","[2426.300000011921]","","","[17,35,11,30,26,5,21,27,25,33,7,15,3,4,10,14,31,34,28,29,8,6,32,0,16,19,2,9,24,1,20,22,12,13,18,23]","[69,10,29,219,139,229,279,89,189,39,259,349,99,19,169,299,309,269,179,199,159,59,79,149,329,119,109,339,289,129,209,359,319,249,239,49]","69","300","167.5351566340798","[167.5351566340798]","[227.5351566340798]","[226]","[210,30,210,30,30,300,210,30,120]","0","36","0","147.90100000001257","9.611000035773031","16","[[[""img/mask5.png""],[""img/mask17.png""],[""img/mask71.png""],[""img/mask60.png""],[""img/mask54.png""],[""img/mask75.png""],[""img/mask21.png""],[""img/mask72.png""],[""img/mask3.png""],[""img/mask88.png""],[""img/mask60.png""],[""img/mask92.png""],[""img/mask14.png""],[""img/mask11.png""],[""img/mask20.png""],[""img/mask20.png""],[""img/mask35.png""],[""img/mask32.png""],[""img/mask93.png""],[""img/mask64.png""],[""img/mask23.png""],[""img/mask47.png""],[""img/mask36.png""],[""img/mask47.png""],[""img/mask86.png""],[""img/mask93.png""],[""img/mask16.png""],[""img/mask8.png""],[""img/mask51.png""],[""img/mask33.png""],[""img/mask43.png""],[""img/mask31.png""],[""img/mask19.png""],[""img/mask9.png""],[""img/mask32.png""],[""img/mask60.png""]]]","","[17,35,11,30,26,5,21,27,25,33,7,15,3,4,10,14,31,34,28,29,8,6,32,0,16,19,2,9,24,1,20,22,12,13,18,23]","main","300","many-guess-6"
"","","","","","html-keyboard-response","81","280306","0.0-10.0-0.31","56de362a6893b5000dea58f5","640759fa512f630a2bdc333d","640785c9903930be7597e7bf","null","","null","","","","","","","","","","","","","","","","","","","fixation","",""
"","","","","","color-precision2","82","283875","0.0-10.0-1.31-0.31","56de362a6893b5000dea58f5","640759fa512f630a2bdc333d","640785c9903930be7597e7bf","[800.1000000238419]","","","[4]","[46]","46","37","82.63185368950727","[82.63185368950727]","[45.63185368950727]","[44]","0","0","1","0","148.2990000238642","997.2089999880991","1000","[[[""img/mask69.png""]]]","","","main","37","color-precision2"
"","","","","","html-keyboard-response","83","284382","0.0-10.0-0.32","56de362a6893b5000dea58f5","640759fa512f630a2bdc333d","640785c9903930be7597e7bf","null","","null","","","","","","","","","","","","","","","","","","","fixation","",""
"","","","","","many-guess-6","84","289761","0.0-10.0-1.32-0.32","56de362a6893b5000dea58f5","640759fa512f630a2bdc333d","640785c9903930be7597e7bf","[3485.2000000476837]","","","[5,3,1,17,11,22,29,14,25,15,23,8,6,13,2,26,18,31,20,33,0,9,34,35,21,10,30,24,7,28,19,32,16,4,12,27]","[301,101,231,351,1,161,201,291,331,141,171,61,91,211,261,71,81,131,31,121,241,111,191,251,341,11,281,271,321,221,41,311,181,151,51,21]","301","152","22.91012169048267","[22.91012169048267]","[230.91012169048267]","[230]","[210,300,120,120,30,210,30,210,300]","0","36","0","149.23300001194002","7.743000000016764","16","[[[""img/mask83.png""],[""img/mask79.png""],[""img/mask6.png""],[""img/mask4.png""],[""img/mask83.png""],[""img/mask94.png""],[""img/mask13.png""],[""img/mask40.png""],[""img/mask85.png""],[""img/mask90.png""],[""img/mask9.png""],[""img/mask12.png""],[""img/mask25.png""],[""img/mask94.png""],[""img/mask100.png""],[""img/mask15.png""],[""img/mask16.png""],[""img/mask51.png""],[""img/mask10.png""],[""img/mask52.png""],[""img/mask73.png""],[""img/mask30.png""],[""img/mask1.png""],[""img/mask91.png""],[""img/mask70.png""],[""img/mask79.png""],[""img/mask69.png""],[""img/mask46.png""],[""img/mask70.png""],[""img/mask6.png""],[""img/mask75.png""],[""img/mask60.png""],[""img/mask25.png""],[""img/mask87.png""],[""img/mask33.png""],[""img/mask57.png""]]]","","[5,3,1,17,11,22,29,14,25,15,23,8,6,13,2,26,18,31,20,33,0,9,34,35,21,10,30,24,7,28,19,32,16,4,12,27]","main","152","many-guess-6"
"","","","","","html-keyboard-response","85","290265","0.0-10.0-0.33","56de362a6893b5000dea58f5","640759fa512f630a2bdc333d","640785c9903930be7597e7bf","null","","null","","","","","","","","","","","","","","","","","","","fixation","",""
"","","","","","color-precision2","86","293449","0.0-10.0-1.33-0.33","56de362a6893b5000dea58f5","640759fa512f630a2bdc333d","640785c9903930be7597e7bf","[623.3999999761581]","","","[15]","[221]","221","270","145.32505070125458","[145.32505070125458]","[235.32505070125458]","[234]","0","0","1","0","147.15000001189765","995.9600000118953","1000","[[[""img/mask47.png""]]]","","","main","270","color-precision2"
"","","","","","html-keyboard-response","87","293953","0.0-10.0-0.34","56de362a6893b5000dea58f5","640759fa512f630a2bdc333d","640785c9903930be7597e7bf","null","","null","","","","","","","","","","","","","","","","","","","fixation","",""
"","","","","","many-guess-6","88","297500","0.0-10.0-1.34-0.34","56de362a6893b5000dea58f5","640759fa512f630a2bdc333d","640785c9903930be7597e7bf","[1707.1000000238419]","","","[28,13,29,16,19,25,3,15,34,32,14,7,27,17,23,11,24,22,31,18,20,33,1,35,21,30,8,6,12,26,9,4,2,10,0,5]","[104,213,203,144,124,343,194,233,114,323,243,134,74,14,293,44,84,273,174,54,184,34,223,94,263,303,283,253,333,313,164,64,4,353,154,24]","104","263","9.110659328781912","[9.110659328781912]","[106.1106593287819]","[105]","[210,210,210,120,210,30,300,30,30]","0","36","0","147.63199998805067","12.742000000027474","16","[[[""img/mask73.png""],[""img/mask31.png""],[""img/mask29.png""],[""img/mask49.png""],[""img/mask95.png""],[""img/mask42.png""],[""img/mask81.png""],[""img/mask50.png""],[""img/mask89.png""],[""img/mask10.png""],[""img/mask97.png""],[""img/mask89.png""],[""img/mask49.png""],[""img/mask39.png""],[""img/mask34.png""],[""img/mask90.png""],[""img/mask88.png""],[""img/mask83.png""],[""img/mask63.png""],[""img/mask26.png""],[""img/mask20.png""],[""img/mask72.png""],[""img/mask98.png""],[""img/mask72.png""],[""img/mask32.png""],[""img/mask88.png""],[""img/mask71.png""],[""img/mask89.png""],[""img/mask40.png""],[""img/mask15.png""],[""img/mask25.png""],[""img/mask15.png""],[""img/mask20.png""],[""img/mask87.png""],[""img/mask47.png""],[""img/mask1.png""]]]","","[28,13,29,16,19,25,3,15,34,32,14,7,27,17,23,11,24,22,31,18,20,33,1,35,21,30,8,6,12,26,9,4,2,10,0,5]","main","263","many-guess-6"
"","","","","","html-keyboard-response","89","298001","0.0-10.0-0.35","56de362a6893b5000dea58f5","640759fa512f630a2bdc333d","640785c9903930be7597e7bf","null","","null","","","","","","","","","","","","","","","","","","","fixation","",""
"","","","","","many-guess-6","90","301468","0.0-10.0-1.35-0.35","56de362a6893b5000dea58f5","640759fa512f630a2bdc333d","640785c9903930be7597e7bf","[1723.800000011921]","","","[20,23,34,15,12,16,14,7,19,21,11,3,13,31,4,35,5,6,29,26,32,33,28,24,10,30,17,0,8,1,9,18,27,2,22,25]","[31,201,22,51,161,331,101,141,271,341,12,321,261,291,71,61,91,351,151,241,301,251,121,311,231,111,131,41,281,81,221,211,2,181,191,171]","31","82","288.98401769963095","[288.98401769963095]","[206.98401769963095]","[207]","[120,120,300,210,120,300,30,300,30]","0","36","0","147.48499999998603","19.69500003574649","16","[[[""img/mask91.png""],[""img/mask24.png""],[""img/mask92.png""],[""img/mask89.png""],[""img/mask60.png""],[""img/mask72.png""],[""img/mask50.png""],[""img/mask62.png""],[""img/mask81.png""],[""img/mask52.png""],[""img/mask52.png""],[""img/mask31.png""],[""img/mask9.png""],[""img/mask87.png""],[""img/mask2.png""],[""img/mask60.png""],[""img/mask55.png""],[""img/mask73.png""],[""img/mask48.png""],[""img/mask25.png""],[""img/mask76.png""],[""img/mask34.png""],[""img/mask74.png""],[""img/mask58.png""],[""img/mask85.png""],[""img/mask87.png""],[""img/mask65.png""],[""img/mask84.png""],[""img/mask19.png""],[""img/mask80.png""],[""img/mask26.png""],[""img/mask20.png""],[""img/mask95.png""],[""img/mask54.png""],[""img/mask96.png""],[""img/mask79.png""]]]","","[20,23,34,15,12,16,14,7,19,21,11,3,13,31,4,35,5,6,29,26,32,33,28,24,10,30,17,0,8,1,9,18,27,2,22,25]","main","82","many-guess-6"
"","","","","","html-keyboard-response","91","301968","0.0-10.0-0.36","56de362a6893b5000dea58f5","640759fa512f630a2bdc333d","640785c9903930be7597e7bf","null","","null","","","","","","","","","","","","","","","","","","","fixation","",""
"","","","","","color-precision2","92","304903","0.0-10.0-1.36-0.36","56de362a6893b5000dea58f5","640759fa512f630a2bdc333d","640785c9903930be7597e7bf","[409.5]","","","[23]","[4]","4","256","252.03303103252188","[252.03303103252188]","[356.0330310325219]","[356]","0","0","1","0","148.34999998810235","1002.2600000119419","1000","[[[""img/mask31.png""]]]","","","main","256","color-precision2"
"","","","","","html-keyboard-response","93","305409","0.0-10.0-0.37","56de362a6893b5000dea58f5","640759fa512f630a2bdc333d","640785c9903930be7597e7bf","null","","null","","","","","","","","","","","","","","","","","","","fixation","",""
"","","","","","many-guess-6","94","308740","0.0-10.0-1.37-0.37","56de362a6893b5000dea58f5","640759fa512f630a2bdc333d","640785c9903930be7597e7bf","[1596.1000000238419]","","","[29,11,26,14,22,34,0,8,20,21,4,1,30,33,16,15,13,6,10,31,2,3,9,12,5,23,28,19,7,32,24,17,18,35,25,27]","[235,355,56,255,46,145,335,345,195,116,16,86,126,66,106,175,315,305,155,26,295,36,205,225,76,285,265,165,275,185,96,215,245,325,136,6]","235","48","261.22335079534815","[261.22335079534815]","[213.22335079534815]","[213]","[210,300,30,120,120,30,300,300,300]","0","36","0","147.7860000357614","8.596000035759062","16","[[[""img/mask29.png""],[""img/mask45.png""],[""img/mask9.png""],[""img/mask23.png""],[""img/mask37.png""],[""img/mask32.png""],[""img/mask44.png""],[""img/mask67.png""],[""img/mask65.png""],[""img/mask96.png""],[""img/mask4.png""],[""img/mask80.png""],[""img/mask72.png""],[""img/mask34.png""],[""img/mask17.png""],[""img/mask25.png""],[""img/mask74.png""],[""img/mask88.png""],[""img/mask13.png""],[""img/mask15.png""],[""img/mask59.png""],[""img/mask20.png""],[""img/mask4.png""],[""img/mask73.png""],[""img/mask42.png""],[""img/mask11.png""],[""img/mask59.png""],[""img/mask38.png""],[""img/mask34.png""],[""img/mask9.png""],[""img/mask17.png""],[""img/mask83.png""],[""img/mask5.png""],[""img/mask16.png""],[""img/mask13.png""],[""img/mask16.png""]]]","","[29,11,26,14,22,34,0,8,20,21,4,1,30,33,16,15,13,6,10,31,2,3,9,12,5,23,28,19,7,32,24,17,18,35,25,27]","main","48","many-guess-6"
"","","","","","html-keyboard-response","95","309243","0.0-10.0-0.38","56de362a6893b5000dea58f5","640759fa512f630a2bdc333d","640785c9903930be7597e7bf","null","","null","","","","","","","","","","","","","","","","","","","fixation","",""
"","","","","","many-guess-6","96","314100","0.0-10.0-1.38-0.38","56de362a6893b5000dea58f5","640759fa512f630a2bdc333d","640785c9903930be7597e7bf","[3005.699999988079]","","","[35,5,19,16,26,32,31,30,11,14,2,0,33,25,29,3,7,27,28,17,4,21,6,9,1,15,24,22,13,20,8,12,34,23,10,18]","[290,70,190,350,170,150,310,340,1,230,31,200,110,210,260,300,100,11,90,120,270,130,140,160,60,240,320,180,330,21,280,50,220,80,250,41]","290","295","149.58619613773394","[149.58619613773394]","[214.58619613773394]","[213]","[210,120,210,210,120,30,300,300,120]","0","36","0","147.5390000238549","17.849000023852568","16","[[[""img/mask68.png""],[""img/mask3.png""],[""img/mask57.png""],[""img/mask86.png""],[""img/mask25.png""],[""img/mask29.png""],[""img/mask95.png""],[""img/mask21.png""],[""img/mask69.png""],[""img/mask87.png""],[""img/mask20.png""],[""img/mask19.png""],[""img/mask54.png""],[""img/mask69.png""],[""img/mask91.png""],[""img/mask61.png""],[""img/mask96.png""],[""img/mask45.png""],[""img/mask70.png""],[""img/mask47.png""],[""img/mask74.png""],[""img/mask60.png""],[""img/mask12.png""],[""img/mask9.png""],[""img/mask18.png""],[""img/mask64.png""],[""img/mask46.png""],[""img/mask11.png""],[""img/mask18.png""],[""img/mask87.png""],[""img/mask17.png""],[""img/mask82.png""],[""img/mask20.png""],[""img/mask32.png""],[""img/mask98.png""],[""img/mask10.png""]]]","","[35,5,19,16,26,32,31,30,11,14,2,0,33,25,29,3,7,27,28,17,4,21,6,9,1,15,24,22,13,20,8,12,34,23,10,18]","main","295","many-guess-6"
"","","","","","html-keyboard-response","97","318028","0.0-10.0-0.39","56de362a6893b5000dea58f5","640759fa512f630a2bdc333d","640785c9903930be7597e7bf","3927.899999976158","Wow! You've completed 40 out of 180 trials! </p> <p>  </p><p> Take a quick break, then press any key when you're ready to continue."," ","","","","","","","","","","","","","","","","","","","fixation","",""
"","","","","","color-precision2","98","321249","0.0-10.0-1.39-0.39","56de362a6893b5000dea58f5","640759fa512f630a2bdc333d","640785c9903930be7597e7bf","[218.39999997615814]","","","[14]","[191]","191","324","166.3043838226145","[166.3043838226145]","[202.3043838226145]","[201]","0","0","1","0","148.03600002382882","994.0460000119056","1000","[[[""img/mask25.png""]]]","","","main","324","color-precision2"
"","","","","","html-keyboard-response","99","321753","0.0-10.0-0.40","56de362a6893b5000dea58f5","640759fa512f630a2bdc333d","640785c9903930be7597e7bf","null","","null","","","","","","","","","","","","","","","","","","","fixation","",""
"","","","","","color-precision2","100","324919","0.0-10.0-1.40-0.40","56de362a6893b5000dea58f5","640759fa512f630a2bdc333d","640785c9903930be7597e7bf","[521.6999999880791]","","","[1]","[319]","319","4","312.7899683692152","[312.7899683692152]","[308.7899683692152]","[309]","0","0","1","0","148.37400001194328","1001.7840000357828","1000","[[[""img/mask58.png""]]]","","","main","4","color-precision2"
"","","","","","html-keyboard-response","101","325423","0.0-10.0-0.41","56de362a6893b5000dea58f5","640759fa512f630a2bdc333d","640785c9903930be7597e7bf","null","","null","","","","","","","","","","","","","","","","","","","fixation","",""
"","","","","","many-guess-6","102","328447","0.0-10.0-1.41-0.41","56de362a6893b5000dea58f5","640759fa512f630a2bdc333d","640785c9903930be7597e7bf","[1582.6000000238419]","","","[29,19,15,33,14,28,1,13,6,20,17,16,26,27,18,3,24,10,22,12,2,4,30,35,7,32,34,0,25,23,5,21,11,31,9,8]","[119,109,20,159,309,229,219,59,129,29,299,39,89,289,239,199,169,139,189,10,79,349,49,329,69,209,279,339,99,319,179,149,359,269,259,249]","119","184","122.71067757091008","[122.71067757091008]","[298.7106775709101]","[297]","[210,300,120,30,30,30,120,210,30]","0","36","0","148.78599998808932","16.696000011928845","16","[[[""img/mask20.png""],[""img/mask67.png""],[""img/mask78.png""],[""img/mask83.png""],[""img/mask53.png""],[""img/mask85.png""],[""img/mask76.png""],[""img/mask22.png""],[""img/mask24.png""],[""img/mask28.png""],[""img/mask18.png""],[""img/mask59.png""],[""img/mask24.png""],[""img/mask94.png""],[""img/mask69.png""],[""img/mask7.png""],[""img/mask99.png""],[""img/mask35.png""],[""img/mask75.png""],[""img/mask85.png""],[""img/mask81.png""],[""img/mask89.png""],[""img/mask29.png""],[""img/mask42.png""],[""img/mask92.png""],[""img/mask100.png""],[""img/mask70.png""],[""img/mask84.png""],[""img/mask5.png""],[""img/mask5.png""],[""img/mask84.png""],[""img/mask21.png""],[""img/mask5.png""],[""img/mask58.png""],[""img/mask56.png""],[""img/mask24.png""]]]","","[29,19,15,33,14,28,1,13,6,20,17,16,26,27,18,3,24,10,22,12,2,4,30,35,7,32,34,0,25,23,5,21,11,31,9,8]","main","184","many-guess-6"
"","","","","","html-keyboard-response","103","328951","0.0-10.0-0.42","56de362a6893b5000dea58f5","640759fa512f630a2bdc333d","640785c9903930be7597e7bf","null","","null","","","","","","","","","","","","","","","","","","","fixation","",""
"","","","","","color-precision2","104","332119","0.0-10.0-1.42-0.42","56de362a6893b5000dea58f5","640759fa512f630a2bdc333d","640785c9903930be7597e7bf","[437.80000001192093]","","","[22]","[239]","239","163","46.93446756275501","[46.93446756275501]","[243.934467562755]","[242]","0","0","1","0","148.49800001189578","998.4080000357353","1000","[[[""img/mask71.png""]]]","","","main","163","color-precision2"
"","","","","","html-keyboard-response","105","332624","0.0-10.0-0.43","56de362a6893b5000dea58f5","640759fa512f630a2bdc333d","640785c9903930be7597e7bf","null","","null","","","","","","","","","","","","","","","","","","","fixation","",""
"","","","","","color-precision2","106","335838","0.0-10.0-1.43-0.43","56de362a6893b5000dea58f5","640759fa512f630a2bdc333d","640785c9903930be7597e7bf","[607.2999999523163]","","","[4]","[95]","95","56","148.99876846145222","[148.99876846145222]","[92.99876846145222]","[92]","0","0","1","0","148.4950000119279","1004.9050000357674","1000","[[[""img/mask74.png""]]]","","","main","56","color-precision2"
"","","","","","html-keyboard-response","107","336344","0.0-10.0-0.44","56de362a6893b5000dea58f5","640759fa512f630a2bdc333d","640785c9903930be7597e7bf","null","","null","","","","","","","","","","","","","","","","","","","fixation","",""
"","","","","","color-precision2","108","339056","0.0-10.0-1.44-0.44","56de362a6893b5000dea58f5","640759fa512f630a2bdc333d","640785c9903930be7597e7bf","[289.5]","","","[22]","[336]","336","334","309.18216498407605","[309.18216498407605]","[335.18216498407605]","[336]","0","0","1","0","147.89700002386235","1007.5329999880632","1000","[[[""img/mask18.png""]]]","","","main","334","color-precision2"
"","","","","","html-keyboard-response","109","339561","0.0-10.0-0.45","56de362a6893b5000dea58f5","640759fa512f630a2bdc333d","640785c9903930be7597e7bf","null","","null","","","","","","","","","","","","","","","","","","","fixation","",""
"","","","","","many-guess-6","110","344239","0.0-10.0-1.45-0.45","56de362a6893b5000dea58f5","640759fa512f630a2bdc333d","640785c9903930be7597e7bf","[2740.399999976158]","","","[28,35,14,2,34,33,15,29,9,17,20,23,12,6,4,8,24,10,1,21,30,25,16,31,27,11,0,3,19,5,22,32,18,26,7,13]","[127,137,177,257,157,277,27,227,356,167,247,17,117,67,87,267,57,347,207,97,327,307,197,217,147,47,107,237,297,77,317,37,187,337,287,7]","127","199","34.887212795927596","[34.887212795927596]","[195.8872127959276]","[194]","[120,30,30,120,210,300,120,210,120]","0","36","0","149.21299998805625","8.723000035737641","16","[[[""img/mask53.png""],[""img/mask8.png""],[""img/mask69.png""],[""img/mask36.png""],[""img/mask61.png""],[""img/mask89.png""],[""img/mask30.png""],[""img/mask27.png""],[""img/mask12.png""],[""img/mask18.png""],[""img/mask9.png""],[""img/mask30.png""],[""img/mask29.png""],[""img/mask43.png""],[""img/mask51.png""],[""img/mask93.png""],[""img/mask69.png""],[""img/mask55.png""],[""img/mask6.png""],[""img/mask87.png""],[""img/mask73.png""],[""img/mask52.png""],[""img/mask27.png""],[""img/mask91.png""],[""img/mask11.png""],[""img/mask33.png""],[""img/mask81.png""],[""img/mask69.png""],[""img/mask80.png""],[""img/mask93.png""],[""img/mask1.png""],[""img/mask4.png""],[""img/mask65.png""],[""img/mask21.png""],[""img/mask56.png""],[""img/mask26.png""]]]","","[28,35,14,2,34,33,15,29,9,17,20,23,12,6,4,8,24,10,1,21,30,25,16,31,27,11,0,3,19,5,22,32,18,26,7,13]","main","199","many-guess-6"
"","","","","","html-keyboard-response","111","344746","0.0-10.0-0.46","56de362a6893b5000dea58f5","640759fa512f630a2bdc333d","640785c9903930be7597e7bf","null","","null","","","","","","","","","","","","","","","","","","","fixation","",""
"","","","","","many-guess-6","112","347862","0.0-10.0-1.46-0.46","56de362a6893b5000dea58f5","640759fa512f630a2bdc333d","640785c9903930be7597e7bf","[1579.0999999642372]","","","[11,24,22,18,15,10,2,19,4,26,3,34,6,30,12,9,23,8,14,27,16,33,21,5,1,17,35,31,29,13,32,20,0,28,25,7]","[346,37,106,286,77,87,206,176,136,67,57,126,356,17,226,326,146,27,166,236,336,47,156,276,216,116,7,266,256,296,186,306,97,196,316,246]","346","223","308.6882529107203","[308.6882529107203]","[85.68825291072028]","[86]","[30,210,120,30,120,120,30,30,30]","0","36","0","148.3160000119242","9.42600002384279","16","[[[""img/mask7.png""],[""img/mask27.png""],[""img/mask45.png""],[""img/mask78.png""],[""img/mask63.png""],[""img/mask95.png""],[""img/mask9.png""],[""img/mask42.png""],[""img/mask68.png""],[""img/mask52.png""],[""img/mask52.png""],[""img/mask56.png""],[""img/mask38.png""],[""img/mask44.png""],[""img/mask7.png""],[""img/mask68.png""],[""img/mask43.png""],[""img/mask82.png""],[""img/mask1.png""],[""img/mask41.png""],[""img/mask75.png""],[""img/mask41.png""],[""img/mask8.png""],[""img/mask32.png""],[""img/mask55.png""],[""img/mask82.png""],[""img/mask84.png""],[""img/mask10.png""],[""img/mask22.png""],[""img/mask94.png""],[""img/mask82.png""],[""img/mask87.png""],[""img/mask25.png""],[""img/mask96.png""],[""img/mask79.png""],[""img/mask85.png""]]]","","[11,24,22,18,15,10,2,19,4,26,3,34,6,30,12,9,23,8,14,27,16,33,21,5,1,17,35,31,29,13,32,20,0,28,25,7]","main","223","many-guess-6"
"","","","","","html-keyboard-response","113","348365","0.0-10.0-0.47","56de362a6893b5000dea58f5","640759fa512f630a2bdc333d","640785c9903930be7597e7bf","null","","null","","","","","","","","","","","","","","","","","","","fixation","",""
"","","","","","many-guess-6","114","352511","0.0-10.0-1.47-0.47","56de362a6893b5000dea58f5","640759fa512f630a2bdc333d","640785c9903930be7597e7bf","[2511.599999964237]","","","[22,24,0,19,31,27,35,34,2,26,28,20,4,1,6,15,11,13,3,16,9,21,8,32,33,10,29,14,23,30,18,17,5,25,12,7]","[311,32,201,221,281,181,321,62,251,261,22,271,231,42,301,12,52,92,102,331,131,151,171,211,241,351,2,161,72,82,141,112,291,341,191,121]","311","128","311.5013614387531","[311.5013614387531]","[183.50136143875312]","[184]","[300,30,120,210,30,210,30,30,300]","0","36","0","149.07899998809444","13.989000011933967","16","[[[""img/mask67.png""],[""img/mask72.png""],[""img/mask77.png""],[""img/mask86.png""],[""img/mask4.png""],[""img/mask60.png""],[""img/mask72.png""],[""img/mask57.png""],[""img/mask43.png""],[""img/mask5.png""],[""img/mask50.png""],[""img/mask44.png""],[""img/mask31.png""],[""img/mask63.png""],[""img/mask80.png""],[""img/mask20.png""],[""img/mask98.png""],[""img/mask84.png""],[""img/mask63.png""],[""img/mask28.png""],[""img/mask19.png""],[""img/mask13.png""],[""img/mask4.png""],[""img/mask51.png""],[""img/mask87.png""],[""img/mask48.png""],[""img/mask36.png""],[""img/mask77.png""],[""img/mask60.png""],[""img/mask62.png""],[""img/mask7.png""],[""img/mask90.png""],[""img/mask53.png""],[""img/mask61.png""],[""img/mask51.png""],[""img/mask29.png""]]]","","[22,24,0,19,31,27,35,34,2,26,28,20,4,1,6,15,11,13,3,16,9,21,8,32,33,10,29,14,23,30,18,17,5,25,12,7]","main","128","many-guess-6"
"","","","","","html-keyboard-response","115","353015","0.0-10.0-0.48","56de362a6893b5000dea58f5","640759fa512f630a2bdc333d","640785c9903930be7597e7bf","null","","null","","","","","","","","","","","","","","","","","","","fixation","",""
"","","","","","many-guess-6","116","356196","0.0-10.0-1.48-0.48","56de362a6893b5000dea58f5","640759fa512f630a2bdc333d","640785c9903930be7597e7bf","[1612.4000000357628]","","","[14,31,26,33,30,7,13,25,27,20,28,16,21,2,29,3,17,15,1,35,19,34,24,23,6,0,11,8,22,10,18,32,4,5,9,12]","[31,250,260,91,190,200,320,220,100,330,160,41,270,130,350,21,1,300,140,230,210,290,240,110,280,340,81,71,170,180,150,120,61,11,51,310]","31","56","63.4536288856156","[63.4536288856156]","[7.4536288856156006]","[6]","[30,120,300,120,30,210,30,30,210]","0","36","0","148.35399999999208","14.764000023831613","16","[[[""img/mask48.png""],[""img/mask28.png""],[""img/mask7.png""],[""img/mask10.png""],[""img/mask17.png""],[""img/mask12.png""],[""img/mask12.png""],[""img/mask57.png""],[""img/mask53.png""],[""img/mask78.png""],[""img/mask78.png""],[""img/mask52.png""],[""img/mask52.png""],[""img/mask91.png""],[""img/mask24.png""],[""img/mask62.png""],[""img/mask52.png""],[""img/mask30.png""],[""img/mask40.png""],[""img/mask39.png""],[""img/mask17.png""],[""img/mask34.png""],[""img/mask84.png""],[""img/mask38.png""],[""img/mask54.png""],[""img/mask27.png""],[""img/mask69.png""],[""img/mask26.png""],[""img/mask67.png""],[""img/mask51.png""],[""img/mask77.png""],[""img/mask5.png""],[""img/mask17.png""],[""img/mask51.png""],[""img/mask32.png""],[""img/mask37.png""]]]","","[14,31,26,33,30,7,13,25,27,20,28,16,21,2,29,3,17,15,1,35,19,34,24,23,6,0,11,8,22,10,18,32,4,5,9,12]","main","56","many-guess-6"
"","","","","","html-keyboard-response","117","356699","0.0-10.0-0.49","56de362a6893b5000dea58f5","640759fa512f630a2bdc333d","640785c9903930be7597e7bf","null","","null","","","","","","","","","","","","","","","","","","","fixation","",""
"","","","","","color-precision2","118","359478","0.0-10.0-1.49-0.49","56de362a6893b5000dea58f5","640759fa512f630a2bdc333d","640785c9903930be7597e7bf","[294.4000000357628]","","","[1]","[255]","255","260","161.22579435593192","[161.22579435593192]","[261.22579435593195]","[260]","0","0","1","0","148.1979999881005","1007.408000023861","1000","[[[""img/mask76.png""]]]","","","main","260","color-precision2"
"","","","","","html-keyboard-response","119","359982","0.0-10.0-0.50","56de362a6893b5000dea58f5","640759fa512f630a2bdc333d","640785c9903930be7597e7bf","null","","null","","","","","","","","","","","","","","","","","","","fixation","",""
"","","","","","many-guess-6","120","363020","0.0-10.0-1.50-0.50","56de362a6893b5000dea58f5","640759fa512f630a2bdc333d","640785c9903930be7597e7bf","[1584.800000011921]","","","[34,6,32,19,21,30,20,3,2,15,0,13,9,25,5,23,7,17,12,10,27,24,26,28,16,31,1,8,18,29,14,33,22,35,11,4]","[347,298,258,327,98,337,38,88,278,288,158,138,188,48,218,68,357,238,168,317,28,18,208,148,108,228,118,8,58,78,308,268,128,178,198,248]","347","249","117.3980773118856","[117.3980773118856]","[228.3980773118856]","[227]","[300,30,120,30,300,210,300,120,30]","0","36","0","147.48000003577909","20.89000000001397","16","[[[""img/mask36.png""],[""img/mask12.png""],[""img/mask20.png""],[""img/mask89.png""],[""img/mask46.png""],[""img/mask58.png""],[""img/mask68.png""],[""img/mask32.png""],[""img/mask67.png""],[""img/mask25.png""],[""img/mask88.png""],[""img/mask34.png""],[""img/mask47.png""],[""img/mask2.png""],[""img/mask88.png""],[""img/mask15.png""],[""img/mask30.png""],[""img/mask3.png""],[""img/mask85.png""],[""img/mask80.png""],[""img/mask23.png""],[""img/mask66.png""],[""img/mask58.png""],[""img/mask51.png""],[""img/mask21.png""],[""img/mask52.png""],[""img/mask73.png""],[""img/mask96.png""],[""img/mask31.png""],[""img/mask21.png""],[""img/mask65.png""],[""img/mask61.png""],[""img/mask47.png""],[""img/mask77.png""],[""img/mask8.png""],[""img/mask48.png""]]]","","[34,6,32,19,21,30,20,3,2,15,0,13,9,25,5,23,7,17,12,10,27,24,26,28,16,31,1,8,18,29,14,33,22,35,11,4]","main","249","many-guess-6"
"","","","","","html-keyboard-response","121","363528","0.0-10.0-0.51","56de362a6893b5000dea58f5","640759fa512f630a2bdc333d","640785c9903930be7597e7bf","null","","null","","","","","","","","","","","","","","","","","","","fixation","",""
"","","","","","many-guess-6","122","368379","0.0-10.0-1.51-0.51","56de362a6893b5000dea58f5","640759fa512f630a2bdc333d","640785c9903930be7597e7bf","[2061.300000011921]","","","[18,7,10,35,34,25,6,23,15,12,4,2,22,33,8,32,21,3,29,11,28,9,20,16,24,19,5,1,14,26,17,31,13,30,0,27]","[210,300,31,121,290,71,21,240,170,61,230,111,330,81,310,101,41,1,131,151,11,340,320,260,220,280,200,350,250,141,160,91,270,51,190,180]","210","318","157.32345357826625","[157.32345357826625]","[199.32345357826625]","[198]","[30,120,300,30,30,210,210,30,30]","0","36","0","147.99700003577163","21.60699998808559","16","[[[""img/mask16.png""],[""img/mask57.png""],[""img/mask28.png""],[""img/mask7.png""],[""img/mask78.png""],[""img/mask94.png""],[""img/mask60.png""],[""img/mask76.png""],[""img/mask98.png""],[""img/mask2.png""],[""img/mask99.png""],[""img/mask54.png""],[""img/mask19.png""],[""img/mask77.png""],[""img/mask14.png""],[""img/mask94.png""],[""img/mask8.png""],[""img/mask21.png""],[""img/mask67.png""],[""img/mask71.png""],[""img/mask77.png""],[""img/mask22.png""],[""img/mask98.png""],[""img/mask78.png""],[""img/mask20.png""],[""img/mask99.png""],[""img/mask77.png""],[""img/mask12.png""],[""img/mask55.png""],[""img/mask80.png""],[""img/mask92.png""],[""img/mask13.png""],[""img/mask64.png""],[""img/mask83.png""],[""img/mask42.png""],[""img/mask53.png""]]]","","[18,7,10,35,34,25,6,23,15,12,4,2,22,33,8,32,21,3,29,11,28,9,20,16,24,19,5,1,14,26,17,31,13,30,0,27]","main","318","many-guess-6"
"","","","","","html-keyboard-response","123","368885","0.0-10.0-0.52","56de362a6893b5000dea58f5","640759fa512f630a2bdc333d","640785c9903930be7597e7bf","null","","null","","","","","","","","","","","","","","","","","","","fixation","",""
"","","","","","color-precision2","124","372115","0.0-10.0-1.52-0.52","56de362a6893b5000dea58f5","640759fa512f630a2bdc333d","640785c9903930be7597e7bf","[562.8999999761581]","","","[2]","[223]","223","304","172.7591451226309","[172.7591451226309]","[228.7591451226309]","[228]","0","0","1","0","148.35999999998603","1007.6699999999837","1000","[[[""img/mask48.png""]]]","","","main","304","color-precision2"
"","","","","","html-keyboard-response","125","372617","0.0-10.0-0.53","56de362a6893b5000dea58f5","640759fa512f630a2bdc333d","640785c9903930be7597e7bf","null","","null","","","","","","","","","","","","","","","","","","","fixation","",""
"","","","","","color-precision2","126","375515","0.0-10.0-1.53-0.53","56de362a6893b5000dea58f5","640759fa512f630a2bdc333d","640785c9903930be7597e7bf","[295.5]","","","[20]","[223]","223","89","","[null]","[null]","[220]","0","0","1","0","147.84000001189997","994.7500000357395","1000","[[[""img/mask56.png""]]]","","","main","89","color-precision2"
"","","","","","html-keyboard-response","127","376017","0.0-10.0-0.54","56de362a6893b5000dea58f5","640759fa512f630a2bdc333d","640785c9903930be7597e7bf","null","","null","","","","","","","","","","","","","","","","","","","fixation","",""
"","","","","","many-guess-6","128","380191","0.0-10.0-1.54-0.54","56de362a6893b5000dea58f5","640759fa512f630a2bdc333d","640785c9903930be7597e7bf","[2653.399999976158]","","","[12,19,1,10,14,8,26,5,15,29,2,6,23,34,30,20,7,16,17,25,27,22,3,13,9,33,31,32,11,0,28,4,35,24,21,18]","[53,262,133,103,113,222,63,312,123,232,242,252,322,43,23,13,3,342,183,352,212,272,83,292,193,282,143,153,33,203,73,163,93,302,173,332]","53","343","244.15303613324465","[244.15303613324465]","[261.15303613324465]","[261]","[300,30,300,30,210,30,120,30,30]","0","36","0","147.53100000001723","23.540999988093972","16","[[[""img/mask77.png""],[""img/mask31.png""],[""img/mask68.png""],[""img/mask15.png""],[""img/mask41.png""],[""img/mask50.png""],[""img/mask12.png""],[""img/mask14.png""],[""img/mask23.png""],[""img/mask77.png""],[""img/mask26.png""],[""img/mask16.png""],[""img/mask50.png""],[""img/mask17.png""],[""img/mask36.png""],[""img/mask92.png""],[""img/mask28.png""],[""img/mask19.png""],[""img/mask23.png""],[""img/mask23.png""],[""img/mask46.png""],[""img/mask1.png""],[""img/mask64.png""],[""img/mask11.png""],[""img/mask33.png""],[""img/mask50.png""],[""img/mask16.png""],[""img/mask13.png""],[""img/mask28.png""],[""img/mask89.png""],[""img/mask81.png""],[""img/mask66.png""],[""img/mask59.png""],[""img/mask9.png""],[""img/mask47.png""],[""img/mask9.png""]]]","","[12,19,1,10,14,8,26,5,15,29,2,6,23,34,30,20,7,16,17,25,27,22,3,13,9,33,31,32,11,0,28,4,35,24,21,18]","main","343","many-guess-6"
"","","","","","html-keyboard-response","129","380694","0.0-10.0-0.55","56de362a6893b5000dea58f5","640759fa512f630a2bdc333d","640785c9903930be7597e7bf","null","","null","","","","","","","","","","","","","","","","","","","fixation","",""
"","","","","","color-precision2","130","383935","0.0-10.0-1.55-0.55","56de362a6893b5000dea58f5","640759fa512f630a2bdc333d","640785c9903930be7597e7bf","[480.10000002384186]","","","[22]","[228]","228","8","247.61626392840566","[247.61626392840566]","[239.61626392840566]","[240]","0","0","1","0","147.16500003577676","996.2749999880907","1000","[[[""img/mask54.png""]]]","","","main","8","color-precision2"
"","","","","","html-keyboard-response","131","384436","0.0-10.0-0.56","56de362a6893b5000dea58f5","640759fa512f630a2bdc333d","640785c9903930be7597e7bf","null","","null","","","","","","","","","","","","","","","","","","","fixation","",""
"","","","","","color-precision2","132","387226","0.0-10.0-1.56-0.56","56de362a6893b5000dea58f5","640759fa512f630a2bdc333d","640785c9903930be7597e7bf","[271.30000001192093]","","","[23]","[274]","274","51","327.19461687494305","[327.19461687494305]","[276.19461687494305]","[276]","0","0","1","0","148.45499998808373","1007.2649999880814","1000","[[[""img/mask23.png""]]]","","","main","51","color-precision2"
"","","","","","html-keyboard-response","133","387734","0.0-10.0-0.57","56de362a6893b5000dea58f5","640759fa512f630a2bdc333d","640785c9903930be7597e7bf","null","","null","","","","","","","","","","","","","","","","","","","fixation","",""
"","","","","","many-guess-6","134","391806","0.0-10.0-1.57-0.57","56de362a6893b5000dea58f5","640759fa512f630a2bdc333d","640785c9903930be7597e7bf","[2566.900000035763]","","","[33,7,29,12,25,32,6,13,24,18,11,19,28,15,20,35,1,21,27,2,14,30,9,10,16,8,3,0,4,26,23,5,22,34,31,17]","[303,103,333,183,73,143,233,213,83,33,163,133,203,63,43,153,283,93,123,13,23,273,263,313,113,53,253,173,293,223,193,323,243,3,343,352]","303","295","168.42558631025062","[168.42558631025062]","[233.42558631025062]","[232]","[210,120,210,210,300,120,210,30,30]","0","36","0","148.50800002383767","17.118000035756268","16","[[[""img/mask13.png""],[""img/mask94.png""],[""img/mask64.png""],[""img/mask87.png""],[""img/mask84.png""],[""img/mask81.png""],[""img/mask2.png""],[""img/mask2.png""],[""img/mask17.png""],[""img/mask64.png""],[""img/mask70.png""],[""img/mask32.png""],[""img/mask48.png""],[""img/mask64.png""],[""img/mask29.png""],[""img/mask91.png""],[""img/mask58.png""],[""img/mask12.png""],[""img/mask44.png""],[""img/mask38.png""],[""img/mask70.png""],[""img/mask6.png""],[""img/mask64.png""],[""img/mask26.png""],[""img/mask63.png""],[""img/mask98.png""],[""img/mask55.png""],[""img/mask83.png""],[""img/mask5.png""],[""img/mask64.png""],[""img/mask9.png""],[""img/mask7.png""],[""img/mask16.png""],[""img/mask77.png""],[""img/mask99.png""],[""img/mask5.png""]]]","","[33,7,29,12,25,32,6,13,24,18,11,19,28,15,20,35,1,21,27,2,14,30,9,10,16,8,3,0,4,26,23,5,22,34,31,17]","main","295","many-guess-6"
"","","","","","html-keyboard-response","135","392309","0.0-10.0-0.58","56de362a6893b5000dea58f5","640759fa512f630a2bdc333d","640785c9903930be7597e7bf","null","","null","","","","","","","","","","","","","","","","","","","fixation","",""
"","","","","","many-guess-6","136","395478","0.0-10.0-1.58-0.58","56de362a6893b5000dea58f5","640759fa512f630a2bdc333d","640785c9903930be7597e7bf","[1689.199999988079]","","","[6,28,12,7,27,35,34,9,3,30,15,13,17,18,10,31,2,1,33,16,8,5,25,19,11,26,32,24,22,20,4,23,14,0,29,21]","[60,190,50,200,130,30,300,319,150,40,160,70,20,260,210,220,280,349,339,100,250,309,140,329,230,120,290,359,90,270,170,180,110,10,240,80]","60","226","129.10958801830532","[129.10958801830532]","[263.1095880183053]","[261]","[210,30,30,300,120,120,120,210,120]","0","36","0","147.30200000002515","20.012000035785604","16","[[[""img/mask22.png""],[""img/mask47.png""],[""img/mask95.png""],[""img/mask61.png""],[""img/mask93.png""],[""img/mask30.png""],[""img/mask46.png""],[""img/mask98.png""],[""img/mask90.png""],[""img/mask2.png""],[""img/mask15.png""],[""img/mask33.png""],[""img/mask35.png""],[""img/mask27.png""],[""img/mask13.png""],[""img/mask12.png""],[""img/mask76.png""],[""img/mask64.png""],[""img/mask29.png""],[""img/mask20.png""],[""img/mask28.png""],[""img/mask71.png""],[""img/mask67.png""],[""img/mask10.png""],[""img/mask2.png""],[""img/mask90.png""],[""img/mask40.png""],[""img/mask44.png""],[""img/mask65.png""],[""img/mask36.png""],[""img/mask67.png""],[""img/mask58.png""],[""img/mask86.png""],[""img/mask36.png""],[""img/mask74.png""],[""img/mask74.png""]]]","","[6,28,12,7,27,35,34,9,3,30,15,13,17,18,10,31,2,1,33,16,8,5,25,19,11,26,32,24,22,20,4,23,14,0,29,21]","main","226","many-guess-6"
"","","","","","html-keyboard-response","137","397194","0.0-10.0-0.59","56de362a6893b5000dea58f5","640759fa512f630a2bdc333d","640785c9903930be7597e7bf","1715.5","Wow! You've completed 60 out of 180 trials! </p> <p>  </p><p> Take a quick break, then press any key when you're ready to continue."," ","","","","","","","","","","","","","","","","","","","fixation","",""
"","","","","","many-guess-6","138","400706","0.0-10.0-1.59-0.59","56de362a6893b5000dea58f5","640759fa512f630a2bdc333d","640785c9903930be7597e7bf","[1316.1000000238419]","","","[11,28,35,4,9,23,14,8,22,26,21,17,13,15,20,30,10,33,29,18,0,31,32,12,1,6,24,34,5,25,2,27,7,3,19,16]","[190,70,180,140,289,250,100,279,170,150,160,210,90,240,50,80,230,299,10,220,30,40,130,309,359,269,120,20,259,349,200,319,110,60,339,329]","190","118","246.36799444187784","[246.36799444187784]","[128.36799444187784]","[128]","[210,30,30,300,30,30,120,30,210]","0","36","0","147.48600003577303","12.996000023849774","16","[[[""img/mask1.png""],[""img/mask25.png""],[""img/mask19.png""],[""img/mask16.png""],[""img/mask86.png""],[""img/mask57.png""],[""img/mask40.png""],[""img/mask80.png""],[""img/mask95.png""],[""img/mask37.png""],[""img/mask65.png""],[""img/mask100.png""],[""img/mask62.png""],[""img/mask23.png""],[""img/mask54.png""],[""img/mask73.png""],[""img/mask46.png""],[""img/mask88.png""],[""img/mask49.png""],[""img/mask30.png""],[""img/mask53.png""],[""img/mask97.png""],[""img/mask38.png""],[""img/mask6.png""],[""img/mask58.png""],[""img/mask14.png""],[""img/mask67.png""],[""img/mask74.png""],[""img/mask57.png""],[""img/mask70.png""],[""img/mask85.png""],[""img/mask81.png""],[""img/mask11.png""],[""img/mask81.png""],[""img/mask92.png""],[""img/mask47.png""]]]","","[11,28,35,4,9,23,14,8,22,26,21,17,13,15,20,30,10,33,29,18,0,31,32,12,1,6,24,34,5,25,2,27,7,3,19,16]","main","118","many-guess-6"
"","","","","","html-keyboard-response","139","401210","0.0-10.0-0.60","56de362a6893b5000dea58f5","640759fa512f630a2bdc333d","640785c9903930be7597e7bf","null","","null","","","","","","","","","","","","","","","","","","","fixation","",""
"","","","","","color-precision2","140","404141","0.0-10.0-1.60-0.60","56de362a6893b5000dea58f5","640759fa512f630a2bdc333d","640785c9903930be7597e7bf","[566.8000000119209]","","","[8]","[270]","270","172","82.96519076852209","[82.96519076852209]","[270.9651907685221]","[270]","0","0","1","0","147.74200000002747","996.9520000357879","1000","[[[""img/mask94.png""]]]","","","main","172","color-precision2"
"","","","","","html-keyboard-response","141","404643","0.0-10.0-0.61","56de362a6893b5000dea58f5","640759fa512f630a2bdc333d","640785c9903930be7597e7bf","null","","null","","","","","","","","","","","","","","","","","","","fixation","",""
"","","","","","color-precision2","142","408070","0.0-10.0-1.61-0.61","56de362a6893b5000dea58f5","640759fa512f630a2bdc333d","640785c9903930be7597e7bf","[796.5]","","","[31]","[46]","46","275","312.734760052856","[312.734760052856]","[37.73476005285602]","[38]","0","0","1","0","149.36000002385117","1002.769999988086","1000","[[[""img/mask99.png""]]]","","","main","275","color-precision2"
"","","","","","html-keyboard-response","143","408572","0.0-10.0-0.62","56de362a6893b5000dea58f5","640759fa512f630a2bdc333d","640785c9903930be7597e7bf","null","","null","","","","","","","","","","","","","","","","","","","fixation","",""
"","","","","","color-precision2","144","411789","0.0-10.0-1.62-0.62","56de362a6893b5000dea58f5","640759fa512f630a2bdc333d","640785c9903930be7597e7bf","[681.7999999523163]","","","[34]","[295]","295","72","22.016157147336752","[22.016157147336752]","[310.01615714733674]","[309]","0","0","1","0","148.32999998808373","995.4400000000023","1000","[[[""img/mask74.png""]]]","","","main","72","color-precision2"
"","","","","","html-keyboard-response","145","412292","0.0-10.0-0.63","56de362a6893b5000dea58f5","640759fa512f630a2bdc333d","640785c9903930be7597e7bf","null","","null","","","","","","","","","","","","","","","","","","","fixation","",""
"","","","","","color-precision2","146","415583","0.0-10.0-1.63-0.63","56de362a6893b5000dea58f5","640759fa512f630a2bdc333d","640785c9903930be7597e7bf","[808.6999999880791]","","","[13]","[315]","315","63","32.383030085340955","[32.383030085340955]","[329.383030085341]","[328]","0","0","1","0","148.74999998806743","995.660000011907","1000","[[[""img/mask58.png""]]]","","","main","63","color-precision2"
"","","","","","html-keyboard-response","147","416087","0.0-10.0-0.64","56de362a6893b5000dea58f5","640759fa512f630a2bdc333d","640785c9903930be7597e7bf","null","","null","","","","","","","","","","","","","","","","","","","fixation","",""
"","","","","","color-precision2","148","418729","0.0-10.0-1.64-0.64","56de362a6893b5000dea58f5","640759fa512f630a2bdc333d","640785c9903930be7597e7bf","[137.5]","","","[12]","[166]","166","171","","[null]","[null]","[171]","0","0","1","0","148.35100002383115","1000.4610000357497","1000","[[[""img/mask4.png""]]]","","","main","171","color-precision2"
"","","","","","html-keyboard-response","149","419238","0.0-10.0-0.65","56de362a6893b5000dea58f5","640759fa512f630a2bdc333d","640785c9903930be7597e7bf","null","","null","","","","","","","","","","","","","","","","","","","fixation","",""
"","","","","","many-guess-6","150","422300","0.0-10.0-1.65-0.65","56de362a6893b5000dea58f5","640759fa512f630a2bdc333d","640785c9903930be7597e7bf","[1541]","","","[30,17,12,9,0,32,4,14,23,7,21,6,5,18,16,11,1,24,26,33,35,31,2,13,27,20,25,3,15,29,10,34,28,22,8,19]","[284,135,75,145,235,225,314,25,344,125,115,274,254,304,324,15,55,294,264,65,205,195,175,35,245,5,165,185,334,354,95,155,105,215,45,85]","284","15","207.36614525528853","[207.36614525528853]","[192.36614525528853]","[192]","[210,210,30,30,300,30,210,120,30]","0","36","0","147.32100002386142","21.33100001193816","16","[[[""img/mask12.png""],[""img/mask19.png""],[""img/mask8.png""],[""img/mask63.png""],[""img/mask2.png""],[""img/mask92.png""],[""img/mask15.png""],[""img/mask4.png""],[""img/mask69.png""],[""img/mask16.png""],[""img/mask3.png""],[""img/mask11.png""],[""img/mask40.png""],[""img/mask1.png""],[""img/mask87.png""],[""img/mask61.png""],[""img/mask63.png""],[""img/mask15.png""],[""img/mask37.png""],[""img/mask65.png""],[""img/mask22.png""],[""img/mask6.png""],[""img/mask60.png""],[""img/mask29.png""],[""img/mask61.png""],[""img/mask92.png""],[""img/mask61.png""],[""img/mask91.png""],[""img/mask33.png""],[""img/mask7.png""],[""img/mask61.png""],[""img/mask50.png""],[""img/mask46.png""],[""img/mask25.png""],[""img/mask77.png""],[""img/mask22.png""]]]","","[30,17,12,9,0,32,4,14,23,7,21,6,5,18,16,11,1,24,26,33,35,31,2,13,27,20,25,3,15,29,10,34,28,22,8,19]","main","15","many-guess-6"
"","","","","","html-keyboard-response","151","422805","0.0-10.0-0.66","56de362a6893b5000dea58f5","640759fa512f630a2bdc333d","640785c9903930be7597e7bf","null","","null","","","","","","","","","","","","","","","","","","","fixation","",""
"","","","","","color-precision2","152","426221","0.0-10.0-1.66-0.66","56de362a6893b5000dea58f5","640759fa512f630a2bdc333d","640785c9903930be7597e7bf","[811.1000000238419]","","","[6]","[149]","149","302","97.28340160855552","[97.28340160855552]","[155.28340160855552]","[153]","0","0","1","0","147.39199998805998","1001.7019999880577","1000","[[[""img/mask43.png""]]]","","","main","302","color-precision2"
"","","","","","html-keyboard-response","153","426724","0.0-10.0-0.67","56de362a6893b5000dea58f5","640759fa512f630a2bdc333d","640785c9903930be7597e7bf","null","","null","","","","","","","","","","","","","","","","","","","fixation","",""
"","","","","","many-guess-6","154","430651","0.0-10.0-1.67-0.67","56de362a6893b5000dea58f5","640759fa512f630a2bdc333d","640785c9903930be7597e7bf","[2174.100000023842]","","","[12,20,13,1,3,33,4,0,8,14,26,17,5,21,7,28,24,18,30,34,10,19,2,29,11,23,31,6,27,16,22,25,35,32,9,15]","[6,355,176,226,306,336,206,196,326,96,296,186,316,246,86,276,106,66,256,236,156,345,36,116,146,266,26,136,76,16,46,166,56,286,216,126]","6","77","108.32194130510028","[108.32194130510028]","[31.32194130510028]","[29]","[120,300,210,210,30,120,210,210,300]","0","36","0","147.38800002384232","21.097999999998137","16","[[[""img/mask76.png""],[""img/mask85.png""],[""img/mask31.png""],[""img/mask13.png""],[""img/mask98.png""],[""img/mask97.png""],[""img/mask2.png""],[""img/mask52.png""],[""img/mask8.png""],[""img/mask58.png""],[""img/mask32.png""],[""img/mask23.png""],[""img/mask90.png""],[""img/mask24.png""],[""img/mask80.png""],[""img/mask76.png""],[""img/mask5.png""],[""img/mask83.png""],[""img/mask85.png""],[""img/mask55.png""],[""img/mask49.png""],[""img/mask22.png""],[""img/mask96.png""],[""img/mask36.png""],[""img/mask17.png""],[""img/mask80.png""],[""img/mask14.png""],[""img/mask58.png""],[""img/mask61.png""],[""img/mask89.png""],[""img/mask86.png""],[""img/mask48.png""],[""img/mask5.png""],[""img/mask51.png""],[""img/mask19.png""],[""img/mask96.png""]]]","","[12,20,13,1,3,33,4,0,8,14,26,17,5,21,7,28,24,18,30,34,10,19,2,29,11,23,31,6,27,16,22,25,35,32,9,15]","main","77","many-guess-6"
"","","","","","html-keyboard-response","155","431158","0.0-10.0-0.68","56de362a6893b5000dea58f5","640759fa512f630a2bdc333d","640785c9903930be7597e7bf","null","","null","","","","","","","","","","","","","","","","","","","fixation","",""
"","","","","","color-precision2","156","434401","0.0-10.0-1.68-0.68","56de362a6893b5000dea58f5","640759fa512f630a2bdc333d","640785c9903930be7597e7bf","[756.5]","","","[33]","[17]","17","0","353.8125391916876","[353.8125391916876]","[353.8125391916876]","[353]","0","0","1","0","147.91499999997905","1005.088000023854","1000","[[[""img/mask94.png""]]]","","","main","0","color-precision2"
"","","","","","html-keyboard-response","157","434908","0.0-10.0-0.69","56de362a6893b5000dea58f5","640759fa512f630a2bdc333d","640785c9903930be7597e7bf","null","","null","","","","","","","","","","","","","","","","","","","fixation","",""
"","","","","","color-precision2","158","437629","0.0-10.0-1.69-0.69","56de362a6893b5000dea58f5","640759fa512f630a2bdc333d","640785c9903930be7597e7bf","[284.30000001192093]","","","[20]","[349]","349","103","90.87806751906274","[90.87806751906274]","[347.8780675190627]","[346]","0","0","1","0","147.83300003578188","1001.3430000238586","1000","[[[""img/mask38.png""]]]","","","main","103","color-precision2"
"","","","","","html-keyboard-response","159","438132","0.0-10.0-0.70","56de362a6893b5000dea58f5","640759fa512f630a2bdc333d","640785c9903930be7597e7bf","null","","null","","","","","","","","","","","","","","","","","","","fixation","",""
"","","","","","many-guess-6","160","441532","0.0-10.0-1.70-0.70","56de362a6893b5000dea58f5","640759fa512f630a2bdc333d","640785c9903930be7597e7bf","[1637.199999988079]","","","[0,11,10,12,2,16,26,14,25,17,18,1,27,7,9,28,6,5,22,20,35,15,33,34,32,13,29,21,23,19,3,31,4,8,30,24]","[229,309,279,209,169,99,239,159,139,259,269,129,149,49,59,9,189,89,319,69,219,339,299,289,109,79,39,249,29,349,19,359,199,179,119,329]","229","242","128.71898569656938","[128.71898569656938]","[246.71898569656938]","[245]","[120,210,300,210,120,120,30,300,120]","0","36","0","147.8900000238209","23.900000011897646","16","[[[""img/mask12.png""],[""img/mask43.png""],[""img/mask99.png""],[""img/mask88.png""],[""img/mask73.png""],[""img/mask37.png""],[""img/mask15.png""],[""img/mask14.png""],[""img/mask7.png""],[""img/mask73.png""],[""img/mask24.png""],[""img/mask2.png""],[""img/mask80.png""],[""img/mask31.png""],[""img/mask77.png""],[""img/mask56.png""],[""img/mask23.png""],[""img/mask60.png""],[""img/mask76.png""],[""img/mask97.png""],[""img/mask5.png""],[""img/mask59.png""],[""img/mask12.png""],[""img/mask70.png""],[""img/mask87.png""],[""img/mask55.png""],[""img/mask76.png""],[""img/mask66.png""],[""img/mask54.png""],[""img/mask50.png""],[""img/mask11.png""],[""img/mask32.png""],[""img/mask34.png""],[""img/mask67.png""],[""img/mask32.png""],[""img/mask72.png""]]]","","[0,11,10,12,2,16,26,14,25,17,18,1,27,7,9,28,6,5,22,20,35,15,33,34,32,13,29,21,23,19,3,31,4,8,30,24]","main","242","many-guess-6"
"","","","","","html-keyboard-response","161","442032","0.0-10.0-0.71","56de362a6893b5000dea58f5","640759fa512f630a2bdc333d","640785c9903930be7597e7bf","null","","null","","","","","","","","","","","","","","","","","","","fixation","",""
"","","","","","many-guess-6","162","445810","0.0-10.0-1.71-0.71","56de362a6893b5000dea58f5","640759fa512f630a2bdc333d","640785c9903930be7597e7bf","[2232]","","","[30,10,35,21,29,31,25,23,9,24,5,6,16,4,20,0,18,2,8,11,34,13,12,27,22,7,17,15,3,33,28,26,19,14,1,32]","[210,230,40,100,180,150,329,50,130,339,90,140,30,200,240,359,70,170,260,10,289,190,80,160,309,120,270,250,319,60,20,349,110,299,220,279]","210","175","18.48719750420592","[18.48719750420592]","[203.4871975042059]","[202]","[30,30,30,120,120,30,210,30,300]","0","36","0","147.33899998810375","17.04900002386421","16","[[[""img/mask74.png""],[""img/mask43.png""],[""img/mask51.png""],[""img/mask21.png""],[""img/mask66.png""],[""img/mask58.png""],[""img/mask13.png""],[""img/mask42.png""],[""img/mask92.png""],[""img/mask80.png""],[""img/mask19.png""],[""img/mask66.png""],[""img/mask41.png""],[""img/mask17.png""],[""img/mask39.png""],[""img/mask93.png""],[""img/mask30.png""],[""img/mask71.png""],[""img/mask63.png""],[""img/mask13.png""],[""img/mask46.png""],[""img/mask33.png""],[""img/mask53.png""],[""img/mask85.png""],[""img/mask48.png""],[""img/mask53.png""],[""img/mask62.png""],[""img/mask96.png""],[""img/mask60.png""],[""img/mask48.png""],[""img/mask93.png""],[""img/mask36.png""],[""img/mask90.png""],[""img/mask11.png""],[""img/mask56.png""],[""img/mask22.png""]]]","","[30,10,35,21,29,31,25,23,9,24,5,6,16,4,20,0,18,2,8,11,34,13,12,27,22,7,17,15,3,33,28,26,19,14,1,32]","main","175","many-guess-6"
"","","","","","html-keyboard-response","163","446313","0.0-10.0-0.72","56de362a6893b5000dea58f5","640759fa512f630a2bdc333d","640785c9903930be7597e7bf","null","","null","","","","","","","","","","","","","","","","","","","fixation","",""
"","","","","","many-guess-6","164","450161","0.0-10.0-1.72-0.72","56de362a6893b5000dea58f5","640759fa512f630a2bdc333d","640785c9903930be7597e7bf","[2312.399999976158]","","","[28,35,1,10,4,30,23,18,14,2,25,16,7,15,33,22,9,20,29,11,8,0,6,5,12,19,27,32,24,3,13,21,31,34,26,17]","[178,358,208,59,348,228,29,258,338,308,318,218,118,79,278,138,148,9,188,99,248,69,109,298,19,168,198,128,238,268,158,39,49,89,288,328]","178","112","320.6258948778308","[320.6258948778308]","[208.62589487783077]","[209]","[120,30,120,300,300,210,210,210,300]","0","36","0","147.7649999880814","15.275000035762787","16","[[[""img/mask35.png""],[""img/mask25.png""],[""img/mask64.png""],[""img/mask61.png""],[""img/mask74.png""],[""img/mask66.png""],[""img/mask74.png""],[""img/mask23.png""],[""img/mask100.png""],[""img/mask33.png""],[""img/mask47.png""],[""img/mask95.png""],[""img/mask6.png""],[""img/mask47.png""],[""img/mask20.png""],[""img/mask75.png""],[""img/mask63.png""],[""img/mask32.png""],[""img/mask56.png""],[""img/mask23.png""],[""img/mask29.png""],[""img/mask68.png""],[""img/mask76.png""],[""img/mask100.png""],[""img/mask71.png""],[""img/mask24.png""],[""img/mask68.png""],[""img/mask77.png""],[""img/mask38.png""],[""img/mask46.png""],[""img/mask59.png""],[""img/mask42.png""],[""img/mask99.png""],[""img/mask18.png""],[""img/mask38.png""],[""img/mask49.png""]]]","","[28,35,1,10,4,30,23,18,14,2,25,16,7,15,33,22,9,20,29,11,8,0,6,5,12,19,27,32,24,3,13,21,31,34,26,17]","main","112","many-guess-6"
"","","","","","html-keyboard-response","165","450662","0.0-10.0-0.73","56de362a6893b5000dea58f5","640759fa512f630a2bdc333d","640785c9903930be7597e7bf","null","","null","","","","","","","","","","","","","","","","","","","fixation","",""
"","","","","","color-precision2","166","453646","0.0-10.0-1.73-0.73","56de362a6893b5000dea58f5","640759fa512f630a2bdc333d","640785c9903930be7597e7bf","[182.19999998807907]","","","[5]","[23]","23","40","38.38052594012991","[38.38052594012991]","[358.3805259401299]","[357]","0","0","1","0","149.01799999998184","993.3279999999795","1000","[[[""img/mask75.png""]]]","","","main","40","color-precision2"
