"success","timeout","failed_images","failed_audio","failed_video","trial_type","trial_index","time_elapsed","internal_node_id","subject_id","study_id","session_id","rt","stimulus","response","position_of_items","colors_of_items","color_of_target","wheel_spin","response_angle","physical_response_angle","reported_color_angle","reported_color_discrete","locs","which_test","set_size","wheel_num_options","actual_mask_duration","actual_stim_duration","CMDispTime","maskArray","maskRotation","item_positions","task","randomSpinAmount","mainTask"
"true","false","[]","[]","[]","preload","0","3945","0.0-0.0","59aba109d4ef6600011211c9","640759fa512f630a2bdc333d","6408c17ae3484d9b041fddbc","","","","","","","","","","","","","","","","","","","","","","","",""
"true","","","","","fullscreen","1","232856","0.0-1.0","59aba109d4ef6600011211c9","640759fa512f630a2bdc333d","6408c17ae3484d9b041fddbc","","","","","","","","","","","","","","","","","","","","","","","",""
"","","","","","html-keyboard-response","2","239361","0.0-2.0","59aba109d4ef6600011211c9","640759fa512f630a2bdc333d","6408c17ae3484d9b041fddbc","6503.5","What a beautiful Wednesday to do some awesome science! </p> <p>  </p><p> </p>
    By completing this survey or questionnaire, you are consenting to be in this research study. </p>
    Your participation is voluntary and you can stop at any time.<p> [Press any key to continue] </p>"," ","","","","","","","","","","","","","","","","","","","","",""
"","","","","","html-keyboard-response","3","249375","0.0-3.0","59aba109d4ef6600011211c9","640759fa512f630a2bdc333d","6408c17ae3484d9b041fddbc","7108.200000001118","
    <div style='width: 1000px;'>
    <div style='float: center;'><img src='img/TaskInstructions1.png'></img>
    </div>
    "," ","","","","","","","","","","","","","","","","","","","","",""
"","","","","","html-keyboard-response","4","253630","0.0-4.0","59aba109d4ef6600011211c9","640759fa512f630a2bdc333d","6408c17ae3484d9b041fddbc","4253.300000000745","
    <div style='width: 1000px;'>
    <div style='float: center;'><img src='img/TaskInstructions1.png'></img>
    </div>
    "," ","","","","","","","","","","","","","","","","","","","","",""
"","","","","","html-keyboard-response","5","263644","0.0-5.0","59aba109d4ef6600011211c9","640759fa512f630a2bdc333d","6408c17ae3484d9b041fddbc","null","
    <div style='width: 1000px;'>
    <div style='float: center;'><img src='img/TaskInstructions2.png'></img>
    </div>
    ","null","","","","","","","","","","","","","","","","","","","","",""
"","","","","","html-keyboard-response","6","267679","0.0-6.0","59aba109d4ef6600011211c9","640759fa512f630a2bdc333d","6408c17ae3484d9b041fddbc","4034.5","
    <div style='width: 1000px;'>
    <div style='float: center;'><img src='img/TaskInstructions2.png'></img>
    </div>
    "," ","","","","","","","","","","","","","","","","","","","","",""
"","","","","","video-keyboard-response","7","277695","0.0-7.0","59aba109d4ef6600011211c9","640759fa512f630a2bdc333d","6408c17ae3484d9b041fddbc","10010.89999999851","[""video/TaskInstructions3.mp4""]"," ","","","","","","","","","","","","","","","","","","","","",""
"","","","","","image-keyboard-response","8","283126","0.0-8.0-0.0","59aba109d4ef6600011211c9","640759fa512f630a2bdc333d","6408c17ae3484d9b041fddbc","5428","img/training1.png"," ","","","","","","","","","","","","","","","","","","","","",""
"","","","","","color-precision2","9","299441","0.0-8.0-1.0-0.0","59aba109d4ef6600011211c9","640759fa512f630a2bdc333d","6408c17ae3484d9b041fddbc","[6501.5]","","","[31]","[347]","347","349","331.3872702733057","[331.3872702733057]","[342.3872702733057]","[342]","0","0","1","0","498.7890000010957","1002.118000001472","1000","","","0","training","",""
"","","","","","image-keyboard-response","10","308334","0.0-8.0-0.1","59aba109d4ef6600011211c9","640759fa512f630a2bdc333d","6408c17ae3484d9b041fddbc","8890.89999999851","img/training2.png"," ","","","","","","","","","","","","","","","","","","","","",""
"","","","","","many-guess-6","11","317870","0.0-8.0-1.1-0.1","59aba109d4ef6600011211c9","640759fa512f630a2bdc333d","6408c17ae3484d9b041fddbc","[2318.199999999255]","","","[24,11,29]","[101,136,36]","101","50","202.42025149298019","[202.42025149298019]","[152.42025149298019]","[152]","[120,120,300,300,210,120,210,300,30,120,210,120,120,300,30,120,210,210,30,30,300,300,30,300,300,120,30,300,30,300,30,210,210,300,300,30]","0","3","0","998.984000000346","992.431000000739","1000","[[[""img/mask5.png""],[""img/mask46.png""],[""img/mask76.png""]]]","","[24,11,29]","training","",""
"","","","","","image-keyboard-response","12","322110","0.0-8.0-0.2","59aba109d4ef6600011211c9","640759fa512f630a2bdc333d","6408c17ae3484d9b041fddbc","4238.4000000003725","img/training3.png"," ","","","","","","","","","","","","","","","","","","","","",""
"","","","","","[""many-guess-6""]","13","331215","0.0-8.0-1.2-0.2","59aba109d4ef6600011211c9","640759fa512f630a2bdc333d","6408c17ae3484d9b041fddbc","[4282.5999999996275]","","","[3,19,25,28,30]","[95,110,318,7,58]","95","254","143.63422107302958","[143.63422107302958]","[249.63422107302958]","[248]","[210,30,300,300,300,210,300,210,30,210,30,300,120,300,30,300,120,300,210,30,300,300,30,300,120,120,300,30,30,300,210,300,30,120,120,300]","0","5","0","498.98300000076415","501.297000000719","500","[[[""img/mask63.png""],[""img/mask66.png""],[""img/mask19.png""],[""img/mask53.png""],[""img/mask79.png""]]]","","[3,19,25,28,30]","training","",""
"","","","","","image-keyboard-response","14","336318","0.0-8.0-0.3","59aba109d4ef6600011211c9","640759fa512f630a2bdc333d","6408c17ae3484d9b041fddbc","5100.800000000745","img/training4.png"," ","","","","","","","","","","","","","","","","","","","","",""
"","","","","","[""many-guess-6""]","15","344002","0.0-8.0-1.3-0.3","59aba109d4ef6600011211c9","640759fa512f630a2bdc333d","6408c17ae3484d9b041fddbc","[3206.7000000011176]","","","[18,2,35,12,3,34,14,9,33,8]","[160,38,175,129,356,9,24,85,61,106]","160","209","221.8436458663533","[221.8436458663533]","[12.843645866353313]","[13]","[120,120,210,210,210,210,210,210,300,120,120,300,30,120,210,30,120,210,30,120,30,120,300,120,30,210,210,210,210,300,210,120,300,300,120,210]","0","10","0","131.50700000108918","125.22300000151154","132","[[[""img/mask76.png""],[""img/mask25.png""],[""img/mask82.png""],[""img/mask59.png""],[""img/mask30.png""],[""img/mask25.png""],[""img/mask96.png""],[""img/mask75.png""],[""img/mask13.png""],[""img/mask63.png""]]]","","[18,2,35,12,3,34,14,9,33,8]","training","",""
"","","","","","image-keyboard-response","16","348054","0.0-8.0-0.4","59aba109d4ef6600011211c9","640759fa512f630a2bdc333d","6408c17ae3484d9b041fddbc","4050.300000000745","img/training5.png"," ","","","","","","","","","","","","","","","","","","","","",""
"","","","","","[""many-guess-6""]","17","355009","0.0-8.0-1.4-0.4","59aba109d4ef6600011211c9","640759fa512f630a2bdc333d","6408c17ae3484d9b041fddbc","[3184.300000000745]","","","[6,22,24,9,35,0,4,26,16,20,5,32,10,33,23,12,19,13,8,31,14,29,3,2,21,7,18,30,1,28,27,34,15,25,17,11]","[273,93,113,303,143,203,353,123,243,163,223,263,44,34,233,313,83,173,183,293,283,73,213,253,333,14,54,4,63,133,103,24,153,343,323,193]","273","356","151.376263294482","[151.376263294482]","[155.376263294482]","[154]","[120,300,120,210,210,300,120,120,30,210,120,120,300,210,300,210,120,120,120,300,210,120,120,30,210,210,210,300,210,300,210,300,30,300,300,120]","0","36","0","132.40400000149384","16.675000000745058","16","[[[""img/mask33.png""],[""img/mask31.png""],[""img/mask55.png""],[""img/mask17.png""],[""img/mask21.png""],[""img/mask25.png""],[""img/mask88.png""],[""img/mask69.png""],[""img/mask22.png""],[""img/mask96.png""],[""img/mask18.png""],[""img/mask96.png""],[""img/mask41.png""],[""img/mask1.png""],[""img/mask35.png""],[""img/mask5.png""],[""img/mask96.png""],[""img/mask94.png""],[""img/mask72.png""],[""img/mask39.png""],[""img/mask75.png""],[""img/mask9.png""],[""img/mask70.png""],[""img/mask97.png""],[""img/mask34.png""],[""img/mask98.png""],[""img/mask4.png""],[""img/mask19.png""],[""img/mask51.png""],[""img/mask62.png""],[""img/mask15.png""],[""img/mask76.png""],[""img/mask27.png""],[""img/mask89.png""],[""img/mask68.png""],[""img/mask28.png""]]]","","[6,22,24,9,35,0,4,26,16,20,5,32,10,33,23,12,19,13,8,31,14,29,3,2,21,7,18,30,1,28,27,34,15,25,17,11]","training","",""
"","","","","","image-keyboard-response","18","358806","0.0-9.0","59aba109d4ef6600011211c9","640759fa512f630a2bdc333d","6408c17ae3484d9b041fddbc","3795","[""img/endTraining.png""]"," ","","","","","","","","","","","","","","","","","","","","",""
"","","","","","html-keyboard-response","19","359309","0.0-10.0-0.0","59aba109d4ef6600011211c9","640759fa512f630a2bdc333d","6408c17ae3484d9b041fddbc","null","","null","","","","","","","","","","","","","","","","","","","fixation","",""
"","","","","","color-precision2","20","365278","0.0-10.0-1.0-0.0","59aba109d4ef6600011211c9","640759fa512f630a2bdc333d","6408c17ae3484d9b041fddbc","[2571.5]","","","[5]","[201]","201","56","286.2837133913972","[286.2837133913972]","[230.2837133913972]","[230]","0","0","1","0","148.9020000003511","993.2750000003725","1000","[[[""img/mask19.png""]]]","","","main","56","color-precision2"
"","","","","","html-keyboard-response","21","365789","0.0-10.0-0.1","59aba109d4ef6600011211c9","640759fa512f630a2bdc333d","6408c17ae3484d9b041fddbc","null","","null","","","","","","","","","","","","","","","","","","","fixation","",""
"","","","","","color-precision2","22","371985","0.0-10.0-1.1-0.1","59aba109d4ef6600011211c9","640759fa512f630a2bdc333d","6408c17ae3484d9b041fddbc","[2531]","","","[23]","[268]","268","287","201.96873234509033","[201.96873234509033]","[274.9687323450903]","[274]","0","0","1","0","149.25199999997858","991.7920000011218","1000","[[[""img/mask34.png""]]]","","","main","287","color-precision2"
"","","","","","html-keyboard-response","23","372487","0.0-10.0-0.2","59aba109d4ef6600011211c9","640759fa512f630a2bdc333d","6408c17ae3484d9b041fddbc","null","","null","","","","","","","","","","","","","","","","","","","fixation","",""
"","","","","","many-guess-6","24","377121","0.0-10.0-1.2-0.2","59aba109d4ef6600011211c9","640759fa512f630a2bdc333d","6408c17ae3484d9b041fddbc","[2201.2000000011176]","","","[35,3,21,5,9,12,33,4,27,34,11,28,7,19,13,15,14,26,29,1,20,17,2,24,18,32,22,25,16,31,8,10,0,23,30,6]","[133,253,143,233,283,33,223,153,83,123,14,343,273,93,53,263,63,193,173,43,243,203,333,73,113,183,303,4,353,313,293,103,323,163,213,23]","133","87","57.78907080371387","[57.78907080371387]","[330.78907080371386]","[329]","[30,210,120,210,300,210,210,210,120]","0","36","0","149.61200000002282","21.299000000348315","16","[[[""img/mask39.png""],[""img/mask96.png""],[""img/mask95.png""],[""img/mask99.png""],[""img/mask48.png""],[""img/mask65.png""],[""img/mask12.png""],[""img/mask51.png""],[""img/mask40.png""],[""img/mask82.png""],[""img/mask31.png""],[""img/mask23.png""],[""img/mask91.png""],[""img/mask94.png""],[""img/mask60.png""],[""img/mask84.png""],[""img/mask69.png""],[""img/mask11.png""],[""img/mask87.png""],[""img/mask52.png""],[""img/mask39.png""],[""img/mask66.png""],[""img/mask68.png""],[""img/mask40.png""],[""img/mask4.png""],[""img/mask12.png""],[""img/mask15.png""],[""img/mask79.png""],[""img/mask75.png""],[""img/mask17.png""],[""img/mask44.png""],[""img/mask62.png""],[""img/mask13.png""],[""img/mask85.png""],[""img/mask37.png""],[""img/mask26.png""]]]","","[35,3,21,5,9,12,33,4,27,34,11,28,7,19,13,15,14,26,29,1,20,17,2,24,18,32,22,25,16,31,8,10,0,23,30,6]","main","87","many-guess-6"
"","","","","","html-keyboard-response","25","377622","0.0-10.0-0.3","59aba109d4ef6600011211c9","640759fa512f630a2bdc333d","6408c17ae3484d9b041fddbc","null","","null","","","","","","","","","","","","","","","","","","","fixation","",""
"","","","","","color-precision2","26","384158","0.0-10.0-1.3-0.3","59aba109d4ef6600011211c9","640759fa512f630a2bdc333d","6408c17ae3484d9b041fddbc","[3256.9000000003725]","","","[7]","[266]","266","48","336.80890922914574","[336.80890922914574]","[288.80890922914574]","[288]","0","0","1","0","149.1590000007418","1008.0600000007544","1000","[[[""img/mask71.png""]]]","","","main","48","color-precision2"
"","","","","","html-keyboard-response","27","384669","0.0-10.0-0.4","59aba109d4ef6600011211c9","640759fa512f630a2bdc333d","6408c17ae3484d9b041fddbc","null","","null","","","","","","","","","","","","","","","","","","","fixation","",""
"","","","","","many-guess-6","28","390880","0.0-10.0-1.4-0.4","59aba109d4ef6600011211c9","640759fa512f630a2bdc333d","6408c17ae3484d9b041fddbc","[3863.0999999996275]","","","[1,16,35,30,18,10,28,15,2,8,29,24,0,21,7,27,20,25,23,26,33,9,34,19,11,14,4,17,22,3,13,31,6,12,32,5]","[353,283,253,343,193,124,144,54,174,203,323,34,243,74,213,313,94,114,333,4,263,104,134,303,24,164,44,14,223,154,184,84,233,64,293,273]","353","231","221.15251315305227","[221.15251315305227]","[350.15251315305227]","[350]","[210,30,300,30,120,300,300,300,300]","0","36","0","149.4079999999958","12.956000001518987","16","[[[""img/mask63.png""],[""img/mask48.png""],[""img/mask15.png""],[""img/mask1.png""],[""img/mask4.png""],[""img/mask9.png""],[""img/mask42.png""],[""img/mask80.png""],[""img/mask39.png""],[""img/mask59.png""],[""img/mask23.png""],[""img/mask21.png""],[""img/mask87.png""],[""img/mask40.png""],[""img/mask10.png""],[""img/mask20.png""],[""img/mask63.png""],[""img/mask64.png""],[""img/mask70.png""],[""img/mask30.png""],[""img/mask18.png""],[""img/mask2.png""],[""img/mask97.png""],[""img/mask10.png""],[""img/mask44.png""],[""img/mask41.png""],[""img/mask82.png""],[""img/mask15.png""],[""img/mask53.png""],[""img/mask10.png""],[""img/mask14.png""],[""img/mask36.png""],[""img/mask88.png""],[""img/mask100.png""],[""img/mask83.png""],[""img/mask99.png""]]]","","[1,16,35,30,18,10,28,15,2,8,29,24,0,21,7,27,20,25,23,26,33,9,34,19,11,14,4,17,22,3,13,31,6,12,32,5]","main","231","many-guess-6"
"","","","","","html-keyboard-response","29","391381","0.0-10.0-0.5","59aba109d4ef6600011211c9","640759fa512f630a2bdc333d","6408c17ae3484d9b041fddbc","null","","null","","","","","","","","","","","","","","","","","","","fixation","",""
"","","","","","color-precision2","30","398107","0.0-10.0-1.5-0.5","59aba109d4ef6600011211c9","640759fa512f630a2bdc333d","6408c17ae3484d9b041fddbc","[3925.9000000003725]","","","[27]","[105]","105","167","263.8320686697067","[263.8320686697067]","[96.8320686697067]","[97]","0","0","1","0","148.4099999999744","993.6320000003907","1000","[[[""img/mask39.png""]]]","","","main","167","color-precision2"
"","","","","","html-keyboard-response","31","398625","0.0-10.0-0.6","59aba109d4ef6600011211c9","640759fa512f630a2bdc333d","6408c17ae3484d9b041fddbc","null","","null","","","","","","","","","","","","","","","","","","","fixation","",""
"","","","","","color-precision2","32","404215","0.0-10.0-1.6-0.6","59aba109d4ef6600011211c9","640759fa512f630a2bdc333d","6408c17ae3484d9b041fddbc","[2019.0999999996275]","","","[6]","[113]","113","259","359.4366378092809","[359.4366378092809]","[100.43663780928091]","[100]","0","0","1","0","149.31800000113435","1004.8960000003572","1000","[[[""img/mask38.png""]]]","","","main","259","color-precision2"
"","","","","","html-keyboard-response","33","404717","0.0-10.0-0.7","59aba109d4ef6600011211c9","640759fa512f630a2bdc333d","6408c17ae3484d9b041fddbc","null","","null","","","","","","","","","","","","","","","","","","","fixation","",""
"","","","","","color-precision2","34","411448","0.0-10.0-1.7-0.7","59aba109d4ef6600011211c9","640759fa512f630a2bdc333d","6408c17ae3484d9b041fddbc","[3871.10000000149]","","","[35]","[260]","260","193","97.45862403083436","[97.45862403083436]","[264.45862403083436]","[263]","0","0","1","0","147.39000000036322","997.5810000000056","1000","[[[""img/mask96.png""]]]","","","main","193","color-precision2"
"","","","","","html-keyboard-response","35","411949","0.0-10.0-0.8","59aba109d4ef6600011211c9","640759fa512f630a2bdc333d","6408c17ae3484d9b041fddbc","null","","null","","","","","","","","","","","","","","","","","","","fixation","",""
"","","","","","color-precision2","36","416663","0.0-10.0-1.8-0.8","59aba109d4ef6600011211c9","640759fa512f630a2bdc333d","6408c17ae3484d9b041fddbc","[1920.800000000745]","","","[4]","[162]","162","202","1.1520977169414628","[1.1520977169414628]","[159.15209771694146]","[158]","0","0","1","0","149.47900000150548","995.2739999999758","1000","[[[""img/mask99.png""]]]","","","main","202","color-precision2"
"","","","","","html-keyboard-response","37","417165","0.0-10.0-0.9","59aba109d4ef6600011211c9","640759fa512f630a2bdc333d","6408c17ae3484d9b041fddbc","null","","null","","","","","","","","","","","","","","","","","","","fixation","",""
"","","","","","color-precision2","38","421769","0.0-10.0-1.9-0.9","59aba109d4ef6600011211c9","640759fa512f630a2bdc333d","6408c17ae3484d9b041fddbc","[1477.9000000003725]","","","[33]","[301]","301","243","178.92465414859032","[178.92465414859032]","[295.9246541485903]","[295]","0","0","1","0","149.63500000111526","998.7340000007534","1000","[[[""img/mask100.png""]]]","","","main","243","color-precision2"
"","","","","","html-keyboard-response","39","422270","0.0-10.0-0.10","59aba109d4ef6600011211c9","640759fa512f630a2bdc333d","6408c17ae3484d9b041fddbc","null","","null","","","","","","","","","","","","","","","","","","","fixation","",""
"","","","","","many-guess-6","40","426195","0.0-10.0-1.10-0.10","59aba109d4ef6600011211c9","640759fa512f630a2bdc333d","6408c17ae3484d9b041fddbc","[2171.4000000003725]","","","[9,0,8,15,35,25,10,34,18,27,4,28,12,24,17,30,23,16,14,13,22,26,1,5,20,6,11,3,7,2,29,19,31,21,33,32]","[102,311,152,162,331,321,42,52,62,32,351,291,171,221,12,211,2,261,72,92,341,241,142,271,132,281,112,201,22,251,82,231,122,181,191,301]","102","299","34.49976364055696","[34.49976364055696]","[95.49976364055698]","[94]","[210,210,210,30,300,300,30,30,210]","0","36","0","149.29100000002654","22.690000000351574","16","[[[""img/mask61.png""],[""img/mask11.png""],[""img/mask40.png""],[""img/mask62.png""],[""img/mask69.png""],[""img/mask19.png""],[""img/mask62.png""],[""img/mask83.png""],[""img/mask21.png""],[""img/mask92.png""],[""img/mask57.png""],[""img/mask72.png""],[""img/mask12.png""],[""img/mask57.png""],[""img/mask50.png""],[""img/mask90.png""],[""img/mask10.png""],[""img/mask7.png""],[""img/mask69.png""],[""img/mask100.png""],[""img/mask81.png""],[""img/mask99.png""],[""img/mask77.png""],[""img/mask61.png""],[""img/mask76.png""],[""img/mask100.png""],[""img/mask10.png""],[""img/mask99.png""],[""img/mask66.png""],[""img/mask11.png""],[""img/mask8.png""],[""img/mask93.png""],[""img/mask51.png""],[""img/mask99.png""],[""img/mask5.png""],[""img/mask66.png""]]]","","[9,0,8,15,35,25,10,34,18,27,4,28,12,24,17,30,23,16,14,13,22,26,1,5,20,6,11,3,7,2,29,19,31,21,33,32]","main","299","many-guess-6"
"","","","","","html-keyboard-response","41","426697","0.0-10.0-0.11","59aba109d4ef6600011211c9","640759fa512f630a2bdc333d","6408c17ae3484d9b041fddbc","null","","null","","","","","","","","","","","","","","","","","","","fixation","",""
"","","","","","color-precision2","42","431467","0.0-10.0-1.11-0.11","59aba109d4ef6600011211c9","640759fa512f630a2bdc333d","6408c17ae3484d9b041fddbc","[1544.4000000003725]","","","[16]","[70]","70","292","352.9603031421028","[352.9603031421028]","[60.960303142102816]","[60]","0","0","1","0","149.3070000007283","995.7470000014873","1000","[[[""img/mask13.png""]]]","","","main","292","color-precision2"
"","","","","","html-keyboard-response","43","431968","0.0-10.0-0.12","59aba109d4ef6600011211c9","640759fa512f630a2bdc333d","6408c17ae3484d9b041fddbc","null","","null","","","","","","","","","","","","","","","","","","","fixation","",""
"","","","","","color-precision2","44","436134","0.0-10.0-1.12-0.12","59aba109d4ef6600011211c9","640759fa512f630a2bdc333d","6408c17ae3484d9b041fddbc","[1162.699999999255]","","","[24]","[155]","155","30","186.73065280700757","[186.73065280700757]","[156.73065280700757]","[156]","0","0","1","0","149.5970000011148","995.7440000014612","1000","[[[""img/mask2.png""]]]","","","main","30","color-precision2"
"","","","","","html-keyboard-response","45","436636","0.0-10.0-0.13","59aba109d4ef6600011211c9","640759fa512f630a2bdc333d","6408c17ae3484d9b041fddbc","null","","null","","","","","","","","","","","","","","","","","","","fixation","",""
"","","","","","many-guess-6","46","440004","0.0-10.0-1.13-0.13","59aba109d4ef6600011211c9","640759fa512f630a2bdc333d","6408c17ae3484d9b041fddbc","[1716.7000000011176]","","","[15,3,27,14,31,12,6,24,26,1,8,5,2,22,19,32,17,25,11,9,0,16,7,4,18,21,20,23,33,30,10,34,29,28,35,13]","[257,58,277,68,247,347,147,138,128,217,98,237,28,118,337,187,18,88,327,267,357,167,177,8,108,78,197,48,157,207,287,317,307,297,227,38]","257","313","309.0606597318721","[309.0606597318721]","[356.0606597318721]","[356]","[210,30,120,30,300,300,30,30,210]","0","36","0","149.21800000109943","12.382999999972526","16","[[[""img/mask35.png""],[""img/mask74.png""],[""img/mask21.png""],[""img/mask9.png""],[""img/mask32.png""],[""img/mask14.png""],[""img/mask19.png""],[""img/mask77.png""],[""img/mask84.png""],[""img/mask44.png""],[""img/mask53.png""],[""img/mask97.png""],[""img/mask89.png""],[""img/mask99.png""],[""img/mask47.png""],[""img/mask10.png""],[""img/mask94.png""],[""img/mask50.png""],[""img/mask14.png""],[""img/mask32.png""],[""img/mask72.png""],[""img/mask89.png""],[""img/mask47.png""],[""img/mask91.png""],[""img/mask31.png""],[""img/mask41.png""],[""img/mask42.png""],[""img/mask45.png""],[""img/mask63.png""],[""img/mask17.png""],[""img/mask29.png""],[""img/mask10.png""],[""img/mask34.png""],[""img/mask17.png""],[""img/mask90.png""],[""img/mask89.png""]]]","","[15,3,27,14,31,12,6,24,26,1,8,5,2,22,19,32,17,25,11,9,0,16,7,4,18,21,20,23,33,30,10,34,29,28,35,13]","main","313","many-guess-6"
"","","","","","html-keyboard-response","47","440507","0.0-10.0-0.14","59aba109d4ef6600011211c9","640759fa512f630a2bdc333d","6408c17ae3484d9b041fddbc","null","","null","","","","","","","","","","","","","","","","","","","fixation","",""
"","","","","","color-precision2","48","444011","0.0-10.0-1.14-0.14","59aba109d4ef6600011211c9","640759fa512f630a2bdc333d","6408c17ae3484d9b041fddbc","[958.3000000007451]","","","[18]","[147]","147","136","286.222605260891","[286.222605260891]","[150.222605260891]","[151]","0","0","1","0","148.97899999999208","995.005000001518","1000","[[[""img/mask64.png""]]]","","","main","136","color-precision2"
"","","","","","html-keyboard-response","49","444512","0.0-10.0-0.15","59aba109d4ef6600011211c9","640759fa512f630a2bdc333d","6408c17ae3484d9b041fddbc","null","","null","","","","","","","","","","","","","","","","","","","fixation","",""
"","","","","","many-guess-6","50","448712","0.0-10.0-1.15-0.15","59aba109d4ef6600011211c9","640759fa512f630a2bdc333d","6408c17ae3484d9b041fddbc","[2193]","","","[25,22,29,0,13,1,2,14,21,30,15,18,27,4,17,10,33,8,26,19,6,5,34,35,24,31,28,16,23,3,9,11,20,7,32,12]","[138,188,98,248,148,88,118,268,69,198,218,288,278,29,9,49,178,39,358,158,59,79,108,338,298,238,168,208,348,19,328,228,318,128,308,258]","138","290","181.11564829268505","[181.11564829268505]","[251.11564829268505]","[251]","[210,30,300,30,120,120,30,30,210]","0","36","0","148.75800000037998","13.757000001496635","16","[[[""img/mask25.png""],[""img/mask62.png""],[""img/mask30.png""],[""img/mask74.png""],[""img/mask12.png""],[""img/mask30.png""],[""img/mask59.png""],[""img/mask5.png""],[""img/mask41.png""],[""img/mask52.png""],[""img/mask5.png""],[""img/mask92.png""],[""img/mask83.png""],[""img/mask45.png""],[""img/mask98.png""],[""img/mask39.png""],[""img/mask54.png""],[""img/mask63.png""],[""img/mask99.png""],[""img/mask46.png""],[""img/mask82.png""],[""img/mask96.png""],[""img/mask61.png""],[""img/mask18.png""],[""img/mask58.png""],[""img/mask35.png""],[""img/mask69.png""],[""img/mask73.png""],[""img/mask56.png""],[""img/mask16.png""],[""img/mask60.png""],[""img/mask64.png""],[""img/mask56.png""],[""img/mask53.png""],[""img/mask89.png""],[""img/mask75.png""]]]","","[25,22,29,0,13,1,2,14,21,30,15,18,27,4,17,10,33,8,26,19,6,5,34,35,24,31,28,16,23,3,9,11,20,7,32,12]","main","290","many-guess-6"
"","","","","","html-keyboard-response","51","449213","0.0-10.0-0.16","59aba109d4ef6600011211c9","640759fa512f630a2bdc333d","6408c17ae3484d9b041fddbc","null","","null","","","","","","","","","","","","","","","","","","","fixation","",""
"","","","","","color-precision2","52","453109","0.0-10.0-1.16-0.16","59aba109d4ef6600011211c9","640759fa512f630a2bdc333d","6408c17ae3484d9b041fddbc","[1292]","","","[27]","[243]","243","165","53.52378495034569","[53.52378495034569]","[248.52378495034569]","[247]","0","0","1","0","149.05100000149105","995.5300000014831","1000","[[[""img/mask16.png""]]]","","","main","165","color-precision2"
"","","","","","html-keyboard-response","53","453611","0.0-10.0-0.17","59aba109d4ef6600011211c9","640759fa512f630a2bdc333d","6408c17ae3484d9b041fddbc","null","","null","","","","","","","","","","","","","","","","","","","fixation","",""
"","","","","","color-precision2","54","457666","0.0-10.0-1.17-0.17","59aba109d4ef6600011211c9","640759fa512f630a2bdc333d","6408c17ae3484d9b041fddbc","[1066.199999999255]","","","[29]","[146]","146","205","350.9334969845081","[350.9334969845081]","[145.9334969845081]","[146]","0","0","1","0","149.23300000076415","1002.198000001139","1000","[[[""img/mask85.png""]]]","","","main","205","color-precision2"
"","","","","","html-keyboard-response","55","458167","0.0-10.0-0.18","59aba109d4ef6600011211c9","640759fa512f630a2bdc333d","6408c17ae3484d9b041fddbc","null","","null","","","","","","","","","","","","","","","","","","","fixation","",""
"","","","","","many-guess-6","56","461786","0.0-10.0-1.18-0.18","59aba109d4ef6600011211c9","640759fa512f630a2bdc333d","6408c17ae3484d9b041fddbc","[1954.2000000011176]","","","[19,14,3,5,0,27,6,25,12,28,15,8,29,30,16,17,11,13,31,23,18,10,7,1,32,21,33,35,24,34,2,26,20,4,22,9]","[17,316,86,56,346,326,106,66,276,96,256,47,186,136,37,176,146,206,116,27,306,156,196,7,246,266,216,336,126,226,236,356,286,76,296,166]","17","280","170.44247929569568","[170.44247929569568]","[250.44247929569568]","[249]","[120,120,300,210,30,120,30,210,210]","0","36","0","147.71899999998277","10.48400000075344","16","[[[""img/mask34.png""],[""img/mask82.png""],[""img/mask50.png""],[""img/mask12.png""],[""img/mask25.png""],[""img/mask68.png""],[""img/mask14.png""],[""img/mask49.png""],[""img/mask1.png""],[""img/mask13.png""],[""img/mask80.png""],[""img/mask19.png""],[""img/mask84.png""],[""img/mask89.png""],[""img/mask75.png""],[""img/mask9.png""],[""img/mask35.png""],[""img/mask2.png""],[""img/mask48.png""],[""img/mask82.png""],[""img/mask93.png""],[""img/mask8.png""],[""img/mask92.png""],[""img/mask24.png""],[""img/mask76.png""],[""img/mask70.png""],[""img/mask11.png""],[""img/mask100.png""],[""img/mask37.png""],[""img/mask20.png""],[""img/mask34.png""],[""img/mask8.png""],[""img/mask7.png""],[""img/mask74.png""],[""img/mask39.png""],[""img/mask3.png""]]]","","[19,14,3,5,0,27,6,25,12,28,15,8,29,30,16,17,11,13,31,23,18,10,7,1,32,21,33,35,24,34,2,26,20,4,22,9]","main","280","many-guess-6"
"","","","","","html-keyboard-response","57","466151","0.0-10.0-0.19","59aba109d4ef6600011211c9","640759fa512f630a2bdc333d","6408c17ae3484d9b041fddbc","4363.5","Wow! You've completed 20 out of 180 trials! </p> <p>  </p><p> Take a quick break, then press any key when you're ready to continue."," ","","","","","","","","","","","","","","","","","","","fixation","",""
"","","","","","many-guess-6","58","471106","0.0-10.0-1.19-0.19","59aba109d4ef6600011211c9","640759fa512f630a2bdc333d","6408c17ae3484d9b041fddbc","[2243.0999999996275]","","","[13,16,3,32,34,8,0,31,17,21,5,19,6,24,15,20,27,29,30,12,25,26,4,14,11,10,18,9,33,28,1,22,23,35,2,7]","[188,327,208,237,68,28,168,8,88,18,287,267,178,277,247,228,357,307,78,317,297,38,148,347,138,98,198,257,337,118,158,218,58,128,48,108]","188","293","287.4666887951314","[287.4666887951314]","[354.4666887951314]","[355]","[300,300,210,300,210,120,210,210,210]","0","36","0","148.45100000110688","11.456000000354834","16","[[[""img/mask52.png""],[""img/mask24.png""],[""img/mask52.png""],[""img/mask42.png""],[""img/mask66.png""],[""img/mask46.png""],[""img/mask87.png""],[""img/mask90.png""],[""img/mask96.png""],[""img/mask45.png""],[""img/mask9.png""],[""img/mask26.png""],[""img/mask59.png""],[""img/mask13.png""],[""img/mask42.png""],[""img/mask73.png""],[""img/mask1.png""],[""img/mask8.png""],[""img/mask75.png""],[""img/mask6.png""],[""img/mask62.png""],[""img/mask38.png""],[""img/mask50.png""],[""img/mask75.png""],[""img/mask16.png""],[""img/mask55.png""],[""img/mask82.png""],[""img/mask20.png""],[""img/mask44.png""],[""img/mask27.png""],[""img/mask31.png""],[""img/mask69.png""],[""img/mask97.png""],[""img/mask41.png""],[""img/mask25.png""],[""img/mask19.png""]]]","","[13,16,3,32,34,8,0,31,17,21,5,19,6,24,15,20,27,29,30,12,25,26,4,14,11,10,18,9,33,28,1,22,23,35,2,7]","main","293","many-guess-6"
"","","","","","html-keyboard-response","59","471607","0.0-10.0-0.20","59aba109d4ef6600011211c9","640759fa512f630a2bdc333d","6408c17ae3484d9b041fddbc","null","","null","","","","","","","","","","","","","","","","","","","fixation","",""
"","","","","","color-precision2","60","475662","0.0-10.0-1.20-0.20","59aba109d4ef6600011211c9","640759fa512f630a2bdc333d","6408c17ae3484d9b041fddbc","[1250.0999999996275]","","","[35]","[328]","328","313","288.5390581676622","[288.5390581676622]","[335.5390581676622]","[337]","0","0","1","0","149.06500000110827","992.1530000003986","1000","[[[""img/mask92.png""]]]","","","main","313","color-precision2"
"","","","","","html-keyboard-response","61","476164","0.0-10.0-0.21","59aba109d4ef6600011211c9","640759fa512f630a2bdc333d","6408c17ae3484d9b041fddbc","null","","null","","","","","","","","","","","","","","","","","","","fixation","",""
"","","","","","many-guess-6","62","479938","0.0-10.0-1.21-0.21","59aba109d4ef6600011211c9","640759fa512f630a2bdc333d","6408c17ae3484d9b041fddbc","[2112]","","","[25,2,6,8,9,13,30,16,11,5,19,20,33,27,24,21,3,4,10,32,1,22,14,18,0,15,35,34,7,23,12,29,26,31,17,28]","[214,14,164,263,353,253,184,24,44,124,54,34,204,104,333,244,194,174,144,154,273,303,64,4,323,283,114,234,134,94,293,224,313,343,74,84]","214","84","229.40467991922594","[229.40467991922594]","[145.40467991922594]","[145]","[30,300,300,300,300,120,210,210,300]","0","36","0","149.2840000014985","12.321000000752974","16","[[[""img/mask4.png""],[""img/mask68.png""],[""img/mask46.png""],[""img/mask88.png""],[""img/mask73.png""],[""img/mask82.png""],[""img/mask54.png""],[""img/mask63.png""],[""img/mask12.png""],[""img/mask12.png""],[""img/mask18.png""],[""img/mask63.png""],[""img/mask42.png""],[""img/mask57.png""],[""img/mask64.png""],[""img/mask18.png""],[""img/mask37.png""],[""img/mask23.png""],[""img/mask49.png""],[""img/mask43.png""],[""img/mask18.png""],[""img/mask100.png""],[""img/mask80.png""],[""img/mask24.png""],[""img/mask96.png""],[""img/mask24.png""],[""img/mask98.png""],[""img/mask64.png""],[""img/mask36.png""],[""img/mask85.png""],[""img/mask56.png""],[""img/mask71.png""],[""img/mask52.png""],[""img/mask58.png""],[""img/mask89.png""],[""img/mask12.png""]]]","","[25,2,6,8,9,13,30,16,11,5,19,20,33,27,24,21,3,4,10,32,1,22,14,18,0,15,35,34,7,23,12,29,26,31,17,28]","main","84","many-guess-6"
"","","","","","html-keyboard-response","63","480439","0.0-10.0-0.22","59aba109d4ef6600011211c9","640759fa512f630a2bdc333d","6408c17ae3484d9b041fddbc","null","","null","","","","","","","","","","","","","","","","","","","fixation","",""
"","","","","","color-precision2","64","484923","0.0-10.0-1.22-0.22","59aba109d4ef6600011211c9","640759fa512f630a2bdc333d","6408c17ae3484d9b041fddbc","[1081.0999999996275]","","","[12]","[1]","1","33","35.77061425694212","[35.77061425694212]","[2.7706142569421175]","[1]","0","0","1","0","148.70700000150828","1006.127000000386","1000","[[[""img/mask69.png""]]]","","","main","33","color-precision2"
"","","","","","html-keyboard-response","65","485425","0.0-10.0-0.23","59aba109d4ef6600011211c9","640759fa512f630a2bdc333d","6408c17ae3484d9b041fddbc","null","","null","","","","","","","","","","","","","","","","","","","fixation","",""
"","","","","","many-guess-6","66","489566","0.0-10.0-1.23-0.23","59aba109d4ef6600011211c9","640759fa512f630a2bdc333d","6408c17ae3484d9b041fddbc","[2257.7000000011176]","","","[6,22,0,18,1,25,24,11,23,12,8,21,35,30,28,14,2,10,32,3,17,16,13,26,19,5,4,29,9,27,34,31,33,20,15,7]","[172,152,13,222,182,192,23,102,43,322,202,312,3,162,282,332,73,122,132,292,242,92,272,252,142,212,63,342,112,53,82,33,262,232,302,352]","172","117","112.46713157652108","[112.46713157652108]","[355.46713157652107]","[354]","[300,210,30,30,30,210,30,120,30]","0","36","0","149.0170000004","16.615000001504086","16","[[[""img/mask55.png""],[""img/mask55.png""],[""img/mask15.png""],[""img/mask14.png""],[""img/mask83.png""],[""img/mask7.png""],[""img/mask95.png""],[""img/mask13.png""],[""img/mask20.png""],[""img/mask3.png""],[""img/mask72.png""],[""img/mask78.png""],[""img/mask65.png""],[""img/mask44.png""],[""img/mask31.png""],[""img/mask68.png""],[""img/mask94.png""],[""img/mask24.png""],[""img/mask40.png""],[""img/mask5.png""],[""img/mask47.png""],[""img/mask23.png""],[""img/mask52.png""],[""img/mask60.png""],[""img/mask36.png""],[""img/mask92.png""],[""img/mask35.png""],[""img/mask80.png""],[""img/mask23.png""],[""img/mask17.png""],[""img/mask70.png""],[""img/mask41.png""],[""img/mask90.png""],[""img/mask27.png""],[""img/mask6.png""],[""img/mask42.png""]]]","","[6,22,0,18,1,25,24,11,23,12,8,21,35,30,28,14,2,10,32,3,17,16,13,26,19,5,4,29,9,27,34,31,33,20,15,7]","main","117","many-guess-6"
"","","","","","html-keyboard-response","67","490067","0.0-10.0-0.24","59aba109d4ef6600011211c9","640759fa512f630a2bdc333d","6408c17ae3484d9b041fddbc","null","","null","","","","","","","","","","","","","","","","","","","fixation","",""
"","","","","","color-precision2","68","494668","0.0-10.0-1.24-0.24","59aba109d4ef6600011211c9","640759fa512f630a2bdc333d","6408c17ae3484d9b041fddbc","[1560.4000000003725]","","","[1]","[67]","67","335","32.29759717104237","[32.29759717104237]","[57.297597171042355]","[56]","0","0","1","0","147.8570000011241","995.5890000014915","1000","[[[""img/mask21.png""]]]","","","main","335","color-precision2"
"","","","","","html-keyboard-response","69","495170","0.0-10.0-0.25","59aba109d4ef6600011211c9","640759fa512f630a2bdc333d","6408c17ae3484d9b041fddbc","null","","null","","","","","","","","","","","","","","","","","","","fixation","",""
"","","","","","color-precision2","70","500597","0.0-10.0-1.25-0.25","59aba109d4ef6600011211c9","640759fa512f630a2bdc333d","6408c17ae3484d9b041fddbc","[2408.4000000003725]","","","[1]","[305]","305","181","137.26255405586377","[137.26255405586377]","[316.2625540558638]","[314]","0","0","1","0","148.54100000072503","995.2250000014901","1000","[[[""img/mask29.png""]]]","","","main","181","color-precision2"
"","","","","","html-keyboard-response","71","501100","0.0-10.0-0.26","59aba109d4ef6600011211c9","640759fa512f630a2bdc333d","6408c17ae3484d9b041fddbc","null","","null","","","","","","","","","","","","","","","","","","","fixation","",""
"","","","","","color-precision2","72","504785","0.0-10.0-1.26-0.26","59aba109d4ef6600011211c9","640759fa512f630a2bdc333d","6408c17ae3484d9b041fddbc","[831.2000000011176]","","","[12]","[198]","198","177","29.688564905934278","[29.688564905934278]","[212.68856490593427]","[211]","0","0","1","0","148.7900000003865","995.120000000752","1000","[[[""img/mask40.png""]]]","","","main","177","color-precision2"
"","","","","","html-keyboard-response","73","505286","0.0-10.0-0.27","59aba109d4ef6600011211c9","640759fa512f630a2bdc333d","6408c17ae3484d9b041fddbc","null","","null","","","","","","","","","","","","","","","","","","","fixation","",""
"","","","","","many-guess-6","74","509548","0.0-10.0-1.27-0.27","59aba109d4ef6600011211c9","640759fa512f630a2bdc333d","6408c17ae3484d9b041fddbc","[2627.5999999996275]","","","[13,11,34,12,0,8,6,7,10,28,2,27,32,24,35,26,5,29,3,15,1,17,18,20,25,9,23,31,30,22,19,16,4,21,14,33]","[83,252,53,232,103,143,312,352,123,292,63,282,222,322,23,153,342,113,302,43,172,202,262,242,163,33,73,13,133,272,192,182,3,332,93,212]","83","232","218.78436515173456","[218.78436515173456]","[346.78436515173456]","[346]","[300,210,120,120,210,300,300,300,120]","0","36","0","149.06000000110362","10.549000000755768","16","[[[""img/mask81.png""],[""img/mask35.png""],[""img/mask82.png""],[""img/mask54.png""],[""img/mask7.png""],[""img/mask96.png""],[""img/mask57.png""],[""img/mask46.png""],[""img/mask40.png""],[""img/mask35.png""],[""img/mask50.png""],[""img/mask4.png""],[""img/mask16.png""],[""img/mask91.png""],[""img/mask79.png""],[""img/mask5.png""],[""img/mask74.png""],[""img/mask11.png""],[""img/mask89.png""],[""img/mask10.png""],[""img/mask49.png""],[""img/mask70.png""],[""img/mask27.png""],[""img/mask35.png""],[""img/mask100.png""],[""img/mask89.png""],[""img/mask46.png""],[""img/mask45.png""],[""img/mask60.png""],[""img/mask100.png""],[""img/mask10.png""],[""img/mask57.png""],[""img/mask76.png""],[""img/mask33.png""],[""img/mask43.png""],[""img/mask28.png""]]]","","[13,11,34,12,0,8,6,7,10,28,2,27,32,24,35,26,5,29,3,15,1,17,18,20,25,9,23,31,30,22,19,16,4,21,14,33]","main","232","many-guess-6"
"","","","","","html-keyboard-response","75","510049","0.0-10.0-0.28","59aba109d4ef6600011211c9","640759fa512f630a2bdc333d","6408c17ae3484d9b041fddbc","null","","null","","","","","","","","","","","","","","","","","","","fixation","",""
"","","","","","many-guess-6","76","513689","0.0-10.0-1.28-0.28","59aba109d4ef6600011211c9","640759fa512f630a2bdc333d","6408c17ae3484d9b041fddbc","[1920.6000000014901]","","","[7,8,4,3,22,31,23,27,15,14,12,16,19,35,18,25,21,2,24,5,13,29,20,17,26,9,1,10,34,11,33,30,28,6,0,32]","[320,61,31,121,350,11,310,161,290,51,300,151,251,221,111,340,241,261,270,21,91,330,231,201,171,181,211,131,101,141,81,280,41,1,71,191]","320","243","137.27150072941228","[137.27150072941228]","[254.27150072941228]","[253]","[120,30,30,300,30,210,30,30,120]","0","36","0","148.93500000075437","20.89900000038324","16","[[[""img/mask62.png""],[""img/mask30.png""],[""img/mask15.png""],[""img/mask10.png""],[""img/mask55.png""],[""img/mask94.png""],[""img/mask99.png""],[""img/mask39.png""],[""img/mask6.png""],[""img/mask79.png""],[""img/mask41.png""],[""img/mask1.png""],[""img/mask76.png""],[""img/mask65.png""],[""img/mask45.png""],[""img/mask73.png""],[""img/mask44.png""],[""img/mask6.png""],[""img/mask51.png""],[""img/mask10.png""],[""img/mask89.png""],[""img/mask63.png""],[""img/mask65.png""],[""img/mask17.png""],[""img/mask22.png""],[""img/mask20.png""],[""img/mask95.png""],[""img/mask30.png""],[""img/mask21.png""],[""img/mask99.png""],[""img/mask34.png""],[""img/mask93.png""],[""img/mask14.png""],[""img/mask49.png""],[""img/mask60.png""],[""img/mask32.png""]]]","","[7,8,4,3,22,31,23,27,15,14,12,16,19,35,18,25,21,2,24,5,13,29,20,17,26,9,1,10,34,11,33,30,28,6,0,32]","main","243","many-guess-6"
"","","","","","html-keyboard-response","77","514192","0.0-10.0-0.29","59aba109d4ef6600011211c9","640759fa512f630a2bdc333d","6408c17ae3484d9b041fddbc","null","","null","","","","","","","","","","","","","","","","","","","fixation","",""
"","","","","","many-guess-6","78","518655","0.0-10.0-1.29-0.29","59aba109d4ef6600011211c9","640759fa512f630a2bdc333d","6408c17ae3484d9b041fddbc","[2754]","","","[32,14,4,22,25,8,7,12,27,33,3,10,0,15,18,6,20,29,28,19,23,35,31,17,21,13,11,30,9,34,26,16,5,1,2,24]","[94,194,244,254,354,144,15,334,184,45,284,324,214,164,25,74,154,234,174,224,344,264,134,64,304,314,294,114,84,274,5,54,104,124,35,204]","94","174","340.5537416606524","[340.5537416606524]","[166.5537416606524]","[166]","[30,210,30,300,120,210,120,30,120]","0","36","0","149.0670000014943","23.675000000745058","16","[[[""img/mask32.png""],[""img/mask90.png""],[""img/mask35.png""],[""img/mask46.png""],[""img/mask75.png""],[""img/mask51.png""],[""img/mask99.png""],[""img/mask88.png""],[""img/mask77.png""],[""img/mask44.png""],[""img/mask26.png""],[""img/mask15.png""],[""img/mask73.png""],[""img/mask61.png""],[""img/mask6.png""],[""img/mask88.png""],[""img/mask28.png""],[""img/mask86.png""],[""img/mask2.png""],[""img/mask17.png""],[""img/mask39.png""],[""img/mask13.png""],[""img/mask89.png""],[""img/mask89.png""],[""img/mask87.png""],[""img/mask94.png""],[""img/mask47.png""],[""img/mask7.png""],[""img/mask13.png""],[""img/mask18.png""],[""img/mask38.png""],[""img/mask52.png""],[""img/mask39.png""],[""img/mask18.png""],[""img/mask90.png""],[""img/mask86.png""]]]","","[32,14,4,22,25,8,7,12,27,33,3,10,0,15,18,6,20,29,28,19,23,35,31,17,21,13,11,30,9,34,26,16,5,1,2,24]","main","174","many-guess-6"
"","","","","","html-keyboard-response","79","519161","0.0-10.0-0.30","59aba109d4ef6600011211c9","640759fa512f630a2bdc333d","6408c17ae3484d9b041fddbc","null","","null","","","","","","","","","","","","","","","","","","","fixation","",""
"","","","","","color-precision2","80","523270","0.0-10.0-1.30-0.30","59aba109d4ef6600011211c9","640759fa512f630a2bdc333d","6408c17ae3484d9b041fddbc","[1403]","","","[21]","[155]","155","352","159.32557582818842","[159.32557582818842]","[167.32557582818842]","[166]","0","0","1","0","148.31600000115577","992.4089999999851","1000","[[[""img/mask10.png""]]]","","","main","352","color-precision2"
"","","","","","html-keyboard-response","81","523771","0.0-10.0-0.31","59aba109d4ef6600011211c9","640759fa512f630a2bdc333d","6408c17ae3484d9b041fddbc","null","","null","","","","","","","","","","","","","","","","","","","fixation","",""
"","","","","","color-precision2","82","528455","0.0-10.0-1.31-0.31","59aba109d4ef6600011211c9","640759fa512f630a2bdc333d","6408c17ae3484d9b041fddbc","[1656.4000000003725]","","","[19]","[329]","329","262","236.28714040058338","[236.28714040058338]","[334.2871404005834]","[334]","0","0","1","0","149.10600000037812","1007.9920000003185","1000","[[[""img/mask31.png""]]]","","","main","262","color-precision2"
"","","","","","html-keyboard-response","83","528956","0.0-10.0-0.32","59aba109d4ef6600011211c9","640759fa512f630a2bdc333d","6408c17ae3484d9b041fddbc","null","","null","","","","","","","","","","","","","","","","","","","fixation","",""
"","","","","","color-precision2","84","534587","0.0-10.0-1.32-0.32","59aba109d4ef6600011211c9","640759fa512f630a2bdc333d","6408c17ae3484d9b041fddbc","[1857.5]","","","[21]","[201]","201","152","345.0245651372816","[345.0245651372816]","[193.02456513728163]","[193]","0","0","1","0","149.6300000003539","991.721000000718","1000","[[[""img/mask75.png""]]]","","","main","152","color-precision2"
"","","","","","html-keyboard-response","85","535096","0.0-10.0-0.33","59aba109d4ef6600011211c9","640759fa512f630a2bdc333d","6408c17ae3484d9b041fddbc","null","","null","","","","","","","","","","","","","","","","","","","fixation","",""
"","","","","","color-precision2","86","539119","0.0-10.0-1.33-0.33","59aba109d4ef6600011211c9","640759fa512f630a2bdc333d","6408c17ae3484d9b041fddbc","[723.7000000011176]","","","[10]","[274]","274","92","15.387211508918371","[15.387211508918371]","[283.38721150891837]","[282]","0","0","1","0","149.0750000004191","1004.7140000000363","1000","[[[""img/mask24.png""]]]","","","main","92","color-precision2"
"","","","","","html-keyboard-response","87","539621","0.0-10.0-0.34","59aba109d4ef6600011211c9","640759fa512f630a2bdc333d","6408c17ae3484d9b041fddbc","null","","null","","","","","","","","","","","","","","","","","","","fixation","",""
"","","","","","color-precision2","88","543201","0.0-10.0-1.34-0.34","59aba109d4ef6600011211c9","640759fa512f630a2bdc333d","6408c17ae3484d9b041fddbc","[1007.2000000011176]","","","[15]","[170]","170","118","291.2534143180734","[291.2534143180734]","[173.2534143180734]","[173]","0","0","1","0","149.2890000011539","996.6430000003893","1000","[[[""img/mask23.png""]]]","","","main","118","color-precision2"
"","","","","","html-keyboard-response","89","543702","0.0-10.0-0.35","59aba109d4ef6600011211c9","640759fa512f630a2bdc333d","6408c17ae3484d9b041fddbc","null","","null","","","","","","","","","","","","","","","","","","","fixation","",""
"","","","","","color-precision2","90","547981","0.0-10.0-1.35-0.35","59aba109d4ef6600011211c9","640759fa512f630a2bdc333d","6408c17ae3484d9b041fddbc","[921.4000000003725]","","","[13]","[28]","28","174","187.71813306326092","[187.71813306326092]","[13.718133063260922]","[13]","0","0","1","0","148.81700000003912","1004.6220000003232","1000","[[[""img/mask78.png""]]]","","","main","174","color-precision2"
"","","","","","html-keyboard-response","91","548482","0.0-10.0-0.36","59aba109d4ef6600011211c9","640759fa512f630a2bdc333d","6408c17ae3484d9b041fddbc","null","","null","","","","","","","","","","","","","","","","","","","fixation","",""
"","","","","","color-precision2","92","552236","0.0-10.0-1.36-0.36","59aba109d4ef6600011211c9","640759fa512f630a2bdc333d","6408c17ae3484d9b041fddbc","[1077.7000000011176]","","","[22]","[141]","141","274","59.69636172298924","[59.69636172298924]","[145.69636172298925]","[144]","0","0","1","0","148.2610000000568","994.2900000014342","1000","[[[""img/mask7.png""]]]","","","main","274","color-precision2"
"","","","","","html-keyboard-response","93","552738","0.0-10.0-0.37","59aba109d4ef6600011211c9","640759fa512f630a2bdc333d","6408c17ae3484d9b041fddbc","null","","null","","","","","","","","","","","","","","","","","","","fixation","",""
"","","","","","many-guess-6","94","556983","0.0-10.0-1.37-0.37","59aba109d4ef6600011211c9","640759fa512f630a2bdc333d","6408c17ae3484d9b041fddbc","[2125.5]","","","[33,9,17,31,15,24,10,21,13,1,29,3,2,12,32,35,14,18,23,6,11,27,20,16,25,19,30,22,7,34,4,26,28,8,0,5]","[85,244,115,354,45,175,274,185,35,264,5,15,155,344,294,334,95,254,145,135,324,214,204,75,105,284,234,304,195,25,65,55,314,224,165,125]","85","268","258.55543322064904","[258.55543322064904]","[350.55543322064904]","[351]","[30,120,300,120,210,210,30,120,210]","0","36","0","141.9130000011064","19.162000000360422","16","[[[""img/mask44.png""],[""img/mask46.png""],[""img/mask61.png""],[""img/mask7.png""],[""img/mask98.png""],[""img/mask31.png""],[""img/mask30.png""],[""img/mask95.png""],[""img/mask100.png""],[""img/mask27.png""],[""img/mask98.png""],[""img/mask17.png""],[""img/mask72.png""],[""img/mask44.png""],[""img/mask66.png""],[""img/mask63.png""],[""img/mask90.png""],[""img/mask10.png""],[""img/mask60.png""],[""img/mask28.png""],[""img/mask41.png""],[""img/mask39.png""],[""img/mask78.png""],[""img/mask61.png""],[""img/mask45.png""],[""img/mask30.png""],[""img/mask29.png""],[""img/mask88.png""],[""img/mask71.png""],[""img/mask63.png""],[""img/mask11.png""],[""img/mask95.png""],[""img/mask10.png""],[""img/mask88.png""],[""img/mask1.png""],[""img/mask38.png""]]]","","[33,9,17,31,15,24,10,21,13,1,29,3,2,12,32,35,14,18,23,6,11,27,20,16,25,19,30,22,7,34,4,26,28,8,0,5]","main","268","many-guess-6"
"","","","","","html-keyboard-response","95","557485","0.0-10.0-0.38","59aba109d4ef6600011211c9","640759fa512f630a2bdc333d","6408c17ae3484d9b041fddbc","null","","null","","","","","","","","","","","","","","","","","","","fixation","",""
"","","","","","many-guess-6","96","562699","0.0-10.0-1.38-0.38","59aba109d4ef6600011211c9","640759fa512f630a2bdc333d","6408c17ae3484d9b041fddbc","[2892.699999999255]","","","[35,32,1,2,22,21,12,13,31,11,33,10,27,26,0,15,20,9,34,18,6,23,4,25,17,29,7,8,5,30,14,28,3,24,16,19]","[180,140,50,289,170,130,150,299,40,359,10,100,230,250,279,30,90,309,110,20,80,260,339,120,160,200,220,270,319,70,60,210,349,329,190,240]","180","272","295.8340859595223","[295.8340859595223]","[23.834085959522326]","[24]","[120,120,300,30,120,300,300,300,210]","0","36","0","149.1720000000205","23.681000000797212","16","[[[""img/mask42.png""],[""img/mask23.png""],[""img/mask83.png""],[""img/mask27.png""],[""img/mask93.png""],[""img/mask85.png""],[""img/mask77.png""],[""img/mask19.png""],[""img/mask45.png""],[""img/mask10.png""],[""img/mask31.png""],[""img/mask10.png""],[""img/mask6.png""],[""img/mask97.png""],[""img/mask73.png""],[""img/mask100.png""],[""img/mask63.png""],[""img/mask69.png""],[""img/mask72.png""],[""img/mask83.png""],[""img/mask34.png""],[""img/mask88.png""],[""img/mask66.png""],[""img/mask93.png""],[""img/mask17.png""],[""img/mask82.png""],[""img/mask78.png""],[""img/mask99.png""],[""img/mask68.png""],[""img/mask43.png""],[""img/mask12.png""],[""img/mask1.png""],[""img/mask39.png""],[""img/mask58.png""],[""img/mask84.png""],[""img/mask78.png""]]]","","[35,32,1,2,22,21,12,13,31,11,33,10,27,26,0,15,20,9,34,18,6,23,4,25,17,29,7,8,5,30,14,28,3,24,16,19]","main","272","many-guess-6"
"","","","","","html-keyboard-response","97","564085","0.0-10.0-0.39","59aba109d4ef6600011211c9","640759fa512f630a2bdc333d","6408c17ae3484d9b041fddbc","1384.7999999988824","Wow! You've completed 40 out of 180 trials! </p> <p>  </p><p> Take a quick break, then press any key when you're ready to continue."," ","","","","","","","","","","","","","","","","","","","fixation","",""
"","","","","","many-guess-6","98","569080","0.0-10.0-1.39-0.39","59aba109d4ef6600011211c9","640759fa512f630a2bdc333d","6408c17ae3484d9b041fddbc","[2275.9000000003725]","","","[8,24,21,30,17,33,29,27,6,7,35,0,19,32,2,23,31,15,28,10,5,26,25,22,12,11,3,34,1,14,18,16,13,20,9,4]","[139,179,99,149,19,288,239,89,308,219,249,159,39,169,9,358,318,328,278,199,109,348,69,59,119,49,268,129,79,258,209,29,298,229,338,189]","139","299","199.13734465663555","[199.13734465663555]","[260.13734465663555]","[259]","[120,120,30,30,210,300,300,120,30]","0","36","0","150.0690000015311","20.53300000075251","16","[[[""img/mask31.png""],[""img/mask36.png""],[""img/mask43.png""],[""img/mask2.png""],[""img/mask77.png""],[""img/mask82.png""],[""img/mask74.png""],[""img/mask62.png""],[""img/mask33.png""],[""img/mask1.png""],[""img/mask59.png""],[""img/mask48.png""],[""img/mask16.png""],[""img/mask58.png""],[""img/mask29.png""],[""img/mask49.png""],[""img/mask8.png""],[""img/mask72.png""],[""img/mask11.png""],[""img/mask34.png""],[""img/mask19.png""],[""img/mask49.png""],[""img/mask21.png""],[""img/mask36.png""],[""img/mask37.png""],[""img/mask58.png""],[""img/mask26.png""],[""img/mask4.png""],[""img/mask52.png""],[""img/mask62.png""],[""img/mask26.png""],[""img/mask48.png""],[""img/mask21.png""],[""img/mask6.png""],[""img/mask96.png""],[""img/mask96.png""]]]","","[8,24,21,30,17,33,29,27,6,7,35,0,19,32,2,23,31,15,28,10,5,26,25,22,12,11,3,34,1,14,18,16,13,20,9,4]","main","299","many-guess-6"
"","","","","","html-keyboard-response","99","569582","0.0-10.0-0.40","59aba109d4ef6600011211c9","640759fa512f630a2bdc333d","6408c17ae3484d9b041fddbc","null","","null","","","","","","","","","","","","","","","","","","","fixation","",""
"","","","","","color-precision2","100","573641","0.0-10.0-1.40-0.40","59aba109d4ef6600011211c9","640759fa512f630a2bdc333d","6408c17ae3484d9b041fddbc","[1104.199999999255]","","","[1]","[170]","170","235","46.617193876363274","[46.617193876363274]","[171.61719387636327]","[170]","0","0","1","0","148.56200000073295","991.9889999999432","1000","[[[""img/mask6.png""]]]","","","main","235","color-precision2"
"","","","","","html-keyboard-response","101","574142","0.0-10.0-0.41","59aba109d4ef6600011211c9","640759fa512f630a2bdc333d","6408c17ae3484d9b041fddbc","null","","null","","","","","","","","","","","","","","","","","","","fixation","",""
"","","","","","many-guess-6","102","578212","0.0-10.0-1.41-0.41","59aba109d4ef6600011211c9","640759fa512f630a2bdc333d","6408c17ae3484d9b041fddbc","[2243.5999999996275]","","","[5,24,29,13,34,27,25,19,20,30,1,3,35,15,17,21,11,6,32,14,10,26,33,0,12,23,4,18,7,16,2,31,28,9,22,8]","[187,336,97,247,316,296,147,266,117,306,57,207,107,227,27,77,167,257,276,17,346,217,197,157,87,37,7,286,127,177,356,137,67,47,326,237]","187","19","324.5609275964803","[324.5609275964803]","[305.5609275964803]","[305]","[120,210,300,300,300,210,210,300,300]","0","36","0","149.40300000144634","23.03600000042934","16","[[[""img/mask22.png""],[""img/mask83.png""],[""img/mask22.png""],[""img/mask1.png""],[""img/mask27.png""],[""img/mask59.png""],[""img/mask34.png""],[""img/mask33.png""],[""img/mask74.png""],[""img/mask80.png""],[""img/mask87.png""],[""img/mask16.png""],[""img/mask80.png""],[""img/mask1.png""],[""img/mask86.png""],[""img/mask92.png""],[""img/mask46.png""],[""img/mask4.png""],[""img/mask85.png""],[""img/mask62.png""],[""img/mask15.png""],[""img/mask98.png""],[""img/mask94.png""],[""img/mask9.png""],[""img/mask15.png""],[""img/mask87.png""],[""img/mask41.png""],[""img/mask18.png""],[""img/mask27.png""],[""img/mask3.png""],[""img/mask18.png""],[""img/mask41.png""],[""img/mask19.png""],[""img/mask91.png""],[""img/mask74.png""],[""img/mask35.png""]]]","","[5,24,29,13,34,27,25,19,20,30,1,3,35,15,17,21,11,6,32,14,10,26,33,0,12,23,4,18,7,16,2,31,28,9,22,8]","main","19","many-guess-6"
"","","","","","html-keyboard-response","103","578714","0.0-10.0-0.42","59aba109d4ef6600011211c9","640759fa512f630a2bdc333d","6408c17ae3484d9b041fddbc","null","","null","","","","","","","","","","","","","","","","","","","fixation","",""
"","","","","","many-guess-6","104","583005","0.0-10.0-1.42-0.42","59aba109d4ef6600011211c9","640759fa512f630a2bdc333d","6408c17ae3484d9b041fddbc","[2570.300000000745]","","","[29,2,7,33,12,19,31,5,1,20,23,0,4,35,28,24,26,21,32,22,30,8,15,10,18,14,9,25,11,6,16,3,27,34,13,17]","[106,335,315,305,325,96,26,205,245,116,6,185,215,265,195,36,355,285,86,156,136,76,255,146,46,235,126,56,275,165,175,225,66,295,345,16]","106","37","36.93876167980907","[36.93876167980907]","[359.9387616798091]","[359]","[30,210,300,300,120,30,210,210,120]","0","36","0","149.20200000074692","10.594000000390224","16","[[[""img/mask27.png""],[""img/mask35.png""],[""img/mask66.png""],[""img/mask44.png""],[""img/mask23.png""],[""img/mask77.png""],[""img/mask31.png""],[""img/mask34.png""],[""img/mask73.png""],[""img/mask26.png""],[""img/mask79.png""],[""img/mask69.png""],[""img/mask94.png""],[""img/mask48.png""],[""img/mask7.png""],[""img/mask79.png""],[""img/mask90.png""],[""img/mask37.png""],[""img/mask54.png""],[""img/mask19.png""],[""img/mask9.png""],[""img/mask10.png""],[""img/mask63.png""],[""img/mask32.png""],[""img/mask69.png""],[""img/mask22.png""],[""img/mask60.png""],[""img/mask52.png""],[""img/mask44.png""],[""img/mask65.png""],[""img/mask51.png""],[""img/mask20.png""],[""img/mask87.png""],[""img/mask25.png""],[""img/mask84.png""],[""img/mask99.png""]]]","","[29,2,7,33,12,19,31,5,1,20,23,0,4,35,28,24,26,21,32,22,30,8,15,10,18,14,9,25,11,6,16,3,27,34,13,17]","main","37","many-guess-6"
"","","","","","html-keyboard-response","105","583506","0.0-10.0-0.43","59aba109d4ef6600011211c9","640759fa512f630a2bdc333d","6408c17ae3484d9b041fddbc","null","","null","","","","","","","","","","","","","","","","","","","fixation","",""
"","","","","","color-precision2","106","587545","0.0-10.0-1.43-0.43","59aba109d4ef6600011211c9","640759fa512f630a2bdc333d","6408c17ae3484d9b041fddbc","[1278.6000000014901]","","","[28]","[34]","34","293","328.9015424265366","[328.9015424265366]","[35.901542426536594]","[36]","0","0","1","0","149.55700000107754","995.5879999999888","1000","[[[""img/mask43.png""]]]","","","main","293","color-precision2"
"","","","","","html-keyboard-response","107","588047","0.0-10.0-0.44","59aba109d4ef6600011211c9","640759fa512f630a2bdc333d","6408c17ae3484d9b041fddbc","null","","null","","","","","","","","","","","","","","","","","","","fixation","",""
"","","","","","many-guess-6","108","591795","0.0-10.0-1.44-0.44","59aba109d4ef6600011211c9","640759fa512f630a2bdc333d","6408c17ae3484d9b041fddbc","[2246]","","","[21,30,29,14,27,25,26,1,9,34,23,7,4,8,35,28,22,16,33,32,12,18,6,15,24,10,5,17,3,20,11,2,31,13,0,19]","[295,355,226,86,325,76,245,345,186,285,16,255,106,206,275,335,196,216,66,265,6,305,146,46,116,176,126,236,56,26,36,136,166,315,156,96]","295","44","59.39664850326164","[59.39664850326164]","[15.396648503261638]","[14]","[210,120,30,210,30,300,210,30,120]","0","36","0","149.26900000078604","14.262000001152046","16","[[[""img/mask66.png""],[""img/mask15.png""],[""img/mask52.png""],[""img/mask100.png""],[""img/mask99.png""],[""img/mask18.png""],[""img/mask6.png""],[""img/mask7.png""],[""img/mask59.png""],[""img/mask76.png""],[""img/mask48.png""],[""img/mask56.png""],[""img/mask49.png""],[""img/mask42.png""],[""img/mask4.png""],[""img/mask36.png""],[""img/mask20.png""],[""img/mask96.png""],[""img/mask14.png""],[""img/mask65.png""],[""img/mask2.png""],[""img/mask59.png""],[""img/mask3.png""],[""img/mask10.png""],[""img/mask19.png""],[""img/mask85.png""],[""img/mask86.png""],[""img/mask26.png""],[""img/mask68.png""],[""img/mask97.png""],[""img/mask71.png""],[""img/mask70.png""],[""img/mask84.png""],[""img/mask90.png""],[""img/mask65.png""],[""img/mask58.png""]]]","","[21,30,29,14,27,25,26,1,9,34,23,7,4,8,35,28,22,16,33,32,12,18,6,15,24,10,5,17,3,20,11,2,31,13,0,19]","main","44","many-guess-6"
"","","","","","html-keyboard-response","109","592296","0.0-10.0-0.45","59aba109d4ef6600011211c9","640759fa512f630a2bdc333d","6408c17ae3484d9b041fddbc","null","","null","","","","","","","","","","","","","","","","","","","fixation","",""
"","","","","","many-guess-6","110","595876","0.0-10.0-1.45-0.45","59aba109d4ef6600011211c9","640759fa512f630a2bdc333d","6408c17ae3484d9b041fddbc","[1811]","","","[22,14,30,13,7,16,20,4,8,19,18,12,31,25,34,17,24,35,11,32,2,27,0,15,28,6,3,26,21,5,9,23,33,1,10,29]","[247,18,347,78,297,68,8,237,187,58,287,127,48,277,177,38,357,267,108,197,98,257,207,227,137,147,317,307,88,217,327,337,28,117,157,167]","247","103","254.54544537739338","[254.54544537739338]","[151.54544537739338]","[153]","[120,30,30,30,30,210,210,120,120]","0","36","0","149.12700000032783","12.99300000036601","16","[[[""img/mask1.png""],[""img/mask75.png""],[""img/mask62.png""],[""img/mask71.png""],[""img/mask36.png""],[""img/mask31.png""],[""img/mask10.png""],[""img/mask47.png""],[""img/mask41.png""],[""img/mask22.png""],[""img/mask68.png""],[""img/mask28.png""],[""img/mask14.png""],[""img/mask55.png""],[""img/mask85.png""],[""img/mask95.png""],[""img/mask89.png""],[""img/mask23.png""],[""img/mask69.png""],[""img/mask25.png""],[""img/mask16.png""],[""img/mask89.png""],[""img/mask25.png""],[""img/mask41.png""],[""img/mask100.png""],[""img/mask68.png""],[""img/mask60.png""],[""img/mask93.png""],[""img/mask56.png""],[""img/mask72.png""],[""img/mask18.png""],[""img/mask63.png""],[""img/mask50.png""],[""img/mask45.png""],[""img/mask30.png""],[""img/mask55.png""]]]","","[22,14,30,13,7,16,20,4,8,19,18,12,31,25,34,17,24,35,11,32,2,27,0,15,28,6,3,26,21,5,9,23,33,1,10,29]","main","103","many-guess-6"
"","","","","","html-keyboard-response","111","596377","0.0-10.0-0.46","59aba109d4ef6600011211c9","640759fa512f630a2bdc333d","6408c17ae3484d9b041fddbc","null","","null","","","","","","","","","","","","","","","","","","","fixation","",""
"","","","","","many-guess-6","112","601105","0.0-10.0-1.46-0.46","59aba109d4ef6600011211c9","640759fa512f630a2bdc333d","6408c17ae3484d9b041fddbc","[2574.7999999988824]","","","[27,3,17,7,11,22,30,15,33,35,12,29,5,2,23,8,28,10,26,32,14,34,24,20,16,0,25,13,31,9,21,6,18,4,19,1]","[8,158,98,178,297,138,357,38,48,168,327,307,347,267,28,227,247,217,257,197,237,78,18,317,188,148,108,58,88,118,68,337,128,277,207,287]","8","29","17.795653693822","[17.795653693822]","[348.795653693822]","[348]","[210,300,300,120,30,300,30,30,30]","0","36","0","149.91800000111107","13.009000000427477","16","[[[""img/mask78.png""],[""img/mask73.png""],[""img/mask32.png""],[""img/mask21.png""],[""img/mask22.png""],[""img/mask32.png""],[""img/mask54.png""],[""img/mask87.png""],[""img/mask86.png""],[""img/mask22.png""],[""img/mask79.png""],[""img/mask47.png""],[""img/mask90.png""],[""img/mask44.png""],[""img/mask28.png""],[""img/mask29.png""],[""img/mask96.png""],[""img/mask88.png""],[""img/mask75.png""],[""img/mask40.png""],[""img/mask37.png""],[""img/mask18.png""],[""img/mask14.png""],[""img/mask7.png""],[""img/mask21.png""],[""img/mask11.png""],[""img/mask90.png""],[""img/mask18.png""],[""img/mask5.png""],[""img/mask24.png""],[""img/mask26.png""],[""img/mask31.png""],[""img/mask10.png""],[""img/mask51.png""],[""img/mask43.png""],[""img/mask88.png""]]]","","[27,3,17,7,11,22,30,15,33,35,12,29,5,2,23,8,28,10,26,32,14,34,24,20,16,0,25,13,31,9,21,6,18,4,19,1]","main","29","many-guess-6"
"","","","","","html-keyboard-response","113","601606","0.0-10.0-0.47","59aba109d4ef6600011211c9","640759fa512f630a2bdc333d","6408c17ae3484d9b041fddbc","null","","null","","","","","","","","","","","","","","","","","","","fixation","",""
"","","","","","many-guess-6","114","605429","0.0-10.0-1.47-0.47","59aba109d4ef6600011211c9","640759fa512f630a2bdc333d","6408c17ae3484d9b041fddbc","[1933.300000000745]","","","[12,26,13,28,25,33,14,8,4,20,0,30,7,21,31,18,16,22,34,19,3,35,15,17,2,32,1,24,6,27,29,5,11,23,10,9]","[236,46,246,76,56,355,326,136,186,26,86,176,66,316,16,256,206,166,36,226,216,266,116,276,296,196,156,106,306,345,6,146,336,286,126,96]","236","304","321.3357735592671","[321.3357735592671]","[17.335773559267125]","[17]","[300,300,300,210,210,120,210,30,30]","0","36","0","149.2369999999646","12.278000001097098","16","[[[""img/mask43.png""],[""img/mask35.png""],[""img/mask67.png""],[""img/mask81.png""],[""img/mask14.png""],[""img/mask45.png""],[""img/mask40.png""],[""img/mask54.png""],[""img/mask3.png""],[""img/mask51.png""],[""img/mask68.png""],[""img/mask2.png""],[""img/mask76.png""],[""img/mask61.png""],[""img/mask1.png""],[""img/mask73.png""],[""img/mask66.png""],[""img/mask70.png""],[""img/mask25.png""],[""img/mask30.png""],[""img/mask24.png""],[""img/mask63.png""],[""img/mask70.png""],[""img/mask15.png""],[""img/mask66.png""],[""img/mask19.png""],[""img/mask55.png""],[""img/mask94.png""],[""img/mask24.png""],[""img/mask7.png""],[""img/mask25.png""],[""img/mask86.png""],[""img/mask39.png""],[""img/mask12.png""],[""img/mask94.png""],[""img/mask55.png""]]]","","[12,26,13,28,25,33,14,8,4,20,0,30,7,21,31,18,16,22,34,19,3,35,15,17,2,32,1,24,6,27,29,5,11,23,10,9]","main","304","many-guess-6"
"","","","","","html-keyboard-response","115","605930","0.0-10.0-0.48","59aba109d4ef6600011211c9","640759fa512f630a2bdc333d","6408c17ae3484d9b041fddbc","null","","null","","","","","","","","","","","","","","","","","","","fixation","",""
"","","","","","color-precision2","116","609937","0.0-10.0-1.48-0.48","59aba109d4ef6600011211c9","640759fa512f630a2bdc333d","6408c17ae3484d9b041fddbc","[1426.3999999985099]","","","[19]","[102]","102","212","306.09687840220124","[306.09687840220124]","[94.09687840220124]","[94]","0","0","1","0","148.87900000147056","995.9180000004126","1000","[[[""img/mask23.png""]]]","","","main","212","color-precision2"
"","","","","","html-keyboard-response","117","610439","0.0-10.0-0.49","59aba109d4ef6600011211c9","640759fa512f630a2bdc333d","6408c17ae3484d9b041fddbc","null","","null","","","","","","","","","","","","","","","","","","","fixation","",""
"","","","","","color-precision2","118","614165","0.0-10.0-1.49-0.49","59aba109d4ef6600011211c9","640759fa512f630a2bdc333d","6408c17ae3484d9b041fddbc","[1071.5]","","","[4]","[146]","146","122","273.19849457075077","[273.19849457075077]","[151.19849457075077]","[151]","0","0","1","0","148.60600000037812","1006.2650000015274","1000","[[[""img/mask57.png""]]]","","","main","122","color-precision2"
"","","","","","html-keyboard-response","119","614667","0.0-10.0-0.50","59aba109d4ef6600011211c9","640759fa512f630a2bdc333d","6408c17ae3484d9b041fddbc","null","","null","","","","","","","","","","","","","","","","","","","fixation","",""
"","","","","","many-guess-6","120","618489","0.0-10.0-1.50-0.50","59aba109d4ef6600011211c9","640759fa512f630a2bdc333d","6408c17ae3484d9b041fddbc","[2113.5999999996275]","","","[17,16,8,30,10,24,7,31,13,0,28,3,23,27,14,21,22,15,33,34,18,9,20,1,25,2,5,32,29,6,19,11,4,35,12,26]","[353,113,4,283,83,123,33,93,133,43,233,73,143,313,183,173,14,103,253,223,263,323,53,343,153,23,273,333,293,203,213,303,163,63,193,243]","353","82","169.01003084365865","[169.01003084365865]","[87.01003084365865]","[86]","[300,120,210,300,210,30,30,120,300]","0","36","0","149.2490000014659","20.362000001128763","16","[[[""img/mask79.png""],[""img/mask2.png""],[""img/mask76.png""],[""img/mask97.png""],[""img/mask60.png""],[""img/mask10.png""],[""img/mask86.png""],[""img/mask9.png""],[""img/mask34.png""],[""img/mask60.png""],[""img/mask22.png""],[""img/mask23.png""],[""img/mask92.png""],[""img/mask37.png""],[""img/mask47.png""],[""img/mask35.png""],[""img/mask17.png""],[""img/mask39.png""],[""img/mask29.png""],[""img/mask10.png""],[""img/mask66.png""],[""img/mask62.png""],[""img/mask74.png""],[""img/mask59.png""],[""img/mask81.png""],[""img/mask59.png""],[""img/mask82.png""],[""img/mask34.png""],[""img/mask35.png""],[""img/mask47.png""],[""img/mask63.png""],[""img/mask88.png""],[""img/mask82.png""],[""img/mask14.png""],[""img/mask100.png""],[""img/mask88.png""]]]","","[17,16,8,30,10,24,7,31,13,0,28,3,23,27,14,21,22,15,33,34,18,9,20,1,25,2,5,32,29,6,19,11,4,35,12,26]","main","82","many-guess-6"
"","","","","","html-keyboard-response","121","618993","0.0-10.0-0.51","59aba109d4ef6600011211c9","640759fa512f630a2bdc333d","6408c17ae3484d9b041fddbc","null","","null","","","","","","","","","","","","","","","","","","","fixation","",""
"","","","","","many-guess-6","122","623033","0.0-10.0-1.51-0.51","59aba109d4ef6600011211c9","640759fa512f630a2bdc333d","6408c17ae3484d9b041fddbc","[2192.199999999255]","","","[8,2,7,31,12,32,15,1,14,25,11,21,33,24,0,9,13,6,19,17,16,26,35,22,34,18,29,27,30,28,3,10,4,5,23,20]","[188,79,348,109,198,178,49,138,148,338,328,218,128,89,29,258,248,69,39,9,238,59,308,208,358,318,158,168,99,278,19,298,228,268,288,119]","188","341","255.85807086793383","[255.85807086793383]","[274.85807086793386]","[275]","[210,300,210,30,210,210,300,120,120]","0","36","0","149.26800000143703","12.81100000150036","16","[[[""img/mask5.png""],[""img/mask82.png""],[""img/mask73.png""],[""img/mask75.png""],[""img/mask97.png""],[""img/mask13.png""],[""img/mask89.png""],[""img/mask84.png""],[""img/mask57.png""],[""img/mask71.png""],[""img/mask34.png""],[""img/mask20.png""],[""img/mask82.png""],[""img/mask43.png""],[""img/mask27.png""],[""img/mask13.png""],[""img/mask36.png""],[""img/mask74.png""],[""img/mask74.png""],[""img/mask11.png""],[""img/mask40.png""],[""img/mask13.png""],[""img/mask9.png""],[""img/mask77.png""],[""img/mask95.png""],[""img/mask10.png""],[""img/mask83.png""],[""img/mask77.png""],[""img/mask41.png""],[""img/mask13.png""],[""img/mask88.png""],[""img/mask50.png""],[""img/mask47.png""],[""img/mask10.png""],[""img/mask94.png""],[""img/mask11.png""]]]","","[8,2,7,31,12,32,15,1,14,25,11,21,33,24,0,9,13,6,19,17,16,26,35,22,34,18,29,27,30,28,3,10,4,5,23,20]","main","341","many-guess-6"
"","","","","","html-keyboard-response","123","623535","0.0-10.0-0.52","59aba109d4ef6600011211c9","640759fa512f630a2bdc333d","6408c17ae3484d9b041fddbc","null","","null","","","","","","","","","","","","","","","","","","","fixation","",""
"","","","","","color-precision2","124","627881","0.0-10.0-1.52-0.52","59aba109d4ef6600011211c9","640759fa512f630a2bdc333d","6408c17ae3484d9b041fddbc","[1523.6000000014901]","","","[31]","[326]","326","81","72.57990562755141","[72.57990562755141]","[351.5799056275514]","[350]","0","0","1","0","148.8869999999879","1003.726000001072","1000","[[[""img/mask73.png""]]]","","","main","81","color-precision2"
"","","","","","html-keyboard-response","125","628382","0.0-10.0-0.53","59aba109d4ef6600011211c9","640759fa512f630a2bdc333d","6408c17ae3484d9b041fddbc","null","","null","","","","","","","","","","","","","","","","","","","fixation","",""
"","","","","","many-guess-6","126","632876","0.0-10.0-1.53-0.53","59aba109d4ef6600011211c9","640759fa512f630a2bdc333d","6408c17ae3484d9b041fddbc","[2519.0999999996275]","","","[22,2,26,24,10,35,20,8,23,12,19,15,28,34,6,32,18,27,5,0,31,17,16,21,33,9,29,25,30,11,7,13,1,3,14,4]","[142,182,122,42,102,12,322,22,212,282,52,351,312,242,341,222,202,82,302,292,252,132,172,232,112,92,262,72,32,272,332,62,162,152,2,192]","142","172","148.78159634939163","[148.78159634939163]","[336.78159634939163]","[336]","[120,300,210,210,210,120,120,300,120]","0","36","0","148.83200000110082","19.254000001121312","16","[[[""img/mask16.png""],[""img/mask22.png""],[""img/mask35.png""],[""img/mask17.png""],[""img/mask35.png""],[""img/mask83.png""],[""img/mask39.png""],[""img/mask17.png""],[""img/mask50.png""],[""img/mask3.png""],[""img/mask99.png""],[""img/mask10.png""],[""img/mask9.png""],[""img/mask40.png""],[""img/mask56.png""],[""img/mask6.png""],[""img/mask97.png""],[""img/mask76.png""],[""img/mask96.png""],[""img/mask35.png""],[""img/mask90.png""],[""img/mask6.png""],[""img/mask49.png""],[""img/mask96.png""],[""img/mask52.png""],[""img/mask82.png""],[""img/mask37.png""],[""img/mask75.png""],[""img/mask59.png""],[""img/mask16.png""],[""img/mask93.png""],[""img/mask98.png""],[""img/mask18.png""],[""img/mask25.png""],[""img/mask68.png""],[""img/mask65.png""]]]","","[22,2,26,24,10,35,20,8,23,12,19,15,28,34,6,32,18,27,5,0,31,17,16,21,33,9,29,25,30,11,7,13,1,3,14,4]","main","172","many-guess-6"
"","","","","","html-keyboard-response","127","633378","0.0-10.0-0.54","59aba109d4ef6600011211c9","640759fa512f630a2bdc333d","6408c17ae3484d9b041fddbc","null","","null","","","","","","","","","","","","","","","","","","","fixation","",""
"","","","","","many-guess-6","128","637187","0.0-10.0-1.54-0.54","59aba109d4ef6600011211c9","640759fa512f630a2bdc333d","6408c17ae3484d9b041fddbc","[2199.7999999988824]","","","[19,24,23,33,8,22,29,31,32,18,9,27,30,21,11,10,4,20,1,35,3,26,7,0,17,14,6,16,25,15,5,2,12,28,34,13]","[141,12,221,351,211,281,101,191,32,331,22,131,91,81,241,121,261,231,2,161,171,71,301,291,61,181,341,321,42,271,111,51,251,201,311,151]","141","128","309.01863241513183","[309.01863241513183]","[181.01863241513183]","[181]","[300,300,210,120,30,210,120,30,300]","0","36","0","149.0110000000568","16.258000001544133","16","[[[""img/mask14.png""],[""img/mask70.png""],[""img/mask89.png""],[""img/mask66.png""],[""img/mask90.png""],[""img/mask48.png""],[""img/mask97.png""],[""img/mask97.png""],[""img/mask88.png""],[""img/mask14.png""],[""img/mask88.png""],[""img/mask9.png""],[""img/mask87.png""],[""img/mask40.png""],[""img/mask92.png""],[""img/mask68.png""],[""img/mask10.png""],[""img/mask39.png""],[""img/mask97.png""],[""img/mask81.png""],[""img/mask26.png""],[""img/mask79.png""],[""img/mask27.png""],[""img/mask45.png""],[""img/mask55.png""],[""img/mask25.png""],[""img/mask4.png""],[""img/mask74.png""],[""img/mask97.png""],[""img/mask80.png""],[""img/mask94.png""],[""img/mask84.png""],[""img/mask49.png""],[""img/mask48.png""],[""img/mask37.png""],[""img/mask28.png""]]]","","[19,24,23,33,8,22,29,31,32,18,9,27,30,21,11,10,4,20,1,35,3,26,7,0,17,14,6,16,25,15,5,2,12,28,34,13]","main","128","many-guess-6"
"","","","","","html-keyboard-response","129","637690","0.0-10.0-0.55","59aba109d4ef6600011211c9","640759fa512f630a2bdc333d","6408c17ae3484d9b041fddbc","null","","null","","","","","","","","","","","","","","","","","","","fixation","",""
"","","","","","color-precision2","130","641807","0.0-10.0-1.55-0.55","59aba109d4ef6600011211c9","640759fa512f630a2bdc333d","6408c17ae3484d9b041fddbc","[1153.9000000003725]","","","[20]","[153]","153","1","155.70266286952108","[155.70266286952108]","[154.70266286952108]","[153]","0","0","1","0","148.51400000031572","1005.7070000011008","1000","[[[""img/mask76.png""]]]","","","main","1","color-precision2"
"","","","","","html-keyboard-response","131","642310","0.0-10.0-0.56","59aba109d4ef6600011211c9","640759fa512f630a2bdc333d","6408c17ae3484d9b041fddbc","null","","null","","","","","","","","","","","","","","","","","","","fixation","",""
"","","","","","many-guess-6","132","646234","0.0-10.0-1.56-0.56","59aba109d4ef6600011211c9","640759fa512f630a2bdc333d","6408c17ae3484d9b041fddbc","[2282.300000000745]","","","[18,24,8,13,4,34,20,11,15,35,25,10,16,2,29,27,31,21,33,28,26,6,19,14,7,1,32,12,17,9,3,5,23,0,22,30]","[143,74,303,34,353,213,93,64,103,193,83,54,263,14,203,283,253,153,133,24,4,173,223,233,44,313,273,243,123,183,333,323,163,293,113,343]","143","113","109.07708969299222","[109.07708969299222]","[356.0770896929922]","[354]","[210,300,210,210,120,30,210,120,300]","0","36","0","148.96900000108872","8.32400000107009","16","[[[""img/mask13.png""],[""img/mask62.png""],[""img/mask48.png""],[""img/mask52.png""],[""img/mask45.png""],[""img/mask20.png""],[""img/mask67.png""],[""img/mask56.png""],[""img/mask1.png""],[""img/mask28.png""],[""img/mask95.png""],[""img/mask9.png""],[""img/mask59.png""],[""img/mask19.png""],[""img/mask27.png""],[""img/mask38.png""],[""img/mask38.png""],[""img/mask22.png""],[""img/mask38.png""],[""img/mask16.png""],[""img/mask38.png""],[""img/mask27.png""],[""img/mask70.png""],[""img/mask46.png""],[""img/mask46.png""],[""img/mask52.png""],[""img/mask27.png""],[""img/mask9.png""],[""img/mask81.png""],[""img/mask69.png""],[""img/mask46.png""],[""img/mask100.png""],[""img/mask55.png""],[""img/mask42.png""],[""img/mask22.png""],[""img/mask56.png""]]]","","[18,24,8,13,4,34,20,11,15,35,25,10,16,2,29,27,31,21,33,28,26,6,19,14,7,1,32,12,17,9,3,5,23,0,22,30]","main","113","many-guess-6"
"","","","","","html-keyboard-response","133","646735","0.0-10.0-0.57","59aba109d4ef6600011211c9","640759fa512f630a2bdc333d","6408c17ae3484d9b041fddbc","null","","null","","","","","","","","","","","","","","","","","","","fixation","",""
"","","","","","color-precision2","134","650291","0.0-10.0-1.57-0.57","59aba109d4ef6600011211c9","640759fa512f630a2bdc333d","6408c17ae3484d9b041fddbc","[1106.4000000003725]","","","[31]","[299]","299","262","191.22559620157728","[191.22559620157728]","[289.2255962015773]","[289]","0","0","1","0","148.85500000033062","993.6330000000307","1000","[[[""img/mask86.png""]]]","","","main","262","color-precision2"
"","","","","","html-keyboard-response","135","650792","0.0-10.0-0.58","59aba109d4ef6600011211c9","640759fa512f630a2bdc333d","6408c17ae3484d9b041fddbc","null","","null","","","","","","","","","","","","","","","","","","","fixation","",""
"","","","","","color-precision2","136","654638","0.0-10.0-1.58-0.58","59aba109d4ef6600011211c9","640759fa512f630a2bdc333d","6408c17ae3484d9b041fddbc","[1120.5]","","","[25]","[46]","46","356","40.02673342262917","[40.02673342262917]","[44.02673342262915]","[42]","0","0","1","0","149.18400000070687","998.2860000011278","1000","[[[""img/mask39.png""]]]","","","main","356","color-precision2"
"","","","","","html-keyboard-response","137","659854","0.0-10.0-0.59","59aba109d4ef6600011211c9","640759fa512f630a2bdc333d","6408c17ae3484d9b041fddbc","5215.5","Wow! You've completed 60 out of 180 trials! </p> <p>  </p><p> Take a quick break, then press any key when you're ready to continue."," ","","","","","","","","","","","","","","","","","","","fixation","",""
"","","","","","many-guess-6","138","665641","0.0-10.0-1.59-0.59","59aba109d4ef6600011211c9","640759fa512f630a2bdc333d","6408c17ae3484d9b041fddbc","[2610.300000000745]","","","[35,17,4,32,8,12,3,21,24,20,16,22,27,11,18,31,34,25,5,1,7,30,9,23,29,0,14,15,13,10,26,6,28,33,19,2]","[304,234,264,155,224,15,135,105,244,195,205,324,125,175,85,314,55,344,185,274,254,115,75,334,95,5,65,25,145,354,45,294,165,214,284,35]","304","147","209.29606351314177","[209.29606351314177]","[62.296063513141775]","[62]","[30,300,210,300,30,120,120,120,30]","0","36","0","149.17400000116322","12.580000000423752","16","[[[""img/mask64.png""],[""img/mask55.png""],[""img/mask37.png""],[""img/mask42.png""],[""img/mask21.png""],[""img/mask77.png""],[""img/mask54.png""],[""img/mask60.png""],[""img/mask47.png""],[""img/mask13.png""],[""img/mask12.png""],[""img/mask22.png""],[""img/mask50.png""],[""img/mask4.png""],[""img/mask95.png""],[""img/mask36.png""],[""img/mask97.png""],[""img/mask71.png""],[""img/mask73.png""],[""img/mask44.png""],[""img/mask91.png""],[""img/mask33.png""],[""img/mask90.png""],[""img/mask46.png""],[""img/mask9.png""],[""img/mask8.png""],[""img/mask57.png""],[""img/mask69.png""],[""img/mask46.png""],[""img/mask41.png""],[""img/mask24.png""],[""img/mask29.png""],[""img/mask3.png""],[""img/mask19.png""],[""img/mask42.png""],[""img/mask90.png""]]]","","[35,17,4,32,8,12,3,21,24,20,16,22,27,11,18,31,34,25,5,1,7,30,9,23,29,0,14,15,13,10,26,6,28,33,19,2]","main","147","many-guess-6"
"","","","","","html-keyboard-response","139","666142","0.0-10.0-0.60","59aba109d4ef6600011211c9","640759fa512f630a2bdc333d","6408c17ae3484d9b041fddbc","null","","null","","","","","","","","","","","","","","","","","","","fixation","",""
"","","","","","many-guess-6","140","670225","0.0-10.0-1.60-0.60","59aba109d4ef6600011211c9","640759fa512f630a2bdc333d","6408c17ae3484d9b041fddbc","[2129.10000000149]","","","[28,11,16,14,9,26,17,0,7,6,20,33,5,10,2,13,3,34,24,35,29,31,15,30,19,4,25,22,21,18,27,12,23,1,32,8]","[297,58,8,287,227,78,28,128,207,138,68,347,327,88,38,237,118,188,18,247,317,267,108,357,257,158,48,198,217,178,98,277,168,148,307,337]","297","195","189.53468273437895","[189.53468273437895]","[354.534682734379]","[354]","[300,120,210,120,120,210,210,30,210]","0","36","0","149.31400000071153","11.587000000057742","16","[[[""img/mask33.png""],[""img/mask67.png""],[""img/mask61.png""],[""img/mask85.png""],[""img/mask55.png""],[""img/mask1.png""],[""img/mask83.png""],[""img/mask21.png""],[""img/mask2.png""],[""img/mask51.png""],[""img/mask97.png""],[""img/mask13.png""],[""img/mask18.png""],[""img/mask86.png""],[""img/mask35.png""],[""img/mask5.png""],[""img/mask82.png""],[""img/mask19.png""],[""img/mask33.png""],[""img/mask39.png""],[""img/mask34.png""],[""img/mask9.png""],[""img/mask44.png""],[""img/mask99.png""],[""img/mask7.png""],[""img/mask82.png""],[""img/mask78.png""],[""img/mask30.png""],[""img/mask41.png""],[""img/mask52.png""],[""img/mask9.png""],[""img/mask87.png""],[""img/mask30.png""],[""img/mask6.png""],[""img/mask61.png""],[""img/mask91.png""]]]","","[28,11,16,14,9,26,17,0,7,6,20,33,5,10,2,13,3,34,24,35,29,31,15,30,19,4,25,22,21,18,27,12,23,1,32,8]","main","195","many-guess-6"
"","","","","","html-keyboard-response","141","670727","0.0-10.0-0.61","59aba109d4ef6600011211c9","640759fa512f630a2bdc333d","6408c17ae3484d9b041fddbc","null","","null","","","","","","","","","","","","","","","","","","","fixation","",""
"","","","","","color-precision2","142","674577","0.0-10.0-1.61-0.61","59aba109d4ef6600011211c9","640759fa512f630a2bdc333d","6408c17ae3484d9b041fddbc","[1248.9000000003725]","","","[5]","[227]","227","223","102.7945079625838","[102.7945079625838]","[239.7945079625838]","[238]","0","0","1","0","148.6170000003185","1001.5810000000056","1000","[[[""img/mask72.png""]]]","","","main","223","color-precision2"
"","","","","","html-keyboard-response","143","675078","0.0-10.0-0.62","59aba109d4ef6600011211c9","640759fa512f630a2bdc333d","6408c17ae3484d9b041fddbc","null","","null","","","","","","","","","","","","","","","","","","","fixation","",""
"","","","","","many-guess-6","144","679195","0.0-10.0-1.62-0.62","59aba109d4ef6600011211c9","640759fa512f630a2bdc333d","6408c17ae3484d9b041fddbc","[2384.199999999255]","","","[21,2,4,11,25,22,16,24,6,29,12,5,30,7,14,26,0,28,34,8,35,13,19,33,10,32,20,18,31,23,1,9,15,3,17,27]","[331,12,282,72,82,62,2,112,341,222,272,132,321,152,242,252,92,52,351,122,182,232,192,42,202,32,162,142,262,172,102,22,301,311,212,292]","331","92","76.1094041269171","[76.1094041269171]","[344.10940412691707]","[342]","[210,210,120,120,300,210,300,30,300]","0","36","0","149.4280000004219","12.576000000000931","16","[[[""img/mask100.png""],[""img/mask11.png""],[""img/mask41.png""],[""img/mask64.png""],[""img/mask81.png""],[""img/mask24.png""],[""img/mask68.png""],[""img/mask8.png""],[""img/mask14.png""],[""img/mask95.png""],[""img/mask57.png""],[""img/mask31.png""],[""img/mask46.png""],[""img/mask53.png""],[""img/mask52.png""],[""img/mask3.png""],[""img/mask24.png""],[""img/mask67.png""],[""img/mask45.png""],[""img/mask64.png""],[""img/mask99.png""],[""img/mask74.png""],[""img/mask83.png""],[""img/mask97.png""],[""img/mask45.png""],[""img/mask85.png""],[""img/mask70.png""],[""img/mask27.png""],[""img/mask46.png""],[""img/mask22.png""],[""img/mask100.png""],[""img/mask60.png""],[""img/mask10.png""],[""img/mask73.png""],[""img/mask94.png""],[""img/mask12.png""]]]","","[21,2,4,11,25,22,16,24,6,29,12,5,30,7,14,26,0,28,34,8,35,13,19,33,10,32,20,18,31,23,1,9,15,3,17,27]","main","92","many-guess-6"
"","","","","","html-keyboard-response","145","679697","0.0-10.0-0.63","59aba109d4ef6600011211c9","640759fa512f630a2bdc333d","6408c17ae3484d9b041fddbc","null","","null","","","","","","","","","","","","","","","","","","","fixation","",""
"","","","","","color-precision2","146","683569","0.0-10.0-1.63-0.63","59aba109d4ef6600011211c9","640759fa512f630a2bdc333d","6408c17ae3484d9b041fddbc","[1259.9000000003725]","","","[12]","[169]","169","318","142.81680454956802","[142.81680454956802]","[184.81680454956802]","[183]","0","0","1","0","148.42700000107288","1000.8450000014855","1000","[[[""img/mask28.png""]]]","","","main","318","color-precision2"
"","","","","","html-keyboard-response","147","684071","0.0-10.0-0.64","59aba109d4ef6600011211c9","640759fa512f630a2bdc333d","6408c17ae3484d9b041fddbc","null","","null","","","","","","","","","","","","","","","","","","","fixation","",""
"","","","","","color-precision2","148","688113","0.0-10.0-1.64-0.64","59aba109d4ef6600011211c9","640759fa512f630a2bdc333d","6408c17ae3484d9b041fddbc","[987.7999999988824]","","","[2]","[264]","264","176","102.76941856484848","[102.76941856484848]","[286.7694185648485]","[285]","0","0","1","0","148.8059999999823","995.783000000054","1000","[[[""img/mask13.png""]]]","","","main","176","color-precision2"
"","","","","","html-keyboard-response","149","688614","0.0-10.0-0.65","59aba109d4ef6600011211c9","640759fa512f630a2bdc333d","6408c17ae3484d9b041fddbc","null","","null","","","","","","","","","","","","","","","","","","","fixation","",""
"","","","","","color-precision2","150","692336","0.0-10.0-1.65-0.65","59aba109d4ef6600011211c9","640759fa512f630a2bdc333d","6408c17ae3484d9b041fddbc","[1063.199999999255]","","","[34]","[92]","92","254","336.90164754896017","[336.90164754896017]","[82.90164754896017]","[82]","0","0","1","0","148.11500000033993","1003.2030000011437","1000","[[[""img/mask67.png""]]]","","","main","254","color-precision2"
"","","","","","html-keyboard-response","151","692837","0.0-10.0-0.66","59aba109d4ef6600011211c9","640759fa512f630a2bdc333d","6408c17ae3484d9b041fddbc","null","","null","","","","","","","","","","","","","","","","","","","fixation","",""
"","","","","","color-precision2","152","696490","0.0-10.0-1.66-0.66","59aba109d4ef6600011211c9","640759fa512f630a2bdc333d","6408c17ae3484d9b041fddbc","[1067.800000000745]","","","[20]","[262]","262","93","18.443906033761976","[18.443906033761976]","[285.443906033762]","[284]","0","0","1","0","148.01800000073854","1007.2600000007078","1000","[[[""img/mask97.png""]]]","","","main","93","color-precision2"
"","","","","","html-keyboard-response","153","696991","0.0-10.0-0.67","59aba109d4ef6600011211c9","640759fa512f630a2bdc333d","6408c17ae3484d9b041fddbc","null","","null","","","","","","","","","","","","","","","","","","","fixation","",""
"","","","","","color-precision2","154","701295","0.0-10.0-1.67-0.67","59aba109d4ef6600011211c9","640759fa512f630a2bdc333d","6408c17ae3484d9b041fddbc","[1506.8999999985099]","","","[4]","[316]","316","317","286.8600197838401","[286.8600197838401]","[329.8600197838401]","[330]","0","0","1","0","148.16300000040792","995.7660000014585","1000","[[[""img/mask39.png""]]]","","","main","317","color-precision2"
"","","","","","html-keyboard-response","155","701797","0.0-10.0-0.68","59aba109d4ef6600011211c9","640759fa512f630a2bdc333d","6408c17ae3484d9b041fddbc","null","","null","","","","","","","","","","","","","","","","","","","fixation","",""
"","","","","","color-precision2","156","705723","0.0-10.0-1.68-0.68","59aba109d4ef6600011211c9","640759fa512f630a2bdc333d","6408c17ae3484d9b041fddbc","[885]","","","[28]","[107]","107","237","339.3849269538168","[339.3849269538168]","[102.38492695381677]","[102]","0","0","1","0","148.6080000011716","996.3470000011148","1000","[[[""img/mask72.png""]]]","","","main","237","color-precision2"
"","","","","","html-keyboard-response","157","706224","0.0-10.0-0.69","59aba109d4ef6600011211c9","640759fa512f630a2bdc333d","6408c17ae3484d9b041fddbc","null","","null","","","","","","","","","","","","","","","","","","","fixation","",""
"","","","","","many-guess-6","158","710006","0.0-10.0-1.69-0.69","59aba109d4ef6600011211c9","640759fa512f630a2bdc333d","6408c17ae3484d9b041fddbc","[1968.800000000745]","","","[15,28,2,30,22,32,6,0,20,25,33,8,27,10,34,35,18,31,5,13,21,16,17,4,14,7,1,12,9,11,24,3,26,19,23,29]","[127,37,236,316,306,326,286,117,226,276,97,207,27,17,137,77,147,107,246,157,47,187,346,57,87,336,7,167,296,266,256,197,216,356,67,177]","127","135","130.26406842144343","[130.26406842144343]","[355.2640684214434]","[353]","[300,120,30,120,210,30,210,300,120]","0","36","0","149.3390000007348","23.035000000381842","16","[[[""img/mask83.png""],[""img/mask4.png""],[""img/mask38.png""],[""img/mask40.png""],[""img/mask12.png""],[""img/mask40.png""],[""img/mask62.png""],[""img/mask18.png""],[""img/mask58.png""],[""img/mask8.png""],[""img/mask62.png""],[""img/mask15.png""],[""img/mask83.png""],[""img/mask24.png""],[""img/mask20.png""],[""img/mask35.png""],[""img/mask31.png""],[""img/mask4.png""],[""img/mask44.png""],[""img/mask89.png""],[""img/mask53.png""],[""img/mask95.png""],[""img/mask14.png""],[""img/mask63.png""],[""img/mask34.png""],[""img/mask77.png""],[""img/mask63.png""],[""img/mask42.png""],[""img/mask18.png""],[""img/mask30.png""],[""img/mask27.png""],[""img/mask53.png""],[""img/mask86.png""],[""img/mask33.png""],[""img/mask54.png""],[""img/mask97.png""]]]","","[15,28,2,30,22,32,6,0,20,25,33,8,27,10,34,35,18,31,5,13,21,16,17,4,14,7,1,12,9,11,24,3,26,19,23,29]","main","135","many-guess-6"
"","","","","","html-keyboard-response","159","710507","0.0-10.0-0.70","59aba109d4ef6600011211c9","640759fa512f630a2bdc333d","6408c17ae3484d9b041fddbc","null","","null","","","","","","","","","","","","","","","","","","","fixation","",""
"","","","","","many-guess-6","160","715347","0.0-10.0-1.70-0.70","59aba109d4ef6600011211c9","640759fa512f630a2bdc333d","6408c17ae3484d9b041fddbc","[2945]","","","[28,34,19,10,22,31,12,17,11,0,30,16,35,33,4,15,26,2,27,29,21,6,13,20,5,32,24,25,9,3,18,14,8,1,23,7]","[167,187,68,317,78,127,147,88,197,207,58,18,48,38,297,177,117,277,217,237,347,107,327,337,137,357,28,287,227,307,257,267,97,247,157,8]","167","79","141.21563484826544","[141.21563484826544]","[62.21563484826544]","[60]","[300,30,30,120,210,210,210,120,210]","0","36","0","149.32600000116508","22.543000000412576","16","[[[""img/mask59.png""],[""img/mask53.png""],[""img/mask30.png""],[""img/mask89.png""],[""img/mask61.png""],[""img/mask43.png""],[""img/mask88.png""],[""img/mask93.png""],[""img/mask30.png""],[""img/mask71.png""],[""img/mask25.png""],[""img/mask38.png""],[""img/mask33.png""],[""img/mask83.png""],[""img/mask61.png""],[""img/mask61.png""],[""img/mask8.png""],[""img/mask32.png""],[""img/mask82.png""],[""img/mask62.png""],[""img/mask42.png""],[""img/mask62.png""],[""img/mask80.png""],[""img/mask67.png""],[""img/mask11.png""],[""img/mask78.png""],[""img/mask11.png""],[""img/mask57.png""],[""img/mask30.png""],[""img/mask66.png""],[""img/mask42.png""],[""img/mask7.png""],[""img/mask39.png""],[""img/mask46.png""],[""img/mask29.png""],[""img/mask1.png""]]]","","[28,34,19,10,22,31,12,17,11,0,30,16,35,33,4,15,26,2,27,29,21,6,13,20,5,32,24,25,9,3,18,14,8,1,23,7]","main","79","many-guess-6"
"","","","","","html-keyboard-response","161","715848","0.0-10.0-0.71","59aba109d4ef6600011211c9","640759fa512f630a2bdc333d","6408c17ae3484d9b041fddbc","null","","null","","","","","","","","","","","","","","","","","","","fixation","",""
"","","","","","many-guess-6","162","719447","0.0-10.0-1.71-0.71","59aba109d4ef6600011211c9","640759fa512f630a2bdc333d","6408c17ae3484d9b041fddbc","[2146.5]","","","[16,20,21,34,9,8,15,6,11,24,14,1,3,28,33,23,13,35,10,27,12,22,2,29,25,19,30,0,18,31,7,4,5,32,26,17]","[338,199,239,328,99,289,279,348,79,209,39,189,298,249,159,229,49,269,149,119,308,358,318,139,109,19,179,29,89,259,129,9,219,69,59,169]","338","73","71.40405651608987","[71.40405651608987]","[358.4040565160899]","[357]","[210,300,30,120,210,30,210,210,210]","0","36","0","149.4530000014929","9.910000000032596","16","[[[""img/mask9.png""],[""img/mask74.png""],[""img/mask64.png""],[""img/mask58.png""],[""img/mask57.png""],[""img/mask78.png""],[""img/mask61.png""],[""img/mask44.png""],[""img/mask26.png""],[""img/mask43.png""],[""img/mask63.png""],[""img/mask62.png""],[""img/mask91.png""],[""img/mask13.png""],[""img/mask14.png""],[""img/mask95.png""],[""img/mask71.png""],[""img/mask73.png""],[""img/mask79.png""],[""img/mask1.png""],[""img/mask5.png""],[""img/mask79.png""],[""img/mask9.png""],[""img/mask26.png""],[""img/mask89.png""],[""img/mask55.png""],[""img/mask10.png""],[""img/mask64.png""],[""img/mask52.png""],[""img/mask75.png""],[""img/mask2.png""],[""img/mask98.png""],[""img/mask87.png""],[""img/mask88.png""],[""img/mask65.png""],[""img/mask40.png""]]]","","[16,20,21,34,9,8,15,6,11,24,14,1,3,28,33,23,13,35,10,27,12,22,2,29,25,19,30,0,18,31,7,4,5,32,26,17]","main","73","many-guess-6"
"","","","","","html-keyboard-response","163","719948","0.0-10.0-0.72","59aba109d4ef6600011211c9","640759fa512f630a2bdc333d","6408c17ae3484d9b041fddbc","null","","null","","","","","","","","","","","","","","","","","","","fixation","",""
"","","","","","color-precision2","164","723675","0.0-10.0-1.72-0.72","59aba109d4ef6600011211c9","640759fa512f630a2bdc333d","6408c17ae3484d9b041fddbc","[1142.7000000011176]","","","[10]","[160]","160","236","26.385923257343034","[26.385923257343034]","[150.38592325734302]","[149]","0","0","1","0","148.2330000003567","997.6880000007804","1000","[[[""img/mask17.png""]]]","","","main","236","color-precision2"
"","","","","","html-keyboard-response","165","724177","0.0-10.0-0.73","59aba109d4ef6600011211c9","640759fa512f630a2bdc333d","6408c17ae3484d9b041fddbc","null","","null","","","","","","","","","","","","","","","","","","","fixation","",""
"","","","","","many-guess-6","166","728285","0.0-10.0-1.73-0.73","59aba109d4ef6600011211c9","640759fa512f630a2bdc333d","6408c17ae3484d9b041fddbc","[1604.2999999988824]","","","[29,5,28,0,1,7,6,22,34,17,30,15,27,4,10,8,3,16,18,19,31,11,13,32,12,33,23,20,21,2,9,24,14,25,26,35]","[137,237,357,38,147,117,28,18,287,277,157,317,247,347,87,78,97,107,177,127,327,8,307,217,297,48,337,187,68,227,267,58,167,207,257,197]","137","321","322.0186347629033","[322.0186347629033]","[1.0186347629032753]","[1]","[120,300,210,120,30,30,120,300,300]","0","36","0","148.9960000003921","23.68200000107754","16","[[[""img/mask100.png""],[""img/mask94.png""],[""img/mask57.png""],[""img/mask33.png""],[""img/mask89.png""],[""img/mask9.png""],[""img/mask38.png""],[""img/mask79.png""],[""img/mask92.png""],[""img/mask12.png""],[""img/mask81.png""],[""img/mask7.png""],[""img/mask48.png""],[""img/mask37.png""],[""img/mask100.png""],[""img/mask59.png""],[""img/mask16.png""],[""img/mask60.png""],[""img/mask77.png""],[""img/mask80.png""],[""img/mask94.png""],[""img/mask51.png""],[""img/mask13.png""],[""img/mask88.png""],[""img/mask54.png""],[""img/mask80.png""],[""img/mask74.png""],[""img/mask51.png""],[""img/mask67.png""],[""img/mask23.png""],[""img/mask40.png""],[""img/mask95.png""],[""img/mask75.png""],[""img/mask42.png""],[""img/mask61.png""],[""img/mask80.png""]]]","","[29,5,28,0,1,7,6,22,34,17,30,15,27,4,10,8,3,16,18,19,31,11,13,32,12,33,23,20,21,2,9,24,14,25,26,35]","main","321","many-guess-6"
"","","","","","html-keyboard-response","167","728786","0.0-10.0-0.74","59aba109d4ef6600011211c9","640759fa512f630a2bdc333d","6408c17ae3484d9b041fddbc","null","","null","","","","","","","","","","","","","","","","","","","fixation","",""
"","","","","","many-guess-6","168","732943","0.0-10.0-1.74-0.74","59aba109d4ef6600011211c9","640759fa512f630a2bdc333d","6408c17ae3484d9b041fddbc","[2645.699999999255]","","","[32,25,14,23,30,13,16,4,27,34,21,19,3,22,20,9,24,7,2,28,0,35,5,6,11,12,29,1,8,15,26,18,17,31,33,10]","[102,142,331,82,32,182,281,341,22,192,152,62,321,222,202,12,271,132,252,72,42,261,172,162,212,92,232,242,311,52,301,2,112,122,351,291]","102","352","225.40662206530848","[225.40662206530848]","[233.40662206530848]","[233]","[120,210,210,30,300,120,30,120,300]","0","36","0","149.2200000011362","15.568000000319444","16","[[[""img/mask30.png""],[""img/mask65.png""],[""img/mask86.png""],[""img/mask77.png""],[""img/mask31.png""],[""img/mask64.png""],[""img/mask32.png""],[""img/mask65.png""],[""img/mask96.png""],[""img/mask11.png""],[""img/mask5.png""],[""img/mask23.png""],[""img/mask5.png""],[""img/mask52.png""],[""img/mask74.png""],[""img/mask92.png""],[""img/mask66.png""],[""img/mask45.png""],[""img/mask12.png""],[""img/mask63.png""],[""img/mask80.png""],[""img/mask88.png""],[""img/mask79.png""],[""img/mask25.png""],[""img/mask44.png""],[""img/mask45.png""],[""img/mask41.png""],[""img/mask22.png""],[""img/mask23.png""],[""img/mask2.png""],[""img/mask35.png""],[""img/mask100.png""],[""img/mask20.png""],[""img/mask58.png""],[""img/mask69.png""],[""img/mask24.png""]]]","","[32,25,14,23,30,13,16,4,27,34,21,19,3,22,20,9,24,7,2,28,0,35,5,6,11,12,29,1,8,15,26,18,17,31,33,10]","main","352","many-guess-6"
"","","","","","html-keyboard-response","169","733444","0.0-10.0-0.75","59aba109d4ef6600011211c9","640759fa512f630a2bdc333d","6408c17ae3484d9b041fddbc","null","","null","","","","","","","","","","","","","","","","","","","fixation","",""
"","","","","","many-guess-6","170","736983","0.0-10.0-1.75-0.75","59aba109d4ef6600011211c9","640759fa512f630a2bdc333d","6408c17ae3484d9b041fddbc","[1670.699999999255]","","","[2,12,31,19,16,17,33,13,30,4,29,22,27,14,3,21,15,1,20,28,5,6,26,18,23,25,9,8,10,34,24,32,7,0,35,11]","[140,339,249,309,110,90,359,160,170,269,279,80,70,10,50,239,329,190,289,60,150,210,120,200,20,259,349,299,130,219,40,319,180,30,229,100]","140","155","131.82126323238077","[131.82126323238077]","[336.8212632323808]","[335]","[30,210,30,120,300,30,210,300,30]","0","36","0","149.17700000002515","16.202000001445413","16","[[[""img/mask6.png""],[""img/mask22.png""],[""img/mask49.png""],[""img/mask92.png""],[""img/mask75.png""],[""img/mask42.png""],[""img/mask40.png""],[""img/mask48.png""],[""img/mask94.png""],[""img/mask20.png""],[""img/mask12.png""],[""img/mask59.png""],[""img/mask18.png""],[""img/mask98.png""],[""img/mask75.png""],[""img/mask67.png""],[""img/mask1.png""],[""img/mask15.png""],[""img/mask81.png""],[""img/mask17.png""],[""img/mask32.png""],[""img/mask88.png""],[""img/mask35.png""],[""img/mask99.png""],[""img/mask64.png""],[""img/mask72.png""],[""img/mask63.png""],[""img/mask61.png""],[""img/mask86.png""],[""img/mask84.png""],[""img/mask93.png""],[""img/mask6.png""],[""img/mask12.png""],[""img/mask80.png""],[""img/mask60.png""],[""img/mask11.png""]]]","","[2,12,31,19,16,17,33,13,30,4,29,22,27,14,3,21,15,1,20,28,5,6,26,18,23,25,9,8,10,34,24,32,7,0,35,11]","main","155","many-guess-6"
"","","","","","html-keyboard-response","171","737485","0.0-10.0-0.76","59aba109d4ef6600011211c9","640759fa512f630a2bdc333d","6408c17ae3484d9b041fddbc","null","","null","","","","","","","","","","","","","","","","","","","fixation","",""
"","","","","","many-guess-6","172","741595","0.0-10.0-1.76-0.76","59aba109d4ef6600011211c9","640759fa512f630a2bdc333d","6408c17ae3484d9b041fddbc","[2333]","","","[13,32,6,16,18,11,1,7,3,2,5,20,33,0,17,29,9,14,23,8,31,35,24,10,15,27,19,30,4,34,28,12,25,26,22,21]","[345,56,76,86,36,136,305,106,335,96,16,6,195,46,225,205,126,275,235,255,285,325,26,265,66,116,165,245,156,315,215,146,175,355,185,295]","345","208","274.49059905021977","[274.49059905021977]","[66.49059905021977]","[67]","[210,210,210,120,120,300,30,120,210]","0","36","0","149.37200000078883","10.89100000075996","16","[[[""img/mask80.png""],[""img/mask15.png""],[""img/mask83.png""],[""img/mask91.png""],[""img/mask20.png""],[""img/mask38.png""],[""img/mask9.png""],[""img/mask97.png""],[""img/mask76.png""],[""img/mask38.png""],[""img/mask100.png""],[""img/mask12.png""],[""img/mask70.png""],[""img/mask47.png""],[""img/mask38.png""],[""img/mask12.png""],[""img/mask23.png""],[""img/mask37.png""],[""img/mask17.png""],[""img/mask59.png""],[""img/mask54.png""],[""img/mask78.png""],[""img/mask99.png""],[""img/mask15.png""],[""img/mask1.png""],[""img/mask46.png""],[""img/mask14.png""],[""img/mask22.png""],[""img/mask41.png""],[""img/mask69.png""],[""img/mask56.png""],[""img/mask98.png""],[""img/mask97.png""],[""img/mask1.png""],[""img/mask5.png""],[""img/mask66.png""]]]","","[13,32,6,16,18,11,1,7,3,2,5,20,33,0,17,29,9,14,23,8,31,35,24,10,15,27,19,30,4,34,28,12,25,26,22,21]","main","208","many-guess-6"
"","","","","","html-keyboard-response","173","742096","0.0-10.0-0.77","59aba109d4ef6600011211c9","640759fa512f630a2bdc333d","6408c17ae3484d9b041fddbc","null","","null","","","","","","","","","","","","","","","","","","","fixation","",""
"","","","","","color-precision2","174","746247","0.0-10.0-1.77-0.77","59aba109d4ef6600011211c9","640759fa512f630a2bdc333d","6408c17ae3484d9b041fddbc","[987]","","","[8]","[13]","13","350","334.90971689182777","[334.90971689182777]","[344.90971689182777]","[345]","0","0","1","0","149.3510000007227","1003.7470000014873","1000","[[[""img/mask76.png""]]]","","","main","350","color-precision2"
"","","","","","html-keyboard-response","175","746748","0.0-10.0-0.78","59aba109d4ef6600011211c9","640759fa512f630a2bdc333d","6408c17ae3484d9b041fddbc","null","","null","","","","","","","","","","","","","","","","","","","fixation","",""
"","","","","","color-precision2","176","751557","0.0-10.0-1.78-0.78","59aba109d4ef6600011211c9","640759fa512f630a2bdc333d","6408c17ae3484d9b041fddbc","[1081]","","","[23]","[224]","224","100","335.3322247910308","[335.3322247910308]","[235.3322247910308]","[235]","0","0","1","0","148.290000001085","1006.2920000003651","1000","[[[""img/mask86.png""]]]","","","main","100","color-precision2"
"","","","","","html-keyboard-response","177","764038","0.0-10.0-0.79","59aba109d4ef6600011211c9","640759fa512f630a2bdc333d","6408c17ae3484d9b041fddbc","12480.39999999851","Wow! You've completed 80 out of 180 trials! </p> <p>  </p><p> Take a quick break, then press any key when you're ready to continue."," ","","","","","","","","","","","","","","","","","","","fixation","",""
