"success","timeout","failed_images","failed_audio","failed_video","trial_type","trial_index","time_elapsed","internal_node_id","subject_id","study_id","session_id","rt","stimulus","response","position_of_items","colors_of_items","color_of_target","wheel_spin","response_angle","physical_response_angle","reported_color_angle","reported_color_discrete","locs","which_test","set_size","wheel_num_options","actual_mask_duration","actual_stim_duration","CMDispTime","maskArray","maskRotation","item_positions","task","randomSpinAmount","mainTask"
"true","false","[]","[]","[]","preload","0","12683","0.0-0.0","59ff47d47ecfc50001be0555","640759fa512f630a2bdc333d","6408c17fae5a04ef10acfbb2","","","","","","","","","","","","","","","","","","","","","","","",""
"true","","","","","fullscreen","1","17654","0.0-1.0","59ff47d47ecfc50001be0555","640759fa512f630a2bdc333d","6408c17fae5a04ef10acfbb2","","","","","","","","","","","","","","","","","","","","","","","",""
"","","","","","html-keyboard-response","2","24896","0.0-2.0","59ff47d47ecfc50001be0555","640759fa512f630a2bdc333d","6408c17fae5a04ef10acfbb2","7240.0999999940395","What a beautiful Wednesday to do some awesome science! </p> <p>  </p><p> </p>
    By completing this survey or questionnaire, you are consenting to be in this research study. </p>
    Your participation is voluntary and you can stop at any time.<p> [Press any key to continue] </p>"," ","","","","","","","","","","","","","","","","","","","","",""
"","","","","","html-keyboard-response","3","34902","0.0-3.0","59ff47d47ecfc50001be0555","640759fa512f630a2bdc333d","6408c17fae5a04ef10acfbb2","null","
    <div style='width: 1000px;'>
    <div style='float: center;'><img src='img/TaskInstructions1.png'></img>
    </div>
    ","null","","","","","","","","","","","","","","","","","","","","",""
"","","","","","html-keyboard-response","4","35887","0.0-4.0","59ff47d47ecfc50001be0555","640759fa512f630a2bdc333d","6408c17fae5a04ef10acfbb2","984.5","
    <div style='width: 1000px;'>
    <div style='float: center;'><img src='img/TaskInstructions1.png'></img>
    </div>
    "," ","","","","","","","","","","","","","","","","","","","","",""
"","","","","","html-keyboard-response","5","45894","0.0-5.0","59ff47d47ecfc50001be0555","640759fa512f630a2bdc333d","6408c17fae5a04ef10acfbb2","null","
    <div style='width: 1000px;'>
    <div style='float: center;'><img src='img/TaskInstructions2.png'></img>
    </div>
    ","null","","","","","","","","","","","","","","","","","","","","",""
"","","","","","html-keyboard-response","6","66800","0.0-6.0","59ff47d47ecfc50001be0555","640759fa512f630a2bdc333d","6408c17fae5a04ef10acfbb2","20904.80000001192","
    <div style='width: 1000px;'>
    <div style='float: center;'><img src='img/TaskInstructions2.png'></img>
    </div>
    "," ","","","","","","","","","","","","","","","","","","","","",""
"","","","","","video-keyboard-response","7","78623","0.0-7.0","59ff47d47ecfc50001be0555","640759fa512f630a2bdc333d","6408c17fae5a04ef10acfbb2","11818.800000011921","[""video/TaskInstructions3.mp4""]"," ","","","","","","","","","","","","","","","","","","","","",""
"","","","","","image-keyboard-response","8","85824","0.0-8.0-0.0","59ff47d47ecfc50001be0555","640759fa512f630a2bdc333d","6408c17fae5a04ef10acfbb2","7199.5999999940395","img/training1.png"," ","","","","","","","","","","","","","","","","","","","","",""
"","","","","","color-precision2","9","102753","0.0-8.0-1.0-0.0","59ff47d47ecfc50001be0555","640759fa512f630a2bdc333d","6408c17fae5a04ef10acfbb2","[4818]","","","[33]","[153]","153","288","90.7183431314892","[90.7183431314892]","[162.7183431314892]","[161]","0","0","1","0","498.6970000059664","1007.2509999940376","1000","","","0","training","",""
"","","","","","image-keyboard-response","10","107903","0.0-8.0-0.1","59ff47d47ecfc50001be0555","640759fa512f630a2bdc333d","6408c17fae5a04ef10acfbb2","5148","img/training2.png"," ","","","","","","","","","","","","","","","","","","","","",""
"","","","","","many-guess-6","11","116433","0.0-8.0-1.1-0.1","59ff47d47ecfc50001be0555","640759fa512f630a2bdc333d","6408c17fae5a04ef10acfbb2","[2315.5]","","","[34,1,28]","[212,248,344]","212","194","51.90584109892046","[51.90584109892046]","[217.90584109892046]","[216]","[300,210,120,210,120,120,120,300,30,300,210,210,120,120,300,300,210,30,210,120,120,120,210,30,300,210,300,30,300,120,300,30,30,30,210,300]","0","3","0","998.2829999821115","1002.0569999880827","1000","[[[""img/mask6.png""],[""img/mask39.png""],[""img/mask56.png""]]]","","[34,1,28]","training","",""
"","","","","","image-keyboard-response","12","120831","0.0-8.0-0.2","59ff47d47ecfc50001be0555","640759fa512f630a2bdc333d","6408c17fae5a04ef10acfbb2","4396.299999982119","img/training3.png"," ","","","","","","","","","","","","","","","","","","","","",""
"","","","","","[""many-guess-6""]","13","131193","0.0-8.0-1.2-0.2","59ff47d47ecfc50001be0555","640759fa512f630a2bdc333d","6408c17fae5a04ef10acfbb2","[2643.0999999940395]","","","[2,31,20,1,26]","[154,125,39,77,180]","154","28","122.0218403528102","[122.0218403528102]","[94.0218403528102]","[92]","[300,120,120,120,210,30,300,300,120,300,120,210,300,210,120,120,300,30,210,120,210,120,300,210,300,300,210,120,120,120,210,30,300,300,120,30]","0","5","0","498.83899999404093","494.8929999821121","500","[[[""img/mask92.png""],[""img/mask28.png""],[""img/mask76.png""],[""img/mask50.png""],[""img/mask62.png""]]]","","[2,31,20,1,26]","training","",""
"","","","","","image-keyboard-response","14","133215","0.0-8.0-0.3","59ff47d47ecfc50001be0555","640759fa512f630a2bdc333d","6408c17fae5a04ef10acfbb2","2020.699999988079","img/training4.png"," ","","","","","","","","","","","","","","","","","","","","",""
"","","","","","[""many-guess-6""]","15","138033","0.0-8.0-1.3-0.3","59ff47d47ecfc50001be0555","640759fa512f630a2bdc333d","6408c17fae5a04ef10acfbb2","[1667]","","","[19,11,28,13,27,4,31,0,22,32]","[67,106,208,157,81,223,185,255,52,134]","67","130","43.20493960611287","[43.20493960611287]","[273.2049396061129]","[271]","[300,300,210,30,210,120,210,120,210,300,300,30,300,120,120,300,210,210,30,210,120,30,120,120,30,210,300,300,120,210,300,120,300,120,210,300]","0","10","0","131.79299998807255","134.09899999998743","132","[[[""img/mask94.png""],[""img/mask63.png""],[""img/mask10.png""],[""img/mask74.png""],[""img/mask77.png""],[""img/mask99.png""],[""img/mask67.png""],[""img/mask60.png""],[""img/mask98.png""],[""img/mask69.png""]]]","","[19,11,28,13,27,4,31,0,22,32]","training","",""
"","","","","","image-keyboard-response","16","143295","0.0-8.0-0.4","59ff47d47ecfc50001be0555","640759fa512f630a2bdc333d","6408c17fae5a04ef10acfbb2","5260.0999999940395","img/training5.png"," ","","","","","","","","","","","","","","","","","","","","",""
"","","","","","[""many-guess-6""]","17","148558","0.0-8.0-1.4-0.4","59ff47d47ecfc50001be0555","640759fa512f630a2bdc333d","6408c17fae5a04ef10acfbb2","[1693.5]","","","[35,12,17,31,7,15,5,2,10,27,21,32,4,6,30,23,19,13,20,24,26,1,9,3,11,22,8,33,28,25,29,34,0,18,16,14]","[248,178,139,318,19,228,129,268,168,238,298,69,218,99,308,9,79,29,158,328,288,59,208,188,278,338,119,148,348,89,109,258,358,49,39,198]","248","293","311.1048965003931","[311.1048965003931]","[18.104896500393124]","[18]","[30,30,120,120,120,210,120,120,300,30,300,300,300,30,210,210,120,30,300,300,210,120,120,210,210,300,210,30,30,300,210,30,300,300,120,120]","0","36","0","131.57300000597024","17.679000000003725","16","[[[""img/mask62.png""],[""img/mask66.png""],[""img/mask12.png""],[""img/mask25.png""],[""img/mask2.png""],[""img/mask91.png""],[""img/mask30.png""],[""img/mask36.png""],[""img/mask44.png""],[""img/mask3.png""],[""img/mask36.png""],[""img/mask48.png""],[""img/mask59.png""],[""img/mask93.png""],[""img/mask23.png""],[""img/mask15.png""],[""img/mask62.png""],[""img/mask33.png""],[""img/mask70.png""],[""img/mask9.png""],[""img/mask47.png""],[""img/mask59.png""],[""img/mask13.png""],[""img/mask69.png""],[""img/mask21.png""],[""img/mask3.png""],[""img/mask56.png""],[""img/mask21.png""],[""img/mask75.png""],[""img/mask28.png""],[""img/mask27.png""],[""img/mask74.png""],[""img/mask76.png""],[""img/mask78.png""],[""img/mask55.png""],[""img/mask56.png""]]]","","[35,12,17,31,7,15,5,2,10,27,21,32,4,6,30,23,19,13,20,24,26,1,9,3,11,22,8,33,28,25,29,34,0,18,16,14]","training","",""
"","","","","","image-keyboard-response","18","150574","0.0-9.0","59ff47d47ecfc50001be0555","640759fa512f630a2bdc333d","6408c17fae5a04ef10acfbb2","2015","[""img/endTraining.png""]"," ","","","","","","","","","","","","","","","","","","","","",""
"","","","","","html-keyboard-response","19","151078","0.0-10.0-0.0","59ff47d47ecfc50001be0555","640759fa512f630a2bdc333d","6408c17fae5a04ef10acfbb2","null","","null","","","","","","","","","","","","","","","","","","","fixation","",""
"","","","","","color-precision2","20","156264","0.0-10.0-1.0-0.0","59ff47d47ecfc50001be0555","640759fa512f630a2bdc333d","6408c17fae5a04ef10acfbb2","[1632.699999988079]","","","[10]","[203]","203","158","5.36205844399324","[5.36205844399324]","[207.36205844399325]","[206]","0","0","1","0","148.22899998808862","1007.2690000059665","1000","[[[""img/mask20.png""]]]","","","main","158","color-precision2"
"","","","","","html-keyboard-response","21","156766","0.0-10.0-0.1","59ff47d47ecfc50001be0555","640759fa512f630a2bdc333d","6408c17fae5a04ef10acfbb2","null","","null","","","","","","","","","","","","","","","","","","","fixation","",""
"","","","","","color-precision2","22","161376","0.0-10.0-1.1-0.1","59ff47d47ecfc50001be0555","640759fa512f630a2bdc333d","6408c17fae5a04ef10acfbb2","[1111]","","","[0]","[153]","153","310","103.64621042792567","[103.64621042792567]","[153.64621042792567]","[153]","0","0","1","0","147.6369999999879","992.1769999880926","1000","[[[""img/mask46.png""]]]","","","main","310","color-precision2"
"","","","","","html-keyboard-response","23","161878","0.0-10.0-0.2","59ff47d47ecfc50001be0555","640759fa512f630a2bdc333d","6408c17fae5a04ef10acfbb2","null","","null","","","","","","","","","","","","","","","","","","","fixation","",""
"","","","","","color-precision2","24","166656","0.0-10.0-1.2-0.2","59ff47d47ecfc50001be0555","640759fa512f630a2bdc333d","6408c17fae5a04ef10acfbb2","[1191.5]","","","[1]","[262]","262","144","53.83142431162611","[53.83142431162611]","[269.8314243116261]","[268]","0","0","1","0","148.52899999404326","992.1690000059607","1000","[[[""img/mask98.png""]]]","","","main","144","color-precision2"
"","","","","","html-keyboard-response","25","167158","0.0-10.0-0.3","59ff47d47ecfc50001be0555","640759fa512f630a2bdc333d","6408c17fae5a04ef10acfbb2","null","","null","","","","","","","","","","","","","","","","","","","fixation","",""
"","","","","","many-guess-6","26","170720","0.0-10.0-1.3-0.3","59ff47d47ecfc50001be0555","640759fa512f630a2bdc333d","6408c17fae5a04ef10acfbb2","[1271.5999999940395]","","","[16,21,35,10,25,28,11,12,0,33,29,13,34,19,23,20,15,31,17,22,2,27,9,6,14,4,30,1,32,8,26,18,24,7,5,3]","[109,9,159,59,239,219,289,129,79,29,249,199,69,49,169,179,348,328,229,269,99,318,139,209,279,39,309,119,189,259,358,299,89,19,149,338]","109","347","41.91651264401414","[41.91651264401414]","[54.91651264401412]","[53]","[210,300,120,300,120,300,300,120,210]","0","36","0","148.4029999821214","15.343000005959766","16","[[[""img/mask5.png""],[""img/mask78.png""],[""img/mask13.png""],[""img/mask77.png""],[""img/mask82.png""],[""img/mask69.png""],[""img/mask39.png""],[""img/mask16.png""],[""img/mask66.png""],[""img/mask31.png""],[""img/mask89.png""],[""img/mask45.png""],[""img/mask33.png""],[""img/mask81.png""],[""img/mask93.png""],[""img/mask15.png""],[""img/mask2.png""],[""img/mask33.png""],[""img/mask70.png""],[""img/mask34.png""],[""img/mask56.png""],[""img/mask72.png""],[""img/mask55.png""],[""img/mask55.png""],[""img/mask90.png""],[""img/mask53.png""],[""img/mask32.png""],[""img/mask1.png""],[""img/mask97.png""],[""img/mask98.png""],[""img/mask43.png""],[""img/mask63.png""],[""img/mask71.png""],[""img/mask82.png""],[""img/mask4.png""],[""img/mask11.png""]]]","","[16,21,35,10,25,28,11,12,0,33,29,13,34,19,23,20,15,31,17,22,2,27,9,6,14,4,30,1,32,8,26,18,24,7,5,3]","main","347","many-guess-6"
"","","","","","html-keyboard-response","27","171222","0.0-10.0-0.4","59ff47d47ecfc50001be0555","640759fa512f630a2bdc333d","6408c17fae5a04ef10acfbb2","null","","null","","","","","","","","","","","","","","","","","","","fixation","",""
"","","","","","color-precision2","28","175760","0.0-10.0-1.4-0.4","59ff47d47ecfc50001be0555","640759fa512f630a2bdc333d","6408c17fae5a04ef10acfbb2","[1511.3999999761581]","","","[23]","[245]","245","76","329.5461298066684","[329.5461298066684]","[253.54612980666838]","[254]","0","0","1","0","148.51099999403232","999.0509999821079","1000","[[[""img/mask2.png""]]]","","","main","76","color-precision2"
"","","","","","html-keyboard-response","29","176262","0.0-10.0-0.5","59ff47d47ecfc50001be0555","640759fa512f630a2bdc333d","6408c17fae5a04ef10acfbb2","null","","null","","","","","","","","","","","","","","","","","","","fixation","",""
"","","","","","many-guess-6","30","179976","0.0-10.0-1.5-0.5","59ff47d47ecfc50001be0555","640759fa512f630a2bdc333d","6408c17fae5a04ef10acfbb2","[2095.300000011921]","","","[17,33,30,14,28,31,35,1,7,3,10,9,34,18,6,13,27,19,11,15,2,20,23,25,32,29,5,16,4,8,24,0,12,26,21,22]","[200,61,31,51,150,71,260,110,210,240,230,140,330,290,80,11,180,1,170,130,90,300,120,100,350,160,340,310,21,270,220,190,280,320,41,250]","200","250","171.03034190174426","[171.03034190174426]","[281.03034190174424]","[280]","[210,210,30,120,30,210,300,120,300]","0","36","0","148.7989999880665","8.339000005973503","16","[[[""img/mask23.png""],[""img/mask80.png""],[""img/mask81.png""],[""img/mask43.png""],[""img/mask91.png""],[""img/mask74.png""],[""img/mask44.png""],[""img/mask55.png""],[""img/mask45.png""],[""img/mask28.png""],[""img/mask26.png""],[""img/mask5.png""],[""img/mask60.png""],[""img/mask57.png""],[""img/mask77.png""],[""img/mask23.png""],[""img/mask74.png""],[""img/mask52.png""],[""img/mask84.png""],[""img/mask28.png""],[""img/mask30.png""],[""img/mask43.png""],[""img/mask48.png""],[""img/mask57.png""],[""img/mask42.png""],[""img/mask51.png""],[""img/mask44.png""],[""img/mask30.png""],[""img/mask7.png""],[""img/mask21.png""],[""img/mask83.png""],[""img/mask64.png""],[""img/mask2.png""],[""img/mask82.png""],[""img/mask18.png""],[""img/mask44.png""]]]","","[17,33,30,14,28,31,35,1,7,3,10,9,34,18,6,13,27,19,11,15,2,20,23,25,32,29,5,16,4,8,24,0,12,26,21,22]","main","250","many-guess-6"
"","","","","","html-keyboard-response","31","180478","0.0-10.0-0.6","59ff47d47ecfc50001be0555","640759fa512f630a2bdc333d","6408c17fae5a04ef10acfbb2","null","","null","","","","","","","","","","","","","","","","","","","fixation","",""
"","","","","","color-precision2","32","184848","0.0-10.0-1.6-0.6","59ff47d47ecfc50001be0555","640759fa512f630a2bdc333d","6408c17fae5a04ef10acfbb2","[1516.4000000059605]","","","[17]","[79]","79","351","73.83888075286026","[73.83888075286026]","[82.83888075286029]","[81]","0","0","1","0","148.2810000059544","1002.1210000059509","1000","[[[""img/mask71.png""]]]","","","main","351","color-precision2"
"","","","","","html-keyboard-response","33","185350","0.0-10.0-0.7","59ff47d47ecfc50001be0555","640759fa512f630a2bdc333d","6408c17fae5a04ef10acfbb2","null","","null","","","","","","","","","","","","","","","","","","","fixation","",""
"","","","","","color-precision2","34","190656","0.0-10.0-1.7-0.7","59ff47d47ecfc50001be0555","640759fa512f630a2bdc333d","6408c17fae5a04ef10acfbb2","[1808.2000000178814]","","","[17]","[343]","343","62","26.83259780639138","[26.83259780639138]","[324.8325978063914]","[324]","0","0","1","0","148.42699999402976","998.4669999821053","1000","[[[""img/mask32.png""]]]","","","main","62","color-precision2"
"","","","","","html-keyboard-response","35","191158","0.0-10.0-0.8","59ff47d47ecfc50001be0555","640759fa512f630a2bdc333d","6408c17fae5a04ef10acfbb2","null","","null","","","","","","","","","","","","","","","","","","","fixation","",""
"","","","","","many-guess-6","36","194688","0.0-10.0-1.8-0.8","59ff47d47ecfc50001be0555","640759fa512f630a2bdc333d","6408c17fae5a04ef10acfbb2","[1657.7999999821186]","","","[14,28,27,17,1,5,15,20,21,4,10,26,16,13,12,33,8,31,18,7,2,19,30,24,25,32,22,35,3,34,11,9,0,29,23,6]","[19,318,239,259,268,179,278,348,358,99,59,69,229,189,219,328,109,209,249,9,298,79,159,169,89,308,119,29,288,129,49,338,139,149,39,199]","19","169","244.66261795851423","[244.66261795851423]","[75.66261795851423]","[76]","[210,120,30,120,210,120,300,30,30]","0","36","0","149.0929999940272","21.733000005973736","16","[[[""img/mask78.png""],[""img/mask4.png""],[""img/mask35.png""],[""img/mask43.png""],[""img/mask92.png""],[""img/mask7.png""],[""img/mask26.png""],[""img/mask72.png""],[""img/mask3.png""],[""img/mask70.png""],[""img/mask83.png""],[""img/mask62.png""],[""img/mask18.png""],[""img/mask37.png""],[""img/mask7.png""],[""img/mask72.png""],[""img/mask85.png""],[""img/mask66.png""],[""img/mask76.png""],[""img/mask62.png""],[""img/mask3.png""],[""img/mask92.png""],[""img/mask3.png""],[""img/mask62.png""],[""img/mask13.png""],[""img/mask83.png""],[""img/mask10.png""],[""img/mask30.png""],[""img/mask74.png""],[""img/mask1.png""],[""img/mask38.png""],[""img/mask5.png""],[""img/mask89.png""],[""img/mask46.png""],[""img/mask91.png""],[""img/mask76.png""]]]","","[14,28,27,17,1,5,15,20,21,4,10,26,16,13,12,33,8,31,18,7,2,19,30,24,25,32,22,35,3,34,11,9,0,29,23,6]","main","169","many-guess-6"
"","","","","","html-keyboard-response","37","195190","0.0-10.0-0.9","59ff47d47ecfc50001be0555","640759fa512f630a2bdc333d","6408c17fae5a04ef10acfbb2","null","","null","","","","","","","","","","","","","","","","","","","fixation","",""
"","","","","","color-precision2","38","199425","0.0-10.0-1.9-0.9","59ff47d47ecfc50001be0555","640759fa512f630a2bdc333d","6408c17fae5a04ef10acfbb2","[1144.199999988079]","","","[35]","[117]","117","350","93.22253477104397","[93.22253477104397]","[103.22253477104397]","[101]","0","0","1","0","148.18300000595627","1007.5230000059528","1000","[[[""img/mask67.png""]]]","","","main","350","color-precision2"
"","","","","","html-keyboard-response","39","199926","0.0-10.0-0.10","59ff47d47ecfc50001be0555","640759fa512f630a2bdc333d","6408c17fae5a04ef10acfbb2","null","","null","","","","","","","","","","","","","","","","","","","fixation","",""
"","","","","","color-precision2","40","203720","0.0-10.0-1.10-0.10","59ff47d47ecfc50001be0555","640759fa512f630a2bdc333d","6408c17fae5a04ef10acfbb2","[706.5999999940395]","","","[26]","[355]","355","143","133.25476978990434","[133.25476978990434]","[350.25476978990434]","[348]","0","0","1","0","147.6269999880751","996.667000005953","1000","[[[""img/mask91.png""]]]","","","main","143","color-precision2"
"","","","","","html-keyboard-response","41","204222","0.0-10.0-0.11","59ff47d47ecfc50001be0555","640759fa512f630a2bdc333d","6408c17fae5a04ef10acfbb2","null","","null","","","","","","","","","","","","","","","","","","","fixation","",""
"","","","","","many-guess-6","42","208502","0.0-10.0-1.11-0.11","59ff47d47ecfc50001be0555","640759fa512f630a2bdc333d","6408c17fae5a04ef10acfbb2","[2007.0999999940395]","","","[3,31,30,14,20,13,21,18,26,0,34,5,8,28,10,19,24,12,32,27,7,4,17,33,29,1,23,16,15,11,6,2,25,22,9,35]","[305,26,186,156,255,36,6,245,196,66,136,295,315,345,96,56,335,206,265,16,86,146,236,46,116,76,176,285,166,216,126,355,226,106,275,325]","305","159","176.38150767696524","[176.38150767696524]","[17.381507676965242]","[16]","[30,300,210,300,30,300,30,120,300]","0","36","0","148.12100000001374","15.760999982128851","16","[[[""img/mask90.png""],[""img/mask72.png""],[""img/mask30.png""],[""img/mask44.png""],[""img/mask38.png""],[""img/mask97.png""],[""img/mask81.png""],[""img/mask42.png""],[""img/mask58.png""],[""img/mask49.png""],[""img/mask75.png""],[""img/mask78.png""],[""img/mask31.png""],[""img/mask90.png""],[""img/mask6.png""],[""img/mask20.png""],[""img/mask22.png""],[""img/mask30.png""],[""img/mask14.png""],[""img/mask26.png""],[""img/mask85.png""],[""img/mask91.png""],[""img/mask82.png""],[""img/mask46.png""],[""img/mask6.png""],[""img/mask51.png""],[""img/mask54.png""],[""img/mask11.png""],[""img/mask11.png""],[""img/mask16.png""],[""img/mask33.png""],[""img/mask72.png""],[""img/mask63.png""],[""img/mask84.png""],[""img/mask31.png""],[""img/mask58.png""]]]","","[3,31,30,14,20,13,21,18,26,0,34,5,8,28,10,19,24,12,32,27,7,4,17,33,29,1,23,16,15,11,6,2,25,22,9,35]","main","159","many-guess-6"
"","","","","","html-keyboard-response","43","209006","0.0-10.0-0.12","59ff47d47ecfc50001be0555","640759fa512f630a2bdc333d","6408c17fae5a04ef10acfbb2","null","","null","","","","","","","","","","","","","","","","","","","fixation","",""
"","","","","","color-precision2","44","212872","0.0-10.0-1.12-0.12","59ff47d47ecfc50001be0555","640759fa512f630a2bdc333d","6408c17fae5a04ef10acfbb2","[1142.300000011921]","","","[5]","[168]","168","97","273.79426803890743","[273.79426803890743]","[176.79426803890743]","[177]","0","0","1","0","148.24499999999534","993.0849999999919","1000","[[[""img/mask42.png""]]]","","","main","97","color-precision2"
"","","","","","html-keyboard-response","45","213374","0.0-10.0-0.13","59ff47d47ecfc50001be0555","640759fa512f630a2bdc333d","6408c17fae5a04ef10acfbb2","null","","null","","","","","","","","","","","","","","","","","","","fixation","",""
"","","","","","color-precision2","46","216608","0.0-10.0-1.13-0.13","59ff47d47ecfc50001be0555","640759fa512f630a2bdc333d","6408c17fae5a04ef10acfbb2","[428.5]","","","[8]","[86]","86","80","136.59917759761856","[136.59917759761856]","[56.599177597618564]","[55]","0","0","1","0","148.46700000597048","994.7069999821251","1000","[[[""img/mask85.png""]]]","","","main","80","color-precision2"
"","","","","","html-keyboard-response","47","217110","0.0-10.0-0.14","59ff47d47ecfc50001be0555","640759fa512f630a2bdc333d","6408c17fae5a04ef10acfbb2","null","","null","","","","","","","","","","","","","","","","","","","fixation","",""
"","","","","","many-guess-6","48","222024","0.0-10.0-1.14-0.14","59ff47d47ecfc50001be0555","640759fa512f630a2bdc333d","6408c17fae5a04ef10acfbb2","[2244.5999999940395]","","","[22,30,2,25,11,13,31,34,6,28,29,15,14,4,9,20,19,17,3,24,26,27,5,0,21,33,32,35,16,18,12,1,7,8,23,10]","[219,120,249,30,70,169,50,90,279,149,309,179,189,20,259,40,229,159,349,339,299,199,139,239,100,110,359,10,269,209,60,329,319,129,289,80]","219","22","21.431048705642777","[21.431048705642777]","[359.43104870564275]","[359]","[30,210,120,30,30,210,210,120,300]","0","36","0","148.72299998212839","18.66300000596675","16","[[[""img/mask12.png""],[""img/mask82.png""],[""img/mask36.png""],[""img/mask85.png""],[""img/mask82.png""],[""img/mask67.png""],[""img/mask7.png""],[""img/mask63.png""],[""img/mask74.png""],[""img/mask12.png""],[""img/mask63.png""],[""img/mask96.png""],[""img/mask57.png""],[""img/mask10.png""],[""img/mask88.png""],[""img/mask27.png""],[""img/mask9.png""],[""img/mask51.png""],[""img/mask46.png""],[""img/mask5.png""],[""img/mask95.png""],[""img/mask89.png""],[""img/mask1.png""],[""img/mask52.png""],[""img/mask92.png""],[""img/mask78.png""],[""img/mask96.png""],[""img/mask91.png""],[""img/mask61.png""],[""img/mask52.png""],[""img/mask35.png""],[""img/mask63.png""],[""img/mask44.png""],[""img/mask80.png""],[""img/mask96.png""],[""img/mask16.png""]]]","","[22,30,2,25,11,13,31,34,6,28,29,15,14,4,9,20,19,17,3,24,26,27,5,0,21,33,32,35,16,18,12,1,7,8,23,10]","main","22","many-guess-6"
"","","","","","html-keyboard-response","49","222526","0.0-10.0-0.15","59ff47d47ecfc50001be0555","640759fa512f630a2bdc333d","6408c17fae5a04ef10acfbb2","null","","null","","","","","","","","","","","","","","","","","","","fixation","",""
"","","","","","color-precision2","50","227232","0.0-10.0-1.15-0.15","59ff47d47ecfc50001be0555","640759fa512f630a2bdc333d","6408c17fae5a04ef10acfbb2","[2019]","","","[19]","[274]","274","137","57.84395106896822","[57.84395106896822]","[280.8439510689682]","[279]","0","0","1","0","147.93900000595022","995.8789999999863","1000","[[[""img/mask78.png""]]]","","","main","137","color-precision2"
"","","","","","html-keyboard-response","51","227734","0.0-10.0-0.16","59ff47d47ecfc50001be0555","640759fa512f630a2bdc333d","6408c17fae5a04ef10acfbb2","null","","null","","","","","","","","","","","","","","","","","","","fixation","",""
"","","","","","many-guess-6","52","231720","0.0-10.0-1.16-0.16","59ff47d47ecfc50001be0555","640759fa512f630a2bdc333d","6408c17fae5a04ef10acfbb2","[1990.5999999940395]","","","[5,2,15,9,26,33,16,7,32,35,10,13,21,11,17,19,3,30,31,14,6,24,18,1,12,29,25,4,20,22,27,0,8,34,23,28]","[206,276,266,27,186,296,256,127,47,226,67,87,57,306,137,316,7,107,166,156,326,336,117,147,236,196,356,286,97,216,346,37,77,17,176,246]","206","245","40.72129764590149","[40.72129764590149]","[155.72129764590147]","[154]","[300,30,300,300,210,30,300,300,300]","0","36","0","148.02499999999418","16.26500000595115","16","[[[""img/mask4.png""],[""img/mask12.png""],[""img/mask24.png""],[""img/mask67.png""],[""img/mask85.png""],[""img/mask33.png""],[""img/mask26.png""],[""img/mask14.png""],[""img/mask48.png""],[""img/mask32.png""],[""img/mask72.png""],[""img/mask3.png""],[""img/mask44.png""],[""img/mask87.png""],[""img/mask25.png""],[""img/mask65.png""],[""img/mask11.png""],[""img/mask24.png""],[""img/mask14.png""],[""img/mask90.png""],[""img/mask28.png""],[""img/mask78.png""],[""img/mask22.png""],[""img/mask1.png""],[""img/mask30.png""],[""img/mask50.png""],[""img/mask57.png""],[""img/mask32.png""],[""img/mask4.png""],[""img/mask58.png""],[""img/mask81.png""],[""img/mask3.png""],[""img/mask34.png""],[""img/mask34.png""],[""img/mask94.png""],[""img/mask87.png""]]]","","[5,2,15,9,26,33,16,7,32,35,10,13,21,11,17,19,3,30,31,14,6,24,18,1,12,29,25,4,20,22,27,0,8,34,23,28]","main","245","many-guess-6"
"","","","","","html-keyboard-response","53","232222","0.0-10.0-0.17","59ff47d47ecfc50001be0555","640759fa512f630a2bdc333d","6408c17fae5a04ef10acfbb2","null","","null","","","","","","","","","","","","","","","","","","","fixation","",""
"","","","","","many-guess-6","54","235760","0.0-10.0-1.17-0.17","59ff47d47ecfc50001be0555","640759fa512f630a2bdc333d","6408c17fae5a04ef10acfbb2","[1531.5]","","","[14,5,16,25,1,2,32,29,12,21,23,0,10,15,3,22,17,19,33,26,28,13,24,18,11,31,20,9,34,35,30,7,8,27,4,6]","[78,108,8,98,88,38,18,68,357,188,118,218,257,178,208,28,337,347,148,317,327,168,228,287,138,58,267,158,238,198,128,277,307,297,48,247]","78","300","110.0249339002365","[110.0249339002365]","[170.0249339002365]","[168]","[300,300,120,210,120,210,210,30,300]","0","36","0","148.54499998808024","12.085000005958136","16","[[[""img/mask57.png""],[""img/mask23.png""],[""img/mask100.png""],[""img/mask72.png""],[""img/mask29.png""],[""img/mask27.png""],[""img/mask22.png""],[""img/mask55.png""],[""img/mask94.png""],[""img/mask51.png""],[""img/mask63.png""],[""img/mask11.png""],[""img/mask13.png""],[""img/mask92.png""],[""img/mask3.png""],[""img/mask93.png""],[""img/mask64.png""],[""img/mask47.png""],[""img/mask86.png""],[""img/mask43.png""],[""img/mask91.png""],[""img/mask69.png""],[""img/mask63.png""],[""img/mask91.png""],[""img/mask81.png""],[""img/mask79.png""],[""img/mask55.png""],[""img/mask30.png""],[""img/mask84.png""],[""img/mask45.png""],[""img/mask60.png""],[""img/mask41.png""],[""img/mask68.png""],[""img/mask51.png""],[""img/mask86.png""],[""img/mask93.png""]]]","","[14,5,16,25,1,2,32,29,12,21,23,0,10,15,3,22,17,19,33,26,28,13,24,18,11,31,20,9,34,35,30,7,8,27,4,6]","main","300","many-guess-6"
"","","","","","html-keyboard-response","55","236262","0.0-10.0-0.18","59ff47d47ecfc50001be0555","640759fa512f630a2bdc333d","6408c17fae5a04ef10acfbb2","null","","null","","","","","","","","","","","","","","","","","","","fixation","",""
"","","","","","many-guess-6","56","239984","0.0-10.0-1.18-0.18","59ff47d47ecfc50001be0555","640759fa512f630a2bdc333d","6408c17fae5a04ef10acfbb2","[1522.5]","","","[14,20,34,5,2,32,25,23,7,1,33,10,28,17,11,22,26,6,27,16,0,8,24,21,4,13,35,29,9,3,31,19,12,15,30,18]","[182,12,52,152,231,32,122,72,172,112,271,201,341,261,191,82,301,92,162,142,351,331,22,251,102,311,62,132,2,281,211,221,42,291,241,321]","182","185","183.99595377551356","[183.99595377551356]","[358.99595377551356]","[358]","[30,120,210,300,30,120,120,300,210]","0","36","0","147.90900000595138","21.24900000594789","16","[[[""img/mask85.png""],[""img/mask45.png""],[""img/mask62.png""],[""img/mask96.png""],[""img/mask28.png""],[""img/mask7.png""],[""img/mask22.png""],[""img/mask85.png""],[""img/mask72.png""],[""img/mask13.png""],[""img/mask93.png""],[""img/mask16.png""],[""img/mask99.png""],[""img/mask26.png""],[""img/mask57.png""],[""img/mask59.png""],[""img/mask54.png""],[""img/mask10.png""],[""img/mask14.png""],[""img/mask5.png""],[""img/mask35.png""],[""img/mask4.png""],[""img/mask18.png""],[""img/mask54.png""],[""img/mask46.png""],[""img/mask90.png""],[""img/mask5.png""],[""img/mask16.png""],[""img/mask79.png""],[""img/mask76.png""],[""img/mask92.png""],[""img/mask38.png""],[""img/mask22.png""],[""img/mask70.png""],[""img/mask15.png""],[""img/mask95.png""]]]","","[14,20,34,5,2,32,25,23,7,1,33,10,28,17,11,22,26,6,27,16,0,8,24,21,4,13,35,29,9,3,31,19,12,15,30,18]","main","185","many-guess-6"
"","","","","","html-keyboard-response","57","242944","0.0-10.0-0.19","59ff47d47ecfc50001be0555","640759fa512f630a2bdc333d","6408c17fae5a04ef10acfbb2","2958.7999999821186","Wow! You've completed 20 out of 180 trials! </p> <p>  </p><p> Take a quick break, then press any key when you're ready to continue."," ","","","","","","","","","","","","","","","","","","","fixation","",""
"","","","","","many-guess-6","58","245984","0.0-10.0-1.19-0.19","59ff47d47ecfc50001be0555","640759fa512f630a2bdc333d","6408c17fae5a04ef10acfbb2","[1138.5999999940395]","","","[3,31,8,17,30,32,9,20,35,28,26,11,34,2,24,29,16,15,6,13,27,22,12,23,19,1,18,21,14,33,0,25,7,5,4,10]","[164,55,184,344,254,284,174,324,354,194,65,294,105,314,35,144,124,134,334,5,15,304,25,45,224,274,204,244,95,114,214,85,75,264,234,154]","164","90","345.04555899477594","[345.04555899477594]","[255.04555899477594]","[255]","[30,300,300,30,120,210,30,30,30]","0","36","0","148.18699999403907","12.226999982114648","16","[[[""img/mask61.png""],[""img/mask33.png""],[""img/mask46.png""],[""img/mask58.png""],[""img/mask82.png""],[""img/mask10.png""],[""img/mask76.png""],[""img/mask3.png""],[""img/mask52.png""],[""img/mask13.png""],[""img/mask1.png""],[""img/mask15.png""],[""img/mask73.png""],[""img/mask16.png""],[""img/mask94.png""],[""img/mask6.png""],[""img/mask52.png""],[""img/mask26.png""],[""img/mask75.png""],[""img/mask84.png""],[""img/mask7.png""],[""img/mask20.png""],[""img/mask73.png""],[""img/mask15.png""],[""img/mask67.png""],[""img/mask54.png""],[""img/mask57.png""],[""img/mask67.png""],[""img/mask15.png""],[""img/mask14.png""],[""img/mask98.png""],[""img/mask57.png""],[""img/mask12.png""],[""img/mask95.png""],[""img/mask18.png""],[""img/mask80.png""]]]","","[3,31,8,17,30,32,9,20,35,28,26,11,34,2,24,29,16,15,6,13,27,22,12,23,19,1,18,21,14,33,0,25,7,5,4,10]","main","90","many-guess-6"
"","","","","","html-keyboard-response","59","246486","0.0-10.0-0.20","59ff47d47ecfc50001be0555","640759fa512f630a2bdc333d","6408c17fae5a04ef10acfbb2","null","","null","","","","","","","","","","","","","","","","","","","fixation","",""
"","","","","","color-precision2","60","249112","0.0-10.0-1.20-0.20","59ff47d47ecfc50001be0555","640759fa512f630a2bdc333d","6408c17fae5a04ef10acfbb2","[1.5]","","","[6]","[58]","58","44","","[null]","[null]","[47]","0","0","1","0","147.98300000597374","1006.7229999821284","1000","[[[""img/mask72.png""]]]","","","main","44","color-precision2"
"","","","","","html-keyboard-response","61","249614","0.0-10.0-0.21","59ff47d47ecfc50001be0555","640759fa512f630a2bdc333d","6408c17fae5a04ef10acfbb2","null","","null","","","","","","","","","","","","","","","","","","","fixation","",""
"","","","","","color-precision2","62","253728","0.0-10.0-1.21-0.21","59ff47d47ecfc50001be0555","640759fa512f630a2bdc333d","6408c17fae5a04ef10acfbb2","[916]","","","[24]","[67]","67","185","259.4892894438062","[259.4892894438062]","[74.48928944380617]","[75]","0","0","1","0","148.13499998807674","1002.6750000059546","1000","[[[""img/mask75.png""]]]","","","main","185","color-precision2"
"","","","","","html-keyboard-response","63","254230","0.0-10.0-0.22","59ff47d47ecfc50001be0555","640759fa512f630a2bdc333d","6408c17fae5a04ef10acfbb2","null","","null","","","","","","","","","","","","","","","","","","","fixation","",""
"","","","","","many-guess-6","64","257904","0.0-10.0-1.22-0.22","59ff47d47ecfc50001be0555","640759fa512f630a2bdc333d","6408c17fae5a04ef10acfbb2","[1492.699999988079]","","","[26,1,32,22,31,11,18,20,10,7,21,23,3,17,15,9,8,30,29,14,34,24,25,28,0,13,19,27,6,12,33,35,16,5,2,4]","[74,144,264,14,184,124,114,284,154,294,44,24,214,4,313,254,304,323,224,234,134,94,333,54,64,34,274,174,244,104,343,204,353,164,84,194]","74","73","163.14724645179723","[163.14724645179723]","[90.14724645179723]","[89]","[30,30,210,300,210,30,30,210,120]","0","36","0","147.39099999406608","18.430999982112553","16","[[[""img/mask53.png""],[""img/mask41.png""],[""img/mask77.png""],[""img/mask92.png""],[""img/mask63.png""],[""img/mask34.png""],[""img/mask77.png""],[""img/mask63.png""],[""img/mask70.png""],[""img/mask46.png""],[""img/mask39.png""],[""img/mask41.png""],[""img/mask53.png""],[""img/mask23.png""],[""img/mask77.png""],[""img/mask2.png""],[""img/mask100.png""],[""img/mask70.png""],[""img/mask18.png""],[""img/mask96.png""],[""img/mask90.png""],[""img/mask5.png""],[""img/mask100.png""],[""img/mask99.png""],[""img/mask8.png""],[""img/mask66.png""],[""img/mask51.png""],[""img/mask48.png""],[""img/mask89.png""],[""img/mask27.png""],[""img/mask11.png""],[""img/mask72.png""],[""img/mask92.png""],[""img/mask28.png""],[""img/mask17.png""],[""img/mask89.png""]]]","","[26,1,32,22,31,11,18,20,10,7,21,23,3,17,15,9,8,30,29,14,34,24,25,28,0,13,19,27,6,12,33,35,16,5,2,4]","main","73","many-guess-6"
"","","","","","html-keyboard-response","65","258406","0.0-10.0-0.23","59ff47d47ecfc50001be0555","640759fa512f630a2bdc333d","6408c17fae5a04ef10acfbb2","null","","null","","","","","","","","","","","","","","","","","","","fixation","",""
"","","","","","many-guess-6","66","261928","0.0-10.0-1.23-0.23","59ff47d47ecfc50001be0555","640759fa512f630a2bdc333d","6408c17fae5a04ef10acfbb2","[1133.4000000059605]","","","[23,19,26,28,1,5,22,0,12,2,13,29,30,15,33,20,24,6,8,32,9,10,17,27,3,34,18,21,16,25,35,31,11,14,7,4]","[214,134,204,164,324,54,274,64,94,224,84,284,114,244,45,334,25,5,354,194,74,254,154,184,344,104,234,264,174,124,144,35,294,314,304,15]","214","333","288.46109546625536","[288.46109546625536]","[315.46109546625536]","[316]","[300,30,300,300,120,210,30,30,300]","0","36","0","148.94900000002235","17.788999999989755","16","[[[""img/mask96.png""],[""img/mask60.png""],[""img/mask52.png""],[""img/mask81.png""],[""img/mask85.png""],[""img/mask65.png""],[""img/mask18.png""],[""img/mask39.png""],[""img/mask21.png""],[""img/mask11.png""],[""img/mask96.png""],[""img/mask68.png""],[""img/mask54.png""],[""img/mask22.png""],[""img/mask34.png""],[""img/mask27.png""],[""img/mask6.png""],[""img/mask31.png""],[""img/mask40.png""],[""img/mask69.png""],[""img/mask2.png""],[""img/mask99.png""],[""img/mask5.png""],[""img/mask99.png""],[""img/mask47.png""],[""img/mask82.png""],[""img/mask20.png""],[""img/mask97.png""],[""img/mask18.png""],[""img/mask46.png""],[""img/mask81.png""],[""img/mask7.png""],[""img/mask14.png""],[""img/mask18.png""],[""img/mask91.png""],[""img/mask86.png""]]]","","[23,19,26,28,1,5,22,0,12,2,13,29,30,15,33,20,24,6,8,32,9,10,17,27,3,34,18,21,16,25,35,31,11,14,7,4]","main","333","many-guess-6"
"","","","","","html-keyboard-response","67","262431","0.0-10.0-0.24","59ff47d47ecfc50001be0555","640759fa512f630a2bdc333d","6408c17fae5a04ef10acfbb2","null","","null","","","","","","","","","","","","","","","","","","","fixation","",""
"","","","","","many-guess-6","68","265832","0.0-10.0-1.24-0.24","59ff47d47ecfc50001be0555","640759fa512f630a2bdc333d","6408c17fae5a04ef10acfbb2","[1687.300000011921]","","","[31,1,14,25,35,24,16,18,27,20,26,9,29,15,32,17,22,0,5,13,12,7,28,4,23,30,11,33,3,19,8,10,2,6,21,34]","[173,34,263,133,303,343,163,203,124,104,313,193,54,353,24,253,293,273,233,143,74,213,183,64,4,153,94,84,44,223,323,243,283,14,333,114]","173","198","288.3261883654138","[288.3261883654138]","[90.32618836541383]","[90]","[300,210,30,210,120,120,300,210,30]","0","36","0","148.11499998212093","15.65500000002794","16","[[[""img/mask99.png""],[""img/mask17.png""],[""img/mask71.png""],[""img/mask50.png""],[""img/mask50.png""],[""img/mask79.png""],[""img/mask46.png""],[""img/mask5.png""],[""img/mask19.png""],[""img/mask65.png""],[""img/mask62.png""],[""img/mask82.png""],[""img/mask79.png""],[""img/mask54.png""],[""img/mask35.png""],[""img/mask84.png""],[""img/mask28.png""],[""img/mask50.png""],[""img/mask4.png""],[""img/mask40.png""],[""img/mask79.png""],[""img/mask31.png""],[""img/mask75.png""],[""img/mask28.png""],[""img/mask81.png""],[""img/mask43.png""],[""img/mask27.png""],[""img/mask77.png""],[""img/mask78.png""],[""img/mask58.png""],[""img/mask81.png""],[""img/mask30.png""],[""img/mask34.png""],[""img/mask73.png""],[""img/mask96.png""],[""img/mask82.png""]]]","","[31,1,14,25,35,24,16,18,27,20,26,9,29,15,32,17,22,0,5,13,12,7,28,4,23,30,11,33,3,19,8,10,2,6,21,34]","main","198","many-guess-6"
"","","","","","html-keyboard-response","69","266334","0.0-10.0-0.25","59ff47d47ecfc50001be0555","640759fa512f630a2bdc333d","6408c17fae5a04ef10acfbb2","null","","null","","","","","","","","","","","","","","","","","","","fixation","",""
"","","","","","color-precision2","70","270296","0.0-10.0-1.25-0.25","59ff47d47ecfc50001be0555","640759fa512f630a2bdc333d","6408c17fae5a04ef10acfbb2","[1084.9000000059605]","","","[24]","[197]","197","247","78.93121031973766","[78.93121031973766]","[191.93121031973766]","[190]","0","0","1","0","147.77899999998044","993.9189999821247","1000","[[[""img/mask94.png""]]]","","","main","247","color-precision2"
"","","","","","html-keyboard-response","71","270798","0.0-10.0-0.26","59ff47d47ecfc50001be0555","640759fa512f630a2bdc333d","6408c17fae5a04ef10acfbb2","null","","null","","","","","","","","","","","","","","","","","","","fixation","",""
"","","","","","color-precision2","72","274815","0.0-10.0-1.26-0.26","59ff47d47ecfc50001be0555","640759fa512f630a2bdc333d","6408c17fae5a04ef10acfbb2","[1055.0999999940395]","","","[11]","[358]","358","281","243.41734012209452","[243.41734012209452]","[322.4173401220945]","[323]","0","0","1","0","147.79699998808792","999.8370000059367","1000","[[[""img/mask85.png""]]]","","","main","281","color-precision2"
"","","","","","html-keyboard-response","73","275318","0.0-10.0-0.27","59ff47d47ecfc50001be0555","640759fa512f630a2bdc333d","6408c17fae5a04ef10acfbb2","null","","null","","","","","","","","","","","","","","","","","","","fixation","",""
"","","","","","color-precision2","74","280239","0.0-10.0-1.27-0.27","59ff47d47ecfc50001be0555","640759fa512f630a2bdc333d","6408c17fae5a04ef10acfbb2","[2161.800000011921]","","","[6]","[147]","147","280","99.18183215094258","[99.18183215094258]","[179.18183215094257]","[177]","0","0","1","0","148.19099999405444","996.3310000059428","1000","[[[""img/mask30.png""]]]","","","main","280","color-precision2"
"","","","","","html-keyboard-response","75","280742","0.0-10.0-0.28","59ff47d47ecfc50001be0555","640759fa512f630a2bdc333d","6408c17fae5a04ef10acfbb2","null","","null","","","","","","","","","","","","","","","","","","","fixation","",""
"","","","","","color-precision2","76","286376","0.0-10.0-1.28-0.28","59ff47d47ecfc50001be0555","640759fa512f630a2bdc333d","6408c17fae5a04ef10acfbb2","[1832.7000000178814]","","","[18]","[272]","272","188","131.08305116064582","[131.08305116064582]","[303.0830511606458]","[301]","0","0","1","0","148.4990000000107","998.6389999820967","1000","[[[""img/mask100.png""]]]","","","main","188","color-precision2"
"","","","","","html-keyboard-response","77","286877","0.0-10.0-0.29","59ff47d47ecfc50001be0555","640759fa512f630a2bdc333d","6408c17fae5a04ef10acfbb2","null","","null","","","","","","","","","","","","","","","","","","","fixation","",""
"","","","","","many-guess-6","78","290712","0.0-10.0-1.29-0.29","59ff47d47ecfc50001be0555","640759fa512f630a2bdc333d","6408c17fae5a04ef10acfbb2","[1584.7000000178814]","","","[5,23,27,20,35,19,24,16,22,11,4,26,31,32,9,30,17,7,8,2,14,25,28,18,12,6,3,15,1,29,10,33,13,34,0,21]","[72,331,351,82,112,242,142,232,172,62,291,42,262,252,182,321,32,2,122,282,92,222,341,52,132,152,162,272,301,202,192,12,212,311,22,102]","72","257","272.36045103702156","[272.36045103702156]","[15.360451037021562]","[16]","[210,30,210,300,300,210,30,210,30]","0","36","0","148.4489999820944","21.88900000596186","16","[[[""img/mask13.png""],[""img/mask44.png""],[""img/mask80.png""],[""img/mask3.png""],[""img/mask59.png""],[""img/mask27.png""],[""img/mask22.png""],[""img/mask91.png""],[""img/mask27.png""],[""img/mask38.png""],[""img/mask17.png""],[""img/mask53.png""],[""img/mask21.png""],[""img/mask58.png""],[""img/mask35.png""],[""img/mask89.png""],[""img/mask1.png""],[""img/mask20.png""],[""img/mask39.png""],[""img/mask66.png""],[""img/mask99.png""],[""img/mask75.png""],[""img/mask77.png""],[""img/mask42.png""],[""img/mask71.png""],[""img/mask98.png""],[""img/mask24.png""],[""img/mask47.png""],[""img/mask65.png""],[""img/mask26.png""],[""img/mask53.png""],[""img/mask67.png""],[""img/mask97.png""],[""img/mask69.png""],[""img/mask80.png""],[""img/mask5.png""]]]","","[5,23,27,20,35,19,24,16,22,11,4,26,31,32,9,30,17,7,8,2,14,25,28,18,12,6,3,15,1,29,10,33,13,34,0,21]","main","257","many-guess-6"
"","","","","","html-keyboard-response","79","291214","0.0-10.0-0.30","59ff47d47ecfc50001be0555","640759fa512f630a2bdc333d","6408c17fae5a04ef10acfbb2","null","","null","","","","","","","","","","","","","","","","","","","fixation","",""
"","","","","","color-precision2","80","295888","0.0-10.0-1.30-0.30","59ff47d47ecfc50001be0555","640759fa512f630a2bdc333d","6408c17fae5a04ef10acfbb2","[1061.7000000178814]","","","[6]","[218]","218","350","190.9503339913419","[190.9503339913419]","[200.9503339913419]","[200]","0","0","1","0","148.12099998805206","1001.6610000059591","1000","[[[""img/mask77.png""]]]","","","main","350","color-precision2"
"","","","","","html-keyboard-response","81","296390","0.0-10.0-0.31","59ff47d47ecfc50001be0555","640759fa512f630a2bdc333d","6408c17fae5a04ef10acfbb2","null","","null","","","","","","","","","","","","","","","","","","","fixation","",""
"","","","","","many-guess-6","82","299832","0.0-10.0-1.31-0.31","59ff47d47ecfc50001be0555","640759fa512f630a2bdc333d","6408c17fae5a04ef10acfbb2","[1439.699999988079]","","","[16,19,18,25,12,31,26,4,22,14,30,2,7,33,24,11,27,34,1,21,28,32,13,15,3,9,29,23,10,20,6,35,5,17,0,8]","[303,322,223,203,342,53,143,233,183,43,332,83,263,193,352,293,173,63,93,153,243,3,113,253,273,13,123,283,73,23,213,133,163,33,103,313]","303","32","176.53713555731113","[176.53713555731113]","[144.53713555731113]","[144]","[30,210,30,30,120,120,120,120,30]","0","36","0","148.94500000000698","16.084999982092995","16","[[[""img/mask7.png""],[""img/mask11.png""],[""img/mask43.png""],[""img/mask62.png""],[""img/mask19.png""],[""img/mask46.png""],[""img/mask59.png""],[""img/mask78.png""],[""img/mask91.png""],[""img/mask70.png""],[""img/mask100.png""],[""img/mask19.png""],[""img/mask20.png""],[""img/mask86.png""],[""img/mask69.png""],[""img/mask49.png""],[""img/mask55.png""],[""img/mask94.png""],[""img/mask38.png""],[""img/mask61.png""],[""img/mask25.png""],[""img/mask99.png""],[""img/mask95.png""],[""img/mask13.png""],[""img/mask67.png""],[""img/mask40.png""],[""img/mask95.png""],[""img/mask79.png""],[""img/mask29.png""],[""img/mask59.png""],[""img/mask23.png""],[""img/mask90.png""],[""img/mask82.png""],[""img/mask9.png""],[""img/mask76.png""],[""img/mask59.png""]]]","","[16,19,18,25,12,31,26,4,22,14,30,2,7,33,24,11,27,34,1,21,28,32,13,15,3,9,29,23,10,20,6,35,5,17,0,8]","main","32","many-guess-6"
"","","","","","html-keyboard-response","83","300334","0.0-10.0-0.32","59ff47d47ecfc50001be0555","640759fa512f630a2bdc333d","6408c17fae5a04ef10acfbb2","null","","null","","","","","","","","","","","","","","","","","","","fixation","",""
"","","","","","many-guess-6","84","305048","0.0-10.0-1.32-0.32","59ff47d47ecfc50001be0555","640759fa512f630a2bdc333d","6408c17fae5a04ef10acfbb2","[1688.1000000238419]","","","[21,32,5,10,9,16,2,24,29,25,12,22,13,30,28,7,11,8,31,14,33,20,15,18,1,17,23,4,34,35,0,26,19,6,3,27]","[106,186,56,96,216,26,146,16,36,46,176,76,86,196,246,326,66,336,136,266,166,306,316,286,345,116,226,126,355,296,6,156,206,256,236,276]","106","184","45.71664994497705","[45.71664994497705]","[221.71664994497706]","[220]","[210,120,120,300,210,210,120,120,210]","0","36","0","148.51299999404","14.952999988105148","16","[[[""img/mask87.png""],[""img/mask86.png""],[""img/mask26.png""],[""img/mask71.png""],[""img/mask46.png""],[""img/mask2.png""],[""img/mask21.png""],[""img/mask38.png""],[""img/mask40.png""],[""img/mask87.png""],[""img/mask26.png""],[""img/mask87.png""],[""img/mask49.png""],[""img/mask38.png""],[""img/mask38.png""],[""img/mask38.png""],[""img/mask16.png""],[""img/mask76.png""],[""img/mask39.png""],[""img/mask85.png""],[""img/mask19.png""],[""img/mask27.png""],[""img/mask42.png""],[""img/mask29.png""],[""img/mask26.png""],[""img/mask22.png""],[""img/mask81.png""],[""img/mask60.png""],[""img/mask34.png""],[""img/mask83.png""],[""img/mask30.png""],[""img/mask74.png""],[""img/mask74.png""],[""img/mask78.png""],[""img/mask84.png""],[""img/mask36.png""]]]","","[21,32,5,10,9,16,2,24,29,25,12,22,13,30,28,7,11,8,31,14,33,20,15,18,1,17,23,4,34,35,0,26,19,6,3,27]","main","184","many-guess-6"
"","","","","","html-keyboard-response","85","305550","0.0-10.0-0.33","59ff47d47ecfc50001be0555","640759fa512f630a2bdc333d","6408c17fae5a04ef10acfbb2","null","","null","","","","","","","","","","","","","","","","","","","fixation","",""
"","","","","","many-guess-6","86","309744","0.0-10.0-1.33-0.33","59ff47d47ecfc50001be0555","640759fa512f630a2bdc333d","6408c17fae5a04ef10acfbb2","[1550.699999988079]","","","[21,3,34,20,9,13,16,27,1,28,35,0,6,4,32,33,23,2,10,31,11,17,18,12,8,7,26,30,22,15,25,24,19,5,29,14]","[240,310,100,11,300,130,350,190,80,140,250,340,210,160,1,21,230,31,170,200,330,270,90,50,150,110,120,180,40,70,320,260,280,60,220,290]","240","49","25.809027449881068","[25.809027449881068]","[336.80902744988106]","[335]","[120,120,300,120,120,30,300,120,300]","0","36","0","148.7529999880935","23.793000005942304","16","[[[""img/mask85.png""],[""img/mask74.png""],[""img/mask93.png""],[""img/mask6.png""],[""img/mask99.png""],[""img/mask89.png""],[""img/mask50.png""],[""img/mask81.png""],[""img/mask46.png""],[""img/mask13.png""],[""img/mask92.png""],[""img/mask22.png""],[""img/mask71.png""],[""img/mask23.png""],[""img/mask94.png""],[""img/mask37.png""],[""img/mask78.png""],[""img/mask76.png""],[""img/mask32.png""],[""img/mask47.png""],[""img/mask60.png""],[""img/mask77.png""],[""img/mask44.png""],[""img/mask43.png""],[""img/mask92.png""],[""img/mask21.png""],[""img/mask97.png""],[""img/mask97.png""],[""img/mask80.png""],[""img/mask56.png""],[""img/mask63.png""],[""img/mask29.png""],[""img/mask3.png""],[""img/mask9.png""],[""img/mask39.png""],[""img/mask63.png""]]]","","[21,3,34,20,9,13,16,27,1,28,35,0,6,4,32,33,23,2,10,31,11,17,18,12,8,7,26,30,22,15,25,24,19,5,29,14]","main","49","many-guess-6"
"","","","","","html-keyboard-response","87","310246","0.0-10.0-0.34","59ff47d47ecfc50001be0555","640759fa512f630a2bdc333d","6408c17fae5a04ef10acfbb2","null","","null","","","","","","","","","","","","","","","","","","","fixation","",""
"","","","","","many-guess-6","88","313703","0.0-10.0-1.34-0.34","59ff47d47ecfc50001be0555","640759fa512f630a2bdc333d","6408c17fae5a04ef10acfbb2","[1428.199999988079]","","","[8,0,29,12,33,2,19,3,7,15,5,22,25,17,18,11,24,4,10,32,16,14,34,30,26,9,1,21,31,20,35,6,27,13,28,23]","[228,287,168,357,297,277,108,98,188,68,48,248,28,78,18,88,138,258,317,148,238,58,267,307,208,218,198,38,337,158,347,327,118,8,178,128]","228","356","93.00287677707853","[93.00287677707853]","[97.00287677707854]","[95]","[30,30,210,300,30,120,210,120,210]","0","36","0","148.4229999880772","18.862999982142355","16","[[[""img/mask56.png""],[""img/mask27.png""],[""img/mask33.png""],[""img/mask50.png""],[""img/mask50.png""],[""img/mask58.png""],[""img/mask1.png""],[""img/mask10.png""],[""img/mask32.png""],[""img/mask32.png""],[""img/mask5.png""],[""img/mask35.png""],[""img/mask87.png""],[""img/mask89.png""],[""img/mask26.png""],[""img/mask3.png""],[""img/mask72.png""],[""img/mask90.png""],[""img/mask14.png""],[""img/mask69.png""],[""img/mask89.png""],[""img/mask96.png""],[""img/mask62.png""],[""img/mask54.png""],[""img/mask72.png""],[""img/mask85.png""],[""img/mask19.png""],[""img/mask21.png""],[""img/mask1.png""],[""img/mask26.png""],[""img/mask28.png""],[""img/mask25.png""],[""img/mask84.png""],[""img/mask9.png""],[""img/mask76.png""],[""img/mask20.png""]]]","","[8,0,29,12,33,2,19,3,7,15,5,22,25,17,18,11,24,4,10,32,16,14,34,30,26,9,1,21,31,20,35,6,27,13,28,23]","main","356","many-guess-6"
"","","","","","html-keyboard-response","89","314206","0.0-10.0-0.35","59ff47d47ecfc50001be0555","640759fa512f630a2bdc333d","6408c17fae5a04ef10acfbb2","null","","null","","","","","","","","","","","","","","","","","","","fixation","",""
"","","","","","color-precision2","90","318582","0.0-10.0-1.35-0.35","59ff47d47ecfc50001be0555","640759fa512f630a2bdc333d","6408c17fae5a04ef10acfbb2","[1323.9000000059605]","","","[33]","[202]","202","40","241.3384370262115","[241.3384370262115]","[201.3384370262115]","[202]","0","0","1","0","148.35700000001816","1002.097000005946","1000","[[[""img/mask26.png""]]]","","","main","40","color-precision2"
"","","","","","html-keyboard-response","91","319085","0.0-10.0-0.36","59ff47d47ecfc50001be0555","640759fa512f630a2bdc333d","6408c17fae5a04ef10acfbb2","null","","null","","","","","","","","","","","","","","","","","","","fixation","",""
"","","","","","many-guess-6","92","322247","0.0-10.0-1.36-0.36","59ff47d47ecfc50001be0555","640759fa512f630a2bdc333d","6408c17fae5a04ef10acfbb2","[1455.8999999761581]","","","[29,11,27,18,20,34,9,13,10,2,19,5,15,22,35,17,1,21,4,28,3,7,26,32,0,23,12,24,31,8,16,30,14,33,6,25]","[18,307,108,118,188,267,228,28,337,178,128,327,198,38,247,347,168,287,158,357,277,218,58,148,238,297,88,138,48,8,98,68,257,208,78,317]","18","23","233.5937080844932","[233.5937080844932]","[210.5937080844932]","[211]","[120,120,30,210,120,300,120,30,300]","0","36","0","148.34899998211768","15.088999988103751","16","[[[""img/mask26.png""],[""img/mask76.png""],[""img/mask24.png""],[""img/mask22.png""],[""img/mask13.png""],[""img/mask24.png""],[""img/mask72.png""],[""img/mask94.png""],[""img/mask11.png""],[""img/mask47.png""],[""img/mask13.png""],[""img/mask44.png""],[""img/mask31.png""],[""img/mask31.png""],[""img/mask60.png""],[""img/mask29.png""],[""img/mask20.png""],[""img/mask45.png""],[""img/mask25.png""],[""img/mask28.png""],[""img/mask22.png""],[""img/mask24.png""],[""img/mask26.png""],[""img/mask45.png""],[""img/mask28.png""],[""img/mask62.png""],[""img/mask53.png""],[""img/mask44.png""],[""img/mask88.png""],[""img/mask51.png""],[""img/mask88.png""],[""img/mask50.png""],[""img/mask22.png""],[""img/mask99.png""],[""img/mask34.png""],[""img/mask50.png""]]]","","[29,11,27,18,20,34,9,13,10,2,19,5,15,22,35,17,1,21,4,28,3,7,26,32,0,23,12,24,31,8,16,30,14,33,6,25]","main","23","many-guess-6"
"","","","","","html-keyboard-response","93","322750","0.0-10.0-0.37","59ff47d47ecfc50001be0555","640759fa512f630a2bdc333d","6408c17fae5a04ef10acfbb2","null","","null","","","","","","","","","","","","","","","","","","","fixation","",""
"","","","","","many-guess-6","94","325519","0.0-10.0-1.37-0.37","59ff47d47ecfc50001be0555","640759fa512f630a2bdc333d","6408c17fae5a04ef10acfbb2","[1194.199999988079]","","","[21,2,27,35,24,5,12,19,20,9,32,1,33,7,6,34,13,22,0,4,23,18,28,14,30,16,31,8,11,15,3,26,10,25,17,29]","[6,196,26,216,86,295,266,106,335,96,285,246,36,156,46,305,76,116,315,66,176,355,166,226,206,126,236,136,146,345,186,325,56,16,276,256]","6","115","253.03094973459852","[253.03094973459852]","[138.03094973459852]","[138]","[210,30,30,120,30,30,30,30,300]","0","36","0","148.04099998209858","20.481000005966052","16","[[[""img/mask21.png""],[""img/mask15.png""],[""img/mask10.png""],[""img/mask8.png""],[""img/mask68.png""],[""img/mask77.png""],[""img/mask75.png""],[""img/mask6.png""],[""img/mask49.png""],[""img/mask76.png""],[""img/mask98.png""],[""img/mask43.png""],[""img/mask89.png""],[""img/mask99.png""],[""img/mask62.png""],[""img/mask79.png""],[""img/mask40.png""],[""img/mask77.png""],[""img/mask29.png""],[""img/mask51.png""],[""img/mask34.png""],[""img/mask28.png""],[""img/mask15.png""],[""img/mask14.png""],[""img/mask42.png""],[""img/mask21.png""],[""img/mask1.png""],[""img/mask12.png""],[""img/mask86.png""],[""img/mask100.png""],[""img/mask20.png""],[""img/mask57.png""],[""img/mask8.png""],[""img/mask46.png""],[""img/mask5.png""],[""img/mask15.png""]]]","","[21,2,27,35,24,5,12,19,20,9,32,1,33,7,6,34,13,22,0,4,23,18,28,14,30,16,31,8,11,15,3,26,10,25,17,29]","main","115","many-guess-6"
"","","","","","html-keyboard-response","95","326022","0.0-10.0-0.38","59ff47d47ecfc50001be0555","640759fa512f630a2bdc333d","6408c17fae5a04ef10acfbb2","null","","null","","","","","","","","","","","","","","","","","","","fixation","",""
"","","","","","many-guess-6","96","329840","0.0-10.0-1.38-0.38","59ff47d47ecfc50001be0555","640759fa512f630a2bdc333d","6408c17fae5a04ef10acfbb2","[2131.600000023842]","","","[27,28,22,9,34,18,0,7,26,1,23,6,21,31,4,32,19,14,10,30,29,25,17,24,5,20,3,33,16,35,8,15,12,2,13,11]","[323,104,284,134,264,194,274,84,164,343,54,234,74,24,124,244,144,294,224,64,333,304,94,4,214,154,34,174,353,204,254,314,184,44,14,114]","323","9","291.42017790380544","[291.42017790380544]","[282.42017790380544]","[283]","[120,300,120,120,120,30,30,120,300]","0","36","0","148.03899999405257","19.679000005940907","16","[[[""img/mask76.png""],[""img/mask90.png""],[""img/mask6.png""],[""img/mask66.png""],[""img/mask59.png""],[""img/mask25.png""],[""img/mask27.png""],[""img/mask9.png""],[""img/mask32.png""],[""img/mask83.png""],[""img/mask68.png""],[""img/mask33.png""],[""img/mask41.png""],[""img/mask63.png""],[""img/mask10.png""],[""img/mask6.png""],[""img/mask58.png""],[""img/mask81.png""],[""img/mask72.png""],[""img/mask11.png""],[""img/mask15.png""],[""img/mask12.png""],[""img/mask34.png""],[""img/mask38.png""],[""img/mask50.png""],[""img/mask27.png""],[""img/mask74.png""],[""img/mask59.png""],[""img/mask54.png""],[""img/mask83.png""],[""img/mask54.png""],[""img/mask80.png""],[""img/mask40.png""],[""img/mask40.png""],[""img/mask88.png""],[""img/mask37.png""]]]","","[27,28,22,9,34,18,0,7,26,1,23,6,21,31,4,32,19,14,10,30,29,25,17,24,5,20,3,33,16,35,8,15,12,2,13,11]","main","9","many-guess-6"
"","","","","","html-keyboard-response","97","331679","0.0-10.0-0.39","59ff47d47ecfc50001be0555","640759fa512f630a2bdc333d","6408c17fae5a04ef10acfbb2","1838.199999988079","Wow! You've completed 40 out of 180 trials! </p> <p>  </p><p> Take a quick break, then press any key when you're ready to continue."," ","","","","","","","","","","","","","","","","","","","fixation","",""
"","","","","","color-precision2","98","337815","0.0-10.0-1.39-0.39","59ff47d47ecfc50001be0555","640759fa512f630a2bdc333d","6408c17fae5a04ef10acfbb2","[2224]","","","[35]","[31]","31","68","137.61109145703418","[137.61109145703418]","[69.61109145703418]","[68]","0","0","1","0","148.15699998807395","1006.697000005981","1000","[[[""img/mask47.png""]]]","","","main","68","color-precision2"
"","","","","","html-keyboard-response","99","338318","0.0-10.0-0.40","59ff47d47ecfc50001be0555","640759fa512f630a2bdc333d","6408c17fae5a04ef10acfbb2","null","","null","","","","","","","","","","","","","","","","","","","fixation","",""
"","","","","","color-precision2","100","341655","0.0-10.0-1.40-0.40","59ff47d47ecfc50001be0555","640759fa512f630a2bdc333d","6408c17fae5a04ef10acfbb2","[447.39999997615814]","","","[2]","[249]","249","310","194.5200905806921","[194.5200905806921]","[244.5200905806921]","[244]","0","0","1","0","148.39899999997579","1007.2390000000014","1000","[[[""img/mask58.png""]]]","","","main","310","color-precision2"
"","","","","","html-keyboard-response","101","342158","0.0-10.0-0.41","59ff47d47ecfc50001be0555","640759fa512f630a2bdc333d","6408c17fae5a04ef10acfbb2","null","","null","","","","","","","","","","","","","","","","","","","fixation","",""
"","","","","","many-guess-6","102","345543","0.0-10.0-1.41-0.41","59ff47d47ecfc50001be0555","640759fa512f630a2bdc333d","6408c17fae5a04ef10acfbb2","[1602.7999999821186]","","","[6,32,27,15,20,17,8,21,4,14,5,18,12,28,2,3,16,30,35,25,33,34,1,24,9,0,23,31,26,10,13,29,11,19,7,22]","[241,231,121,271,22,161,351,131,341,62,191,181,52,141,151,32,2,211,251,171,321,92,102,301,82,112,281,221,201,72,331,42,311,12,291,261]","241","247","303.8302250594388","[303.8302250594388]","[56.83022505943882]","[57]","[300,30,30,300,210,120,300,300,120]","0","36","0","149.02300000598188","20.36300000594929","16","[[[""img/mask92.png""],[""img/mask65.png""],[""img/mask8.png""],[""img/mask58.png""],[""img/mask74.png""],[""img/mask36.png""],[""img/mask97.png""],[""img/mask94.png""],[""img/mask60.png""],[""img/mask12.png""],[""img/mask60.png""],[""img/mask80.png""],[""img/mask3.png""],[""img/mask57.png""],[""img/mask72.png""],[""img/mask88.png""],[""img/mask97.png""],[""img/mask47.png""],[""img/mask52.png""],[""img/mask4.png""],[""img/mask61.png""],[""img/mask38.png""],[""img/mask68.png""],[""img/mask9.png""],[""img/mask12.png""],[""img/mask78.png""],[""img/mask72.png""],[""img/mask100.png""],[""img/mask39.png""],[""img/mask94.png""],[""img/mask1.png""],[""img/mask92.png""],[""img/mask84.png""],[""img/mask25.png""],[""img/mask33.png""],[""img/mask60.png""]]]","","[6,32,27,15,20,17,8,21,4,14,5,18,12,28,2,3,16,30,35,25,33,34,1,24,9,0,23,31,26,10,13,29,11,19,7,22]","main","247","many-guess-6"
"","","","","","html-keyboard-response","103","346046","0.0-10.0-0.42","59ff47d47ecfc50001be0555","640759fa512f630a2bdc333d","6408c17fae5a04ef10acfbb2","null","","null","","","","","","","","","","","","","","","","","","","fixation","",""
"","","","","","color-precision2","104","349575","0.0-10.0-1.42-0.42","59ff47d47ecfc50001be0555","640759fa512f630a2bdc333d","6408c17fae5a04ef10acfbb2","[551.5]","","","[33]","[248]","248","264","127.44029227530915","[127.44029227530915]","[223.44029227530916]","[222]","0","0","1","0","147.8529999940656","1007.3929999821121","1000","[[[""img/mask16.png""]]]","","","main","264","color-precision2"
"","","","","","html-keyboard-response","105","350078","0.0-10.0-0.43","59ff47d47ecfc50001be0555","640759fa512f630a2bdc333d","6408c17fae5a04ef10acfbb2","null","","null","","","","","","","","","","","","","","","","","","","fixation","",""
"","","","","","color-precision2","106","352687","0.0-10.0-1.43-0.43","59ff47d47ecfc50001be0555","640759fa512f630a2bdc333d","6408c17fae5a04ef10acfbb2","[47.5]","","","[20]","[214]","214","244","","[null]","[null]","[214]","0","0","1","0","148.37499999406282","992.0150000059512","1000","[[[""img/mask22.png""]]]","","","main","244","color-precision2"
"","","","","","html-keyboard-response","107","353189","0.0-10.0-0.44","59ff47d47ecfc50001be0555","640759fa512f630a2bdc333d","6408c17fae5a04ef10acfbb2","null","","null","","","","","","","","","","","","","","","","","","","fixation","",""
"","","","","","many-guess-6","108","356455","0.0-10.0-1.44-0.44","59ff47d47ecfc50001be0555","640759fa512f630a2bdc333d","6408c17fae5a04ef10acfbb2","[1780.3999999761581]","","","[0,30,4,14,31,18,19,32,13,10,7,29,34,28,25,16,26,27,11,35,3,21,5,33,2,15,17,20,8,1,9,23,6,24,12,22]","[222,23,123,192,202,153,33,352,3,292,312,282,53,252,302,63,242,73,322,332,212,342,172,133,83,103,182,43,113,143,163,262,272,13,93,232]","222","70","90.2955366031154","[90.2955366031154]","[20.295536603115394]","[18]","[300,30,30,300,300,120,210,120,30]","0","36","0","148.92700000596233","25.96699999406701","16","[[[""img/mask1.png""],[""img/mask14.png""],[""img/mask67.png""],[""img/mask7.png""],[""img/mask95.png""],[""img/mask76.png""],[""img/mask69.png""],[""img/mask27.png""],[""img/mask86.png""],[""img/mask59.png""],[""img/mask84.png""],[""img/mask35.png""],[""img/mask23.png""],[""img/mask95.png""],[""img/mask60.png""],[""img/mask1.png""],[""img/mask8.png""],[""img/mask79.png""],[""img/mask50.png""],[""img/mask20.png""],[""img/mask89.png""],[""img/mask65.png""],[""img/mask88.png""],[""img/mask35.png""],[""img/mask49.png""],[""img/mask85.png""],[""img/mask10.png""],[""img/mask70.png""],[""img/mask99.png""],[""img/mask41.png""],[""img/mask71.png""],[""img/mask80.png""],[""img/mask34.png""],[""img/mask100.png""],[""img/mask87.png""],[""img/mask43.png""]]]","","[0,30,4,14,31,18,19,32,13,10,7,29,34,28,25,16,26,27,11,35,3,21,5,33,2,15,17,20,8,1,9,23,6,24,12,22]","main","70","many-guess-6"
"","","","","","html-keyboard-response","109","356956","0.0-10.0-0.45","59ff47d47ecfc50001be0555","640759fa512f630a2bdc333d","6408c17fae5a04ef10acfbb2","null","","null","","","","","","","","","","","","","","","","","","","fixation","",""
"","","","","","color-precision2","110","360599","0.0-10.0-1.45-0.45","59ff47d47ecfc50001be0555","640759fa512f630a2bdc333d","6408c17fae5a04ef10acfbb2","[1108.199999988079]","","","[16]","[346]","346","246","209.9720608638251","[209.9720608638251]","[323.9720608638251]","[324]","0","0","1","0","147.70099998806836","1001.8410000000149","1000","[[[""img/mask73.png""]]]","","","main","246","color-precision2"
"","","","","","html-keyboard-response","111","361102","0.0-10.0-0.46","59ff47d47ecfc50001be0555","640759fa512f630a2bdc333d","6408c17fae5a04ef10acfbb2","null","","null","","","","","","","","","","","","","","","","","","","fixation","",""
"","","","","","many-guess-6","112","364512","0.0-10.0-1.46-0.46","59ff47d47ecfc50001be0555","640759fa512f630a2bdc333d","6408c17fae5a04ef10acfbb2","[1421.199999988079]","","","[26,0,32,23,30,35,1,7,25,31,8,21,19,22,5,24,29,15,27,4,20,16,28,34,9,6,2,18,10,33,17,13,12,3,14,11]","[258,318,178,208,218,278,108,188,228,48,148,128,248,168,9,118,238,338,288,268,308,38,28,348,358,19,88,58,68,298,98,158,328,78,138,198]","258","82","252.12406746664993","[252.12406746664993]","[170.12406746664993]","[170]","[30,210,120,120,30,120,120,30,30]","0","36","0","148.25700000597863","17.49699998210417","16","[[[""img/mask29.png""],[""img/mask95.png""],[""img/mask24.png""],[""img/mask7.png""],[""img/mask40.png""],[""img/mask9.png""],[""img/mask69.png""],[""img/mask90.png""],[""img/mask90.png""],[""img/mask71.png""],[""img/mask90.png""],[""img/mask16.png""],[""img/mask92.png""],[""img/mask54.png""],[""img/mask82.png""],[""img/mask12.png""],[""img/mask11.png""],[""img/mask32.png""],[""img/mask21.png""],[""img/mask72.png""],[""img/mask55.png""],[""img/mask44.png""],[""img/mask82.png""],[""img/mask9.png""],[""img/mask64.png""],[""img/mask70.png""],[""img/mask41.png""],[""img/mask40.png""],[""img/mask85.png""],[""img/mask84.png""],[""img/mask41.png""],[""img/mask27.png""],[""img/mask19.png""],[""img/mask94.png""],[""img/mask52.png""],[""img/mask22.png""]]]","","[26,0,32,23,30,35,1,7,25,31,8,21,19,22,5,24,29,15,27,4,20,16,28,34,9,6,2,18,10,33,17,13,12,3,14,11]","main","82","many-guess-6"
"","","","","","html-keyboard-response","113","365014","0.0-10.0-0.47","59ff47d47ecfc50001be0555","640759fa512f630a2bdc333d","6408c17fae5a04ef10acfbb2","null","","null","","","","","","","","","","","","","","","","","","","fixation","",""
"","","","","","many-guess-6","114","369015","0.0-10.0-1.47-0.47","59ff47d47ecfc50001be0555","640759fa512f630a2bdc333d","6408c17fae5a04ef10acfbb2","[1959]","","","[27,33,0,28,11,15,8,31,20,34,35,29,24,12,9,32,30,1,22,21,3,4,5,26,7,14,16,23,2,10,25,19,6,18,13,17]","[99,329,119,189,199,259,10,109,229,299,139,269,30,339,279,149,59,40,89,219,309,49,289,129,79,159,349,319,20,69,179,249,359,209,169,239]","99","245","89.02968971583815","[89.02968971583815]","[204.02968971583815]","[202]","[120,210,210,210,210,120,30,300,120]","0","36","0","148.56499998806976","16.105000005976763","16","[[[""img/mask57.png""],[""img/mask10.png""],[""img/mask21.png""],[""img/mask5.png""],[""img/mask62.png""],[""img/mask44.png""],[""img/mask100.png""],[""img/mask80.png""],[""img/mask23.png""],[""img/mask38.png""],[""img/mask16.png""],[""img/mask71.png""],[""img/mask43.png""],[""img/mask39.png""],[""img/mask83.png""],[""img/mask33.png""],[""img/mask42.png""],[""img/mask47.png""],[""img/mask83.png""],[""img/mask67.png""],[""img/mask91.png""],[""img/mask38.png""],[""img/mask32.png""],[""img/mask92.png""],[""img/mask48.png""],[""img/mask69.png""],[""img/mask19.png""],[""img/mask88.png""],[""img/mask24.png""],[""img/mask47.png""],[""img/mask21.png""],[""img/mask51.png""],[""img/mask41.png""],[""img/mask83.png""],[""img/mask52.png""],[""img/mask61.png""]]]","","[27,33,0,28,11,15,8,31,20,34,35,29,24,12,9,32,30,1,22,21,3,4,5,26,7,14,16,23,2,10,25,19,6,18,13,17]","main","245","many-guess-6"
"","","","","","html-keyboard-response","115","369518","0.0-10.0-0.48","59ff47d47ecfc50001be0555","640759fa512f630a2bdc333d","6408c17fae5a04ef10acfbb2","null","","null","","","","","","","","","","","","","","","","","","","fixation","",""
"","","","","","many-guess-6","116","373479","0.0-10.0-1.48-0.48","59ff47d47ecfc50001be0555","640759fa512f630a2bdc333d","6408c17fae5a04ef10acfbb2","[1872.5999999940395]","","","[30,23,11,26,16,8,10,35,1,20,5,19,22,32,13,33,21,18,2,25,7,24,29,0,3,14,34,4,6,12,9,27,28,31,17,15]","[32,72,231,161,281,311,251,241,341,121,82,91,301,201,191,331,141,62,351,221,2,181,52,151,42,171,131,261,111,291,12,101,22,321,271,211]","32","46","284.82340409976337","[284.82340409976337]","[238.82340409976337]","[239]","[120,210,210,120,120,210,300,210,210]","0","36","0","148.1830000000191","21.822999982105102","16","[[[""img/mask21.png""],[""img/mask54.png""],[""img/mask50.png""],[""img/mask99.png""],[""img/mask65.png""],[""img/mask53.png""],[""img/mask82.png""],[""img/mask18.png""],[""img/mask59.png""],[""img/mask36.png""],[""img/mask5.png""],[""img/mask93.png""],[""img/mask44.png""],[""img/mask9.png""],[""img/mask49.png""],[""img/mask43.png""],[""img/mask25.png""],[""img/mask80.png""],[""img/mask55.png""],[""img/mask8.png""],[""img/mask90.png""],[""img/mask40.png""],[""img/mask79.png""],[""img/mask45.png""],[""img/mask50.png""],[""img/mask2.png""],[""img/mask23.png""],[""img/mask86.png""],[""img/mask35.png""],[""img/mask86.png""],[""img/mask88.png""],[""img/mask56.png""],[""img/mask50.png""],[""img/mask28.png""],[""img/mask58.png""],[""img/mask21.png""]]]","","[30,23,11,26,16,8,10,35,1,20,5,19,22,32,13,33,21,18,2,25,7,24,29,0,3,14,34,4,6,12,9,27,28,31,17,15]","main","46","many-guess-6"
"","","","","","html-keyboard-response","117","373982","0.0-10.0-0.49","59ff47d47ecfc50001be0555","640759fa512f630a2bdc333d","6408c17fae5a04ef10acfbb2","null","","null","","","","","","","","","","","","","","","","","","","fixation","",""
"","","","","","many-guess-6","118","377053","0.0-10.0-1.49-0.49","59ff47d47ecfc50001be0555","640759fa512f630a2bdc333d","6408c17fae5a04ef10acfbb2","[1281.199999988079]","","","[10,33,31,35,20,1,23,8,29,12,6,0,18,27,3,13,24,17,4,25,26,5,34,7,32,22,28,19,16,2,11,9,15,21,30,14]","[107,37,137,67,177,356,237,117,217,306,287,187,257,336,87,207,17,267,97,346,326,157,167,27,7,57,296,316,277,197,247,227,147,127,47,77]","107","186","88.62914373950004","[88.62914373950004]","[262.6291437395]","[261]","[210,30,120,210,210,30,120,210,30]","0","36","0","149.08300000597956","20.322999982105102","16","[[[""img/mask65.png""],[""img/mask24.png""],[""img/mask47.png""],[""img/mask16.png""],[""img/mask56.png""],[""img/mask33.png""],[""img/mask81.png""],[""img/mask27.png""],[""img/mask29.png""],[""img/mask95.png""],[""img/mask27.png""],[""img/mask44.png""],[""img/mask86.png""],[""img/mask77.png""],[""img/mask29.png""],[""img/mask38.png""],[""img/mask86.png""],[""img/mask71.png""],[""img/mask28.png""],[""img/mask97.png""],[""img/mask31.png""],[""img/mask98.png""],[""img/mask12.png""],[""img/mask75.png""],[""img/mask48.png""],[""img/mask63.png""],[""img/mask7.png""],[""img/mask68.png""],[""img/mask55.png""],[""img/mask36.png""],[""img/mask20.png""],[""img/mask63.png""],[""img/mask26.png""],[""img/mask90.png""],[""img/mask40.png""],[""img/mask66.png""]]]","","[10,33,31,35,20,1,23,8,29,12,6,0,18,27,3,13,24,17,4,25,26,5,34,7,32,22,28,19,16,2,11,9,15,21,30,14]","main","186","many-guess-6"
"","","","","","html-keyboard-response","119","377558","0.0-10.0-0.50","59ff47d47ecfc50001be0555","640759fa512f630a2bdc333d","6408c17fae5a04ef10acfbb2","null","","null","","","","","","","","","","","","","","","","","","","fixation","",""
"","","","","","many-guess-6","120","382007","0.0-10.0-1.50-0.50","59ff47d47ecfc50001be0555","640759fa512f630a2bdc333d","6408c17fae5a04ef10acfbb2","[1384.2999999821186]","","","[12,9,8,26,32,10,25,3,5,27,29,33,18,7,30,16,31,24,20,28,6,19,14,21,23,35,13,11,0,4,34,1,22,17,15,2]","[205,245,65,135,15,255,295,275,354,25,225,105,325,35,315,125,185,155,85,75,55,175,165,115,265,95,5,344,145,334,45,215,305,285,235,195]","205","234","324.35064481903976","[324.35064481903976]","[90.35064481903976]","[90]","[300,300,300,120,120,120,210,30,210]","0","36","0","148.68899998808047","14.128999982145615","16","[[[""img/mask81.png""],[""img/mask88.png""],[""img/mask95.png""],[""img/mask89.png""],[""img/mask21.png""],[""img/mask76.png""],[""img/mask53.png""],[""img/mask59.png""],[""img/mask88.png""],[""img/mask7.png""],[""img/mask50.png""],[""img/mask94.png""],[""img/mask52.png""],[""img/mask78.png""],[""img/mask50.png""],[""img/mask39.png""],[""img/mask30.png""],[""img/mask2.png""],[""img/mask87.png""],[""img/mask4.png""],[""img/mask7.png""],[""img/mask69.png""],[""img/mask47.png""],[""img/mask7.png""],[""img/mask7.png""],[""img/mask93.png""],[""img/mask53.png""],[""img/mask87.png""],[""img/mask50.png""],[""img/mask20.png""],[""img/mask40.png""],[""img/mask57.png""],[""img/mask100.png""],[""img/mask69.png""],[""img/mask49.png""],[""img/mask61.png""]]]","","[12,9,8,26,32,10,25,3,5,27,29,33,18,7,30,16,31,24,20,28,6,19,14,21,23,35,13,11,0,4,34,1,22,17,15,2]","main","234","many-guess-6"
"","","","","","html-keyboard-response","121","382510","0.0-10.0-0.51","59ff47d47ecfc50001be0555","640759fa512f630a2bdc333d","6408c17fae5a04ef10acfbb2","null","","null","","","","","","","","","","","","","","","","","","","fixation","",""
"","","","","","many-guess-6","122","385551","0.0-10.0-1.51-0.51","59ff47d47ecfc50001be0555","640759fa512f630a2bdc333d","6408c17fae5a04ef10acfbb2","[1244.9000000059605]","","","[4,29,0,12,17,33,28,14,8,10,24,25,22,26,11,30,21,19,5,35,20,32,31,27,18,3,15,16,2,9,23,34,6,7,1,13]","[341,291,121,201,281,31,22,71,101,221,2,331,51,61,271,161,12,261,81,241,91,171,321,41,211,111,181,301,251,151,351,131,231,141,191,311]","341","155","297.64019435377224","[297.64019435377224]","[142.64019435377224]","[143]","[210,300,210,30,210,300,120,120,30]","0","36","0","148.07500000594882","18.21499998809304","16","[[[""img/mask88.png""],[""img/mask16.png""],[""img/mask33.png""],[""img/mask73.png""],[""img/mask4.png""],[""img/mask40.png""],[""img/mask60.png""],[""img/mask65.png""],[""img/mask54.png""],[""img/mask16.png""],[""img/mask46.png""],[""img/mask80.png""],[""img/mask8.png""],[""img/mask13.png""],[""img/mask25.png""],[""img/mask46.png""],[""img/mask42.png""],[""img/mask58.png""],[""img/mask59.png""],[""img/mask17.png""],[""img/mask93.png""],[""img/mask3.png""],[""img/mask8.png""],[""img/mask87.png""],[""img/mask70.png""],[""img/mask93.png""],[""img/mask30.png""],[""img/mask12.png""],[""img/mask41.png""],[""img/mask100.png""],[""img/mask30.png""],[""img/mask1.png""],[""img/mask9.png""],[""img/mask83.png""],[""img/mask38.png""],[""img/mask74.png""]]]","","[4,29,0,12,17,33,28,14,8,10,24,25,22,26,11,30,21,19,5,35,20,32,31,27,18,3,15,16,2,9,23,34,6,7,1,13]","main","155","many-guess-6"
"","","","","","html-keyboard-response","123","386054","0.0-10.0-0.52","59ff47d47ecfc50001be0555","640759fa512f630a2bdc333d","6408c17fae5a04ef10acfbb2","null","","null","","","","","","","","","","","","","","","","","","","fixation","",""
"","","","","","color-precision2","124","389175","0.0-10.0-1.52-0.52","59ff47d47ecfc50001be0555","640759fa512f630a2bdc333d","6408c17fae5a04ef10acfbb2","[468.80000001192093]","","","[27]","[148]","148","135","300.44141996084875","[300.44141996084875]","[165.44141996084875]","[165]","0","0","1","0","148.69899998808978","993.3389999999781","1000","[[[""img/mask7.png""]]]","","","main","135","color-precision2"
"","","","","","html-keyboard-response","125","389678","0.0-10.0-0.53","59ff47d47ecfc50001be0555","640759fa512f630a2bdc333d","6408c17fae5a04ef10acfbb2","null","","null","","","","","","","","","","","","","","","","","","","fixation","",""
"","","","","","color-precision2","126","392423","0.0-10.0-1.53-0.53","59ff47d47ecfc50001be0555","640759fa512f630a2bdc333d","6408c17fae5a04ef10acfbb2","[100.59999999403954]","","","[13]","[60]","60","172","","[null]","[null]","[81]","0","0","1","0","148.720999988087","993.8609999999753","1000","[[[""img/mask27.png""]]]","","","main","172","color-precision2"
"","","","","","html-keyboard-response","127","392925","0.0-10.0-0.54","59ff47d47ecfc50001be0555","640759fa512f630a2bdc333d","6408c17fae5a04ef10acfbb2","null","","null","","","","","","","","","","","","","","","","","","","fixation","",""
"","","","","","many-guess-6","128","395615","0.0-10.0-1.54-0.54","59ff47d47ecfc50001be0555","640759fa512f630a2bdc333d","6408c17fae5a04ef10acfbb2","[1143.2000000178814]","","","[5,16,29,0,30,22,35,10,31,19,20,6,8,14,24,3,2,1,11,15,32,23,7,4,34,28,18,12,13,9,17,26,25,21,27,33]","[20,319,110,249,289,150,200,299,180,130,50,70,140,40,279,309,60,160,190,229,329,170,259,359,120,100,30,339,10,219,210,80,349,269,90,239]","20","228","314.3911690820737","[314.3911690820737]","[86.3911690820737]","[86]","[120,300,210,30,30,210,120,210,120]","0","36","0","148.23499998211628","7.6750000059837475","16","[[[""img/mask56.png""],[""img/mask39.png""],[""img/mask45.png""],[""img/mask89.png""],[""img/mask33.png""],[""img/mask70.png""],[""img/mask64.png""],[""img/mask76.png""],[""img/mask29.png""],[""img/mask49.png""],[""img/mask87.png""],[""img/mask81.png""],[""img/mask42.png""],[""img/mask6.png""],[""img/mask34.png""],[""img/mask66.png""],[""img/mask79.png""],[""img/mask15.png""],[""img/mask3.png""],[""img/mask89.png""],[""img/mask80.png""],[""img/mask44.png""],[""img/mask1.png""],[""img/mask27.png""],[""img/mask84.png""],[""img/mask41.png""],[""img/mask33.png""],[""img/mask5.png""],[""img/mask8.png""],[""img/mask23.png""],[""img/mask91.png""],[""img/mask56.png""],[""img/mask54.png""],[""img/mask14.png""],[""img/mask44.png""],[""img/mask64.png""]]]","","[5,16,29,0,30,22,35,10,31,19,20,6,8,14,24,3,2,1,11,15,32,23,7,4,34,28,18,12,13,9,17,26,25,21,27,33]","main","228","many-guess-6"
"","","","","","html-keyboard-response","129","396118","0.0-10.0-0.55","59ff47d47ecfc50001be0555","640759fa512f630a2bdc333d","6408c17fae5a04ef10acfbb2","null","","null","","","","","","","","","","","","","","","","","","","fixation","",""
"","","","","","many-guess-6","130","399215","0.0-10.0-1.55-0.55","59ff47d47ecfc50001be0555","640759fa512f630a2bdc333d","6408c17fae5a04ef10acfbb2","[1443.199999988079]","","","[29,4,28,18,30,16,35,12,19,22,8,23,10,13,21,26,25,33,9,24,11,0,15,31,6,17,27,5,2,32,34,3,7,20,1,14]","[136,315,16,276,305,146,96,166,116,76,345,206,176,46,325,246,335,186,56,355,266,236,86,36,216,256,226,296,66,126,26,6,156,106,196,286]","136","33","309.98912118014493","[309.98912118014493]","[276.98912118014493]","[277]","[30,300,30,120,120,210,30,30,210]","0","36","0","148.80300000001444","19.543000005942304","16","[[[""img/mask12.png""],[""img/mask81.png""],[""img/mask60.png""],[""img/mask57.png""],[""img/mask99.png""],[""img/mask82.png""],[""img/mask40.png""],[""img/mask35.png""],[""img/mask98.png""],[""img/mask58.png""],[""img/mask9.png""],[""img/mask61.png""],[""img/mask50.png""],[""img/mask2.png""],[""img/mask11.png""],[""img/mask9.png""],[""img/mask86.png""],[""img/mask77.png""],[""img/mask95.png""],[""img/mask48.png""],[""img/mask97.png""],[""img/mask30.png""],[""img/mask1.png""],[""img/mask13.png""],[""img/mask64.png""],[""img/mask22.png""],[""img/mask6.png""],[""img/mask54.png""],[""img/mask63.png""],[""img/mask36.png""],[""img/mask91.png""],[""img/mask68.png""],[""img/mask43.png""],[""img/mask51.png""],[""img/mask51.png""],[""img/mask27.png""]]]","","[29,4,28,18,30,16,35,12,19,22,8,23,10,13,21,26,25,33,9,24,11,0,15,31,6,17,27,5,2,32,34,3,7,20,1,14]","main","33","many-guess-6"
"","","","","","html-keyboard-response","131","399718","0.0-10.0-0.56","59ff47d47ecfc50001be0555","640759fa512f630a2bdc333d","6408c17fae5a04ef10acfbb2","null","","null","","","","","","","","","","","","","","","","","","","fixation","",""
"","","","","","color-precision2","132","402839","0.0-10.0-1.56-0.56","59ff47d47ecfc50001be0555","640759fa512f630a2bdc333d","6408c17fae5a04ef10acfbb2","[650.2000000178814]","","","[31]","[141]","141","340","137.96387140534446","[137.96387140534446]","[157.96387140534446]","[156]","0","0","1","0","148.4929999880842","1004.033000005933","1000","[[[""img/mask72.png""]]]","","","main","340","color-precision2"
"","","","","","html-keyboard-response","133","403342","0.0-10.0-0.57","59ff47d47ecfc50001be0555","640759fa512f630a2bdc333d","6408c17fae5a04ef10acfbb2","null","","null","","","","","","","","","","","","","","","","","","","fixation","",""
"","","","","","many-guess-6","134","406480","0.0-10.0-1.57-0.57","59ff47d47ecfc50001be0555","640759fa512f630a2bdc333d","6408c17fae5a04ef10acfbb2","[1491]","","","[8,32,20,29,30,18,7,28,14,19,10,12,17,21,33,1,9,0,2,23,34,31,22,11,3,13,24,5,35,15,27,26,6,25,4,16]","[344,65,334,25,294,164,234,314,85,105,354,254,184,204,114,134,95,264,15,274,224,124,304,174,244,324,194,154,35,55,45,214,75,5,144,284]","344","304","11.848481025576373","[11.848481025576373]","[67.84848102557635]","[67]","[120,300,210,30,30,120,120,300,210]","0","36","0","148.08100000594277","11.820999982126523","16","[[[""img/mask58.png""],[""img/mask8.png""],[""img/mask35.png""],[""img/mask47.png""],[""img/mask78.png""],[""img/mask60.png""],[""img/mask56.png""],[""img/mask55.png""],[""img/mask32.png""],[""img/mask93.png""],[""img/mask17.png""],[""img/mask78.png""],[""img/mask55.png""],[""img/mask54.png""],[""img/mask13.png""],[""img/mask92.png""],[""img/mask44.png""],[""img/mask95.png""],[""img/mask24.png""],[""img/mask94.png""],[""img/mask3.png""],[""img/mask65.png""],[""img/mask55.png""],[""img/mask33.png""],[""img/mask22.png""],[""img/mask30.png""],[""img/mask29.png""],[""img/mask20.png""],[""img/mask2.png""],[""img/mask51.png""],[""img/mask5.png""],[""img/mask85.png""],[""img/mask86.png""],[""img/mask70.png""],[""img/mask81.png""],[""img/mask28.png""]]]","","[8,32,20,29,30,18,7,28,14,19,10,12,17,21,33,1,9,0,2,23,34,31,22,11,3,13,24,5,35,15,27,26,6,25,4,16]","main","304","many-guess-6"
"","","","","","html-keyboard-response","135","406981","0.0-10.0-0.58","59ff47d47ecfc50001be0555","640759fa512f630a2bdc333d","6408c17fae5a04ef10acfbb2","null","","null","","","","","","","","","","","","","","","","","","","fixation","",""
"","","","","","color-precision2","136","410711","0.0-10.0-1.58-0.58","59ff47d47ecfc50001be0555","640759fa512f630a2bdc333d","6408c17fae5a04ef10acfbb2","[1222.4000000059605]","","","[16]","[213]","213","181","355.04690387037743","[355.04690387037743]","[174.04690387037743]","[173]","0","0","1","0","147.5009999999893","999.6409999821335","1000","[[[""img/mask66.png""]]]","","","main","181","color-precision2"
"","","","","","html-keyboard-response","137","412334","0.0-10.0-0.59","59ff47d47ecfc50001be0555","640759fa512f630a2bdc333d","6408c17fae5a04ef10acfbb2","1622","Wow! You've completed 60 out of 180 trials! </p> <p>  </p><p> Take a quick break, then press any key when you're ready to continue."," ","","","","","","","","","","","","","","","","","","","fixation","",""
"","","","","","color-precision2","138","416879","0.0-10.0-1.59-0.59","59ff47d47ecfc50001be0555","640759fa512f630a2bdc333d","6408c17fae5a04ef10acfbb2","[1058]","","","[31]","[280]","280","99","351.92799309111314","[351.92799309111314]","[252.92799309111314]","[252]","0","0","1","0","148.28099998808466","996.8210000059335","1000","[[[""img/mask54.png""]]]","","","main","99","color-precision2"
"","","","","","html-keyboard-response","139","417382","0.0-10.0-0.60","59ff47d47ecfc50001be0555","640759fa512f630a2bdc333d","6408c17fae5a04ef10acfbb2","null","","null","","","","","","","","","","","","","","","","","","","fixation","",""
"","","","","","many-guess-6","140","420389","0.0-10.0-1.60-0.60","59ff47d47ecfc50001be0555","640759fa512f630a2bdc333d","6408c17fae5a04ef10acfbb2","[1452.2000000178814]","","","[27,4,30,16,24,14,10,13,19,17,20,34,2,33,7,32,28,12,35,3,18,22,9,26,6,21,0,1,11,31,25,8,23,5,15,29]","[330,41,251,111,201,261,1,191,101,21,340,241,131,71,151,181,271,51,350,141,171,31,231,211,11,91,320,61,281,300,161,291,221,81,121,310]","330","114","344.96314063891316","[344.96314063891316]","[230.96314063891316]","[230]","[120,300,210,30,120,300,120,300,300]","0","36","0","147.8229999881005","15.06299999402836","16","[[[""img/mask70.png""],[""img/mask10.png""],[""img/mask75.png""],[""img/mask73.png""],[""img/mask62.png""],[""img/mask62.png""],[""img/mask38.png""],[""img/mask80.png""],[""img/mask9.png""],[""img/mask97.png""],[""img/mask68.png""],[""img/mask74.png""],[""img/mask84.png""],[""img/mask17.png""],[""img/mask22.png""],[""img/mask1.png""],[""img/mask40.png""],[""img/mask88.png""],[""img/mask20.png""],[""img/mask66.png""],[""img/mask11.png""],[""img/mask18.png""],[""img/mask81.png""],[""img/mask44.png""],[""img/mask50.png""],[""img/mask83.png""],[""img/mask89.png""],[""img/mask75.png""],[""img/mask21.png""],[""img/mask93.png""],[""img/mask46.png""],[""img/mask62.png""],[""img/mask26.png""],[""img/mask69.png""],[""img/mask64.png""],[""img/mask52.png""]]]","","[27,4,30,16,24,14,10,13,19,17,20,34,2,33,7,32,28,12,35,3,18,22,9,26,6,21,0,1,11,31,25,8,23,5,15,29]","main","114","many-guess-6"
"","","","","","html-keyboard-response","141","420893","0.0-10.0-0.61","59ff47d47ecfc50001be0555","640759fa512f630a2bdc333d","6408c17fae5a04ef10acfbb2","null","","null","","","","","","","","","","","","","","","","","","","fixation","",""
"","","","","","many-guess-6","142","423903","0.0-10.0-1.61-0.61","59ff47d47ecfc50001be0555","640759fa512f630a2bdc333d","6408c17fae5a04ef10acfbb2","[1582.300000011921]","","","[1,20,23,15,7,28,34,17,0,9,21,35,26,5,31,10,16,2,25,32,8,33,12,13,27,22,4,11,3,6,18,29,24,14,19,30]","[101,91,12,111,291,351,32,121,211,271,131,331,251,301,201,321,241,141,231,181,22,71,41,51,191,161,261,281,2,341,221,61,151,81,171,311]","101","44","334.6186747492121","[334.6186747492121]","[290.6186747492121]","[290]","[210,300,300,300,30,300,30,120,300]","0","36","0","149.02099998807535","8.56100000598235","16","[[[""img/mask75.png""],[""img/mask94.png""],[""img/mask100.png""],[""img/mask57.png""],[""img/mask66.png""],[""img/mask85.png""],[""img/mask27.png""],[""img/mask65.png""],[""img/mask74.png""],[""img/mask14.png""],[""img/mask22.png""],[""img/mask2.png""],[""img/mask94.png""],[""img/mask88.png""],[""img/mask77.png""],[""img/mask48.png""],[""img/mask7.png""],[""img/mask35.png""],[""img/mask60.png""],[""img/mask61.png""],[""img/mask86.png""],[""img/mask36.png""],[""img/mask4.png""],[""img/mask80.png""],[""img/mask24.png""],[""img/mask76.png""],[""img/mask32.png""],[""img/mask81.png""],[""img/mask49.png""],[""img/mask50.png""],[""img/mask28.png""],[""img/mask81.png""],[""img/mask45.png""],[""img/mask11.png""],[""img/mask20.png""],[""img/mask28.png""]]]","","[1,20,23,15,7,28,34,17,0,9,21,35,26,5,31,10,16,2,25,32,8,33,12,13,27,22,4,11,3,6,18,29,24,14,19,30]","main","44","many-guess-6"
"","","","","","html-keyboard-response","143","424405","0.0-10.0-0.62","59ff47d47ecfc50001be0555","640759fa512f630a2bdc333d","6408c17fae5a04ef10acfbb2","null","","null","","","","","","","","","","","","","","","","","","","fixation","",""
"","","","","","color-precision2","144","428887","0.0-10.0-1.62-0.62","59ff47d47ecfc50001be0555","640759fa512f630a2bdc333d","6408c17fae5a04ef10acfbb2","[1933]","","","[9]","[313]","313","225","193.13409181733266","[193.13409181733266]","[328.13409181733266]","[327]","0","0","1","0","148.46899999998277","998.4089999940479","1000","[[[""img/mask69.png""]]]","","","main","225","color-precision2"
"","","","","","html-keyboard-response","145","429389","0.0-10.0-0.63","59ff47d47ecfc50001be0555","640759fa512f630a2bdc333d","6408c17fae5a04ef10acfbb2","null","","null","","","","","","","","","","","","","","","","","","","fixation","",""
"","","","","","color-precision2","146","432975","0.0-10.0-1.63-0.63","59ff47d47ecfc50001be0555","640759fa512f630a2bdc333d","6408c17fae5a04ef10acfbb2","[454.7999999821186]","","","[9]","[80]","80","79","144.8267888356085","[144.8267888356085]","[65.82678883560851]","[64]","0","0","1","0","149.11299998807954","992.0529999821447","1000","[[[""img/mask94.png""]]]","","","main","79","color-precision2"
"","","","","","html-keyboard-response","147","433477","0.0-10.0-0.64","59ff47d47ecfc50001be0555","640759fa512f630a2bdc333d","6408c17fae5a04ef10acfbb2","null","","null","","","","","","","","","","","","","","","","","","","fixation","",""
"","","","","","color-precision2","148","436501","0.0-10.0-1.64-0.64","59ff47d47ecfc50001be0555","640759fa512f630a2bdc333d","6408c17fae5a04ef10acfbb2","[597.8000000119209]","","","[1]","[193]","193","11","183.3327156950106","[183.3327156950106]","[172.3327156950106]","[172]","0","0","1","0","148.8109999880544","999.15099998808","1000","[[[""img/mask82.png""]]]","","","main","11","color-precision2"
"","","","","","html-keyboard-response","149","437002","0.0-10.0-0.65","59ff47d47ecfc50001be0555","640759fa512f630a2bdc333d","6408c17fae5a04ef10acfbb2","null","","null","","","","","","","","","","","","","","","","","","","fixation","",""
"","","","","","many-guess-6","150","440895","0.0-10.0-1.65-0.65","59ff47d47ecfc50001be0555","640759fa512f630a2bdc333d","6408c17fae5a04ef10acfbb2","[1307.800000011921]","","","[15,6,20,34,1,35,5,8,11,25,0,10,13,21,31,4,2,23,26,33,19,22,18,29,28,7,30,3,27,14,17,32,12,9,24,16]","[45,254,165,235,284,244,5,125,75,354,334,314,195,264,215,344,55,135,65,175,274,205,304,95,115,185,25,155,35,15,85,294,145,105,225,324]","45","236","181.6677685224964","[181.6677685224964]","[305.66776852249643]","[305]","[30,210,210,120,120,120,210,30,210]","0","36","0","148.39699999406002","10.537000005948357","16","[[[""img/mask39.png""],[""img/mask39.png""],[""img/mask25.png""],[""img/mask55.png""],[""img/mask75.png""],[""img/mask12.png""],[""img/mask43.png""],[""img/mask35.png""],[""img/mask45.png""],[""img/mask3.png""],[""img/mask84.png""],[""img/mask25.png""],[""img/mask56.png""],[""img/mask79.png""],[""img/mask1.png""],[""img/mask59.png""],[""img/mask71.png""],[""img/mask36.png""],[""img/mask75.png""],[""img/mask66.png""],[""img/mask56.png""],[""img/mask23.png""],[""img/mask2.png""],[""img/mask18.png""],[""img/mask98.png""],[""img/mask57.png""],[""img/mask66.png""],[""img/mask9.png""],[""img/mask93.png""],[""img/mask28.png""],[""img/mask30.png""],[""img/mask69.png""],[""img/mask3.png""],[""img/mask25.png""],[""img/mask64.png""],[""img/mask22.png""]]]","","[15,6,20,34,1,35,5,8,11,25,0,10,13,21,31,4,2,23,26,33,19,22,18,29,28,7,30,3,27,14,17,32,12,9,24,16]","main","236","many-guess-6"
"","","","","","html-keyboard-response","151","441398","0.0-10.0-0.66","59ff47d47ecfc50001be0555","640759fa512f630a2bdc333d","6408c17fae5a04ef10acfbb2","null","","null","","","","","","","","","","","","","","","","","","","fixation","",""
"","","","","","many-guess-6","152","444695","0.0-10.0-1.66-0.66","59ff47d47ecfc50001be0555","640759fa512f630a2bdc333d","6408c17fae5a04ef10acfbb2","[1424.300000011921]","","","[32,5,2,11,12,28,25,14,3,6,18,24,7,10,13,4,22,1,30,26,33,31,8,20,34,29,16,23,35,0,21,17,19,27,9,15]","[39,279,189,329,349,79,129,229,19,209,259,319,239,49,149,359,159,10,199,59,339,309,99,249,219,289,109,139,89,169,119,179,299,29,269,69]","39","10","294.65888005309466","[294.65888005309466]","[284.65888005309466]","[285]","[210,210,210,120,120,30,30,120,300]","0","36","0","148.18299998808652","13.62299998209346","16","[[[""img/mask16.png""],[""img/mask27.png""],[""img/mask42.png""],[""img/mask30.png""],[""img/mask16.png""],[""img/mask79.png""],[""img/mask87.png""],[""img/mask3.png""],[""img/mask19.png""],[""img/mask28.png""],[""img/mask76.png""],[""img/mask60.png""],[""img/mask63.png""],[""img/mask57.png""],[""img/mask16.png""],[""img/mask7.png""],[""img/mask31.png""],[""img/mask96.png""],[""img/mask43.png""],[""img/mask1.png""],[""img/mask5.png""],[""img/mask77.png""],[""img/mask83.png""],[""img/mask86.png""],[""img/mask87.png""],[""img/mask60.png""],[""img/mask66.png""],[""img/mask73.png""],[""img/mask13.png""],[""img/mask97.png""],[""img/mask76.png""],[""img/mask57.png""],[""img/mask90.png""],[""img/mask7.png""],[""img/mask62.png""],[""img/mask4.png""]]]","","[32,5,2,11,12,28,25,14,3,6,18,24,7,10,13,4,22,1,30,26,33,31,8,20,34,29,16,23,35,0,21,17,19,27,9,15]","main","10","many-guess-6"
"","","","","","html-keyboard-response","153","445197","0.0-10.0-0.67","59ff47d47ecfc50001be0555","640759fa512f630a2bdc333d","6408c17fae5a04ef10acfbb2","null","","null","","","","","","","","","","","","","","","","","","","fixation","",""
"","","","","","color-precision2","154","449055","0.0-10.0-1.67-0.67","59ff47d47ecfc50001be0555","640759fa512f630a2bdc333d","6408c17fae5a04ef10acfbb2","[1252.0999999940395]","","","[21]","[228]","228","131","332.2256276613245","[332.2256276613245]","[201.2256276613245]","[201]","0","0","1","0","148.23499999404885","1002.7749999820953","1000","[[[""img/mask21.png""]]]","","","main","131","color-precision2"
"","","","","","html-keyboard-response","155","449557","0.0-10.0-0.68","59ff47d47ecfc50001be0555","640759fa512f630a2bdc333d","6408c17fae5a04ef10acfbb2","null","","null","","","","","","","","","","","","","","","","","","","fixation","",""
"","","","","","many-guess-6","156","453815","0.0-10.0-1.68-0.68","59ff47d47ecfc50001be0555","640759fa512f630a2bdc333d","6408c17fae5a04ef10acfbb2","[2611.5]","","","[9,26,3,6,12,0,14,4,15,19,34,8,27,11,21,33,2,25,30,22,24,17,16,32,10,28,31,5,13,18,35,7,1,29,23,20]","[262,33,242,222,133,43,312,73,232,172,272,162,202,282,182,212,322,83,143,342,63,123,352,103,53,302,93,113,192,332,23,3,153,13,252,292]","262","241","319.2199874473488","[319.2199874473488]","[78.21998744734879]","[78]","[30,300,30,300,300,30,300,30,300]","0","36","0","148.89900000597117","18.63899998209672","16","[[[""img/mask49.png""],[""img/mask26.png""],[""img/mask90.png""],[""img/mask3.png""],[""img/mask40.png""],[""img/mask7.png""],[""img/mask95.png""],[""img/mask25.png""],[""img/mask87.png""],[""img/mask35.png""],[""img/mask100.png""],[""img/mask77.png""],[""img/mask74.png""],[""img/mask99.png""],[""img/mask17.png""],[""img/mask95.png""],[""img/mask4.png""],[""img/mask49.png""],[""img/mask15.png""],[""img/mask36.png""],[""img/mask81.png""],[""img/mask50.png""],[""img/mask2.png""],[""img/mask29.png""],[""img/mask38.png""],[""img/mask73.png""],[""img/mask99.png""],[""img/mask33.png""],[""img/mask39.png""],[""img/mask48.png""],[""img/mask93.png""],[""img/mask83.png""],[""img/mask72.png""],[""img/mask54.png""],[""img/mask62.png""],[""img/mask18.png""]]]","","[9,26,3,6,12,0,14,4,15,19,34,8,27,11,21,33,2,25,30,22,24,17,16,32,10,28,31,5,13,18,35,7,1,29,23,20]","main","241","many-guess-6"
"","","","","","html-keyboard-response","157","454318","0.0-10.0-0.69","59ff47d47ecfc50001be0555","640759fa512f630a2bdc333d","6408c17fae5a04ef10acfbb2","null","","null","","","","","","","","","","","","","","","","","","","fixation","",""
"","","","","","color-precision2","158","458047","0.0-10.0-1.69-0.69","59ff47d47ecfc50001be0555","640759fa512f630a2bdc333d","6408c17fae5a04ef10acfbb2","[1226.5999999940395]","","","[12]","[314]","314","227","189.9094362102242","[189.9094362102242]","[322.90943621022416]","[322]","0","0","1","0","148.04099999403115","995.1810000059777","1000","[[[""img/mask23.png""]]]","","","main","227","color-precision2"
"","","","","","html-keyboard-response","159","458550","0.0-10.0-0.70","59ff47d47ecfc50001be0555","640759fa512f630a2bdc333d","6408c17fae5a04ef10acfbb2","null","","null","","","","","","","","","","","","","","","","","","","fixation","",""
"","","","","","color-precision2","160","462991","0.0-10.0-1.70-0.70","59ff47d47ecfc50001be0555","640759fa512f630a2bdc333d","6408c17fae5a04ef10acfbb2","[1687.300000011921]","","","[32]","[316]","316","63","58.76193243455722","[58.76193243455722]","[355.7619324345572]","[354]","0","0","1","0","148.49500000593252","998.3350000059581","1000","[[[""img/mask79.png""]]]","","","main","63","color-precision2"
"","","","","","html-keyboard-response","161","463494","0.0-10.0-0.71","59ff47d47ecfc50001be0555","640759fa512f630a2bdc333d","6408c17fae5a04ef10acfbb2","null","","null","","","","","","","","","","","","","","","","","","","fixation","",""
"","","","","","many-guess-6","162","466727","0.0-10.0-1.71-0.71","59ff47d47ecfc50001be0555","640759fa512f630a2bdc333d","6408c17fae5a04ef10acfbb2","[1457.5]","","","[12,27,31,11,29,21,30,16,1,34,17,9,25,10,18,2,20,26,6,33,22,13,32,5,14,0,23,8,15,28,3,4,7,24,35,19]","[34,114,54,4,343,234,74,224,14,284,154,64,204,134,294,124,24,244,144,184,323,84,164,44,194,274,264,254,333,303,104,94,174,353,214,313]","34","170","261.7906074146608","[261.7906074146608]","[91.79060741466083]","[92]","[210,300,300,30,30,300,30,30,30]","0","36","0","148.50300000596326","12.84300000598887","16","[[[""img/mask40.png""],[""img/mask59.png""],[""img/mask83.png""],[""img/mask95.png""],[""img/mask13.png""],[""img/mask32.png""],[""img/mask72.png""],[""img/mask57.png""],[""img/mask59.png""],[""img/mask76.png""],[""img/mask41.png""],[""img/mask62.png""],[""img/mask63.png""],[""img/mask86.png""],[""img/mask3.png""],[""img/mask97.png""],[""img/mask43.png""],[""img/mask31.png""],[""img/mask48.png""],[""img/mask53.png""],[""img/mask68.png""],[""img/mask87.png""],[""img/mask53.png""],[""img/mask45.png""],[""img/mask26.png""],[""img/mask72.png""],[""img/mask90.png""],[""img/mask94.png""],[""img/mask31.png""],[""img/mask11.png""],[""img/mask100.png""],[""img/mask45.png""],[""img/mask7.png""],[""img/mask68.png""],[""img/mask88.png""],[""img/mask98.png""]]]","","[12,27,31,11,29,21,30,16,1,34,17,9,25,10,18,2,20,26,6,33,22,13,32,5,14,0,23,8,15,28,3,4,7,24,35,19]","main","170","many-guess-6"
"","","","","","html-keyboard-response","163","467230","0.0-10.0-0.72","59ff47d47ecfc50001be0555","640759fa512f630a2bdc333d","6408c17fae5a04ef10acfbb2","null","","null","","","","","","","","","","","","","","","","","","","fixation","",""
"","","","","","many-guess-6","164","470215","0.0-10.0-1.72-0.72","59ff47d47ecfc50001be0555","640759fa512f630a2bdc333d","6408c17fae5a04ef10acfbb2","[1212.7000000178814]","","","[19,4,3,30,12,28,10,34,9,2,25,24,23,8,14,22,35,27,7,18,0,11,1,26,32,6,17,21,13,20,31,15,5,29,33,16]","[94,14,313,163,113,243,233,54,323,253,34,24,64,74,353,333,303,104,263,183,143,203,283,293,4,44,193,343,123,133,173,153,213,273,223,84]","94","263","278.2289289554701","[278.2289289554701]","[15.22892895547011]","[15]","[30,210,300,120,210,300,30,300,30]","0","36","0","148.58699998212978","10.027000005939044","16","[[[""img/mask21.png""],[""img/mask43.png""],[""img/mask18.png""],[""img/mask4.png""],[""img/mask82.png""],[""img/mask23.png""],[""img/mask79.png""],[""img/mask49.png""],[""img/mask51.png""],[""img/mask64.png""],[""img/mask65.png""],[""img/mask90.png""],[""img/mask8.png""],[""img/mask32.png""],[""img/mask80.png""],[""img/mask24.png""],[""img/mask44.png""],[""img/mask51.png""],[""img/mask65.png""],[""img/mask95.png""],[""img/mask57.png""],[""img/mask64.png""],[""img/mask15.png""],[""img/mask32.png""],[""img/mask47.png""],[""img/mask33.png""],[""img/mask32.png""],[""img/mask63.png""],[""img/mask70.png""],[""img/mask32.png""],[""img/mask72.png""],[""img/mask63.png""],[""img/mask32.png""],[""img/mask81.png""],[""img/mask85.png""],[""img/mask27.png""]]]","","[19,4,3,30,12,28,10,34,9,2,25,24,23,8,14,22,35,27,7,18,0,11,1,26,32,6,17,21,13,20,31,15,5,29,33,16]","main","263","many-guess-6"
"","","","","","html-keyboard-response","165","470718","0.0-10.0-0.73","59ff47d47ecfc50001be0555","640759fa512f630a2bdc333d","6408c17fae5a04ef10acfbb2","null","","null","","","","","","","","","","","","","","","","","","","fixation","",""
"","","","","","color-precision2","166","475095","0.0-10.0-1.73-0.73","59ff47d47ecfc50001be0555","640759fa512f630a2bdc333d","6408c17fae5a04ef10acfbb2","[1891.699999988079]","","","[8]","[10]","10","156","152.52957225581827","[152.52957225581827]","[356.52957225581827]","[355]","0","0","1","0","147.91899998212466","993.9589999999735","1000","[[[""img/mask23.png""]]]","","","main","156","color-precision2"
"","","","","","html-keyboard-response","167","475598","0.0-10.0-0.74","59ff47d47ecfc50001be0555","640759fa512f630a2bdc333d","6408c17fae5a04ef10acfbb2","null","","null","","","","","","","","","","","","","","","","","","","fixation","",""
"","","","","","color-precision2","168","480183","0.0-10.0-1.74-0.74","59ff47d47ecfc50001be0555","640759fa512f630a2bdc333d","6408c17fae5a04ef10acfbb2","[2064.199999988079]","","","[7]","[7]","7","342","311.4774650132764","[311.4774650132764]","[329.4774650132764]","[329]","0","0","1","0","148.78899998805718","1006.3290000059642","1000","[[[""img/mask96.png""]]]","","","main","342","color-precision2"
"","","","","","html-keyboard-response","169","480684","0.0-10.0-0.75","59ff47d47ecfc50001be0555","640759fa512f630a2bdc333d","6408c17fae5a04ef10acfbb2","null","","null","","","","","","","","","","","","","","","","","","","fixation","",""
