"success","timeout","failed_images","failed_audio","failed_video","trial_type","trial_index","time_elapsed","internal_node_id","subject_id","study_id","session_id","rt","stimulus","response","position_of_items","colors_of_items","color_of_target","wheel_spin","response_angle","physical_response_angle","reported_color_angle","reported_color_discrete","locs","which_test","set_size","wheel_num_options","actual_mask_duration","actual_stim_duration","CMDispTime","maskArray","maskRotation","item_positions","task","randomSpinAmount","mainTask"
"true","false","[]","[]","[]","preload","0","1690","0.0-0.0","5a7a1973000dab00018c3410","640759fa512f630a2bdc333d","6408c17f4374e9dd1d4d4fe5","","","","","","","","","","","","","","","","","","","","","","","",""
"true","","","","","fullscreen","1","4584","0.0-1.0","5a7a1973000dab00018c3410","640759fa512f630a2bdc333d","6408c17f4374e9dd1d4d4fe5","","","","","","","","","","","","","","","","","","","","","","","",""
"","","","","","html-keyboard-response","2","9163","0.0-2.0","5a7a1973000dab00018c3410","640759fa512f630a2bdc333d","6408c17f4374e9dd1d4d4fe5","4574.300000000745","What a beautiful Wednesday to do some awesome science! </p> <p>  </p><p> </p>
    By completing this survey or questionnaire, you are consenting to be in this research study. </p>
    Your participation is voluntary and you can stop at any time.<p> [Press any key to continue] </p>"," ","","","","","","","","","","","","","","","","","","","","",""
"","","","","","html-keyboard-response","3","19171","0.0-3.0","5a7a1973000dab00018c3410","640759fa512f630a2bdc333d","6408c17f4374e9dd1d4d4fe5","6330.0999999996275","
    <div style='width: 1000px;'>
    <div style='float: center;'><img src='img/TaskInstructions1.png'></img>
    </div>
    "," ","","","","","","","","","","","","","","","","","","","","",""
"","","","","","html-keyboard-response","4","26729","0.0-4.0","5a7a1973000dab00018c3410","640759fa512f630a2bdc333d","6408c17f4374e9dd1d4d4fe5","7555.699999999255","
    <div style='width: 1000px;'>
    <div style='float: center;'><img src='img/TaskInstructions1.png'></img>
    </div>
    "," ","","","","","","","","","","","","","","","","","","","","",""
"","","","","","html-keyboard-response","5","36743","0.0-5.0","5a7a1973000dab00018c3410","640759fa512f630a2bdc333d","6408c17f4374e9dd1d4d4fe5","null","
    <div style='width: 1000px;'>
    <div style='float: center;'><img src='img/TaskInstructions2.png'></img>
    </div>
    ","null","","","","","","","","","","","","","","","","","","","","",""
"","","","","","html-keyboard-response","6","39178","0.0-6.0","5a7a1973000dab00018c3410","640759fa512f630a2bdc333d","6408c17f4374e9dd1d4d4fe5","2432.699999999255","
    <div style='width: 1000px;'>
    <div style='float: center;'><img src='img/TaskInstructions2.png'></img>
    </div>
    "," ","","","","","","","","","","","","","","","","","","","","",""
"","","","","","video-keyboard-response","7","55319","0.0-7.0","5a7a1973000dab00018c3410","640759fa512f630a2bdc333d","6408c17f4374e9dd1d4d4fe5","16133.199999999255","[""video/TaskInstructions3.mp4""]"," ","","","","","","","","","","","","","","","","","","","","",""
"","","","","","image-keyboard-response","8","60125","0.0-8.0-0.0","5a7a1973000dab00018c3410","640759fa512f630a2bdc333d","6408c17f4374e9dd1d4d4fe5","4802.60000000149","img/training1.png"," ","","","","","","","","","","","","","","","","","","","","",""
"","","","","","color-precision2","9","74891","0.0-8.0-1.0-0.0","5a7a1973000dab00018c3410","640759fa512f630a2bdc333d","6408c17f4374e9dd1d4d4fe5","[7719.9000000003725]","","","[5]","[178]","178","165","351.3581218124368","[351.3581218124368]","[186.35812181243682]","[186]","0","0","1","0","495.846000000005","994.8169999996317","1000","","","0","training","",""
"","","","","","image-keyboard-response","10","81279","0.0-8.0-0.1","5a7a1973000dab00018c3410","640759fa512f630a2bdc333d","6408c17f4374e9dd1d4d4fe5","6385.0999999996275","img/training2.png"," ","","","","","","","","","","","","","","","","","","","","",""
"","","","","","many-guess-6","11","91423","0.0-8.0-1.1-0.1","5a7a1973000dab00018c3410","640759fa512f630a2bdc333d","6408c17f4374e9dd1d4d4fe5","[4294.0999999996275]","","","[35,28,20]","[327,27,292]","327","64","133.69544744088645","[133.69544744088645]","[69.69544744088645]","[68]","[300,120,210,210,30,300,300,300,120,300,210,300,30,210,30,30,210,210,30,120,300,30,300,30,120,120,210,120,120,120,120,120,30,300,30,210]","0","3","0","995.1099999988801","995.4869999999937","1000","[[[""img/mask20.png""],[""img/mask33.png""],[""img/mask46.png""]]]","","[35,28,20]","training","",""
"","","","","","image-keyboard-response","12","95009","0.0-8.0-0.2","5a7a1973000dab00018c3410","640759fa512f630a2bdc333d","6408c17f4374e9dd1d4d4fe5","3583.5999999996275","img/training3.png"," ","","","","","","","","","","","","","","","","","","","","",""
"","","","","","[""many-guess-6""]","13","102713","0.0-8.0-1.2-0.2","5a7a1973000dab00018c3410","640759fa512f630a2bdc333d","6408c17f4374e9dd1d4d4fe5","[1979.4000000003725]","","","[24,5,0,31,7]","[205,232,96,271,145]","205","74","248.11536964796858","[248.11536964796858]","[174.11536964796858]","[174]","[30,30,300,210,120,30,30,300,300,30,120,210,120,30,30,120,300,30,120,210,120,210,210,120,300,300,30,120,30,30,300,210,210,120,30,210]","0","5","0","498.153999999995","494.7059999988851","500","[[[""img/mask68.png""],[""img/mask54.png""],[""img/mask58.png""],[""img/mask34.png""],[""img/mask10.png""]]]","","[24,5,0,31,7]","training","",""
"","","","","","image-keyboard-response","14","110818","0.0-8.0-0.3","5a7a1973000dab00018c3410","640759fa512f630a2bdc333d","6408c17f4374e9dd1d4d4fe5","8101","img/training4.png"," ","","","","","","","","","","","","","","","","","","","","",""
"","","","","","[""many-guess-6""]","15","116009","0.0-8.0-1.3-0.3","5a7a1973000dab00018c3410","640759fa512f630a2bdc333d","6408c17f4374e9dd1d4d4fe5","[1935.2999999988824]","","","[0,23,10,30,33,14,11,26,21,4]","[347,321,228,23,277,305,252,202,169,154]","347","303","1.0169108883028843","[1.0169108883028843]","[58.0169108883029]","[58]","[120,300,300,30,30,210,210,120,210,300,300,300,30,120,30,210,300,30,120,300,300,300,30,30,120,300,30,210,30,30,210,300,120,30,210,30]","0","10","0","129.6309999992518","125.99199999999837","132","[[[""img/mask72.png""],[""img/mask30.png""],[""img/mask33.png""],[""img/mask64.png""],[""img/mask7.png""],[""img/mask52.png""],[""img/mask6.png""],[""img/mask66.png""],[""img/mask46.png""],[""img/mask95.png""]]]","","[0,23,10,30,33,14,11,26,21,4]","training","",""
"","","","","","image-keyboard-response","16","121034","0.0-8.0-0.4","5a7a1973000dab00018c3410","640759fa512f630a2bdc333d","6408c17f4374e9dd1d4d4fe5","5021.300000000745","img/training5.png"," ","","","","","","","","","","","","","","","","","","","","",""
"","","","","","[""many-guess-6""]","17","126526","0.0-8.0-1.4-0.4","5a7a1973000dab00018c3410","640759fa512f630a2bdc333d","6408c17f4374e9dd1d4d4fe5","[2027]","","","[8,31,3,14,24,4,12,0,1,11,2,34,23,19,18,7,22,32,9,16,30,26,10,5,35,13,25,33,29,15,21,20,28,17,27,6]","[202,92,282,342,82,272,242,122,292,152,312,172,182,132,232,62,52,32,322,332,112,142,2,42,352,102,22,12,162,252,302,212,222,262,72,192]","202","141","27.36997695549037","[27.36997695549037]","[246.36997695549036]","[245]","[120,120,30,30,30,300,120,120,120,210,120,120,120,30,300,300,120,210,210,30,210,210,210,210,30,120,30,210,210,30,120,120,210,300,300,210]","0","36","0","132.02099999888742","19.659999998882995","16","[[[""img/mask20.png""],[""img/mask76.png""],[""img/mask21.png""],[""img/mask23.png""],[""img/mask43.png""],[""img/mask59.png""],[""img/mask83.png""],[""img/mask50.png""],[""img/mask75.png""],[""img/mask59.png""],[""img/mask34.png""],[""img/mask70.png""],[""img/mask31.png""],[""img/mask93.png""],[""img/mask30.png""],[""img/mask95.png""],[""img/mask94.png""],[""img/mask75.png""],[""img/mask65.png""],[""img/mask33.png""],[""img/mask18.png""],[""img/mask42.png""],[""img/mask84.png""],[""img/mask47.png""],[""img/mask68.png""],[""img/mask59.png""],[""img/mask45.png""],[""img/mask67.png""],[""img/mask95.png""],[""img/mask39.png""],[""img/mask69.png""],[""img/mask76.png""],[""img/mask45.png""],[""img/mask18.png""],[""img/mask99.png""],[""img/mask21.png""]]]","","[8,31,3,14,24,4,12,0,1,11,2,34,23,19,18,7,22,32,9,16,30,26,10,5,35,13,25,33,29,15,21,20,28,17,27,6]","training","",""
"","","","","","image-keyboard-response","18","129674","0.0-9.0","5a7a1973000dab00018c3410","640759fa512f630a2bdc333d","6408c17f4374e9dd1d4d4fe5","3146.199999999255","[""img/endTraining.png""]"," ","","","","","","","","","","","","","","","","","","","","",""
"","","","","","many-guess-6","19","135209","0.0-10.0-0.0-0.0","5a7a1973000dab00018c3410","640759fa512f630a2bdc333d","6408c17f4374e9dd1d4d4fe5","[1873.6000000014901]","","","[8,21,25,14,26,5,35,4,12,15,30,28,17,6,3,9,10,32,34,22,18,20,24,7,27,11,0,29,16,1,19,2,33,31,23,13]","[201,22,52,281,221,351,231,82,72,132,2,92,112,171,32,271,181,251,291,301,151,141,331,241,62,211,341,191,161,311,42,122,102,321,12,261]","201","13","346.0819543359544","[346.0819543359544]","[333.0819543359544]","[333]","[300,120,210,30,30,120,300,30,210]","0","36","0","149.19599999961792","24.025999999634223","16","[[[""img/mask2.png""],[""img/mask53.png""],[""img/mask97.png""],[""img/mask95.png""],[""img/mask23.png""],[""img/mask52.png""],[""img/mask13.png""],[""img/mask85.png""],[""img/mask33.png""],[""img/mask12.png""],[""img/mask48.png""],[""img/mask52.png""],[""img/mask76.png""],[""img/mask16.png""],[""img/mask34.png""],[""img/mask86.png""],[""img/mask96.png""],[""img/mask42.png""],[""img/mask66.png""],[""img/mask69.png""],[""img/mask83.png""],[""img/mask7.png""],[""img/mask15.png""],[""img/mask31.png""],[""img/mask61.png""],[""img/mask33.png""],[""img/mask19.png""],[""img/mask84.png""],[""img/mask76.png""],[""img/mask73.png""],[""img/mask65.png""],[""img/mask35.png""],[""img/mask31.png""],[""img/mask47.png""],[""img/mask64.png""],[""img/mask47.png""]]]","","[8,21,25,14,26,5,35,4,12,15,30,28,17,6,3,9,10,32,34,22,18,20,24,7,27,11,0,29,16,1,19,2,33,31,23,13]","main","13","many-guess-6"
"","","","","","html-keyboard-response","20","135714","0.0-10.0-1.0","5a7a1973000dab00018c3410","640759fa512f630a2bdc333d","6408c17f4374e9dd1d4d4fe5","null","","null","","","","","","","","","","","","","","","","","","","fixation","",""
"","","","","","color-precision2","21","140865","0.0-10.0-0.1-0.1","5a7a1973000dab00018c3410","640759fa512f630a2bdc333d","6408c17f4374e9dd1d4d4fe5","[2583.199999999255]","","","[10]","[339]","339","117","117.46451422770863","[117.46451422770863]","[0.4645142277086336]","[359]","0","0","1","0","148.61699999851407","992.8729999992647","1000","[[[""img/mask58.png""]]]","","","main","117","color-precision2"
"","","","","","html-keyboard-response","22","141367","0.0-10.0-1.1","5a7a1973000dab00018c3410","640759fa512f630a2bdc333d","6408c17f4374e9dd1d4d4fe5","null","","null","","","","","","","","","","","","","","","","","","","fixation","",""
"","","","","","color-precision2","23","145462","0.0-10.0-0.2-0.2","5a7a1973000dab00018c3410","640759fa512f630a2bdc333d","6408c17f4374e9dd1d4d4fe5","[1404.6000000014901]","","","[12]","[238]","238","232","105.70654807925072","[105.70654807925072]","[233.70654807925072]","[232]","0","0","1","0","146.67299999887473","992.2939999988885","1000","[[[""img/mask39.png""]]]","","","main","232","color-precision2"
"","","","","","html-keyboard-response","24","145964","0.0-10.0-1.2","5a7a1973000dab00018c3410","640759fa512f630a2bdc333d","6408c17f4374e9dd1d4d4fe5","null","","null","","","","","","","","","","","","","","","","","","","fixation","",""
"","","","","","color-precision2","25","151508","0.0-10.0-0.3-0.3","5a7a1973000dab00018c3410","640759fa512f630a2bdc333d","6408c17f4374e9dd1d4d4fe5","[2702.2999999988824]","","","[16]","[111]","111","125","238.02182653141307","[238.02182653141307]","[113.02182653141307]","[113]","0","0","1","0","147.4429999999993","993.0889999985229","1000","[[[""img/mask35.png""]]]","","","main","125","color-precision2"
"","","","","","html-keyboard-response","26","152009","0.0-10.0-1.3","5a7a1973000dab00018c3410","640759fa512f630a2bdc333d","6408c17f4374e9dd1d4d4fe5","null","","null","","","","","","","","","","","","","","","","","","","fixation","",""
"","","","","","many-guess-6","27","155450","0.0-10.0-0.4-0.4","5a7a1973000dab00018c3410","640759fa512f630a2bdc333d","6408c17f4374e9dd1d4d4fe5","[1568]","","","[14,26,32,3,19,17,15,16,25,7,30,22,34,23,11,29,6,18,12,27,20,8,0,5,31,10,33,2,9,21,4,28,1,13,35,24]","[276,226,186,346,296,216,326,146,17,266,196,106,176,47,86,206,336,77,57,356,166,27,37,136,286,306,96,67,236,116,316,7,126,256,246,156]","276","199","138.94951843945802","[138.94951843945802]","[299.949518439458]","[298]","[210,120,300,210,120,210,300,210,300]","0","36","0","147.03800000000047","22.95199999999022","16","[[[""img/mask91.png""],[""img/mask12.png""],[""img/mask47.png""],[""img/mask49.png""],[""img/mask27.png""],[""img/mask78.png""],[""img/mask82.png""],[""img/mask97.png""],[""img/mask86.png""],[""img/mask100.png""],[""img/mask76.png""],[""img/mask26.png""],[""img/mask96.png""],[""img/mask83.png""],[""img/mask68.png""],[""img/mask4.png""],[""img/mask8.png""],[""img/mask61.png""],[""img/mask39.png""],[""img/mask58.png""],[""img/mask44.png""],[""img/mask5.png""],[""img/mask62.png""],[""img/mask61.png""],[""img/mask63.png""],[""img/mask6.png""],[""img/mask94.png""],[""img/mask35.png""],[""img/mask32.png""],[""img/mask87.png""],[""img/mask65.png""],[""img/mask9.png""],[""img/mask64.png""],[""img/mask66.png""],[""img/mask58.png""],[""img/mask89.png""]]]","","[14,26,32,3,19,17,15,16,25,7,30,22,34,23,11,29,6,18,12,27,20,8,0,5,31,10,33,2,9,21,4,28,1,13,35,24]","main","199","many-guess-6"
"","","","","","html-keyboard-response","28","155953","0.0-10.0-1.4","5a7a1973000dab00018c3410","640759fa512f630a2bdc333d","6408c17f4374e9dd1d4d4fe5","null","","null","","","","","","","","","","","","","","","","","","","fixation","",""
"","","","","","color-precision2","29","160029","0.0-10.0-0.5-0.5","5a7a1973000dab00018c3410","640759fa512f630a2bdc333d","6408c17f4374e9dd1d4d4fe5","[947.3000000007451]","","","[1]","[149]","149","69","229.96540860609093","[229.96540860609093]","[160.96540860609093]","[161]","0","0","1","0","145.05999999851338","1005.6279999996186","1000","[[[""img/mask73.png""]]]","","","main","69","color-precision2"
"","","","","","html-keyboard-response","30","160532","0.0-10.0-1.5","5a7a1973000dab00018c3410","640759fa512f630a2bdc333d","6408c17f4374e9dd1d4d4fe5","null","","null","","","","","","","","","","","","","","","","","","","fixation","",""
"","","","","","many-guess-6","31","164554","0.0-10.0-0.6-0.6","5a7a1973000dab00018c3410","640759fa512f630a2bdc333d","6408c17f4374e9dd1d4d4fe5","[2493.10000000149]","","","[30,29,12,15,21,25,11,7,8,14,23,3,4,5,16,33,19,20,17,35,18,24,26,9,13,32,31,2,6,0,22,27,28,1,34,10]","[187,177,58,48,97,137,257,18,307,77,38,267,337,117,68,237,217,347,8,127,287,247,157,327,317,147,297,87,107,357,277,197,227,207,28,167]","187","134","185.47835488836688","[185.47835488836688]","[51.47835488836688]","[51]","[120,120,300,210,300,120,30,210,30]","0","36","0","147.55300000001444","7.732999998872401","16","[[[""img/mask92.png""],[""img/mask6.png""],[""img/mask42.png""],[""img/mask37.png""],[""img/mask74.png""],[""img/mask37.png""],[""img/mask97.png""],[""img/mask73.png""],[""img/mask24.png""],[""img/mask87.png""],[""img/mask75.png""],[""img/mask6.png""],[""img/mask65.png""],[""img/mask63.png""],[""img/mask2.png""],[""img/mask49.png""],[""img/mask12.png""],[""img/mask62.png""],[""img/mask5.png""],[""img/mask24.png""],[""img/mask28.png""],[""img/mask48.png""],[""img/mask36.png""],[""img/mask55.png""],[""img/mask15.png""],[""img/mask2.png""],[""img/mask72.png""],[""img/mask25.png""],[""img/mask54.png""],[""img/mask44.png""],[""img/mask56.png""],[""img/mask46.png""],[""img/mask33.png""],[""img/mask82.png""],[""img/mask70.png""],[""img/mask83.png""]]]","","[30,29,12,15,21,25,11,7,8,14,23,3,4,5,16,33,19,20,17,35,18,24,26,9,13,32,31,2,6,0,22,27,28,1,34,10]","main","134","many-guess-6"
"","","","","","html-keyboard-response","32","165056","0.0-10.0-1.6","5a7a1973000dab00018c3410","640759fa512f630a2bdc333d","6408c17f4374e9dd1d4d4fe5","null","","null","","","","","","","","","","","","","","","","","","","fixation","",""
"","","","","","color-precision2","33","169921","0.0-10.0-0.7-0.7","5a7a1973000dab00018c3410","640759fa512f630a2bdc333d","6408c17f4374e9dd1d4d4fe5","[1869.300000000745]","","","[28]","[84]","84","188","303.09707396670785","[303.09707396670785]","[115.09707396670785]","[115]","0","0","1","0","144.57000000000698","1004.9299999985087","1000","[[[""img/mask79.png""]]]","","","main","188","color-precision2"
"","","","","","html-keyboard-response","34","170423","0.0-10.0-1.7","5a7a1973000dab00018c3410","640759fa512f630a2bdc333d","6408c17f4374e9dd1d4d4fe5","null","","null","","","","","","","","","","","","","","","","","","","fixation","",""
"","","","","","many-guess-6","35","174118","0.0-10.0-0.8-0.8","5a7a1973000dab00018c3410","640759fa512f630a2bdc333d","6408c17f4374e9dd1d4d4fe5","[1989.7000000011176]","","","[26,5,32,14,21,15,27,16,19,13,29,6,3,18,25,34,30,7,17,23,1,20,11,8,33,24,0,2,31,4,9,10,28,35,12,22]","[343,84,303,174,4,24,154,263,144,44,54,353,94,333,243,104,194,204,313,283,124,323,233,74,213,14,223,34,293,273,164,184,253,114,64,134]","343","331","34.65671493924404","[34.65671493924404]","[63.65671493924401]","[62]","[210,120,120,120,120,210,120,210,120]","0","36","0","147.48099999851547","26.960999999253545","16","[[[""img/mask45.png""],[""img/mask76.png""],[""img/mask55.png""],[""img/mask54.png""],[""img/mask2.png""],[""img/mask24.png""],[""img/mask78.png""],[""img/mask69.png""],[""img/mask41.png""],[""img/mask98.png""],[""img/mask9.png""],[""img/mask64.png""],[""img/mask48.png""],[""img/mask40.png""],[""img/mask29.png""],[""img/mask69.png""],[""img/mask33.png""],[""img/mask43.png""],[""img/mask63.png""],[""img/mask14.png""],[""img/mask78.png""],[""img/mask75.png""],[""img/mask22.png""],[""img/mask41.png""],[""img/mask11.png""],[""img/mask52.png""],[""img/mask36.png""],[""img/mask40.png""],[""img/mask89.png""],[""img/mask57.png""],[""img/mask78.png""],[""img/mask40.png""],[""img/mask26.png""],[""img/mask60.png""],[""img/mask80.png""],[""img/mask79.png""]]]","","[26,5,32,14,21,15,27,16,19,13,29,6,3,18,25,34,30,7,17,23,1,20,11,8,33,24,0,2,31,4,9,10,28,35,12,22]","main","331","many-guess-6"
"","","","","","html-keyboard-response","36","174621","0.0-10.0-1.8","5a7a1973000dab00018c3410","640759fa512f630a2bdc333d","6408c17f4374e9dd1d4d4fe5","null","","null","","","","","","","","","","","","","","","","","","","fixation","",""
"","","","","","color-precision2","37","177952","0.0-10.0-0.9-0.9","5a7a1973000dab00018c3410","640759fa512f630a2bdc333d","6408c17f4374e9dd1d4d4fe5","[442.69999999925494]","","","[26]","[241]","241","15","271.4652322708252","[271.4652322708252]","[256.4652322708252]","[257]","0","0","1","0","146.5909999985015","1000.0489999999991","1000","[[[""img/mask15.png""]]]","","","main","15","color-precision2"
"","","","","","html-keyboard-response","38","178457","0.0-10.0-1.9","5a7a1973000dab00018c3410","640759fa512f630a2bdc333d","6408c17f4374e9dd1d4d4fe5","null","","null","","","","","","","","","","","","","","","","","","","fixation","",""
"","","","","","many-guess-6","39","183102","0.0-10.0-0.10-0.10","5a7a1973000dab00018c3410","640759fa512f630a2bdc333d","6408c17f4374e9dd1d4d4fe5","[1881.8999999985099]","","","[7,20,16,1,26,29,11,4,8,2,17,23,9,21,18,14,33,13,31,19,0,30,12,35,3,22,24,34,6,15,32,28,10,27,5,25]","[143,303,203,44,293,54,114,343,183,223,153,283,94,233,34,4,123,323,84,173,353,243,74,253,213,163,133,273,263,333,193,14,64,313,104,24]","143","333","123.87993165613666","[123.87993165613666]","[150.87993165613665]","[149]","[120,30,300,120,210,120,210,300,120]","0","36","0","146.7909999996191","20.783999999635853","16","[[[""img/mask55.png""],[""img/mask15.png""],[""img/mask3.png""],[""img/mask89.png""],[""img/mask33.png""],[""img/mask15.png""],[""img/mask75.png""],[""img/mask58.png""],[""img/mask61.png""],[""img/mask72.png""],[""img/mask85.png""],[""img/mask99.png""],[""img/mask38.png""],[""img/mask98.png""],[""img/mask50.png""],[""img/mask62.png""],[""img/mask6.png""],[""img/mask33.png""],[""img/mask16.png""],[""img/mask94.png""],[""img/mask50.png""],[""img/mask50.png""],[""img/mask95.png""],[""img/mask4.png""],[""img/mask83.png""],[""img/mask89.png""],[""img/mask84.png""],[""img/mask60.png""],[""img/mask100.png""],[""img/mask70.png""],[""img/mask67.png""],[""img/mask87.png""],[""img/mask92.png""],[""img/mask50.png""],[""img/mask11.png""],[""img/mask69.png""]]]","","[7,20,16,1,26,29,11,4,8,2,17,23,9,21,18,14,33,13,31,19,0,30,12,35,3,22,24,34,6,15,32,28,10,27,5,25]","main","333","many-guess-6"
"","","","","","html-keyboard-response","40","183603","0.0-10.0-1.10","5a7a1973000dab00018c3410","640759fa512f630a2bdc333d","6408c17f4374e9dd1d4d4fe5","null","","null","","","","","","","","","","","","","","","","","","","fixation","",""
"","","","","","many-guess-6","41","186902","0.0-10.0-0.11-0.11","5a7a1973000dab00018c3410","640759fa512f630a2bdc333d","6408c17f4374e9dd1d4d4fe5","[1852.800000000745]","","","[11,7,27,22,1,31,26,30,4,0,12,29,5,14,28,21,24,15,32,16,34,3,10,6,35,19,13,18,9,8,33,20,25,17,23,2]","[82,121,2,241,291,72,12,151,331,92,271,341,201,62,52,161,111,301,102,281,311,171,351,181,141,321,231,251,221,211,32,131,191,42,261,22]","82","173","22.71901288161907","[22.71901288161907]","[209.71901288161908]","[209]","[120,300,210,300,300,210,30,210,30]","0","36","0","148.24600000001374","12.695999999617925","16","[[[""img/mask19.png""],[""img/mask96.png""],[""img/mask61.png""],[""img/mask57.png""],[""img/mask71.png""],[""img/mask60.png""],[""img/mask75.png""],[""img/mask17.png""],[""img/mask57.png""],[""img/mask7.png""],[""img/mask88.png""],[""img/mask26.png""],[""img/mask41.png""],[""img/mask83.png""],[""img/mask98.png""],[""img/mask67.png""],[""img/mask15.png""],[""img/mask3.png""],[""img/mask47.png""],[""img/mask59.png""],[""img/mask74.png""],[""img/mask50.png""],[""img/mask46.png""],[""img/mask69.png""],[""img/mask45.png""],[""img/mask52.png""],[""img/mask20.png""],[""img/mask43.png""],[""img/mask44.png""],[""img/mask64.png""],[""img/mask21.png""],[""img/mask90.png""],[""img/mask10.png""],[""img/mask38.png""],[""img/mask4.png""],[""img/mask79.png""]]]","","[11,7,27,22,1,31,26,30,4,0,12,29,5,14,28,21,24,15,32,16,34,3,10,6,35,19,13,18,9,8,33,20,25,17,23,2]","main","173","many-guess-6"
"","","","","","html-keyboard-response","42","187405","0.0-10.0-1.11","5a7a1973000dab00018c3410","640759fa512f630a2bdc333d","6408c17f4374e9dd1d4d4fe5","null","","null","","","","","","","","","","","","","","","","","","","fixation","",""
"","","","","","many-guess-6","43","192080","0.0-10.0-0.12-0.12","5a7a1973000dab00018c3410","640759fa512f630a2bdc333d","6408c17f4374e9dd1d4d4fe5","[2801]","","","[27,19,6,18,12,22,21,8,35,9,20,4,28,0,17,15,14,31,29,33,34,5,10,24,13,11,26,2,25,23,30,16,1,3,7,32]","[235,136,46,255,305,265,196,106,6,96,325,245,26,76,295,16,166,146,56,126,186,225,205,275,315,66,176,156,335,285,86,355,345,116,215,36]","235","225","119.4954696286138","[119.4954696286138]","[254.49546962861382]","[252]","[30,300,120,210,30,30,120,30,120]","0","36","0","148.30199999999604","10.902999999641906","16","[[[""img/mask8.png""],[""img/mask96.png""],[""img/mask19.png""],[""img/mask16.png""],[""img/mask68.png""],[""img/mask48.png""],[""img/mask75.png""],[""img/mask72.png""],[""img/mask45.png""],[""img/mask8.png""],[""img/mask12.png""],[""img/mask69.png""],[""img/mask36.png""],[""img/mask100.png""],[""img/mask3.png""],[""img/mask98.png""],[""img/mask19.png""],[""img/mask88.png""],[""img/mask21.png""],[""img/mask80.png""],[""img/mask71.png""],[""img/mask38.png""],[""img/mask47.png""],[""img/mask44.png""],[""img/mask38.png""],[""img/mask50.png""],[""img/mask50.png""],[""img/mask37.png""],[""img/mask74.png""],[""img/mask16.png""],[""img/mask33.png""],[""img/mask48.png""],[""img/mask20.png""],[""img/mask64.png""],[""img/mask38.png""],[""img/mask31.png""]]]","","[27,19,6,18,12,22,21,8,35,9,20,4,28,0,17,15,14,31,29,33,34,5,10,24,13,11,26,2,25,23,30,16,1,3,7,32]","main","225","many-guess-6"
"","","","","","html-keyboard-response","44","192582","0.0-10.0-1.12","5a7a1973000dab00018c3410","640759fa512f630a2bdc333d","6408c17f4374e9dd1d4d4fe5","null","","null","","","","","","","","","","","","","","","","","","","fixation","",""
"","","","","","color-precision2","45","196490","0.0-10.0-0.13-0.13","5a7a1973000dab00018c3410","640759fa512f630a2bdc333d","6408c17f4374e9dd1d4d4fe5","[1281.5]","","","[17]","[4]","4","262","329.53149261568245","[329.53149261568245]","[67.53149261568245]","[67]","0","0","1","0","144.65699999887147","996.0519999996177","1000","[[[""img/mask52.png""]]]","","","main","262","color-precision2"
"","","","","","html-keyboard-response","46","196991","0.0-10.0-1.13","5a7a1973000dab00018c3410","640759fa512f630a2bdc333d","6408c17f4374e9dd1d4d4fe5","null","","null","","","","","","","","","","","","","","","","","","","fixation","",""
"","","","","","color-precision2","47","201609","0.0-10.0-0.14-0.14","5a7a1973000dab00018c3410","640759fa512f630a2bdc333d","6408c17f4374e9dd1d4d4fe5","[1669.199999999255]","","","[4]","[255]","255","299","190.27703696170653","[190.27703696170653]","[251.27703696170653]","[251]","0","0","1","0","148.07899999889196","995.1710000000021","1000","[[[""img/mask38.png""]]]","","","main","299","color-precision2"
"","","","","","html-keyboard-response","48","202111","0.0-10.0-1.14","5a7a1973000dab00018c3410","640759fa512f630a2bdc333d","6408c17f4374e9dd1d4d4fe5","null","","null","","","","","","","","","","","","","","","","","","","fixation","",""
"","","","","","many-guess-6","49","205561","0.0-10.0-0.15-0.15","5a7a1973000dab00018c3410","640759fa512f630a2bdc333d","6408c17f4374e9dd1d4d4fe5","[1894.300000000745]","","","[3,9,31,6,23,34,26,15,32,8,21,25,13,14,1,28,27,2,19,18,33,35,29,22,30,20,24,11,5,17,10,0,12,16,4,7]","[288,148,248,337,238,158,38,138,268,307,188,208,198,108,28,48,278,8,228,218,317,327,88,298,128,68,357,78,58,98,18,168,258,118,347,178]","288","351","304.11499234547966","[304.11499234547966]","[313.11499234547966]","[314]","[30,210,30,120,30,120,120,120,300]","0","36","0","151.78199999852222","33.521000000007916","16","[[[""img/mask17.png""],[""img/mask75.png""],[""img/mask20.png""],[""img/mask32.png""],[""img/mask81.png""],[""img/mask15.png""],[""img/mask37.png""],[""img/mask89.png""],[""img/mask4.png""],[""img/mask95.png""],[""img/mask87.png""],[""img/mask15.png""],[""img/mask46.png""],[""img/mask99.png""],[""img/mask97.png""],[""img/mask38.png""],[""img/mask10.png""],[""img/mask54.png""],[""img/mask69.png""],[""img/mask15.png""],[""img/mask60.png""],[""img/mask45.png""],[""img/mask87.png""],[""img/mask41.png""],[""img/mask96.png""],[""img/mask11.png""],[""img/mask64.png""],[""img/mask6.png""],[""img/mask45.png""],[""img/mask96.png""],[""img/mask10.png""],[""img/mask53.png""],[""img/mask47.png""],[""img/mask56.png""],[""img/mask76.png""],[""img/mask72.png""]]]","","[3,9,31,6,23,34,26,15,32,8,21,25,13,14,1,28,27,2,19,18,33,35,29,22,30,20,24,11,5,17,10,0,12,16,4,7]","main","351","many-guess-6"
"","","","","","html-keyboard-response","50","206062","0.0-10.0-1.15","5a7a1973000dab00018c3410","640759fa512f630a2bdc333d","6408c17f4374e9dd1d4d4fe5","null","","null","","","","","","","","","","","","","","","","","","","fixation","",""
"","","","","","color-precision2","51","210833","0.0-10.0-0.16-0.16","5a7a1973000dab00018c3410","640759fa512f630a2bdc333d","6408c17f4374e9dd1d4d4fe5","[2134.4000000003725]","","","[21]","[207]","207","178","14.964379599980306","[14.964379599980306]","[196.9643795999803]","[196]","0","0","1","0","145.95399999961955","993.7089999985183","1000","[[[""img/mask47.png""]]]","","","main","178","color-precision2"
"","","","","","html-keyboard-response","52","211335","0.0-10.0-1.16","5a7a1973000dab00018c3410","640759fa512f630a2bdc333d","6408c17f4374e9dd1d4d4fe5","null","","null","","","","","","","","","","","","","","","","","","","fixation","",""
"","","","","","many-guess-6","53","215306","0.0-10.0-0.17-0.17","5a7a1973000dab00018c3410","640759fa512f630a2bdc333d","6408c17f4374e9dd1d4d4fe5","[2432.4000000003725]","","","[3,20,14,13,12,10,8,9,6,1,11,32,29,27,2,5,23,30,22,24,16,35,7,31,4,28,18,0,34,33,19,17,26,21,25,15]","[155,175,234,95,294,115,195,105,5,214,205,314,334,65,284,45,75,274,185,55,25,344,254,324,125,165,15,135,224,304,244,264,354,35,85,145]","155","162","48.88253028612989","[48.88253028612989]","[246.8825302861299]","[245]","[210,210,30,300,210,30,30,210,120]","0","36","0","148.45299999852432","12.30399999851943","16","[[[""img/mask64.png""],[""img/mask16.png""],[""img/mask86.png""],[""img/mask52.png""],[""img/mask22.png""],[""img/mask36.png""],[""img/mask71.png""],[""img/mask19.png""],[""img/mask53.png""],[""img/mask79.png""],[""img/mask30.png""],[""img/mask8.png""],[""img/mask68.png""],[""img/mask77.png""],[""img/mask41.png""],[""img/mask80.png""],[""img/mask66.png""],[""img/mask93.png""],[""img/mask25.png""],[""img/mask79.png""],[""img/mask76.png""],[""img/mask53.png""],[""img/mask69.png""],[""img/mask99.png""],[""img/mask28.png""],[""img/mask18.png""],[""img/mask76.png""],[""img/mask67.png""],[""img/mask1.png""],[""img/mask53.png""],[""img/mask56.png""],[""img/mask66.png""],[""img/mask83.png""],[""img/mask37.png""],[""img/mask39.png""],[""img/mask31.png""]]]","","[3,20,14,13,12,10,8,9,6,1,11,32,29,27,2,5,23,30,22,24,16,35,7,31,4,28,18,0,34,33,19,17,26,21,25,15]","main","162","many-guess-6"
"","","","","","html-keyboard-response","54","215808","0.0-10.0-1.17","5a7a1973000dab00018c3410","640759fa512f630a2bdc333d","6408c17f4374e9dd1d4d4fe5","null","","null","","","","","","","","","","","","","","","","","","","fixation","",""
"","","","","","many-guess-6","55","220057","0.0-10.0-0.18-0.18","5a7a1973000dab00018c3410","640759fa512f630a2bdc333d","6408c17f4374e9dd1d4d4fe5","[2121.4000000003725]","","","[22,34,11,24,29,27,10,28,30,9,7,6,15,13,8,25,0,5,4,14,20,32,12,26,1,35,21,19,2,3,18,17,16,33,23,31]","[3,203,213,93,273,253,73,23,53,323,153,293,353,343,143,163,43,113,83,33,103,223,283,333,13,243,183,303,173,313,123,233,63,133,193,263]","3","134","123.4202951913066","[123.4202951913066]","[349.4202951913066]","[348]","[120,210,210,300,120,300,120,30,300]","0","36","0","148.47499999924912","10.77299999963725","16","[[[""img/mask61.png""],[""img/mask34.png""],[""img/mask49.png""],[""img/mask89.png""],[""img/mask12.png""],[""img/mask89.png""],[""img/mask83.png""],[""img/mask85.png""],[""img/mask58.png""],[""img/mask37.png""],[""img/mask49.png""],[""img/mask2.png""],[""img/mask43.png""],[""img/mask38.png""],[""img/mask80.png""],[""img/mask20.png""],[""img/mask29.png""],[""img/mask29.png""],[""img/mask79.png""],[""img/mask13.png""],[""img/mask65.png""],[""img/mask75.png""],[""img/mask15.png""],[""img/mask53.png""],[""img/mask44.png""],[""img/mask9.png""],[""img/mask44.png""],[""img/mask6.png""],[""img/mask12.png""],[""img/mask41.png""],[""img/mask11.png""],[""img/mask52.png""],[""img/mask33.png""],[""img/mask26.png""],[""img/mask32.png""],[""img/mask36.png""]]]","","[22,34,11,24,29,27,10,28,30,9,7,6,15,13,8,25,0,5,4,14,20,32,12,26,1,35,21,19,2,3,18,17,16,33,23,31]","main","134","many-guess-6"
"","","","","","html-keyboard-response","56","220572","0.0-10.0-1.18","5a7a1973000dab00018c3410","640759fa512f630a2bdc333d","6408c17f4374e9dd1d4d4fe5","null","","null","","","","","","","","","","","","","","","","","","","fixation","",""
"","","","","","color-precision2","57","224568","0.0-10.0-0.19-0.19","5a7a1973000dab00018c3410","640759fa512f630a2bdc333d","6408c17f4374e9dd1d4d4fe5","[688.7999999988824]","","","[22]","[316]","316","184","154.76326687161443","[154.76326687161443]","[330.7632668716144]","[329]","0","0","1","0","147.99899999963236","995.7649999988789","1000","[[[""img/mask30.png""]]]","","","main","184","color-precision2"
"","","","","","html-keyboard-response","58","228246","0.0-10.0-1.19","5a7a1973000dab00018c3410","640759fa512f630a2bdc333d","6408c17f4374e9dd1d4d4fe5","3674.9000000003725","Wow! You've completed 20 out of 180 trials! </p> <p>  </p><p> Take a quick break, then press any key when you're ready to continue."," ","","","","","","","","","","","","","","","","","","","fixation","",""
"","","","","","many-guess-6","59","233434","0.0-10.0-0.20-0.20","5a7a1973000dab00018c3410","640759fa512f630a2bdc333d","6408c17f4374e9dd1d4d4fe5","[2376.60000000149]","","","[6,2,12,1,17,5,34,28,13,15,31,22,16,24,29,18,35,26,30,11,23,3,25,10,32,14,19,8,0,9,33,4,27,7,21,20]","[168,178,128,78,138,317,267,357,337,297,247,48,327,8,277,347,187,28,237,197,88,38,68,207,118,18,148,217,307,287,227,58,108,98,257,158]","168","293","340.08356345148917","[340.08356345148917]","[47.08356345148917]","[47]","[120,210,300,120,210,210,120,120,120]","0","36","0","144.76399999961723","17.350999999267515","16","[[[""img/mask59.png""],[""img/mask54.png""],[""img/mask21.png""],[""img/mask2.png""],[""img/mask70.png""],[""img/mask95.png""],[""img/mask61.png""],[""img/mask60.png""],[""img/mask44.png""],[""img/mask63.png""],[""img/mask37.png""],[""img/mask89.png""],[""img/mask13.png""],[""img/mask54.png""],[""img/mask69.png""],[""img/mask15.png""],[""img/mask41.png""],[""img/mask100.png""],[""img/mask86.png""],[""img/mask44.png""],[""img/mask41.png""],[""img/mask51.png""],[""img/mask64.png""],[""img/mask18.png""],[""img/mask50.png""],[""img/mask94.png""],[""img/mask16.png""],[""img/mask83.png""],[""img/mask92.png""],[""img/mask12.png""],[""img/mask45.png""],[""img/mask54.png""],[""img/mask42.png""],[""img/mask85.png""],[""img/mask37.png""],[""img/mask40.png""]]]","","[6,2,12,1,17,5,34,28,13,15,31,22,16,24,29,18,35,26,30,11,23,3,25,10,32,14,19,8,0,9,33,4,27,7,21,20]","main","293","many-guess-6"
"","","","","","html-keyboard-response","60","233936","0.0-10.0-1.20","5a7a1973000dab00018c3410","640759fa512f630a2bdc333d","6408c17f4374e9dd1d4d4fe5","null","","null","","","","","","","","","","","","","","","","","","","fixation","",""
"","","","","","color-precision2","61","237608","0.0-10.0-0.21-0.21","5a7a1973000dab00018c3410","640759fa512f630a2bdc333d","6408c17f4374e9dd1d4d4fe5","[1157.1000000014901]","","","[30]","[323]","323","149","132.33886975236447","[132.33886975236447]","[343.3388697523645]","[342]","0","0","1","0","148.24099999925238","994.6469999988913","1000","[[[""img/mask94.png""]]]","","","main","149","color-precision2"
"","","","","","html-keyboard-response","62","238110","0.0-10.0-1.21","5a7a1973000dab00018c3410","640759fa512f630a2bdc333d","6408c17f4374e9dd1d4d4fe5","null","","null","","","","","","","","","","","","","","","","","","","fixation","",""
"","","","","","color-precision2","63","241746","0.0-10.0-0.22-0.22","5a7a1973000dab00018c3410","640759fa512f630a2bdc333d","6408c17f4374e9dd1d4d4fe5","[863.4000000003725]","","","[32]","[196]","196","335","179.86181848817182","[179.86181848817182]","[204.86181848817182]","[204]","0","0","1","0","148.03599999999278","995.2479999992647","1000","[[[""img/mask53.png""]]]","","","main","335","color-precision2"
"","","","","","html-keyboard-response","64","242248","0.0-10.0-1.22","5a7a1973000dab00018c3410","640759fa512f630a2bdc333d","6408c17f4374e9dd1d4d4fe5","null","","null","","","","","","","","","","","","","","","","","","","fixation","",""
"","","","","","many-guess-6","65","245868","0.0-10.0-0.23-0.23","5a7a1973000dab00018c3410","640759fa512f630a2bdc333d","6408c17f4374e9dd1d4d4fe5","[1938.1000000014901]","","","[21,2,3,31,15,28,10,18,22,29,9,8,27,7,16,1,17,33,24,30,26,20,34,25,23,12,14,13,0,35,4,19,5,6,11,32]","[38,277,68,247,108,48,88,178,28,58,188,148,347,357,158,128,138,267,78,197,337,327,257,207,237,307,98,217,287,317,18,8,168,118,297,227]","38","283","127.05287407885508","[127.05287407885508]","[204.0528740788551]","[202]","[30,300,120,120,300,120,210,30,30]","0","36","0","147.77599999925587","17.533999998500803","16","[[[""img/mask19.png""],[""img/mask33.png""],[""img/mask63.png""],[""img/mask50.png""],[""img/mask14.png""],[""img/mask20.png""],[""img/mask21.png""],[""img/mask14.png""],[""img/mask39.png""],[""img/mask43.png""],[""img/mask75.png""],[""img/mask6.png""],[""img/mask49.png""],[""img/mask91.png""],[""img/mask50.png""],[""img/mask29.png""],[""img/mask72.png""],[""img/mask70.png""],[""img/mask47.png""],[""img/mask14.png""],[""img/mask2.png""],[""img/mask100.png""],[""img/mask95.png""],[""img/mask61.png""],[""img/mask91.png""],[""img/mask63.png""],[""img/mask36.png""],[""img/mask39.png""],[""img/mask13.png""],[""img/mask69.png""],[""img/mask62.png""],[""img/mask89.png""],[""img/mask10.png""],[""img/mask70.png""],[""img/mask41.png""],[""img/mask4.png""]]]","","[21,2,3,31,15,28,10,18,22,29,9,8,27,7,16,1,17,33,24,30,26,20,34,25,23,12,14,13,0,35,4,19,5,6,11,32]","main","283","many-guess-6"
"","","","","","html-keyboard-response","66","246372","0.0-10.0-1.23","5a7a1973000dab00018c3410","640759fa512f630a2bdc333d","6408c17f4374e9dd1d4d4fe5","null","","null","","","","","","","","","","","","","","","","","","","fixation","",""
"","","","","","many-guess-6","67","249729","0.0-10.0-0.24-0.24","5a7a1973000dab00018c3410","640759fa512f630a2bdc333d","6408c17f4374e9dd1d4d4fe5","[1855.800000000745]","","","[9,31,14,11,7,34,1,29,12,30,22,16,2,19,18,10,26,28,15,35,24,25,23,8,13,17,33,5,21,0,6,3,20,4,27,32]","[58,227,247,167,137,117,267,327,347,97,68,337,197,107,217,357,177,78,207,317,18,237,28,127,287,147,307,8,38,187,297,48,87,277,157,257]","58","63","318.5537209829687","[318.5537209829687]","[255.55372098296868]","[255]","[300,30,210,210,300,210,210,210,210]","0","36","0","147.98799999887706","14.665999999619089","16","[[[""img/mask84.png""],[""img/mask33.png""],[""img/mask85.png""],[""img/mask45.png""],[""img/mask4.png""],[""img/mask68.png""],[""img/mask95.png""],[""img/mask73.png""],[""img/mask22.png""],[""img/mask8.png""],[""img/mask92.png""],[""img/mask37.png""],[""img/mask92.png""],[""img/mask27.png""],[""img/mask47.png""],[""img/mask72.png""],[""img/mask32.png""],[""img/mask70.png""],[""img/mask58.png""],[""img/mask37.png""],[""img/mask48.png""],[""img/mask10.png""],[""img/mask88.png""],[""img/mask14.png""],[""img/mask46.png""],[""img/mask84.png""],[""img/mask89.png""],[""img/mask3.png""],[""img/mask83.png""],[""img/mask93.png""],[""img/mask74.png""],[""img/mask97.png""],[""img/mask63.png""],[""img/mask61.png""],[""img/mask40.png""],[""img/mask12.png""]]]","","[9,31,14,11,7,34,1,29,12,30,22,16,2,19,18,10,26,28,15,35,24,25,23,8,13,17,33,5,21,0,6,3,20,4,27,32]","main","63","many-guess-6"
"","","","","","html-keyboard-response","68","250231","0.0-10.0-1.24","5a7a1973000dab00018c3410","640759fa512f630a2bdc333d","6408c17f4374e9dd1d4d4fe5","null","","null","","","","","","","","","","","","","","","","","","","fixation","",""
"","","","","","color-precision2","69","254098","0.0-10.0-0.25-0.25","5a7a1973000dab00018c3410","640759fa512f630a2bdc333d","6408c17f4374e9dd1d4d4fe5","[1024.4000000003725]","","","[28]","[269]","269","120","55.5523126436082","[55.5523126436082]","[295.55231264360816]","[294]","0","0","1","0","145.4199999984994","1002.7359999996261","1000","[[[""img/mask71.png""]]]","","","main","120","color-precision2"
"","","","","","html-keyboard-response","70","254601","0.0-10.0-1.25","5a7a1973000dab00018c3410","640759fa512f630a2bdc333d","6408c17f4374e9dd1d4d4fe5","null","","null","","","","","","","","","","","","","","","","","","","fixation","",""
"","","","","","color-precision2","71","258826","0.0-10.0-0.26-0.26","5a7a1973000dab00018c3410","640759fa512f630a2bdc333d","6408c17f4374e9dd1d4d4fe5","[1251.9000000003725]","","","[20]","[43]","43","279","316.85014817259787","[316.85014817259787]","[37.85014817259787]","[38]","0","0","1","0","145.08399999924586","1003.1759999988717","1000","[[[""img/mask63.png""]]]","","","main","279","color-precision2"
"","","","","","html-keyboard-response","72","259328","0.0-10.0-1.26","5a7a1973000dab00018c3410","640759fa512f630a2bdc333d","6408c17f4374e9dd1d4d4fe5","null","","null","","","","","","","","","","","","","","","","","","","fixation","",""
"","","","","","color-precision2","73","262902","0.0-10.0-0.27-0.27","5a7a1973000dab00018c3410","640759fa512f630a2bdc333d","6408c17f4374e9dd1d4d4fe5","[860.5]","","","[22]","[354]","354","254","320.95195077822825","[320.95195077822825]","[66.95195077822825]","[67]","0","0","1","0","146.2999999996391","1001.0810000000056","1000","[[[""img/mask61.png""]]]","","","main","254","color-precision2"
"","","","","","html-keyboard-response","74","263405","0.0-10.0-1.27","5a7a1973000dab00018c3410","640759fa512f630a2bdc333d","6408c17f4374e9dd1d4d4fe5","null","","null","","","","","","","","","","","","","","","","","","","fixation","",""
"","","","","","many-guess-6","75","266809","0.0-10.0-0.28-0.28","5a7a1973000dab00018c3410","640759fa512f630a2bdc333d","6408c17f4374e9dd1d4d4fe5","[1731.6000000014901]","","","[23,11,3,15,29,9,4,0,13,18,20,30,21,7,35,31,17,16,24,6,14,34,8,33,2,25,10,22,27,28,32,12,1,5,19,26]","[95,334,75,25,164,254,264,45,354,204,194,244,314,5,304,274,224,154,15,174,144,324,184,294,105,125,344,115,85,214,134,35,55,65,234,284]","95","357","189.99260677267765","[189.99260677267765]","[192.99260677267765]","[192]","[120,120,30,30,30,210,30,30,210]","0","36","0","150.73299999925075","22.402999999991152","16","[[[""img/mask71.png""],[""img/mask60.png""],[""img/mask24.png""],[""img/mask77.png""],[""img/mask91.png""],[""img/mask93.png""],[""img/mask16.png""],[""img/mask36.png""],[""img/mask66.png""],[""img/mask85.png""],[""img/mask27.png""],[""img/mask78.png""],[""img/mask56.png""],[""img/mask48.png""],[""img/mask9.png""],[""img/mask11.png""],[""img/mask31.png""],[""img/mask79.png""],[""img/mask41.png""],[""img/mask7.png""],[""img/mask75.png""],[""img/mask86.png""],[""img/mask56.png""],[""img/mask41.png""],[""img/mask36.png""],[""img/mask79.png""],[""img/mask43.png""],[""img/mask18.png""],[""img/mask39.png""],[""img/mask62.png""],[""img/mask24.png""],[""img/mask98.png""],[""img/mask77.png""],[""img/mask28.png""],[""img/mask95.png""],[""img/mask16.png""]]]","","[23,11,3,15,29,9,4,0,13,18,20,30,21,7,35,31,17,16,24,6,14,34,8,33,2,25,10,22,27,28,32,12,1,5,19,26]","main","357","many-guess-6"
"","","","","","html-keyboard-response","76","267311","0.0-10.0-1.28","5a7a1973000dab00018c3410","640759fa512f630a2bdc333d","6408c17f4374e9dd1d4d4fe5","null","","null","","","","","","","","","","","","","","","","","","","fixation","",""
"","","","","","color-precision2","77","270633","0.0-10.0-0.29-0.29","5a7a1973000dab00018c3410","640759fa512f630a2bdc333d","6408c17f4374e9dd1d4d4fe5","[829.3000000007451]","","","[7]","[177]","177","299","125.23699855349648","[125.23699855349648]","[186.23699855349648]","[184]","0","0","1","0","146.85700000001816","993.6459999984945","1000","[[[""img/mask53.png""]]]","","","main","299","color-precision2"
"","","","","","html-keyboard-response","78","271150","0.0-10.0-1.29","5a7a1973000dab00018c3410","640759fa512f630a2bdc333d","6408c17f4374e9dd1d4d4fe5","null","","null","","","","","","","","","","","","","","","","","","","fixation","",""
"","","","","","color-precision2","79","274729","0.0-10.0-0.30-0.30","5a7a1973000dab00018c3410","640759fa512f630a2bdc333d","6408c17f4374e9dd1d4d4fe5","[811.6000000014901]","","","[28]","[311]","311","107","51.542342663021","[51.542342663021]","[304.54234266302103]","[303]","0","0","1","0","147.72299999999814","993.8249999984982","1000","[[[""img/mask3.png""]]]","","","main","107","color-precision2"
"","","","","","html-keyboard-response","80","275231","0.0-10.0-1.30","5a7a1973000dab00018c3410","640759fa512f630a2bdc333d","6408c17f4374e9dd1d4d4fe5","null","","null","","","","","","","","","","","","","","","","","","","fixation","",""
"","","","","","color-precision2","81","278449","0.0-10.0-0.31-0.31","5a7a1973000dab00018c3410","640759fa512f630a2bdc333d","6408c17f4374e9dd1d4d4fe5","[520.9000000003725]","","","[27]","[38]","38","81","122.79385107967354","[122.79385107967354]","[41.793851079673544]","[40]","0","0","1","0","146.46299999888288","1003.4759999985108","1000","[[[""img/mask98.png""]]]","","","main","81","color-precision2"
"","","","","","html-keyboard-response","82","278951","0.0-10.0-1.31","5a7a1973000dab00018c3410","640759fa512f630a2bdc333d","6408c17f4374e9dd1d4d4fe5","null","","null","","","","","","","","","","","","","","","","","","","fixation","",""
"","","","","","many-guess-6","83","283074","0.0-10.0-0.32-0.32","5a7a1973000dab00018c3410","640759fa512f630a2bdc333d","6408c17f4374e9dd1d4d4fe5","[1900.4000000003725]","","","[0,15,4,26,22,16,33,23,30,35,17,7,34,6,21,19,28,27,32,24,29,11,20,5,9,14,25,31,2,13,10,1,3,12,8,18]","[27,246,187,197,296,167,286,127,226,316,47,57,137,17,256,207,336,177,266,306,7,77,107,147,216,97,37,236,67,346,276,326,356,117,87,157]","27","254","348.45006888365907","[348.45006888365907]","[94.45006888365907]","[94]","[120,120,210,120,300,300,120,30,120]","0","36","0","148.4780000000028","11.221999998495448","16","[[[""img/mask2.png""],[""img/mask91.png""],[""img/mask86.png""],[""img/mask74.png""],[""img/mask61.png""],[""img/mask67.png""],[""img/mask56.png""],[""img/mask56.png""],[""img/mask12.png""],[""img/mask11.png""],[""img/mask19.png""],[""img/mask64.png""],[""img/mask12.png""],[""img/mask55.png""],[""img/mask39.png""],[""img/mask16.png""],[""img/mask86.png""],[""img/mask78.png""],[""img/mask78.png""],[""img/mask51.png""],[""img/mask21.png""],[""img/mask23.png""],[""img/mask62.png""],[""img/mask3.png""],[""img/mask81.png""],[""img/mask7.png""],[""img/mask11.png""],[""img/mask16.png""],[""img/mask86.png""],[""img/mask68.png""],[""img/mask24.png""],[""img/mask40.png""],[""img/mask56.png""],[""img/mask86.png""],[""img/mask70.png""],[""img/mask39.png""]]]","","[0,15,4,26,22,16,33,23,30,35,17,7,34,6,21,19,28,27,32,24,29,11,20,5,9,14,25,31,2,13,10,1,3,12,8,18]","main","254","many-guess-6"
"","","","","","html-keyboard-response","84","283576","0.0-10.0-1.32","5a7a1973000dab00018c3410","640759fa512f630a2bdc333d","6408c17f4374e9dd1d4d4fe5","null","","null","","","","","","","","","","","","","","","","","","","fixation","",""
"","","","","","many-guess-6","85","286698","0.0-10.0-0.33-0.33","5a7a1973000dab00018c3410","640759fa512f630a2bdc333d","6408c17f4374e9dd1d4d4fe5","[1377.5]","","","[21,6,2,27,13,23,7,35,5,24,18,16,12,9,29,22,17,3,8,33,31,25,0,15,14,20,4,32,1,26,19,28,30,11,34,10]","[263,123,73,342,133,43,223,153,293,143,163,53,243,113,352,303,253,83,283,173,103,273,183,93,13,323,203,23,33,333,63,313,213,3,193,233]","263","15","162.50080916889354","[162.50080916889354]","[147.50080916889354]","[146]","[300,120,300,30,30,210,210,120,210]","0","36","0","147.8709999996354","10.691999998525716","16","[[[""img/mask55.png""],[""img/mask31.png""],[""img/mask4.png""],[""img/mask61.png""],[""img/mask76.png""],[""img/mask23.png""],[""img/mask80.png""],[""img/mask27.png""],[""img/mask22.png""],[""img/mask5.png""],[""img/mask4.png""],[""img/mask84.png""],[""img/mask97.png""],[""img/mask10.png""],[""img/mask98.png""],[""img/mask64.png""],[""img/mask41.png""],[""img/mask96.png""],[""img/mask46.png""],[""img/mask97.png""],[""img/mask82.png""],[""img/mask57.png""],[""img/mask40.png""],[""img/mask34.png""],[""img/mask67.png""],[""img/mask55.png""],[""img/mask36.png""],[""img/mask57.png""],[""img/mask46.png""],[""img/mask18.png""],[""img/mask99.png""],[""img/mask78.png""],[""img/mask58.png""],[""img/mask95.png""],[""img/mask19.png""],[""img/mask67.png""]]]","","[21,6,2,27,13,23,7,35,5,24,18,16,12,9,29,22,17,3,8,33,31,25,0,15,14,20,4,32,1,26,19,28,30,11,34,10]","main","15","many-guess-6"
"","","","","","html-keyboard-response","86","287200","0.0-10.0-1.33","5a7a1973000dab00018c3410","640759fa512f630a2bdc333d","6408c17f4374e9dd1d4d4fe5","null","","null","","","","","","","","","","","","","","","","","","","fixation","",""
"","","","","","many-guess-6","87","290883","0.0-10.0-0.34-0.34","5a7a1973000dab00018c3410","640759fa512f630a2bdc333d","6408c17f4374e9dd1d4d4fe5","[1614.0999999996275]","","","[23,12,34,3,27,28,33,9,24,13,11,4,1,7,8,2,18,25,30,17,15,10,5,6,21,29,26,16,20,0,35,31,14,32,22,19]","[52,12,291,72,251,261,341,241,201,221,351,151,22,191,271,311,101,121,32,91,331,141,211,111,301,62,2,321,181,161,281,131,42,171,82,231]","52","195","124.41121423649598","[124.41121423649598]","[289.411214236496]","[288]","[300,120,210,300,300,300,300,300,210]","0","36","0","148.07699999999022","33.27999999927124","16","[[[""img/mask7.png""],[""img/mask3.png""],[""img/mask85.png""],[""img/mask20.png""],[""img/mask62.png""],[""img/mask100.png""],[""img/mask61.png""],[""img/mask63.png""],[""img/mask53.png""],[""img/mask61.png""],[""img/mask28.png""],[""img/mask45.png""],[""img/mask40.png""],[""img/mask61.png""],[""img/mask47.png""],[""img/mask31.png""],[""img/mask92.png""],[""img/mask5.png""],[""img/mask56.png""],[""img/mask74.png""],[""img/mask100.png""],[""img/mask2.png""],[""img/mask52.png""],[""img/mask45.png""],[""img/mask11.png""],[""img/mask90.png""],[""img/mask98.png""],[""img/mask87.png""],[""img/mask44.png""],[""img/mask33.png""],[""img/mask48.png""],[""img/mask2.png""],[""img/mask1.png""],[""img/mask42.png""],[""img/mask81.png""],[""img/mask54.png""]]]","","[23,12,34,3,27,28,33,9,24,13,11,4,1,7,8,2,18,25,30,17,15,10,5,6,21,29,26,16,20,0,35,31,14,32,22,19]","main","195","many-guess-6"
"","","","","","html-keyboard-response","88","291403","0.0-10.0-1.34","5a7a1973000dab00018c3410","640759fa512f630a2bdc333d","6408c17f4374e9dd1d4d4fe5","null","","null","","","","","","","","","","","","","","","","","","","fixation","",""
"","","","","","many-guess-6","89","299513","0.0-10.0-0.35-0.35","5a7a1973000dab00018c3410","640759fa512f630a2bdc333d","6408c17f4374e9dd1d4d4fe5","[1372.8999999985099]","","","[23,11,14,4,15,19,6,32,1,2,29,33,35,5,3,27,24,34,7,30,9,21,18,20,28,22,8,26,12,25,16,31,10,0,13,17]","[122,162,52,92,302,312,202,152,33,172,142,212,352,72,332,252,13,182,62,112,232,282,102,292,222,82,23,242,262,342,322,43,132,192,272,3]","122","66","346.5726451363895","[346.5726451363895]","[280.5726451363895]","[280]","[210,210,210,30,30,300,120,210,210]","0","36","0","148.86299999960465","18.502999998512678","16","[[[""img/mask58.png""],[""img/mask18.png""],[""img/mask53.png""],[""img/mask63.png""],[""img/mask93.png""],[""img/mask72.png""],[""img/mask16.png""],[""img/mask35.png""],[""img/mask1.png""],[""img/mask51.png""],[""img/mask48.png""],[""img/mask88.png""],[""img/mask65.png""],[""img/mask62.png""],[""img/mask91.png""],[""img/mask16.png""],[""img/mask53.png""],[""img/mask79.png""],[""img/mask25.png""],[""img/mask94.png""],[""img/mask29.png""],[""img/mask32.png""],[""img/mask97.png""],[""img/mask56.png""],[""img/mask67.png""],[""img/mask93.png""],[""img/mask65.png""],[""img/mask72.png""],[""img/mask67.png""],[""img/mask5.png""],[""img/mask80.png""],[""img/mask50.png""],[""img/mask34.png""],[""img/mask80.png""],[""img/mask32.png""],[""img/mask60.png""]]]","","[23,11,14,4,15,19,6,32,1,2,29,33,35,5,3,27,24,34,7,30,9,21,18,20,28,22,8,26,12,25,16,31,10,0,13,17]","main","66","many-guess-6"
"","","","","","html-keyboard-response","90","300015","0.0-10.0-1.35","5a7a1973000dab00018c3410","640759fa512f630a2bdc333d","6408c17f4374e9dd1d4d4fe5","null","","null","","","","","","","","","","","","","","","","","","","fixation","",""
"","","","","","many-guess-6","91","302895","0.0-10.0-0.36-0.36","5a7a1973000dab00018c3410","640759fa512f630a2bdc333d","6408c17f4374e9dd1d4d4fe5","[1342.7999999988824]","","","[28,16,12,7,8,30,6,4,15,35,21,29,33,23,27,2,14,20,32,34,17,5,25,9,10,3,1,11,22,0,26,24,19,18,13,31]","[310,71,171,340,121,330,240,151,41,320,161,101,111,350,131,290,200,21,260,230,11,280,210,31,51,190,300,250,91,81,141,61,1,270,180,220]","310","59","232.91995986770925","[232.91995986770925]","[173.91995986770925]","[174]","[210,120,300,120,30,210,300,120,210]","0","36","0","148.90399999998044","11.270999998494517","16","[[[""img/mask71.png""],[""img/mask28.png""],[""img/mask79.png""],[""img/mask77.png""],[""img/mask15.png""],[""img/mask79.png""],[""img/mask44.png""],[""img/mask66.png""],[""img/mask48.png""],[""img/mask35.png""],[""img/mask5.png""],[""img/mask31.png""],[""img/mask13.png""],[""img/mask65.png""],[""img/mask66.png""],[""img/mask34.png""],[""img/mask82.png""],[""img/mask94.png""],[""img/mask46.png""],[""img/mask90.png""],[""img/mask2.png""],[""img/mask54.png""],[""img/mask43.png""],[""img/mask61.png""],[""img/mask98.png""],[""img/mask5.png""],[""img/mask82.png""],[""img/mask65.png""],[""img/mask65.png""],[""img/mask19.png""],[""img/mask79.png""],[""img/mask52.png""],[""img/mask80.png""],[""img/mask36.png""],[""img/mask62.png""],[""img/mask18.png""]]]","","[28,16,12,7,8,30,6,4,15,35,21,29,33,23,27,2,14,20,32,34,17,5,25,9,10,3,1,11,22,0,26,24,19,18,13,31]","main","59","many-guess-6"
"","","","","","html-keyboard-response","92","303398","0.0-10.0-1.36","5a7a1973000dab00018c3410","640759fa512f630a2bdc333d","6408c17f4374e9dd1d4d4fe5","null","","null","","","","","","","","","","","","","","","","","","","fixation","",""
"","","","","","color-precision2","93","306688","0.0-10.0-0.37-0.37","5a7a1973000dab00018c3410","640759fa512f630a2bdc333d","6408c17f4374e9dd1d4d4fe5","[771.4000000003725]","","","[4]","[223]","223","347","183.3367546426814","[183.3367546426814]","[196.3367546426814]","[196]","0","0","1","0","147.57599999965169","993.8739999984973","1000","[[[""img/mask89.png""]]]","","","main","347","color-precision2"
"","","","","","html-keyboard-response","94","307190","0.0-10.0-1.37","5a7a1973000dab00018c3410","640759fa512f630a2bdc333d","6408c17f4374e9dd1d4d4fe5","null","","null","","","","","","","","","","","","","","","","","","","fixation","",""
"","","","","","many-guess-6","95","310130","0.0-10.0-0.38-0.38","5a7a1973000dab00018c3410","640759fa512f630a2bdc333d","6408c17f4374e9dd1d4d4fe5","[1666.199999999255]","","","[8,33,26,11,20,12,25,34,3,21,15,27,35,24,32,19,17,6,5,9,1,18,31,2,4,14,13,23,22,30,0,28,10,7,29,16]","[216,6,335,186,16,275,355,246,226,106,156,305,56,76,136,315,166,196,345,46,295,116,126,176,285,146,96,325,266,206,86,236,256,66,26,36]","216","291","47.195957673313686","[47.195957673313686]","[116.19595767331367]","[115]","[300,120,300,210,120,210,210,210,300]","0","36","0","145.40499999851454","12.875999998883344","16","[[[""img/mask43.png""],[""img/mask32.png""],[""img/mask59.png""],[""img/mask52.png""],[""img/mask20.png""],[""img/mask92.png""],[""img/mask48.png""],[""img/mask73.png""],[""img/mask34.png""],[""img/mask58.png""],[""img/mask27.png""],[""img/mask44.png""],[""img/mask42.png""],[""img/mask64.png""],[""img/mask8.png""],[""img/mask92.png""],[""img/mask89.png""],[""img/mask53.png""],[""img/mask78.png""],[""img/mask57.png""],[""img/mask77.png""],[""img/mask39.png""],[""img/mask50.png""],[""img/mask32.png""],[""img/mask64.png""],[""img/mask39.png""],[""img/mask46.png""],[""img/mask87.png""],[""img/mask83.png""],[""img/mask70.png""],[""img/mask82.png""],[""img/mask71.png""],[""img/mask10.png""],[""img/mask57.png""],[""img/mask7.png""],[""img/mask49.png""]]]","","[8,33,26,11,20,12,25,34,3,21,15,27,35,24,32,19,17,6,5,9,1,18,31,2,4,14,13,23,22,30,0,28,10,7,29,16]","main","291","many-guess-6"
"","","","","","html-keyboard-response","96","310637","0.0-10.0-1.38","5a7a1973000dab00018c3410","640759fa512f630a2bdc333d","6408c17f4374e9dd1d4d4fe5","null","","null","","","","","","","","","","","","","","","","","","","fixation","",""
"","","","","","many-guess-6","97","313575","0.0-10.0-0.39-0.39","5a7a1973000dab00018c3410","640759fa512f630a2bdc333d","6408c17f4374e9dd1d4d4fe5","[1415.9000000003725]","","","[24,0,5,32,16,10,1,12,18,35,7,25,2,6,31,33,14,22,3,21,13,28,30,20,27,29,19,34,23,17,11,26,8,4,15,9]","[100,160,199,359,289,189,30,339,279,349,140,329,180,120,229,110,20,259,130,90,239,299,249,269,50,80,309,170,209,150,219,10,40,70,319,60]","100","153","121.53000234803373","[121.53000234803373]","[328.53000234803375]","[327]","[300,210,120,120,30,300,120,300,300]","0","36","0","144.98799999890616","16.640999998897314","16","[[[""img/mask55.png""],[""img/mask66.png""],[""img/mask74.png""],[""img/mask74.png""],[""img/mask72.png""],[""img/mask94.png""],[""img/mask69.png""],[""img/mask89.png""],[""img/mask4.png""],[""img/mask47.png""],[""img/mask72.png""],[""img/mask1.png""],[""img/mask8.png""],[""img/mask21.png""],[""img/mask67.png""],[""img/mask41.png""],[""img/mask10.png""],[""img/mask83.png""],[""img/mask44.png""],[""img/mask92.png""],[""img/mask26.png""],[""img/mask90.png""],[""img/mask96.png""],[""img/mask14.png""],[""img/mask95.png""],[""img/mask20.png""],[""img/mask82.png""],[""img/mask19.png""],[""img/mask46.png""],[""img/mask70.png""],[""img/mask54.png""],[""img/mask25.png""],[""img/mask77.png""],[""img/mask15.png""],[""img/mask43.png""],[""img/mask69.png""]]]","","[24,0,5,32,16,10,1,12,18,35,7,25,2,6,31,33,14,22,3,21,13,28,30,20,27,29,19,34,23,17,11,26,8,4,15,9]","main","153","many-guess-6"
"","","","","","html-keyboard-response","98","315756","0.0-10.0-1.39","5a7a1973000dab00018c3410","640759fa512f630a2bdc333d","6408c17f4374e9dd1d4d4fe5","2179.10000000149","Wow! You've completed 40 out of 180 trials! </p> <p>  </p><p> Take a quick break, then press any key when you're ready to continue."," ","","","","","","","","","","","","","","","","","","","fixation","",""
"","","","","","many-guess-6","99","319400","0.0-10.0-0.40-0.40","5a7a1973000dab00018c3410","640759fa512f630a2bdc333d","6408c17f4374e9dd1d4d4fe5","[1063.800000000745]","","","[26,9,1,25,15,35,19,24,32,4,29,28,12,16,14,7,31,5,22,8,3,27,18,33,34,20,11,0,17,10,6,2,30,13,23,21]","[158,118,238,18,8,357,218,28,178,208,268,198,78,298,68,148,288,348,248,58,328,258,188,88,228,108,168,318,338,38,98,308,138,278,48,128]","158","122","313.1378989695381","[313.1378989695381]","[191.13789896953813]","[191]","[30,300,120,30,300,30,30,210,210]","0","36","0","148.92999999853782","21.503000000026077","16","[[[""img/mask14.png""],[""img/mask41.png""],[""img/mask24.png""],[""img/mask74.png""],[""img/mask31.png""],[""img/mask71.png""],[""img/mask59.png""],[""img/mask61.png""],[""img/mask21.png""],[""img/mask93.png""],[""img/mask100.png""],[""img/mask93.png""],[""img/mask36.png""],[""img/mask2.png""],[""img/mask80.png""],[""img/mask70.png""],[""img/mask63.png""],[""img/mask19.png""],[""img/mask81.png""],[""img/mask96.png""],[""img/mask24.png""],[""img/mask29.png""],[""img/mask7.png""],[""img/mask19.png""],[""img/mask60.png""],[""img/mask10.png""],[""img/mask77.png""],[""img/mask5.png""],[""img/mask42.png""],[""img/mask21.png""],[""img/mask57.png""],[""img/mask15.png""],[""img/mask59.png""],[""img/mask91.png""],[""img/mask73.png""],[""img/mask79.png""]]]","","[26,9,1,25,15,35,19,24,32,4,29,28,12,16,14,7,31,5,22,8,3,27,18,33,34,20,11,0,17,10,6,2,30,13,23,21]","main","122","many-guess-6"
"","","","","","html-keyboard-response","100","319903","0.0-10.0-1.40","5a7a1973000dab00018c3410","640759fa512f630a2bdc333d","6408c17f4374e9dd1d4d4fe5","null","","null","","","","","","","","","","","","","","","","","","","fixation","",""
"","","","","","color-precision2","101","322967","0.0-10.0-0.41-0.41","5a7a1973000dab00018c3410","640759fa512f630a2bdc333d","6408c17f4374e9dd1d4d4fe5","[402.2000000011176]","","","[21]","[242]","242","44","292.0054202265316","[292.0054202265316]","[248.0054202265316]","[248]","0","0","1","0","147.8589999996475","992.2210000000196","1000","[[[""img/mask67.png""]]]","","","main","44","color-precision2"
"","","","","","html-keyboard-response","102","323469","0.0-10.0-1.41","5a7a1973000dab00018c3410","640759fa512f630a2bdc333d","6408c17f4374e9dd1d4d4fe5","null","","null","","","","","","","","","","","","","","","","","","","fixation","",""
"","","","","","color-precision2","103","326503","0.0-10.0-0.42-0.42","5a7a1973000dab00018c3410","640759fa512f630a2bdc333d","6408c17f4374e9dd1d4d4fe5","[424.40000000037253]","","","[11]","[116]","116","88","193.3784040316122","[193.3784040316122]","[105.3784040316122]","[105]","0","0","1","0","145.21099999925354","993.543999998481","1000","[[[""img/mask32.png""]]]","","","main","88","color-precision2"
"","","","","","html-keyboard-response","104","327019","0.0-10.0-1.42","5a7a1973000dab00018c3410","640759fa512f630a2bdc333d","6408c17f4374e9dd1d4d4fe5","null","","null","","","","","","","","","","","","","","","","","","","fixation","",""
"","","","","","color-precision2","105","329840","0.0-10.0-0.43-0.43","5a7a1973000dab00018c3410","640759fa512f630a2bdc333d","6408c17f4374e9dd1d4d4fe5","[147.60000000149012]","","","[31]","[146]","146","193","","[null]","[null]","[150]","0","0","1","0","149.05599999887636","997.5659999985364","1000","[[[""img/mask45.png""]]]","","","main","193","color-precision2"
"","","","","","html-keyboard-response","106","330343","0.0-10.0-1.43","5a7a1973000dab00018c3410","640759fa512f630a2bdc333d","6408c17f4374e9dd1d4d4fe5","null","","null","","","","","","","","","","","","","","","","","","","fixation","",""
"","","","","","many-guess-6","107","333440","0.0-10.0-0.44-0.44","5a7a1973000dab00018c3410","640759fa512f630a2bdc333d","6408c17f4374e9dd1d4d4fe5","[1568.2000000011176]","","","[24,1,18,25,13,22,20,28,27,35,14,31,9,17,11,7,26,23,4,3,21,30,6,10,8,19,32,15,2,34,5,29,16,12,33,0]","[154,124,254,144,64,244,34,84,234,4,264,194,114,214,14,94,323,353,54,333,303,164,74,343,24,104,293,274,184,134,313,44,174,204,284,224]","154","346","302.651956497573","[302.651956497573]","[316.651956497573]","[317]","[120,210,30,120,30,30,30,300,120]","0","36","0","149.0739999988582","10.564999998896383","16","[[[""img/mask95.png""],[""img/mask77.png""],[""img/mask35.png""],[""img/mask78.png""],[""img/mask3.png""],[""img/mask64.png""],[""img/mask46.png""],[""img/mask3.png""],[""img/mask45.png""],[""img/mask69.png""],[""img/mask46.png""],[""img/mask70.png""],[""img/mask95.png""],[""img/mask38.png""],[""img/mask96.png""],[""img/mask30.png""],[""img/mask85.png""],[""img/mask35.png""],[""img/mask7.png""],[""img/mask29.png""],[""img/mask55.png""],[""img/mask78.png""],[""img/mask14.png""],[""img/mask63.png""],[""img/mask6.png""],[""img/mask82.png""],[""img/mask79.png""],[""img/mask61.png""],[""img/mask42.png""],[""img/mask1.png""],[""img/mask14.png""],[""img/mask13.png""],[""img/mask57.png""],[""img/mask21.png""],[""img/mask91.png""],[""img/mask29.png""]]]","","[24,1,18,25,13,22,20,28,27,35,14,31,9,17,11,7,26,23,4,3,21,30,6,10,8,19,32,15,2,34,5,29,16,12,33,0]","main","346","many-guess-6"
"","","","","","html-keyboard-response","108","333942","0.0-10.0-1.44","5a7a1973000dab00018c3410","640759fa512f630a2bdc333d","6408c17f4374e9dd1d4d4fe5","null","","null","","","","","","","","","","","","","","","","","","","fixation","",""
"","","","","","color-precision2","109","337998","0.0-10.0-0.45-0.45","5a7a1973000dab00018c3410","640759fa512f630a2bdc333d","6408c17f4374e9dd1d4d4fe5","[1312.5]","","","[2]","[176]","176","247","57.17865930290044","[57.17865930290044]","[170.17865930290043]","[169]","0","0","1","0","145.81399999960558","1002.6719999988563","1000","[[[""img/mask94.png""]]]","","","main","247","color-precision2"
"","","","","","html-keyboard-response","110","338500","0.0-10.0-1.45","5a7a1973000dab00018c3410","640759fa512f630a2bdc333d","6408c17f4374e9dd1d4d4fe5","null","","null","","","","","","","","","","","","","","","","","","","fixation","",""
"","","","","","many-guess-6","111","341480","0.0-10.0-0.46-0.46","5a7a1973000dab00018c3410","640759fa512f630a2bdc333d","6408c17f4374e9dd1d4d4fe5","[1477]","","","[13,12,17,2,30,18,20,9,27,0,16,35,25,15,14,4,6,33,8,19,11,10,34,3,24,26,7,21,28,23,31,22,32,29,1,5]","[178,347,188,198,18,28,58,317,258,248,138,238,307,228,218,208,287,108,38,68,268,168,278,337,128,357,8,88,297,48,118,148,78,98,327,158]","178","239","149.96251626005605","[149.96251626005605]","[270.9625162600561]","[270]","[210,210,120,120,210,120,210,30,300]","0","36","0","148.3389999999781","23.259000000020023","16","[[[""img/mask50.png""],[""img/mask5.png""],[""img/mask85.png""],[""img/mask95.png""],[""img/mask9.png""],[""img/mask89.png""],[""img/mask47.png""],[""img/mask23.png""],[""img/mask94.png""],[""img/mask46.png""],[""img/mask86.png""],[""img/mask29.png""],[""img/mask59.png""],[""img/mask10.png""],[""img/mask64.png""],[""img/mask64.png""],[""img/mask77.png""],[""img/mask3.png""],[""img/mask94.png""],[""img/mask13.png""],[""img/mask99.png""],[""img/mask47.png""],[""img/mask76.png""],[""img/mask7.png""],[""img/mask20.png""],[""img/mask50.png""],[""img/mask34.png""],[""img/mask88.png""],[""img/mask84.png""],[""img/mask46.png""],[""img/mask60.png""],[""img/mask57.png""],[""img/mask91.png""],[""img/mask88.png""],[""img/mask60.png""],[""img/mask74.png""]]]","","[13,12,17,2,30,18,20,9,27,0,16,35,25,15,14,4,6,33,8,19,11,10,34,3,24,26,7,21,28,23,31,22,32,29,1,5]","main","239","many-guess-6"
"","","","","","html-keyboard-response","112","341982","0.0-10.0-1.46","5a7a1973000dab00018c3410","640759fa512f630a2bdc333d","6408c17f4374e9dd1d4d4fe5","null","","null","","","","","","","","","","","","","","","","","","","fixation","",""
"","","","","","color-precision2","113","345580","0.0-10.0-0.47-0.47","5a7a1973000dab00018c3410","640759fa512f630a2bdc333d","6408c17f4374e9dd1d4d4fe5","[852.1999999992549]","","","[26]","[127]","127","199","355.09712785811075","[355.09712785811075]","[156.09712785811075]","[155]","0","0","1","0","146.1979999996256","1000.3139999984996","1000","[[[""img/mask23.png""]]]","","","main","199","color-precision2"
"","","","","","html-keyboard-response","114","346082","0.0-10.0-1.47","5a7a1973000dab00018c3410","640759fa512f630a2bdc333d","6408c17f4374e9dd1d4d4fe5","null","","null","","","","","","","","","","","","","","","","","","","fixation","",""
"","","","","","color-precision2","115","349033","0.0-10.0-0.48-0.48","5a7a1973000dab00018c3410","640759fa512f630a2bdc333d","6408c17f4374e9dd1d4d4fe5","[507.5]","","","[2]","[63]","63","185","206.8332536824664","[206.8332536824664]","[21.833253682466392]","[21]","0","0","1","0","147.95299999852432","995.5259999984992","1000","[[[""img/mask66.png""]]]","","","main","185","color-precision2"
"","","","","","html-keyboard-response","116","349538","0.0-10.0-1.48","5a7a1973000dab00018c3410","640759fa512f630a2bdc333d","6408c17f4374e9dd1d4d4fe5","null","","null","","","","","","","","","","","","","","","","","","","fixation","",""
"","","","","","color-precision2","117","352855","0.0-10.0-0.49-0.49","5a7a1973000dab00018c3410","640759fa512f630a2bdc333d","6408c17f4374e9dd1d4d4fe5","[568.0999999996275]","","","[25]","[190]","190","74","269.2040314899972","[269.2040314899972]","[195.2040314899972]","[195]","0","0","1","0","147.94599999964703","1001.2679999988759","1000","[[[""img/mask72.png""]]]","","","main","74","color-precision2"
"","","","","","html-keyboard-response","118","353358","0.0-10.0-1.49","5a7a1973000dab00018c3410","640759fa512f630a2bdc333d","6408c17f4374e9dd1d4d4fe5","null","","null","","","","","","","","","","","","","","","","","","","fixation","",""
"","","","","","many-guess-6","119","356252","0.0-10.0-0.50-0.50","5a7a1973000dab00018c3410","640759fa512f630a2bdc333d","6408c17f4374e9dd1d4d4fe5","[1351.5999999996275]","","","[31,15,9,21,5,27,14,12,20,19,16,1,34,7,25,4,28,22,30,11,24,29,18,26,3,8,32,2,6,35,33,13,17,23,0,10]","[115,295,205,305,165,125,185,135,105,275,315,354,55,95,344,255,225,75,325,35,195,335,5,155,175,265,85,285,145,245,65,235,215,15,45,25]","115","154","133.5203975395442","[133.5203975395442]","[339.5203975395442]","[338]","[210,300,120,300,300,300,210,210,300]","0","36","0","149.43399999960093","22.894999999611173","16","[[[""img/mask78.png""],[""img/mask60.png""],[""img/mask48.png""],[""img/mask93.png""],[""img/mask53.png""],[""img/mask34.png""],[""img/mask81.png""],[""img/mask58.png""],[""img/mask27.png""],[""img/mask40.png""],[""img/mask54.png""],[""img/mask14.png""],[""img/mask95.png""],[""img/mask57.png""],[""img/mask81.png""],[""img/mask57.png""],[""img/mask45.png""],[""img/mask45.png""],[""img/mask25.png""],[""img/mask19.png""],[""img/mask21.png""],[""img/mask64.png""],[""img/mask69.png""],[""img/mask60.png""],[""img/mask20.png""],[""img/mask82.png""],[""img/mask82.png""],[""img/mask72.png""],[""img/mask37.png""],[""img/mask13.png""],[""img/mask46.png""],[""img/mask2.png""],[""img/mask50.png""],[""img/mask36.png""],[""img/mask27.png""],[""img/mask60.png""]]]","","[31,15,9,21,5,27,14,12,20,19,16,1,34,7,25,4,28,22,30,11,24,29,18,26,3,8,32,2,6,35,33,13,17,23,0,10]","main","154","many-guess-6"
"","","","","","html-keyboard-response","120","356754","0.0-10.0-1.50","5a7a1973000dab00018c3410","640759fa512f630a2bdc333d","6408c17f4374e9dd1d4d4fe5","null","","null","","","","","","","","","","","","","","","","","","","fixation","",""
"","","","","","many-guess-6","121","360025","0.0-10.0-0.51-0.51","5a7a1973000dab00018c3410","640759fa512f630a2bdc333d","6408c17f4374e9dd1d4d4fe5","[1227.5]","","","[14,6,11,30,35,7,20,9,17,1,27,10,33,22,24,26,34,12,15,23,18,28,25,13,2,29,32,21,8,16,31,0,5,4,3,19]","[56,116,235,206,355,66,46,275,285,196,176,265,216,126,315,226,335,136,76,186,166,345,86,325,255,16,36,245,295,156,6,146,26,305,106,96]","56","228","321.2159779870804","[321.2159779870804]","[93.21597798708041]","[93]","[300,120,120,210,210,300,210,120,120]","0","36","0","148.66599999926984","18.372999998857267","16","[[[""img/mask63.png""],[""img/mask3.png""],[""img/mask46.png""],[""img/mask48.png""],[""img/mask96.png""],[""img/mask90.png""],[""img/mask47.png""],[""img/mask7.png""],[""img/mask10.png""],[""img/mask40.png""],[""img/mask61.png""],[""img/mask67.png""],[""img/mask66.png""],[""img/mask85.png""],[""img/mask83.png""],[""img/mask97.png""],[""img/mask48.png""],[""img/mask51.png""],[""img/mask49.png""],[""img/mask55.png""],[""img/mask96.png""],[""img/mask29.png""],[""img/mask87.png""],[""img/mask69.png""],[""img/mask73.png""],[""img/mask26.png""],[""img/mask48.png""],[""img/mask56.png""],[""img/mask45.png""],[""img/mask61.png""],[""img/mask73.png""],[""img/mask20.png""],[""img/mask38.png""],[""img/mask15.png""],[""img/mask9.png""],[""img/mask93.png""]]]","","[14,6,11,30,35,7,20,9,17,1,27,10,33,22,24,26,34,12,15,23,18,28,25,13,2,29,32,21,8,16,31,0,5,4,3,19]","main","228","many-guess-6"
"","","","","","html-keyboard-response","122","360526","0.0-10.0-1.51","5a7a1973000dab00018c3410","640759fa512f630a2bdc333d","6408c17f4374e9dd1d4d4fe5","null","","null","","","","","","","","","","","","","","","","","","","fixation","",""
"","","","","","many-guess-6","123","363401","0.0-10.0-0.52-0.52","5a7a1973000dab00018c3410","640759fa512f630a2bdc333d","6408c17f4374e9dd1d4d4fe5","[1289.2000000011176]","","","[30,0,26,27,16,19,8,24,2,13,25,5,18,31,15,35,12,11,7,21,9,23,33,1,32,22,34,6,20,28,29,14,17,3,10,4]","[16,186,26,146,156,196,126,66,86,306,36,216,56,96,336,6,316,226,286,76,206,136,326,46,256,116,345,296,246,236,276,355,166,106,266,176]","16","242","138.80732076663693","[138.80732076663693]","[256.80732076663696]","[255]","[210,300,210,30,210,30,30,300,120]","0","36","0","149.14999999961583","9.97599999961676","16","[[[""img/mask38.png""],[""img/mask86.png""],[""img/mask10.png""],[""img/mask99.png""],[""img/mask63.png""],[""img/mask98.png""],[""img/mask31.png""],[""img/mask88.png""],[""img/mask90.png""],[""img/mask91.png""],[""img/mask38.png""],[""img/mask8.png""],[""img/mask27.png""],[""img/mask98.png""],[""img/mask52.png""],[""img/mask28.png""],[""img/mask86.png""],[""img/mask25.png""],[""img/mask11.png""],[""img/mask40.png""],[""img/mask26.png""],[""img/mask15.png""],[""img/mask69.png""],[""img/mask2.png""],[""img/mask83.png""],[""img/mask19.png""],[""img/mask21.png""],[""img/mask31.png""],[""img/mask24.png""],[""img/mask47.png""],[""img/mask54.png""],[""img/mask73.png""],[""img/mask39.png""],[""img/mask3.png""],[""img/mask27.png""],[""img/mask61.png""]]]","","[30,0,26,27,16,19,8,24,2,13,25,5,18,31,15,35,12,11,7,21,9,23,33,1,32,22,34,6,20,28,29,14,17,3,10,4]","main","242","many-guess-6"
"","","","","","html-keyboard-response","124","363903","0.0-10.0-1.52","5a7a1973000dab00018c3410","640759fa512f630a2bdc333d","6408c17f4374e9dd1d4d4fe5","null","","null","","","","","","","","","","","","","","","","","","","fixation","",""
"","","","","","many-guess-6","125","367209","0.0-10.0-0.53-0.53","5a7a1973000dab00018c3410","640759fa512f630a2bdc333d","6408c17f4374e9dd1d4d4fe5","[1279.9000000003725]","","","[13,4,19,34,11,9,15,1,23,8,22,17,24,2,12,7,16,21,28,25,3,0,35,30,20,31,14,27,5,10,32,29,33,18,6,26]","[40,329,110,239,249,10,229,50,189,269,279,70,140,219,309,150,20,299,100,130,259,179,160,289,349,359,30,80,319,170,120,90,60,199,209,339]","40","317","211.52609506398323","[211.52609506398323]","[254.52609506398323]","[254]","[120,120,210,30,30,210,300,210,120]","0","36","0","148.96399999962887","13.079999999608845","16","[[[""img/mask52.png""],[""img/mask95.png""],[""img/mask43.png""],[""img/mask23.png""],[""img/mask69.png""],[""img/mask16.png""],[""img/mask17.png""],[""img/mask4.png""],[""img/mask9.png""],[""img/mask13.png""],[""img/mask50.png""],[""img/mask52.png""],[""img/mask92.png""],[""img/mask47.png""],[""img/mask98.png""],[""img/mask52.png""],[""img/mask85.png""],[""img/mask86.png""],[""img/mask16.png""],[""img/mask66.png""],[""img/mask96.png""],[""img/mask13.png""],[""img/mask13.png""],[""img/mask85.png""],[""img/mask20.png""],[""img/mask96.png""],[""img/mask95.png""],[""img/mask51.png""],[""img/mask55.png""],[""img/mask6.png""],[""img/mask18.png""],[""img/mask51.png""],[""img/mask6.png""],[""img/mask26.png""],[""img/mask28.png""],[""img/mask8.png""]]]","","[13,4,19,34,11,9,15,1,23,8,22,17,24,2,12,7,16,21,28,25,3,0,35,30,20,31,14,27,5,10,32,29,33,18,6,26]","main","317","many-guess-6"
"","","","","","html-keyboard-response","126","367711","0.0-10.0-1.53","5a7a1973000dab00018c3410","640759fa512f630a2bdc333d","6408c17f4374e9dd1d4d4fe5","null","","null","","","","","","","","","","","","","","","","","","","fixation","",""
"","","","","","many-guess-6","127","370051","0.0-10.0-0.54-0.54","5a7a1973000dab00018c3410","640759fa512f630a2bdc333d","6408c17f4374e9dd1d4d4fe5","[610.8000000007451]","","","[6,14,9,7,28,12,27,33,24,21,10,1,8,26,17,11,15,35,31,22,32,13,3,16,4,19,30,25,34,2,29,18,5,20,0,23]","[65,274,125,55,195,165,354,225,95,115,25,185,294,85,314,215,264,5,45,155,344,135,324,145,35,15,205,235,255,304,75,175,284,245,105,334]","65","348","46.868614560441664","[46.868614560441664]","[58.86861456044164]","[57]","[300,210,120,30,300,300,210,120,120]","0","36","0","147.36299999890616","17.223999998532236","16","[[[""img/mask52.png""],[""img/mask80.png""],[""img/mask95.png""],[""img/mask21.png""],[""img/mask88.png""],[""img/mask74.png""],[""img/mask60.png""],[""img/mask45.png""],[""img/mask94.png""],[""img/mask72.png""],[""img/mask2.png""],[""img/mask20.png""],[""img/mask16.png""],[""img/mask24.png""],[""img/mask74.png""],[""img/mask60.png""],[""img/mask31.png""],[""img/mask22.png""],[""img/mask29.png""],[""img/mask100.png""],[""img/mask33.png""],[""img/mask13.png""],[""img/mask96.png""],[""img/mask30.png""],[""img/mask6.png""],[""img/mask12.png""],[""img/mask84.png""],[""img/mask45.png""],[""img/mask64.png""],[""img/mask3.png""],[""img/mask48.png""],[""img/mask71.png""],[""img/mask96.png""],[""img/mask74.png""],[""img/mask76.png""],[""img/mask16.png""]]]","","[6,14,9,7,28,12,27,33,24,21,10,1,8,26,17,11,15,35,31,22,32,13,3,16,4,19,30,25,34,2,29,18,5,20,0,23]","main","348","many-guess-6"
"","","","","","html-keyboard-response","128","370553","0.0-10.0-1.54","5a7a1973000dab00018c3410","640759fa512f630a2bdc333d","6408c17f4374e9dd1d4d4fe5","null","","null","","","","","","","","","","","","","","","","","","","fixation","",""
"","","","","","color-precision2","129","374273","0.0-10.0-0.55-0.55","5a7a1973000dab00018c3410","640759fa512f630a2bdc333d","6408c17f4374e9dd1d4d4fe5","[520.6999999992549]","","","[23]","[237]","237","9","265.8346688178312","[265.8346688178312]","[256.8346688178312]","[257]","0","0","1","0","149.68699999997625","1006.3839999985066","1000","[[[""img/mask92.png""]]]","","","main","9","color-precision2"
"","","","","","html-keyboard-response","130","374774","0.0-10.0-1.55","5a7a1973000dab00018c3410","640759fa512f630a2bdc333d","6408c17f4374e9dd1d4d4fe5","null","","null","","","","","","","","","","","","","","","","","","","fixation","",""
"","","","","","color-precision2","131","377857","0.0-10.0-0.56-0.56","5a7a1973000dab00018c3410","640759fa512f630a2bdc333d","6408c17f4374e9dd1d4d4fe5","[375.59999999962747]","","","[16]","[357]","357","68","41.8474283271772","[41.8474283271772]","[333.8474283271772]","[332]","0","0","1","0","147.67399999889312","999.0329999988899","1000","[[[""img/mask37.png""]]]","","","main","68","color-precision2"
"","","","","","html-keyboard-response","132","378360","0.0-10.0-1.56","5a7a1973000dab00018c3410","640759fa512f630a2bdc333d","6408c17f4374e9dd1d4d4fe5","null","","null","","","","","","","","","","","","","","","","","","","fixation","",""
"","","","","","many-guess-6","133","381349","0.0-10.0-0.57-0.57","5a7a1973000dab00018c3410","640759fa512f630a2bdc333d","6408c17f4374e9dd1d4d4fe5","[1404.7000000011176]","","","[29,6,8,19,28,25,1,0,9,17,35,26,27,7,13,23,21,22,15,10,20,4,14,5,34,18,2,24,12,3,32,16,33,30,11,31]","[257,286,97,247,277,346,306,356,57,107,67,127,157,267,17,87,27,47,227,326,336,237,117,187,147,296,7,77,177,167,207,137,217,37,316,197]","257","329","214.13860208965394","[214.13860208965394]","[245.13860208965394]","[245]","[30,210,300,30,30,120,30,120,210]","0","36","0","148.9560000000056","12.431999999971595","16","[[[""img/mask60.png""],[""img/mask68.png""],[""img/mask33.png""],[""img/mask86.png""],[""img/mask29.png""],[""img/mask97.png""],[""img/mask35.png""],[""img/mask37.png""],[""img/mask61.png""],[""img/mask73.png""],[""img/mask37.png""],[""img/mask42.png""],[""img/mask29.png""],[""img/mask47.png""],[""img/mask51.png""],[""img/mask76.png""],[""img/mask55.png""],[""img/mask8.png""],[""img/mask65.png""],[""img/mask7.png""],[""img/mask95.png""],[""img/mask41.png""],[""img/mask64.png""],[""img/mask50.png""],[""img/mask58.png""],[""img/mask63.png""],[""img/mask16.png""],[""img/mask90.png""],[""img/mask12.png""],[""img/mask27.png""],[""img/mask1.png""],[""img/mask53.png""],[""img/mask79.png""],[""img/mask17.png""],[""img/mask35.png""],[""img/mask87.png""]]]","","[29,6,8,19,28,25,1,0,9,17,35,26,27,7,13,23,21,22,15,10,20,4,14,5,34,18,2,24,12,3,32,16,33,30,11,31]","main","329","many-guess-6"
"","","","","","html-keyboard-response","134","381851","0.0-10.0-1.57","5a7a1973000dab00018c3410","640759fa512f630a2bdc333d","6408c17f4374e9dd1d4d4fe5","null","","null","","","","","","","","","","","","","","","","","","","fixation","",""
"","","","","","color-precision2","135","386955","0.0-10.0-0.58-0.58","5a7a1973000dab00018c3410","640759fa512f630a2bdc333d","6408c17f4374e9dd1d4d4fe5","[2373.4000000003725]","","","[14]","[85]","85","356","53.26021752558423","[53.26021752558423]","[57.26021752558421]","[56]","0","0","1","0","147.54099999851314","1000.5309999985038","1000","[[[""img/mask35.png""]]]","","","main","356","color-precision2"
"","","","","","html-keyboard-response","136","387457","0.0-10.0-1.58","5a7a1973000dab00018c3410","640759fa512f630a2bdc333d","6408c17f4374e9dd1d4d4fe5","null","","null","","","","","","","","","","","","","","","","","","","fixation","",""
"","","","","","many-guess-6","137","390682","0.0-10.0-0.59-0.59","5a7a1973000dab00018c3410","640759fa512f630a2bdc333d","6408c17f4374e9dd1d4d4fe5","[1445.800000000745]","","","[17,34,18,15,35,25,5,21,13,4,9,20,26,22,23,31,29,33,27,30,7,1,32,3,12,16,14,11,19,28,2,0,10,6,8,24]","[245,155,345,86,165,96,6,255,295,146,26,185,175,36,225,56,136,235,106,335,275,76,66,325,315,126,215,205,16,195,355,116,46,305,265,285]","245","223","311.7188996162822","[311.7188996162822]","[88.71889961628221]","[89]","[30,300,120,300,210,300,300,120,210]","0","36","0","148.442999998515","12.485999999626074","16","[[[""img/mask40.png""],[""img/mask93.png""],[""img/mask38.png""],[""img/mask10.png""],[""img/mask17.png""],[""img/mask19.png""],[""img/mask12.png""],[""img/mask39.png""],[""img/mask45.png""],[""img/mask5.png""],[""img/mask48.png""],[""img/mask34.png""],[""img/mask59.png""],[""img/mask30.png""],[""img/mask26.png""],[""img/mask19.png""],[""img/mask93.png""],[""img/mask40.png""],[""img/mask50.png""],[""img/mask21.png""],[""img/mask70.png""],[""img/mask48.png""],[""img/mask20.png""],[""img/mask2.png""],[""img/mask89.png""],[""img/mask99.png""],[""img/mask89.png""],[""img/mask25.png""],[""img/mask30.png""],[""img/mask85.png""],[""img/mask56.png""],[""img/mask21.png""],[""img/mask8.png""],[""img/mask1.png""],[""img/mask29.png""],[""img/mask14.png""]]]","","[17,34,18,15,35,25,5,21,13,4,9,20,26,22,23,31,29,33,27,30,7,1,32,3,12,16,14,11,19,28,2,0,10,6,8,24]","main","223","many-guess-6"
"","","","","","html-keyboard-response","138","392979","0.0-10.0-1.59","5a7a1973000dab00018c3410","640759fa512f630a2bdc333d","6408c17f4374e9dd1d4d4fe5","2294.699999999255","Wow! You've completed 60 out of 180 trials! </p> <p>  </p><p> Take a quick break, then press any key when you're ready to continue."," ","","","","","","","","","","","","","","","","","","","fixation","",""
"","","","","","color-precision2","139","397042","0.0-10.0-0.60-0.60","5a7a1973000dab00018c3410","640759fa512f630a2bdc333d","6408c17f4374e9dd1d4d4fe5","[395.90000000037253]","","","[27]","[17]","17","341","337.9514607022487","[337.9514607022487]","[356.9514607022487]","[357]","0","0","1","0","147.87999999849126","996.9729999999981","1000","[[[""img/mask3.png""]]]","","","main","341","color-precision2"
"","","","","","html-keyboard-response","140","397544","0.0-10.0-1.60","5a7a1973000dab00018c3410","640759fa512f630a2bdc333d","6408c17f4374e9dd1d4d4fe5","null","","null","","","","","","","","","","","","","","","","","","","fixation","",""
"","","","","","many-guess-6","141","401002","0.0-10.0-0.61-0.61","5a7a1973000dab00018c3410","640759fa512f630a2bdc333d","6408c17f4374e9dd1d4d4fe5","[1343.199999999255]","","","[2,20,23,15,27,8,18,7,6,5,12,21,33,9,26,32,30,0,31,22,1,16,35,14,24,29,4,11,25,28,3,17,19,10,34,13]","[125,96,145,16,315,225,285,86,345,205,185,295,215,335,195,155,235,325,66,175,165,265,245,115,135,355,255,26,46,275,6,106,305,36,76,56]","125","279","299.7364852395359","[299.7364852395359]","[20.73648523953591]","[21]","[300,210,120,30,210,210,30,120,300]","0","36","0","148.78999999928055","18.284999999275897","16","[[[""img/mask100.png""],[""img/mask41.png""],[""img/mask40.png""],[""img/mask27.png""],[""img/mask92.png""],[""img/mask34.png""],[""img/mask78.png""],[""img/mask9.png""],[""img/mask7.png""],[""img/mask59.png""],[""img/mask93.png""],[""img/mask90.png""],[""img/mask8.png""],[""img/mask23.png""],[""img/mask43.png""],[""img/mask85.png""],[""img/mask52.png""],[""img/mask48.png""],[""img/mask85.png""],[""img/mask41.png""],[""img/mask100.png""],[""img/mask61.png""],[""img/mask14.png""],[""img/mask25.png""],[""img/mask91.png""],[""img/mask40.png""],[""img/mask61.png""],[""img/mask4.png""],[""img/mask56.png""],[""img/mask50.png""],[""img/mask45.png""],[""img/mask61.png""],[""img/mask19.png""],[""img/mask66.png""],[""img/mask81.png""],[""img/mask70.png""]]]","","[2,20,23,15,27,8,18,7,6,5,12,21,33,9,26,32,30,0,31,22,1,16,35,14,24,29,4,11,25,28,3,17,19,10,34,13]","main","279","many-guess-6"
"","","","","","html-keyboard-response","142","401504","0.0-10.0-1.61","5a7a1973000dab00018c3410","640759fa512f630a2bdc333d","6408c17f4374e9dd1d4d4fe5","null","","null","","","","","","","","","","","","","","","","","","","fixation","",""
"","","","","","many-guess-6","143","404138","0.0-10.0-0.62-0.62","5a7a1973000dab00018c3410","640759fa512f630a2bdc333d","6408c17f4374e9dd1d4d4fe5","[1115.6000000014901]","","","[35,17,8,12,32,11,31,34,25,19,23,1,7,5,27,21,28,16,15,3,30,24,0,26,18,9,4,20,13,22,29,14,33,6,2,10]","[299,269,179,39,189,309,239,249,89,358,229,318,149,79,59,289,279,119,19,348,29,69,259,338,129,9,328,219,139,159,199,49,209,169,109,99]","299","12","194.67312259079097","[194.67312259079097]","[182.67312259079097]","[182]","[120,120,210,30,120,120,30,300,30]","0","36","0","147.0810000000056","17.130999998538755","16","[[[""img/mask39.png""],[""img/mask72.png""],[""img/mask19.png""],[""img/mask23.png""],[""img/mask45.png""],[""img/mask54.png""],[""img/mask73.png""],[""img/mask73.png""],[""img/mask57.png""],[""img/mask99.png""],[""img/mask87.png""],[""img/mask42.png""],[""img/mask25.png""],[""img/mask56.png""],[""img/mask15.png""],[""img/mask16.png""],[""img/mask65.png""],[""img/mask53.png""],[""img/mask67.png""],[""img/mask22.png""],[""img/mask41.png""],[""img/mask87.png""],[""img/mask77.png""],[""img/mask93.png""],[""img/mask69.png""],[""img/mask49.png""],[""img/mask9.png""],[""img/mask34.png""],[""img/mask85.png""],[""img/mask3.png""],[""img/mask77.png""],[""img/mask19.png""],[""img/mask18.png""],[""img/mask73.png""],[""img/mask91.png""],[""img/mask24.png""]]]","","[35,17,8,12,32,11,31,34,25,19,23,1,7,5,27,21,28,16,15,3,30,24,0,26,18,9,4,20,13,22,29,14,33,6,2,10]","main","12","many-guess-6"
"","","","","","html-keyboard-response","144","404640","0.0-10.0-1.62","5a7a1973000dab00018c3410","640759fa512f630a2bdc333d","6408c17f4374e9dd1d4d4fe5","null","","null","","","","","","","","","","","","","","","","","","","fixation","",""
"","","","","","many-guess-6","145","408137","0.0-10.0-0.63-0.63","5a7a1973000dab00018c3410","640759fa512f630a2bdc333d","6408c17f4374e9dd1d4d4fe5","[1818.4000000003725]","","","[11,34,23,33,16,10,4,8,21,31,17,2,0,26,3,19,27,13,32,6,30,24,15,22,1,12,18,28,14,5,20,25,9,7,29,35]","[311,321,101,121,151,141,91,161,251,281,61,181,81,331,301,221,201,351,231,41,191,291,12,51,271,32,71,111,171,241,261,131,211,341,22,2]","311","42","13.0476380331061","[13.0476380331061]","[331.0476380331061]","[330]","[210,210,30,210,210,210,210,30,30]","0","36","0","148.25299999851268","22.174999998882413","16","[[[""img/mask29.png""],[""img/mask12.png""],[""img/mask20.png""],[""img/mask100.png""],[""img/mask60.png""],[""img/mask100.png""],[""img/mask55.png""],[""img/mask55.png""],[""img/mask20.png""],[""img/mask71.png""],[""img/mask23.png""],[""img/mask28.png""],[""img/mask76.png""],[""img/mask97.png""],[""img/mask42.png""],[""img/mask93.png""],[""img/mask100.png""],[""img/mask96.png""],[""img/mask37.png""],[""img/mask7.png""],[""img/mask65.png""],[""img/mask99.png""],[""img/mask10.png""],[""img/mask75.png""],[""img/mask93.png""],[""img/mask2.png""],[""img/mask61.png""],[""img/mask96.png""],[""img/mask89.png""],[""img/mask52.png""],[""img/mask70.png""],[""img/mask3.png""],[""img/mask35.png""],[""img/mask70.png""],[""img/mask1.png""],[""img/mask85.png""]]]","","[11,34,23,33,16,10,4,8,21,31,17,2,0,26,3,19,27,13,32,6,30,24,15,22,1,12,18,28,14,5,20,25,9,7,29,35]","main","42","many-guess-6"
"","","","","","html-keyboard-response","146","408652","0.0-10.0-1.63","5a7a1973000dab00018c3410","640759fa512f630a2bdc333d","6408c17f4374e9dd1d4d4fe5","null","","null","","","","","","","","","","","","","","","","","","","fixation","",""
"","","","","","many-guess-6","147","411785","0.0-10.0-0.64-0.64","5a7a1973000dab00018c3410","640759fa512f630a2bdc333d","6408c17f4374e9dd1d4d4fe5","[1237.2000000011176]","","","[13,2,31,14,0,28,11,16,33,29,6,18,7,26,19,17,3,20,15,27,35,9,32,22,5,21,34,12,23,30,25,4,8,1,24,10]","[81,351,32,171,131,291,22,61,181,191,51,41,201,221,321,111,2,12,161,241,341,141,91,211,261,251,151,301,231,311,271,101,121,331,281,71]","81","333","209.07831096166825","[209.07831096166825]","[236.07831096166825]","[236]","[30,30,300,300,300,30,300,210,210]","0","36","0","148.44999999849824","12.737999998906162","16","[[[""img/mask47.png""],[""img/mask7.png""],[""img/mask36.png""],[""img/mask76.png""],[""img/mask22.png""],[""img/mask84.png""],[""img/mask1.png""],[""img/mask4.png""],[""img/mask77.png""],[""img/mask19.png""],[""img/mask93.png""],[""img/mask12.png""],[""img/mask80.png""],[""img/mask56.png""],[""img/mask41.png""],[""img/mask57.png""],[""img/mask5.png""],[""img/mask91.png""],[""img/mask70.png""],[""img/mask74.png""],[""img/mask55.png""],[""img/mask48.png""],[""img/mask26.png""],[""img/mask79.png""],[""img/mask21.png""],[""img/mask48.png""],[""img/mask33.png""],[""img/mask7.png""],[""img/mask1.png""],[""img/mask82.png""],[""img/mask49.png""],[""img/mask69.png""],[""img/mask50.png""],[""img/mask7.png""],[""img/mask71.png""],[""img/mask51.png""]]]","","[13,2,31,14,0,28,11,16,33,29,6,18,7,26,19,17,3,20,15,27,35,9,32,22,5,21,34,12,23,30,25,4,8,1,24,10]","main","333","many-guess-6"
"","","","","","html-keyboard-response","148","412287","0.0-10.0-1.64","5a7a1973000dab00018c3410","640759fa512f630a2bdc333d","6408c17f4374e9dd1d4d4fe5","null","","null","","","","","","","","","","","","","","","","","","","fixation","",""
"","","","","","many-guess-6","149","416442","0.0-10.0-0.65-0.65","5a7a1973000dab00018c3410","640759fa512f630a2bdc333d","6408c17f4374e9dd1d4d4fe5","[2363.800000000745]","","","[13,21,17,15,25,31,7,27,23,19,5,1,34,11,30,22,35,18,8,2,4,26,6,16,9,3,28,12,24,20,0,33,14,29,32,10]","[119,259,69,169,59,129,19,359,219,79,349,139,9,289,159,199,329,29,149,339,249,309,179,279,229,209,269,189,39,109,299,89,239,49,99,319]","119","44","315.8486115496926","[315.8486115496926]","[271.8486115496926]","[272]","[120,300,210,210,210,210,120,210,30]","0","36","0","148.4430000000284","15.51499999925727","16","[[[""img/mask43.png""],[""img/mask82.png""],[""img/mask50.png""],[""img/mask81.png""],[""img/mask48.png""],[""img/mask98.png""],[""img/mask74.png""],[""img/mask34.png""],[""img/mask79.png""],[""img/mask70.png""],[""img/mask25.png""],[""img/mask32.png""],[""img/mask63.png""],[""img/mask12.png""],[""img/mask59.png""],[""img/mask25.png""],[""img/mask15.png""],[""img/mask37.png""],[""img/mask20.png""],[""img/mask91.png""],[""img/mask59.png""],[""img/mask51.png""],[""img/mask42.png""],[""img/mask95.png""],[""img/mask8.png""],[""img/mask76.png""],[""img/mask47.png""],[""img/mask11.png""],[""img/mask27.png""],[""img/mask75.png""],[""img/mask90.png""],[""img/mask92.png""],[""img/mask6.png""],[""img/mask35.png""],[""img/mask1.png""],[""img/mask10.png""]]]","","[13,21,17,15,25,31,7,27,23,19,5,1,34,11,30,22,35,18,8,2,4,26,6,16,9,3,28,12,24,20,0,33,14,29,32,10]","main","44","many-guess-6"
"","","","","","html-keyboard-response","150","416944","0.0-10.0-1.65","5a7a1973000dab00018c3410","640759fa512f630a2bdc333d","6408c17f4374e9dd1d4d4fe5","null","","null","","","","","","","","","","","","","","","","","","","fixation","",""
"","","","","","many-guess-6","151","420049","0.0-10.0-0.66-0.66","5a7a1973000dab00018c3410","640759fa512f630a2bdc333d","6408c17f4374e9dd1d4d4fe5","[1608.5999999996275]","","","[12,25,7,4,1,21,26,29,8,20,11,2,3,22,35,17,34,14,27,31,23,19,28,18,0,24,9,13,5,32,16,15,30,10,6,33]","[160,60,150,20,330,70,250,310,130,290,120,30,240,200,210,10,90,359,170,280,270,260,190,180,300,220,80,100,230,340,40,140,320,110,50,349]","160","274","188.19476855203382","[188.19476855203382]","[274.1947685520338]","[273]","[30,210,210,30,120,30,120,300,30]","0","36","0","148.8469999996014","16.358999999647494","16","[[[""img/mask84.png""],[""img/mask83.png""],[""img/mask77.png""],[""img/mask84.png""],[""img/mask33.png""],[""img/mask25.png""],[""img/mask58.png""],[""img/mask6.png""],[""img/mask71.png""],[""img/mask72.png""],[""img/mask34.png""],[""img/mask14.png""],[""img/mask50.png""],[""img/mask1.png""],[""img/mask82.png""],[""img/mask70.png""],[""img/mask38.png""],[""img/mask78.png""],[""img/mask63.png""],[""img/mask18.png""],[""img/mask94.png""],[""img/mask91.png""],[""img/mask54.png""],[""img/mask23.png""],[""img/mask8.png""],[""img/mask54.png""],[""img/mask66.png""],[""img/mask81.png""],[""img/mask49.png""],[""img/mask32.png""],[""img/mask84.png""],[""img/mask33.png""],[""img/mask61.png""],[""img/mask74.png""],[""img/mask31.png""],[""img/mask16.png""]]]","","[12,25,7,4,1,21,26,29,8,20,11,2,3,22,35,17,34,14,27,31,23,19,28,18,0,24,9,13,5,32,16,15,30,10,6,33]","main","274","many-guess-6"
"","","","","","html-keyboard-response","152","420552","0.0-10.0-1.66","5a7a1973000dab00018c3410","640759fa512f630a2bdc333d","6408c17f4374e9dd1d4d4fe5","null","","null","","","","","","","","","","","","","","","","","","","fixation","",""
"","","","","","color-precision2","153","424114","0.0-10.0-0.67-0.67","5a7a1973000dab00018c3410","640759fa512f630a2bdc333d","6408c17f4374e9dd1d4d4fe5","[494.59999999962747]","","","[28]","[218]","218","276","127.41772625258899","[127.41772625258899]","[211.41772625258898]","[210]","0","0","1","0","147.84599999850616","1004.2289999996428","1000","[[[""img/mask56.png""]]]","","","main","276","color-precision2"
"","","","","","html-keyboard-response","154","424616","0.0-10.0-1.67","5a7a1973000dab00018c3410","640759fa512f630a2bdc333d","6408c17f4374e9dd1d4d4fe5","null","","null","","","","","","","","","","","","","","","","","","","fixation","",""
"","","","","","color-precision2","155","427873","0.0-10.0-0.68-0.68","5a7a1973000dab00018c3410","640759fa512f630a2bdc333d","6408c17f4374e9dd1d4d4fe5","[391.90000000037253]","","","[28]","[281]","281","269","197.2288928692667","[197.2288928692667]","[288.2288928692667]","[288]","0","0","1","0","148.07099999999627","1007.936999999627","1000","[[[""img/mask81.png""]]]","","","main","269","color-precision2"
"","","","","","html-keyboard-response","156","428376","0.0-10.0-1.68","5a7a1973000dab00018c3410","640759fa512f630a2bdc333d","6408c17f4374e9dd1d4d4fe5","null","","null","","","","","","","","","","","","","","","","","","","fixation","",""
"","","","","","color-precision2","157","431126","0.0-10.0-0.69-0.69","5a7a1973000dab00018c3410","640759fa512f630a2bdc333d","6408c17f4374e9dd1d4d4fe5","[282.19999999925494]","","","[20]","[252]","252","8","266.2272557212311","[266.2272557212311]","[258.2272557212311]","[259]","0","0","1","0","148.47299999924144","1007.5409999988624","1000","[[[""img/mask94.png""]]]","","","main","8","color-precision2"
"","","","","","html-keyboard-response","158","431629","0.0-10.0-1.69","5a7a1973000dab00018c3410","640759fa512f630a2bdc333d","6408c17f4374e9dd1d4d4fe5","null","","null","","","","","","","","","","","","","","","","","","","fixation","",""
"","","","","","color-precision2","159","435299","0.0-10.0-0.70-0.70","5a7a1973000dab00018c3410","640759fa512f630a2bdc333d","6408c17f4374e9dd1d4d4fe5","[487.80000000074506]","","","[31]","[266]","266","289","210.63647318151286","[210.63647318151286]","[281.6364731815129]","[281]","0","0","1","0","146.34899999888148","994.1429999996326","1000","[[[""img/mask72.png""]]]","","","main","289","color-precision2"
"","","","","","html-keyboard-response","160","435804","0.0-10.0-1.70","5a7a1973000dab00018c3410","640759fa512f630a2bdc333d","6408c17f4374e9dd1d4d4fe5","null","","null","","","","","","","","","","","","","","","","","","","fixation","",""
"","","","","","many-guess-6","161","438702","0.0-10.0-0.71-0.71","5a7a1973000dab00018c3410","640759fa512f630a2bdc333d","6408c17f4374e9dd1d4d4fe5","[1231.7999999988824]","","","[22,18,31,5,8,7,3,2,0,19,14,30,16,26,32,11,28,27,12,29,10,24,35,15,33,17,1,20,9,23,34,4,6,21,25,13]","[180,140,190,299,50,90,309,339,130,120,210,289,359,239,259,40,329,30,349,160,269,100,230,10,279,60,80,110,150,170,200,220,249,70,20,319]","180","216","330.15916627905096","[330.15916627905096]","[114.15916627905096]","[114]","[300,30,30,120,30,300,120,210,300]","0","36","0","149.0920000000042","12.294999999227002","16","[[[""img/mask19.png""],[""img/mask72.png""],[""img/mask1.png""],[""img/mask73.png""],[""img/mask14.png""],[""img/mask52.png""],[""img/mask34.png""],[""img/mask67.png""],[""img/mask35.png""],[""img/mask93.png""],[""img/mask50.png""],[""img/mask16.png""],[""img/mask66.png""],[""img/mask32.png""],[""img/mask50.png""],[""img/mask6.png""],[""img/mask3.png""],[""img/mask21.png""],[""img/mask44.png""],[""img/mask23.png""],[""img/mask60.png""],[""img/mask48.png""],[""img/mask84.png""],[""img/mask32.png""],[""img/mask77.png""],[""img/mask13.png""],[""img/mask77.png""],[""img/mask98.png""],[""img/mask93.png""],[""img/mask63.png""],[""img/mask99.png""],[""img/mask92.png""],[""img/mask76.png""],[""img/mask74.png""],[""img/mask78.png""],[""img/mask69.png""]]]","","[22,18,31,5,8,7,3,2,0,19,14,30,16,26,32,11,28,27,12,29,10,24,35,15,33,17,1,20,9,23,34,4,6,21,25,13]","main","216","many-guess-6"
"","","","","","html-keyboard-response","162","439204","0.0-10.0-1.71","5a7a1973000dab00018c3410","640759fa512f630a2bdc333d","6408c17f4374e9dd1d4d4fe5","null","","null","","","","","","","","","","","","","","","","","","","fixation","",""
"","","","","","many-guess-6","163","442826","0.0-10.0-0.72-0.72","5a7a1973000dab00018c3410","640759fa512f630a2bdc333d","6408c17f4374e9dd1d4d4fe5","[1206.9000000003725]","","","[14,35,23,22,15,4,9,25,1,20,10,21,28,2,17,0,5,24,33,32,27,8,31,6,26,19,16,34,18,13,29,12,7,30,11,3]","[182,292,82,322,272,262,102,352,23,53,302,172,112,3,222,312,63,242,132,43,33,162,212,152,332,252,232,192,142,282,72,92,13,202,342,122]","182","175","215.05423650773182","[215.05423650773182]","[40.054236507731815]","[40]","[300,120,30,210,300,120,210,30,120]","0","36","0","149.16199999960372","15.167999999248423","16","[[[""img/mask34.png""],[""img/mask49.png""],[""img/mask88.png""],[""img/mask27.png""],[""img/mask93.png""],[""img/mask11.png""],[""img/mask14.png""],[""img/mask33.png""],[""img/mask69.png""],[""img/mask81.png""],[""img/mask22.png""],[""img/mask61.png""],[""img/mask23.png""],[""img/mask42.png""],[""img/mask66.png""],[""img/mask86.png""],[""img/mask43.png""],[""img/mask95.png""],[""img/mask17.png""],[""img/mask29.png""],[""img/mask81.png""],[""img/mask33.png""],[""img/mask84.png""],[""img/mask31.png""],[""img/mask9.png""],[""img/mask76.png""],[""img/mask87.png""],[""img/mask99.png""],[""img/mask51.png""],[""img/mask27.png""],[""img/mask16.png""],[""img/mask44.png""],[""img/mask40.png""],[""img/mask50.png""],[""img/mask83.png""],[""img/mask19.png""]]]","","[14,35,23,22,15,4,9,25,1,20,10,21,28,2,17,0,5,24,33,32,27,8,31,6,26,19,16,34,18,13,29,12,7,30,11,3]","main","175","many-guess-6"
"","","","","","html-keyboard-response","164","443333","0.0-10.0-1.72","5a7a1973000dab00018c3410","640759fa512f630a2bdc333d","6408c17f4374e9dd1d4d4fe5","null","","null","","","","","","","","","","","","","","","","","","","fixation","",""
"","","","","","color-precision2","165","447402","0.0-10.0-0.73-0.73","5a7a1973000dab00018c3410","640759fa512f630a2bdc333d","6408c17f4374e9dd1d4d4fe5","[319.90000000037253]","","","[20]","[56]","56","46","59.62756179707503","[59.62756179707503]","[13.627561797075032]","[12]","0","0","1","0","145.90399999852525","996.7039999992703","1000","[[[""img/mask80.png""]]]","","","main","46","color-precision2"
"","","","","","html-keyboard-response","166","447904","0.0-10.0-1.73","5a7a1973000dab00018c3410","640759fa512f630a2bdc333d","6408c17f4374e9dd1d4d4fe5","null","","null","","","","","","","","","","","","","","","","","","","fixation","",""
"","","","","","color-precision2","167","450881","0.0-10.0-0.74-0.74","5a7a1973000dab00018c3410","640759fa512f630a2bdc333d","6408c17f4374e9dd1d4d4fe5","[371.09999999962747]","","","[32]","[343]","343","143","129.54010823004606","[129.54010823004606]","[346.54010823004603]","[345]","0","0","1","0","142.193999999261","1002.0999999992782","1000","[[[""img/mask14.png""]]]","","","main","143","color-precision2"
"","","","","","html-keyboard-response","168","451383","0.0-10.0-1.74","5a7a1973000dab00018c3410","640759fa512f630a2bdc333d","6408c17f4374e9dd1d4d4fe5","null","","null","","","","","","","","","","","","","","","","","","","fixation","",""
