"success","timeout","failed_images","failed_audio","failed_video","trial_type","trial_index","time_elapsed","internal_node_id","subject_id","study_id","session_id","rt","stimulus","response","position_of_items","colors_of_items","color_of_target","wheel_spin","response_angle","physical_response_angle","reported_color_angle","reported_color_discrete","locs","which_test","set_size","wheel_num_options","actual_mask_duration","actual_stim_duration","CMDispTime","maskArray","maskRotation","item_positions","task","randomSpinAmount","mainTask"
"true","false","[]","[]","[]","preload","0","4242","0.0-0.0","5b6142d1f5bc590001184814","640759fa512f630a2bdc333d","6408c17f5ea59136b62acb33","","","","","","","","","","","","","","","","","","","","","","","",""
"true","","","","","fullscreen","1","8321","0.0-1.0","5b6142d1f5bc590001184814","640759fa512f630a2bdc333d","6408c17f5ea59136b62acb33","","","","","","","","","","","","","","","","","","","","","","","",""
"","","","","","html-keyboard-response","2","35229","0.0-2.0","5b6142d1f5bc590001184814","640759fa512f630a2bdc333d","6408c17f5ea59136b62acb33","26905.30000001192","What a beautiful Wednesday to do some awesome science! </p> <p>  </p><p> </p>
    By completing this survey or questionnaire, you are consenting to be in this research study. </p>
    Your participation is voluntary and you can stop at any time.<p> [Press any key to continue] </p>"," ","","","","","","","","","","","","","","","","","","","","",""
"","","","","","html-keyboard-response","3","45241","0.0-3.0","5b6142d1f5bc590001184814","640759fa512f630a2bdc333d","6408c17f5ea59136b62acb33","null","
    <div style='width: 1000px;'>
    <div style='float: center;'><img src='img/TaskInstructions1.png'></img>
    </div>
    ","null","","","","","","","","","","","","","","","","","","","","",""
"","","","","","html-keyboard-response","4","100706","0.0-4.0","5b6142d1f5bc590001184814","640759fa512f630a2bdc333d","6408c17f5ea59136b62acb33","55463.30000001192","
    <div style='width: 1000px;'>
    <div style='float: center;'><img src='img/TaskInstructions1.png'></img>
    </div>
    "," ","","","","","","","","","","","","","","","","","","","","",""
"","","","","","html-keyboard-response","5","110715","0.0-5.0","5b6142d1f5bc590001184814","640759fa512f630a2bdc333d","6408c17f5ea59136b62acb33","null","
    <div style='width: 1000px;'>
    <div style='float: center;'><img src='img/TaskInstructions2.png'></img>
    </div>
    ","null","","","","","","","","","","","","","","","","","","","","",""
"","","","","","html-keyboard-response","6","118174","0.0-6.0","5b6142d1f5bc590001184814","640759fa512f630a2bdc333d","6408c17f5ea59136b62acb33","7457.5","
    <div style='width: 1000px;'>
    <div style='float: center;'><img src='img/TaskInstructions2.png'></img>
    </div>
    "," ","","","","","","","","","","","","","","","","","","","","",""
"","","","","","video-keyboard-response","7","130206","0.0-7.0","5b6142d1f5bc590001184814","640759fa512f630a2bdc333d","6408c17f5ea59136b62acb33","12023.200000047684","[""video/TaskInstructions3.mp4""]"," ","","","","","","","","","","","","","","","","","","","","",""
"","","","","","image-keyboard-response","8","135292","0.0-8.0-0.0","5b6142d1f5bc590001184814","640759fa512f630a2bdc333d","6408c17f5ea59136b62acb33","5080.199999988079","img/training1.png"," ","","","","","","","","","","","","","","","","","","","","",""
"","","","","","color-precision2","9","149942","0.0-8.0-1.0-0.0","5b6142d1f5bc590001184814","640759fa512f630a2bdc333d","6408c17f5ea59136b62acb33","[6445.5]","","","[16]","[333]","333","259","227.2440744759312","[227.2440744759312]","[328.2440744759312]","[328]","0","0","1","0","498.7559999880905","992.4580000119167","1000","","","0","training","",""
"","","","","","image-keyboard-response","10","160275","0.0-8.0-0.1","5b6142d1f5bc590001184814","640759fa512f630a2bdc333d","6408c17f5ea59136b62acb33","10330.100000023842","img/training2.png"," ","","","","","","","","","","","","","","","","","","","","",""
"","","","","","many-guess-6","11","167541","0.0-8.0-1.1-0.1","5b6142d1f5bc590001184814","640759fa512f630a2bdc333d","6408c17f5ea59136b62acb33","[2178.800000011921]","","","[5,3,16]","[199,224,260]","199","9","236.23479031329646","[236.23479031329646]","[227.23479031329646]","[227]","[30,30,30,30,120,30,300,300,300,300,30,30,30,300,120,120,210,210,120,210,300,210,300,300,120,30,120,120,300,30,210,300,30,120,210,300]","0","3","0","1000.4970000357716","992.9139999999898","1000","[[[""img/mask70.png""],[""img/mask42.png""],[""img/mask70.png""]]]","","[5,3,16]","training","",""
"","","","","","image-keyboard-response","12","171134","0.0-8.0-0.2","5b6142d1f5bc590001184814","640759fa512f630a2bdc333d","6408c17f5ea59136b62acb33","3591.899999976158","img/training3.png"," ","","","","","","","","","","","","","","","","","","","","",""
"","","","","","[""many-guess-6""]","13","176884","0.0-8.0-1.2-0.2","5b6142d1f5bc590001184814","640759fa512f630a2bdc333d","6408c17f5ea59136b62acb33","[1698.9000000357628]","","","[11,10,4,31,32]","[344,43,297,256,307]","344","352","158.20615628415933","[158.20615628415933]","[166.20615628415933]","[165]","[210,30,120,210,210,210,120,30,120,120,120,210,210,120,210,120,120,120,30,120,210,30,300,300,210,30,210,210,30,300,300,120,300,30,120,120]","0","5","0","499.0139999999956","501.279000011913","500","[[[""img/mask28.png""],[""img/mask24.png""],[""img/mask87.png""],[""img/mask84.png""],[""img/mask50.png""]]]","","[11,10,4,31,32]","training","",""
"","","","","","image-keyboard-response","14","178883","0.0-8.0-0.3","5b6142d1f5bc590001184814","640759fa512f630a2bdc333d","6408c17f5ea59136b62acb33","1997.5","img/training4.png"," ","","","","","","","","","","","","","","","","","","","","",""
"","","","","","[""many-guess-6""]","15","184876","0.0-8.0-1.3-0.3","5b6142d1f5bc590001184814","640759fa512f630a2bdc333d","6408c17f5ea59136b62acb33","[3003.5]","","","[31,8,35,20,5,18,21,1,6,4]","[146,211,319,181,240,169,271,126,195,290]","146","155","318.6985712374039","[318.6985712374039]","[163.69857123740388]","[164]","[300,210,120,120,30,120,120,120,120,120,120,300,120,30,210,30,300,210,210,210,300,210,300,300,120,30,210,300,30,30,120,120,30,30,120,30]","0","10","0","132.4370000238414","140.10000002384186","132","[[[""img/mask4.png""],[""img/mask28.png""],[""img/mask34.png""],[""img/mask33.png""],[""img/mask55.png""],[""img/mask8.png""],[""img/mask93.png""],[""img/mask53.png""],[""img/mask44.png""],[""img/mask54.png""]]]","","[31,8,35,20,5,18,21,1,6,4]","training","",""
"","","","","","image-keyboard-response","16","189522","0.0-8.0-0.4","5b6142d1f5bc590001184814","640759fa512f630a2bdc333d","6408c17f5ea59136b62acb33","4644.199999988079","img/training5.png"," ","","","","","","","","","","","","","","","","","","","","",""
"","","","","","[""many-guess-6""]","17","195038","0.0-8.0-1.4-0.4","5b6142d1f5bc590001184814","640759fa512f630a2bdc333d","6408c17f5ea59136b62acb33","[2241.2999999523163]","","","[0,15,21,22,19,31,24,17,6,9,30,23,14,2,13,28,29,25,34,5,35,8,4,7,26,18,20,11,12,27,10,32,3,33,1,16]","[82,32,102,301,331,241,161,321,211,72,311,22,191,251,181,201,112,12,261,141,291,221,121,131,341,271,231,351,52,281,92,2,62,171,151,42]","82","214","239.54820471956856","[239.54820471956856]","[25.54820471956856]","[26]","[210,210,210,300,120,300,120,300,300,30,30,210,300,210,30,300,300,120,120,210,30,300,300,120,120,300,30,300,210,210,300,30,30,120,120,30]","0","36","0","133.16800000000512","32.94400001192116","16","[[[""img/mask68.png""],[""img/mask22.png""],[""img/mask75.png""],[""img/mask92.png""],[""img/mask20.png""],[""img/mask86.png""],[""img/mask100.png""],[""img/mask28.png""],[""img/mask32.png""],[""img/mask55.png""],[""img/mask65.png""],[""img/mask65.png""],[""img/mask20.png""],[""img/mask83.png""],[""img/mask81.png""],[""img/mask83.png""],[""img/mask36.png""],[""img/mask22.png""],[""img/mask29.png""],[""img/mask37.png""],[""img/mask54.png""],[""img/mask35.png""],[""img/mask69.png""],[""img/mask71.png""],[""img/mask24.png""],[""img/mask75.png""],[""img/mask97.png""],[""img/mask37.png""],[""img/mask43.png""],[""img/mask25.png""],[""img/mask9.png""],[""img/mask62.png""],[""img/mask3.png""],[""img/mask82.png""],[""img/mask4.png""],[""img/mask6.png""]]]","","[0,15,21,22,19,31,24,17,6,9,30,23,14,2,13,28,29,25,34,5,35,8,4,7,26,18,20,11,12,27,10,32,3,33,1,16]","training","",""
"","","","","","image-keyboard-response","18","200663","0.0-9.0","5b6142d1f5bc590001184814","640759fa512f630a2bdc333d","6408c17f5ea59136b62acb33","5624.099999964237","[""img/endTraining.png""]"," ","","","","","","","","","","","","","","","","","","","","",""
"","","","","","color-precision2","19","205950","0.0-10.0-0.0-0.0","5b6142d1f5bc590001184814","640759fa512f630a2bdc333d","6408c17f5ea59136b62acb33","[1728.1000000238419]","","","[30]","[47]","47","275","308.0842285294063","[308.0842285294063]","[33.08422852940629]","[33]","0","0","1","0","148.73699998809025","1006.2479999999923","1000","[[[""img/mask93.png""]]]","","","main","275","color-precision2"
"","","","","","html-keyboard-response","20","206453","0.0-10.0-1.0","5b6142d1f5bc590001184814","640759fa512f630a2bdc333d","6408c17f5ea59136b62acb33","null","","null","","","","","","","","","","","","","","","","","","","fixation","",""
"","","","","","color-precision2","21","210529","0.0-10.0-0.1-0.1","5b6142d1f5bc590001184814","640759fa512f630a2bdc333d","6408c17f5ea59136b62acb33","[903.5]","","","[5]","[313]","313","266","244.294691082552","[244.294691082552]","[338.294691082552]","[338]","0","0","1","0","147.87299998808885","995.8969999880646","1000","[[[""img/mask43.png""]]]","","","main","266","color-precision2"
"","","","","","html-keyboard-response","22","211031","0.0-10.0-1.1","5b6142d1f5bc590001184814","640759fa512f630a2bdc333d","6408c17f5ea59136b62acb33","null","","null","","","","","","","","","","","","","","","","","","","fixation","",""
"","","","","","many-guess-6","23","216249","0.0-10.0-0.2-0.2","5b6142d1f5bc590001184814","640759fa512f630a2bdc333d","6408c17f5ea59136b62acb33","[2271.199999988079]","","","[26,5,6,35,34,28,11,15,14,23,7,30,33,9,17,18,16,12,21,1,29,10,32,31,13,8,4,19,24,20,25,27,0,22,3,2]","[298,189,39,338,19,9,179,348,229,219,328,159,139,268,29,358,249,239,199,59,169,209,89,259,318,119,278,99,109,308,149,49,79,129,69,288]","298","26","52.88928903367406","[52.88928903367406]","[26.88928903367406]","[25]","[30,120,210,210,120,300,120,120,30]","0","36","0","146.75700000001234","16.686999988072785","16","[[[""img/mask9.png""],[""img/mask63.png""],[""img/mask95.png""],[""img/mask87.png""],[""img/mask10.png""],[""img/mask22.png""],[""img/mask90.png""],[""img/mask47.png""],[""img/mask49.png""],[""img/mask36.png""],[""img/mask34.png""],[""img/mask25.png""],[""img/mask64.png""],[""img/mask68.png""],[""img/mask73.png""],[""img/mask35.png""],[""img/mask95.png""],[""img/mask34.png""],[""img/mask20.png""],[""img/mask51.png""],[""img/mask50.png""],[""img/mask31.png""],[""img/mask64.png""],[""img/mask56.png""],[""img/mask31.png""],[""img/mask9.png""],[""img/mask76.png""],[""img/mask69.png""],[""img/mask22.png""],[""img/mask87.png""],[""img/mask66.png""],[""img/mask91.png""],[""img/mask67.png""],[""img/mask41.png""],[""img/mask17.png""],[""img/mask43.png""]]]","","[26,5,6,35,34,28,11,15,14,23,7,30,33,9,17,18,16,12,21,1,29,10,32,31,13,8,4,19,24,20,25,27,0,22,3,2]","main","26","many-guess-6"
"","","","","","html-keyboard-response","24","216751","0.0-10.0-1.2","5b6142d1f5bc590001184814","640759fa512f630a2bdc333d","6408c17f5ea59136b62acb33","null","","null","","","","","","","","","","","","","","","","","","","fixation","",""
"","","","","","many-guess-6","25","219941","0.0-10.0-0.3-0.3","5b6142d1f5bc590001184814","640759fa512f630a2bdc333d","6408c17f5ea59136b62acb33","[1360.3999999761581]","","","[21,5,13,15,7,12,24,34,23,4,14,26,25,2,9,17,11,29,27,8,6,19,20,33,18,1,30,16,3,22,10,28,35,32,0,31]","[105,324,264,354,35,145,5,224,85,155,55,214,75,234,254,185,344,304,45,314,334,115,175,195,244,284,65,274,294,15,95,165,204,25,135,125]","105","106","275.32152031772176","[275.32152031772176]","[169.32152031772176]","[170]","[30,300,120,300,120,300,30,210,210]","0","36","0","149.38500003574882","12.567000011913478","16","[[[""img/mask97.png""],[""img/mask34.png""],[""img/mask96.png""],[""img/mask40.png""],[""img/mask74.png""],[""img/mask52.png""],[""img/mask82.png""],[""img/mask72.png""],[""img/mask39.png""],[""img/mask46.png""],[""img/mask95.png""],[""img/mask66.png""],[""img/mask57.png""],[""img/mask80.png""],[""img/mask34.png""],[""img/mask4.png""],[""img/mask15.png""],[""img/mask92.png""],[""img/mask85.png""],[""img/mask100.png""],[""img/mask15.png""],[""img/mask76.png""],[""img/mask32.png""],[""img/mask11.png""],[""img/mask23.png""],[""img/mask19.png""],[""img/mask46.png""],[""img/mask41.png""],[""img/mask26.png""],[""img/mask59.png""],[""img/mask57.png""],[""img/mask65.png""],[""img/mask39.png""],[""img/mask99.png""],[""img/mask99.png""],[""img/mask60.png""]]]","","[21,5,13,15,7,12,24,34,23,4,14,26,25,2,9,17,11,29,27,8,6,19,20,33,18,1,30,16,3,22,10,28,35,32,0,31]","main","106","many-guess-6"
"","","","","","html-keyboard-response","26","220443","0.0-10.0-1.3","5b6142d1f5bc590001184814","640759fa512f630a2bdc333d","6408c17f5ea59136b62acb33","null","","null","","","","","","","","","","","","","","","","","","","fixation","",""
"","","","","","many-guess-6","27","224109","0.0-10.0-0.4-0.4","5b6142d1f5bc590001184814","640759fa512f630a2bdc333d","6408c17f5ea59136b62acb33","[1759.3999999761581]","","","[18,13,0,11,17,33,8,19,28,9,15,22,7,29,30,2,27,20,10,6,31,16,32,24,23,14,35,4,34,5,25,1,3,21,12,26]","[96,86,16,106,226,146,26,276,6,286,46,236,56,126,336,36,176,206,246,316,156,296,76,216,66,355,116,326,166,266,306,196,256,186,345,136]","96","115","232.92162161300797","[232.92162161300797]","[117.92162161300797]","[118]","[300,30,210,30,30,120,210,30,30]","0","36","0","149.36400002383743","17.13600002383464","16","[[[""img/mask24.png""],[""img/mask74.png""],[""img/mask56.png""],[""img/mask22.png""],[""img/mask47.png""],[""img/mask12.png""],[""img/mask94.png""],[""img/mask34.png""],[""img/mask78.png""],[""img/mask97.png""],[""img/mask49.png""],[""img/mask46.png""],[""img/mask45.png""],[""img/mask72.png""],[""img/mask56.png""],[""img/mask23.png""],[""img/mask61.png""],[""img/mask43.png""],[""img/mask66.png""],[""img/mask15.png""],[""img/mask39.png""],[""img/mask79.png""],[""img/mask39.png""],[""img/mask76.png""],[""img/mask1.png""],[""img/mask23.png""],[""img/mask37.png""],[""img/mask48.png""],[""img/mask35.png""],[""img/mask23.png""],[""img/mask70.png""],[""img/mask55.png""],[""img/mask61.png""],[""img/mask47.png""],[""img/mask71.png""],[""img/mask29.png""]]]","","[18,13,0,11,17,33,8,19,28,9,15,22,7,29,30,2,27,20,10,6,31,16,32,24,23,14,35,4,34,5,25,1,3,21,12,26]","main","115","many-guess-6"
"","","","","","html-keyboard-response","28","224611","0.0-10.0-1.4","5b6142d1f5bc590001184814","640759fa512f630a2bdc333d","6408c17f5ea59136b62acb33","null","","null","","","","","","","","","","","","","","","","","","","fixation","",""
"","","","","","color-precision2","29","228063","0.0-10.0-0.5-0.5","5b6142d1f5bc590001184814","640759fa512f630a2bdc333d","6408c17f5ea59136b62acb33","[674.7000000476837]","","","[25]","[318]","318","275","247.1809248739316","[247.1809248739316]","[332.1809248739316]","[332]","0","0","1","0","147.43500001193024","993.2660000119067","1000","[[[""img/mask60.png""]]]","","","main","275","color-precision2"
"","","","","","html-keyboard-response","30","228564","0.0-10.0-1.5","5b6142d1f5bc590001184814","640759fa512f630a2bdc333d","6408c17f5ea59136b62acb33","null","","null","","","","","","","","","","","","","","","","","","","fixation","",""
"","","","","","many-guess-6","31","232533","0.0-10.0-0.6-0.6","5b6142d1f5bc590001184814","640759fa512f630a2bdc333d","6408c17f5ea59136b62acb33","[1544]","","","[26,2,27,25,13,17,28,34,30,5,9,20,33,35,4,15,29,10,7,12,32,22,14,6,1,23,3,24,21,19,11,18,0,16,8,31]","[315,305,106,345,155,135,46,115,86,6,275,36,325,255,165,265,16,185,195,96,295,76,225,26,335,235,145,125,175,245,215,355,205,56,66,285]","315","302","316.4264107642868","[316.4264107642868]","[14.4264107642868]","[14]","[30,300,210,30,120,30,300,210,30]","0","36","0","149.25700000001234","13.297000035759993","16","[[[""img/mask35.png""],[""img/mask63.png""],[""img/mask13.png""],[""img/mask25.png""],[""img/mask89.png""],[""img/mask47.png""],[""img/mask82.png""],[""img/mask15.png""],[""img/mask41.png""],[""img/mask38.png""],[""img/mask66.png""],[""img/mask7.png""],[""img/mask12.png""],[""img/mask8.png""],[""img/mask77.png""],[""img/mask38.png""],[""img/mask50.png""],[""img/mask69.png""],[""img/mask65.png""],[""img/mask54.png""],[""img/mask34.png""],[""img/mask78.png""],[""img/mask28.png""],[""img/mask12.png""],[""img/mask26.png""],[""img/mask60.png""],[""img/mask1.png""],[""img/mask49.png""],[""img/mask48.png""],[""img/mask56.png""],[""img/mask10.png""],[""img/mask3.png""],[""img/mask11.png""],[""img/mask6.png""],[""img/mask87.png""],[""img/mask61.png""]]]","","[26,2,27,25,13,17,28,34,30,5,9,20,33,35,4,15,29,10,7,12,32,22,14,6,1,23,3,24,21,19,11,18,0,16,8,31]","main","302","many-guess-6"
"","","","","","html-keyboard-response","32","233035","0.0-10.0-1.6","5b6142d1f5bc590001184814","640759fa512f630a2bdc333d","6408c17f5ea59136b62acb33","null","","null","","","","","","","","","","","","","","","","","","","fixation","",""
"","","","","","many-guess-6","33","237404","0.0-10.0-0.7-0.7","5b6142d1f5bc590001184814","640759fa512f630a2bdc333d","6408c17f5ea59136b62acb33","[2463]","","","[29,2,0,22,4,34,3,21,33,25,14,30,9,6,8,11,20,35,13,12,31,32,16,17,19,23,5,26,28,15,24,27,10,18,7,1]","[25,55,344,155,105,75,245,65,185,145,225,205,165,125,354,95,315,115,215,195,5,324,255,85,175,15,235,45,295,265,334,275,135,285,305,35]","25","54","49.60343099411204","[49.60343099411204]","[355.60343099411205]","[354]","[300,300,120,120,30,210,210,30,300]","0","36","0","149.7659999880707","13.236999988090247","16","[[[""img/mask45.png""],[""img/mask51.png""],[""img/mask84.png""],[""img/mask57.png""],[""img/mask27.png""],[""img/mask11.png""],[""img/mask37.png""],[""img/mask48.png""],[""img/mask68.png""],[""img/mask36.png""],[""img/mask57.png""],[""img/mask69.png""],[""img/mask66.png""],[""img/mask91.png""],[""img/mask18.png""],[""img/mask17.png""],[""img/mask21.png""],[""img/mask52.png""],[""img/mask42.png""],[""img/mask39.png""],[""img/mask75.png""],[""img/mask77.png""],[""img/mask83.png""],[""img/mask67.png""],[""img/mask39.png""],[""img/mask100.png""],[""img/mask9.png""],[""img/mask4.png""],[""img/mask88.png""],[""img/mask74.png""],[""img/mask72.png""],[""img/mask45.png""],[""img/mask65.png""],[""img/mask95.png""],[""img/mask75.png""],[""img/mask5.png""]]]","","[29,2,0,22,4,34,3,21,33,25,14,30,9,6,8,11,20,35,13,12,31,32,16,17,19,23,5,26,28,15,24,27,10,18,7,1]","main","54","many-guess-6"
"","","","","","html-keyboard-response","34","237906","0.0-10.0-1.7","5b6142d1f5bc590001184814","640759fa512f630a2bdc333d","6408c17f5ea59136b62acb33","null","","null","","","","","","","","","","","","","","","","","","","fixation","",""
"","","","","","many-guess-6","35","241854","0.0-10.0-0.8-0.8","5b6142d1f5bc590001184814","640759fa512f630a2bdc333d","6408c17f5ea59136b62acb33","[2074.699999988079]","","","[13,33,35,9,1,6,18,5,29,8,15,7,34,28,30,16,22,19,0,26,14,25,17,23,3,27,11,12,24,10,2,20,32,21,4,31]","[325,126,66,26,56,136,106,345,275,305,205,166,116,146,355,225,176,215,96,265,86,315,195,245,186,285,255,46,235,76,335,295,36,156,6,16]","325","182","319.05469646821797","[319.05469646821797]","[137.05469646821797]","[138]","[120,120,30,300,210,300,300,210,120]","0","36","0","152.02899998807698","33.96799999999348","16","[[[""img/mask52.png""],[""img/mask10.png""],[""img/mask47.png""],[""img/mask78.png""],[""img/mask84.png""],[""img/mask5.png""],[""img/mask47.png""],[""img/mask72.png""],[""img/mask23.png""],[""img/mask40.png""],[""img/mask58.png""],[""img/mask67.png""],[""img/mask17.png""],[""img/mask93.png""],[""img/mask74.png""],[""img/mask74.png""],[""img/mask95.png""],[""img/mask6.png""],[""img/mask82.png""],[""img/mask67.png""],[""img/mask56.png""],[""img/mask36.png""],[""img/mask30.png""],[""img/mask98.png""],[""img/mask100.png""],[""img/mask12.png""],[""img/mask88.png""],[""img/mask95.png""],[""img/mask10.png""],[""img/mask51.png""],[""img/mask30.png""],[""img/mask12.png""],[""img/mask14.png""],[""img/mask82.png""],[""img/mask39.png""],[""img/mask38.png""]]]","","[13,33,35,9,1,6,18,5,29,8,15,7,34,28,30,16,22,19,0,26,14,25,17,23,3,27,11,12,24,10,2,20,32,21,4,31]","main","182","many-guess-6"
"","","","","","html-keyboard-response","36","242355","0.0-10.0-1.8","5b6142d1f5bc590001184814","640759fa512f630a2bdc333d","6408c17f5ea59136b62acb33","null","","null","","","","","","","","","","","","","","","","","","","fixation","",""
"","","","","","color-precision2","37","245546","0.0-10.0-0.9-0.9","5b6142d1f5bc590001184814","640759fa512f630a2bdc333d","6408c17f5ea59136b62acb33","[363.10000002384186]","","","[26]","[166]","166","310","124.20976000272623","[124.20976000272623]","[174.20976000272623]","[172]","0","0","1","0","147.91000002383953","1000.1940000119212","1000","[[[""img/mask35.png""]]]","","","main","310","color-precision2"
"","","","","","html-keyboard-response","38","246048","0.0-10.0-1.9","5b6142d1f5bc590001184814","640759fa512f630a2bdc333d","6408c17f5ea59136b62acb33","null","","null","","","","","","","","","","","","","","","","","","","fixation","",""
"","","","","","many-guess-6","39","249799","0.0-10.0-0.10-0.10","5b6142d1f5bc590001184814","640759fa512f630a2bdc333d","6408c17f5ea59136b62acb33","[1581.300000011921]","","","[18,16,20,21,2,27,34,22,31,1,13,3,11,0,24,12,30,7,17,4,23,33,26,25,32,28,35,9,5,29,14,10,19,15,8,6]","[237,17,267,57,177,187,227,67,346,197,217,297,326,37,77,97,117,287,127,167,247,307,257,356,47,137,336,87,27,147,277,107,157,207,316,7]","237","190","216.18659412937376","[216.18659412937376]","[26.18659412937376]","[26]","[210,210,120,120,120,210,210,300,210]","0","36","0","148.97800002383883","16.685999988083495","16","[[[""img/mask85.png""],[""img/mask54.png""],[""img/mask19.png""],[""img/mask35.png""],[""img/mask2.png""],[""img/mask84.png""],[""img/mask12.png""],[""img/mask91.png""],[""img/mask35.png""],[""img/mask100.png""],[""img/mask56.png""],[""img/mask96.png""],[""img/mask26.png""],[""img/mask68.png""],[""img/mask52.png""],[""img/mask73.png""],[""img/mask60.png""],[""img/mask29.png""],[""img/mask26.png""],[""img/mask98.png""],[""img/mask1.png""],[""img/mask24.png""],[""img/mask44.png""],[""img/mask100.png""],[""img/mask20.png""],[""img/mask43.png""],[""img/mask60.png""],[""img/mask7.png""],[""img/mask31.png""],[""img/mask5.png""],[""img/mask91.png""],[""img/mask54.png""],[""img/mask72.png""],[""img/mask61.png""],[""img/mask37.png""],[""img/mask80.png""]]]","","[18,16,20,21,2,27,34,22,31,1,13,3,11,0,24,12,30,7,17,4,23,33,26,25,32,28,35,9,5,29,14,10,19,15,8,6]","main","190","many-guess-6"
"","","","","","html-keyboard-response","40","250302","0.0-10.0-1.10","5b6142d1f5bc590001184814","640759fa512f630a2bdc333d","6408c17f5ea59136b62acb33","null","","null","","","","","","","","","","","","","","","","","","","fixation","",""
"","","","","","color-precision2","41","254495","0.0-10.0-0.11-0.11","5b6142d1f5bc590001184814","640759fa512f630a2bdc333d","6408c17f5ea59136b62acb33","[923]","","","[13]","[99]","99","63","155.51925523340591","[155.51925523340591]","[92.51925523340591]","[91]","0","0","1","0","148.30200002383208","1002.4830000238435","1000","[[[""img/mask3.png""]]]","","","main","63","color-precision2"
"","","","","","html-keyboard-response","42","254997","0.0-10.0-1.11","5b6142d1f5bc590001184814","640759fa512f630a2bdc333d","6408c17f5ea59136b62acb33","null","","null","","","","","","","","","","","","","","","","","","","fixation","",""
"","","","","","many-guess-6","43","258263","0.0-10.0-0.12-0.12","5b6142d1f5bc590001184814","640759fa512f630a2bdc333d","6408c17f5ea59136b62acb33","[1239.699999988079]","","","[7,30,8,2,24,15,28,17,1,29,18,35,0,21,25,10,14,20,32,26,6,27,19,33,34,31,11,5,13,23,3,4,22,9,12,16]","[225,195,345,26,335,125,275,215,245,165,6,85,16,185,295,355,105,65,75,175,285,235,155,115,305,325,145,46,205,36,55,95,265,135,255,315]","225","209","24.09894824903953","[24.09894824903953]","[175.09894824903952]","[174]","[120,30,300,210,120,300,120,300,210]","0","36","0","148.78600001192535","24.147000023833243","16","[[[""img/mask81.png""],[""img/mask55.png""],[""img/mask20.png""],[""img/mask85.png""],[""img/mask94.png""],[""img/mask20.png""],[""img/mask65.png""],[""img/mask15.png""],[""img/mask17.png""],[""img/mask44.png""],[""img/mask97.png""],[""img/mask48.png""],[""img/mask39.png""],[""img/mask14.png""],[""img/mask45.png""],[""img/mask98.png""],[""img/mask11.png""],[""img/mask50.png""],[""img/mask95.png""],[""img/mask20.png""],[""img/mask27.png""],[""img/mask81.png""],[""img/mask1.png""],[""img/mask34.png""],[""img/mask7.png""],[""img/mask66.png""],[""img/mask86.png""],[""img/mask61.png""],[""img/mask3.png""],[""img/mask18.png""],[""img/mask56.png""],[""img/mask9.png""],[""img/mask2.png""],[""img/mask81.png""],[""img/mask76.png""],[""img/mask42.png""]]]","","[7,30,8,2,24,15,28,17,1,29,18,35,0,21,25,10,14,20,32,26,6,27,19,33,34,31,11,5,13,23,3,4,22,9,12,16]","main","209","many-guess-6"
"","","","","","html-keyboard-response","44","258764","0.0-10.0-1.12","5b6142d1f5bc590001184814","640759fa512f630a2bdc333d","6408c17f5ea59136b62acb33","null","","null","","","","","","","","","","","","","","","","","","","fixation","",""
"","","","","","many-guess-6","45","262865","0.0-10.0-0.13-0.13","5b6142d1f5bc590001184814","640759fa512f630a2bdc333d","6408c17f5ea59136b62acb33","[2172]","","","[5,20,13,10,6,4,22,24,23,25,35,33,19,15,30,26,12,32,21,18,27,11,7,29,0,8,17,31,3,9,2,28,14,34,16,1]","[111,240,300,101,170,41,51,200,150,210,11,330,320,190,220,340,121,31,250,21,140,290,270,160,280,61,350,81,310,260,71,91,180,230,1,131]","111","231","267.1239064015926","[267.1239064015926]","[36.12390640159259]","[36]","[30,120,210,120,30,300,120,120,210]","0","36","0","149.4079999999958","11.110000023851171","16","[[[""img/mask57.png""],[""img/mask29.png""],[""img/mask81.png""],[""img/mask16.png""],[""img/mask34.png""],[""img/mask19.png""],[""img/mask46.png""],[""img/mask12.png""],[""img/mask5.png""],[""img/mask88.png""],[""img/mask18.png""],[""img/mask89.png""],[""img/mask6.png""],[""img/mask26.png""],[""img/mask63.png""],[""img/mask59.png""],[""img/mask61.png""],[""img/mask5.png""],[""img/mask79.png""],[""img/mask64.png""],[""img/mask94.png""],[""img/mask47.png""],[""img/mask49.png""],[""img/mask28.png""],[""img/mask28.png""],[""img/mask91.png""],[""img/mask34.png""],[""img/mask24.png""],[""img/mask30.png""],[""img/mask63.png""],[""img/mask100.png""],[""img/mask30.png""],[""img/mask49.png""],[""img/mask3.png""],[""img/mask22.png""],[""img/mask37.png""]]]","","[5,20,13,10,6,4,22,24,23,25,35,33,19,15,30,26,12,32,21,18,27,11,7,29,0,8,17,31,3,9,2,28,14,34,16,1]","main","231","many-guess-6"
"","","","","","html-keyboard-response","46","263367","0.0-10.0-1.13","5b6142d1f5bc590001184814","640759fa512f630a2bdc333d","6408c17f5ea59136b62acb33","null","","null","","","","","","","","","","","","","","","","","","","fixation","",""
"","","","","","color-precision2","47","266873","0.0-10.0-0.14-0.14","5b6142d1f5bc590001184814","640759fa512f630a2bdc333d","6408c17f5ea59136b62acb33","[708.5]","","","[21]","[5]","5","287","284.18502428448085","[284.18502428448085]","[357.18502428448085]","[357]","0","0","1","0","147.95300001191208","996.7920000357553","1000","[[[""img/mask53.png""]]]","","","main","287","color-precision2"
"","","","","","html-keyboard-response","48","267375","0.0-10.0-1.14","5b6142d1f5bc590001184814","640759fa512f630a2bdc333d","6408c17f5ea59136b62acb33","null","","null","","","","","","","","","","","","","","","","","","","fixation","",""
"","","","","","color-precision2","49","270851","0.0-10.0-0.15-0.15","5b6142d1f5bc590001184814","640759fa512f630a2bdc333d","6408c17f5ea59136b62acb33","[367.2000000476837]","","","[5]","[204]","204","39","235.86056903943268","[235.86056903943268]","[196.86056903943268]","[198]","0","0","1","0","147.9230000238167","997.08200002386","1000","[[[""img/mask33.png""]]]","","","main","39","color-precision2"
"","","","","","html-keyboard-response","50","271353","0.0-10.0-1.15","5b6142d1f5bc590001184814","640759fa512f630a2bdc333d","6408c17f5ea59136b62acb33","null","","null","","","","","","","","","","","","","","","","","","","fixation","",""
"","","","","","many-guess-6","51","275499","0.0-10.0-0.16-0.16","5b6142d1f5bc590001184814","640759fa512f630a2bdc333d","6408c17f5ea59136b62acb33","[2230.800000011921]","","","[24,18,14,9,32,25,1,8,4,30,23,0,6,19,7,27,11,16,21,17,31,13,2,33,10,34,12,20,28,5,15,3,26,29,35,22]","[328,49,278,338,39,209,19,259,199,229,139,249,189,129,9,89,308,318,79,348,219,29,268,169,59,179,109,149,69,298,358,288,159,99,239,119]","328","354","4.222355206928955","[4.222355206928955]","[10.222355206928967]","[9]","[300,120,300,120,210,120,120,300,30]","0","36","0","149.47799998807022","16.181999999971595","16","[[[""img/mask60.png""],[""img/mask58.png""],[""img/mask22.png""],[""img/mask71.png""],[""img/mask36.png""],[""img/mask80.png""],[""img/mask37.png""],[""img/mask25.png""],[""img/mask19.png""],[""img/mask73.png""],[""img/mask57.png""],[""img/mask22.png""],[""img/mask49.png""],[""img/mask98.png""],[""img/mask23.png""],[""img/mask73.png""],[""img/mask59.png""],[""img/mask64.png""],[""img/mask87.png""],[""img/mask98.png""],[""img/mask78.png""],[""img/mask48.png""],[""img/mask42.png""],[""img/mask12.png""],[""img/mask40.png""],[""img/mask39.png""],[""img/mask79.png""],[""img/mask66.png""],[""img/mask70.png""],[""img/mask91.png""],[""img/mask87.png""],[""img/mask62.png""],[""img/mask28.png""],[""img/mask62.png""],[""img/mask55.png""],[""img/mask69.png""]]]","","[24,18,14,9,32,25,1,8,4,30,23,0,6,19,7,27,11,16,21,17,31,13,2,33,10,34,12,20,28,5,15,3,26,29,35,22]","main","354","many-guess-6"
"","","","","","html-keyboard-response","52","276003","0.0-10.0-1.16","5b6142d1f5bc590001184814","640759fa512f630a2bdc333d","6408c17f5ea59136b62acb33","null","","null","","","","","","","","","","","","","","","","","","","fixation","",""
"","","","","","color-precision2","53","285382","0.0-10.0-0.17-0.17","5b6142d1f5bc590001184814","640759fa512f630a2bdc333d","6408c17f5ea59136b62acb33","[239]","","","[2]","[51]","51","235","263.854121512663","[263.854121512663]","[28.854121512663028]","[29]","0","0","1","0","148.4670000357437","1007.1060000000289","1000","[[[""img/mask59.png""]]]","","","main","235","color-precision2"
"","","","","","html-keyboard-response","54","285884","0.0-10.0-1.17","5b6142d1f5bc590001184814","640759fa512f630a2bdc333d","6408c17f5ea59136b62acb33","null","","null","","","","","","","","","","","","","","","","","","","fixation","",""
"","","","","","color-precision2","55","291289","0.0-10.0-0.18-0.18","5b6142d1f5bc590001184814","640759fa512f630a2bdc333d","6408c17f5ea59136b62acb33","[340.69999998807907]","","","[20]","[13]","13","345","346.64874344894804","[346.64874344894804]","[1.6487434489480393]","[1]","0","0","1","0","148.9319999999716","993.7579999880982","1000","[[[""img/mask84.png""]]]","","","main","345","color-precision2"
"","","","","","html-keyboard-response","56","291791","0.0-10.0-1.18","5b6142d1f5bc590001184814","640759fa512f630a2bdc333d","6408c17f5ea59136b62acb33","null","","null","","","","","","","","","","","","","","","","","","","fixation","",""
"","","","","","color-precision2","57","295135","0.0-10.0-0.19-0.19","5b6142d1f5bc590001184814","640759fa512f630a2bdc333d","6408c17f5ea59136b62acb33","[501.7999999523163]","","","[28]","[298]","298","220","172.04977345553112","[172.04977345553112]","[312.0497734555311]","[311]","0","0","1","0","148.44100002385676","995.5280000238563","1000","[[[""img/mask78.png""]]]","","","main","220","color-precision2"
"","","","","","html-keyboard-response","58","299972","0.0-10.0-1.19","5b6142d1f5bc590001184814","640759fa512f630a2bdc333d","6408c17f5ea59136b62acb33","4836.199999988079","Wow! You've completed 20 out of 180 trials! </p> <p>  </p><p> Take a quick break, then press any key when you're ready to continue."," ","","","","","","","","","","","","","","","","","","","fixation","",""
"","","","","","many-guess-6","59","303831","0.0-10.0-0.20-0.20","5b6142d1f5bc590001184814","640759fa512f630a2bdc333d","6408c17f5ea59136b62acb33","[1493.4000000357628]","","","[5,6,2,29,25,12,33,24,14,13,28,20,21,16,26,18,17,7,35,30,23,8,34,19,27,11,0,4,22,10,1,15,9,32,31,3]","[7,107,266,346,316,276,127,356,47,157,77,336,216,87,67,147,246,17,286,37,226,256,27,167,57,206,97,296,186,236,196,306,137,117,326,176]","7","74","147.15649984535287","[147.15649984535287]","[73.15649984535287]","[72]","[210,30,30,210,30,120,30,120,30]","0","36","0","147.23300001194002","14.411000011896249","16","[[[""img/mask78.png""],[""img/mask47.png""],[""img/mask30.png""],[""img/mask76.png""],[""img/mask13.png""],[""img/mask51.png""],[""img/mask82.png""],[""img/mask46.png""],[""img/mask70.png""],[""img/mask36.png""],[""img/mask98.png""],[""img/mask97.png""],[""img/mask13.png""],[""img/mask26.png""],[""img/mask63.png""],[""img/mask31.png""],[""img/mask90.png""],[""img/mask26.png""],[""img/mask64.png""],[""img/mask35.png""],[""img/mask22.png""],[""img/mask4.png""],[""img/mask61.png""],[""img/mask75.png""],[""img/mask59.png""],[""img/mask75.png""],[""img/mask77.png""],[""img/mask5.png""],[""img/mask4.png""],[""img/mask50.png""],[""img/mask81.png""],[""img/mask76.png""],[""img/mask83.png""],[""img/mask83.png""],[""img/mask27.png""],[""img/mask33.png""]]]","","[5,6,2,29,25,12,33,24,14,13,28,20,21,16,26,18,17,7,35,30,23,8,34,19,27,11,0,4,22,10,1,15,9,32,31,3]","main","74","many-guess-6"
"","","","","","html-keyboard-response","60","304336","0.0-10.0-1.20","5b6142d1f5bc590001184814","640759fa512f630a2bdc333d","6408c17f5ea59136b62acb33","null","","null","","","","","","","","","","","","","","","","","","","fixation","",""
"","","","","","color-precision2","61","306989","0.0-10.0-0.21-0.21","5b6142d1f5bc590001184814","640759fa512f630a2bdc333d","6408c17f5ea59136b62acb33","[297.4000000357628]","","","[18]","[78]","78","77","157.8551039091134","[157.8551039091134]","[80.85510390911341]","[80]","0","0","1","0","147.33900003577583","997.2520000238437","1000","[[[""img/mask33.png""]]]","","","main","77","color-precision2"
"","","","","","html-keyboard-response","62","307491","0.0-10.0-1.21","5b6142d1f5bc590001184814","640759fa512f630a2bdc333d","6408c17f5ea59136b62acb33","null","","null","","","","","","","","","","","","","","","","","","","fixation","",""
"","","","","","many-guess-6","63","310712","0.0-10.0-0.22-0.22","5b6142d1f5bc590001184814","640759fa512f630a2bdc333d","6408c17f5ea59136b62acb33","[1402.300000011921]","","","[7,3,5,35,20,8,18,25,34,10,4,26,31,11,13,15,19,12,28,21,0,30,23,29,14,24,1,17,33,9,2,16,27,32,22,6]","[210,51,21,121,81,190,31,1,141,131,61,71,230,280,180,170,91,270,220,260,11,250,150,340,320,310,160,200,300,101,350,290,240,330,41,111]","210","106","175.02034333594216","[175.02034333594216]","[69.02034333594216]","[69]","[300,210,30,210,30,300,210,30,210]","0","36","0","149.1530000238563","17.26899999997113","16","[[[""img/mask3.png""],[""img/mask23.png""],[""img/mask94.png""],[""img/mask75.png""],[""img/mask61.png""],[""img/mask40.png""],[""img/mask41.png""],[""img/mask47.png""],[""img/mask20.png""],[""img/mask77.png""],[""img/mask98.png""],[""img/mask79.png""],[""img/mask53.png""],[""img/mask81.png""],[""img/mask46.png""],[""img/mask99.png""],[""img/mask48.png""],[""img/mask36.png""],[""img/mask80.png""],[""img/mask15.png""],[""img/mask37.png""],[""img/mask59.png""],[""img/mask67.png""],[""img/mask14.png""],[""img/mask90.png""],[""img/mask86.png""],[""img/mask91.png""],[""img/mask29.png""],[""img/mask76.png""],[""img/mask37.png""],[""img/mask56.png""],[""img/mask73.png""],[""img/mask20.png""],[""img/mask9.png""],[""img/mask50.png""],[""img/mask29.png""]]]","","[7,3,5,35,20,8,18,25,34,10,4,26,31,11,13,15,19,12,28,21,0,30,23,29,14,24,1,17,33,9,2,16,27,32,22,6]","main","106","many-guess-6"
"","","","","","html-keyboard-response","64","311214","0.0-10.0-1.22","5b6142d1f5bc590001184814","640759fa512f630a2bdc333d","6408c17f5ea59136b62acb33","null","","null","","","","","","","","","","","","","","","","","","","fixation","",""
"","","","","","many-guess-6","65","313836","0.0-10.0-0.23-0.23","5b6142d1f5bc590001184814","640759fa512f630a2bdc333d","6408c17f5ea59136b62acb33","[1174.5999999642372]","","","[12,8,31,19,9,35,29,26,18,28,20,22,15,23,24,30,4,32,1,25,14,3,27,13,0,17,21,5,16,7,2,11,34,6,33,10]","[59,29,248,278,69,198,338,148,99,328,318,89,138,9,348,308,188,208,358,39,19,79,129,218,268,238,158,168,258,119,49,288,228,298,109,178]","59","248","262.8374544015062","[262.8374544015062]","[14.837454401506193]","[15]","[30,30,210,300,300,30,300,210,210]","0","36","0","149.63700001192046","11.416000000026543","16","[[[""img/mask75.png""],[""img/mask30.png""],[""img/mask91.png""],[""img/mask10.png""],[""img/mask43.png""],[""img/mask46.png""],[""img/mask79.png""],[""img/mask47.png""],[""img/mask35.png""],[""img/mask40.png""],[""img/mask99.png""],[""img/mask97.png""],[""img/mask28.png""],[""img/mask95.png""],[""img/mask34.png""],[""img/mask51.png""],[""img/mask97.png""],[""img/mask96.png""],[""img/mask84.png""],[""img/mask95.png""],[""img/mask14.png""],[""img/mask68.png""],[""img/mask12.png""],[""img/mask26.png""],[""img/mask90.png""],[""img/mask94.png""],[""img/mask23.png""],[""img/mask23.png""],[""img/mask65.png""],[""img/mask34.png""],[""img/mask13.png""],[""img/mask44.png""],[""img/mask91.png""],[""img/mask30.png""],[""img/mask27.png""],[""img/mask12.png""]]]","","[12,8,31,19,9,35,29,26,18,28,20,22,15,23,24,30,4,32,1,25,14,3,27,13,0,17,21,5,16,7,2,11,34,6,33,10]","main","248","many-guess-6"
"","","","","","html-keyboard-response","66","314338","0.0-10.0-1.23","5b6142d1f5bc590001184814","640759fa512f630a2bdc333d","6408c17f5ea59136b62acb33","null","","null","","","","","","","","","","","","","","","","","","","fixation","",""
"","","","","","color-precision2","67","317529","0.0-10.0-0.24-0.24","5b6142d1f5bc590001184814","640759fa512f630a2bdc333d","6408c17f5ea59136b62acb33","[463.9000000357628]","","","[22]","[255]","255","180","91.73095129954682","[91.73095129954682]","[271.7309512995468]","[270]","0","0","1","0","147.9520000119228","1000.2060000119382","1000","[[[""img/mask39.png""]]]","","","main","180","color-precision2"
"","","","","","html-keyboard-response","68","318030","0.0-10.0-1.24","5b6142d1f5bc590001184814","640759fa512f630a2bdc333d","6408c17f5ea59136b62acb33","null","","null","","","","","","","","","","","","","","","","","","","fixation","",""
"","","","","","color-precision2","69","320933","0.0-10.0-0.25-0.25","5b6142d1f5bc590001184814","640759fa512f630a2bdc333d","6408c17f5ea59136b62acb33","[465.2000000476837]","","","[35]","[125]","125","213","342.374474904486","[342.374474904486]","[129.37447490448602]","[129]","0","0","1","0","147.94700003578328","992.4720000357484","1000","[[[""img/mask37.png""]]]","","","main","213","color-precision2"
"","","","","","html-keyboard-response","70","321435","0.0-10.0-1.25","5b6142d1f5bc590001184814","640759fa512f630a2bdc333d","6408c17f5ea59136b62acb33","null","","null","","","","","","","","","","","","","","","","","","","fixation","",""
"","","","","","color-precision2","71","324995","0.0-10.0-0.26-0.26","5b6142d1f5bc590001184814","640759fa512f630a2bdc333d","6408c17f5ea59136b62acb33","[724.9000000357628]","","","[2]","[177]","177","97","287.5692316081848","[287.5692316081848]","[190.5692316081848]","[191]","0","0","1","0","147.89900002384093","997.2760000357521","1000","[[[""img/mask25.png""]]]","","","main","97","color-precision2"
"","","","","","html-keyboard-response","72","325497","0.0-10.0-1.26","5b6142d1f5bc590001184814","640759fa512f630a2bdc333d","6408c17f5ea59136b62acb33","null","","null","","","","","","","","","","","","","","","","","","","fixation","",""
"","","","","","color-precision2","73","328794","0.0-10.0-0.27-0.27","5b6142d1f5bc590001184814","640759fa512f630a2bdc333d","6408c17f5ea59136b62acb33","[470.0999999642372]","","","[35]","[102]","102","272","11.174484804737013","[11.174484804737013]","[99.174484804737]","[98]","0","0","1","0","148.94599999999627","996.2480000238284","1000","[[[""img/mask69.png""]]]","","","main","272","color-precision2"
"","","","","","html-keyboard-response","74","329295","0.0-10.0-1.27","5b6142d1f5bc590001184814","640759fa512f630a2bdc333d","6408c17f5ea59136b62acb33","null","","null","","","","","","","","","","","","","","","","","","","fixation","",""
"","","","","","color-precision2","75","332485","0.0-10.0-0.28-0.28","5b6142d1f5bc590001184814","640759fa512f630a2bdc333d","6408c17f5ea59136b62acb33","[126.59999996423721]","","","[12]","[5]","5","169","","[null]","[null]","[18]","0","0","1","0","147.3209999880637","1004.2239999999874","1000","[[[""img/mask37.png""]]]","","","main","169","color-precision2"
"","","","","","html-keyboard-response","76","332989","0.0-10.0-1.28","5b6142d1f5bc590001184814","640759fa512f630a2bdc333d","6408c17f5ea59136b62acb33","null","","null","","","","","","","","","","","","","","","","","","","fixation","",""
"","","","","","color-precision2","77","336061","0.0-10.0-0.29-0.29","5b6142d1f5bc590001184814","640759fa512f630a2bdc333d","6408c17f5ea59136b62acb33","[365.5]","","","[7]","[240]","240","157","33.22685527816392","[33.22685527816392]","[236.22685527816392]","[235]","0","0","1","0","146.88800001190975","999.2220000357484","1000","[[[""img/mask57.png""]]]","","","main","157","color-precision2"
"","","","","","html-keyboard-response","78","336563","0.0-10.0-1.29","5b6142d1f5bc590001184814","640759fa512f630a2bdc333d","6408c17f5ea59136b62acb33","null","","null","","","","","","","","","","","","","","","","","","","fixation","",""
"","","","","","many-guess-6","79","339660","0.0-10.0-0.30-0.30","5b6142d1f5bc590001184814","640759fa512f630a2bdc333d","6408c17f5ea59136b62acb33","[1430.800000011921]","","","[25,15,18,16,21,22,20,5,6,19,13,1,29,33,31,11,32,3,17,0,34,8,35,4,23,24,14,9,7,28,10,27,26,30,2,12]","[32,12,172,152,272,22,122,282,2,212,351,292,132,82,242,252,92,341,202,262,102,72,142,162,312,302,332,52,42,112,192,182,232,222,62,322]","32","232","288.12986747500037","[288.12986747500037]","[56.12986747500037]","[56]","[300,300,300,30,30,120,30,120,210]","0","36","0","149.06100003578467","12.821000035735779","16","[[[""img/mask29.png""],[""img/mask55.png""],[""img/mask43.png""],[""img/mask70.png""],[""img/mask46.png""],[""img/mask86.png""],[""img/mask54.png""],[""img/mask66.png""],[""img/mask66.png""],[""img/mask27.png""],[""img/mask50.png""],[""img/mask50.png""],[""img/mask11.png""],[""img/mask14.png""],[""img/mask14.png""],[""img/mask22.png""],[""img/mask34.png""],[""img/mask22.png""],[""img/mask91.png""],[""img/mask91.png""],[""img/mask21.png""],[""img/mask26.png""],[""img/mask73.png""],[""img/mask86.png""],[""img/mask34.png""],[""img/mask47.png""],[""img/mask49.png""],[""img/mask6.png""],[""img/mask83.png""],[""img/mask1.png""],[""img/mask80.png""],[""img/mask61.png""],[""img/mask9.png""],[""img/mask94.png""],[""img/mask72.png""],[""img/mask48.png""]]]","","[25,15,18,16,21,22,20,5,6,19,13,1,29,33,31,11,32,3,17,0,34,8,35,4,23,24,14,9,7,28,10,27,26,30,2,12]","main","232","many-guess-6"
"","","","","","html-keyboard-response","80","340161","0.0-10.0-1.30","5b6142d1f5bc590001184814","640759fa512f630a2bdc333d","6408c17f5ea59136b62acb33","null","","null","","","","","","","","","","","","","","","","","","","fixation","",""
"","","","","","many-guess-6","81","343311","0.0-10.0-0.31-0.31","5b6142d1f5bc590001184814","640759fa512f630a2bdc333d","6408c17f5ea59136b62acb33","[1345.800000011921]","","","[34,23,22,9,25,8,7,28,10,30,33,20,13,1,31,3,4,27,11,17,21,16,24,2,12,32,29,18,0,15,26,14,35,5,6,19]","[336,147,7,47,316,37,307,217,57,277,287,67,127,267,247,187,157,97,107,237,17,27,177,167,207,297,77,87,257,227,346,197,356,326,137,117]","336","101","235.239982809359","[235.239982809359]","[134.239982809359]","[134]","[210,300,300,300,210,30,120,300,120]","0","36","0","148.7320000238251","11.679000035743229","16","[[[""img/mask100.png""],[""img/mask42.png""],[""img/mask94.png""],[""img/mask17.png""],[""img/mask99.png""],[""img/mask39.png""],[""img/mask80.png""],[""img/mask11.png""],[""img/mask90.png""],[""img/mask54.png""],[""img/mask74.png""],[""img/mask69.png""],[""img/mask15.png""],[""img/mask21.png""],[""img/mask12.png""],[""img/mask19.png""],[""img/mask46.png""],[""img/mask60.png""],[""img/mask62.png""],[""img/mask78.png""],[""img/mask83.png""],[""img/mask10.png""],[""img/mask82.png""],[""img/mask78.png""],[""img/mask8.png""],[""img/mask61.png""],[""img/mask82.png""],[""img/mask96.png""],[""img/mask48.png""],[""img/mask18.png""],[""img/mask67.png""],[""img/mask99.png""],[""img/mask82.png""],[""img/mask100.png""],[""img/mask83.png""],[""img/mask60.png""]]]","","[34,23,22,9,25,8,7,28,10,30,33,20,13,1,31,3,4,27,11,17,21,16,24,2,12,32,29,18,0,15,26,14,35,5,6,19]","main","101","many-guess-6"
"","","","","","html-keyboard-response","82","343814","0.0-10.0-1.31","5b6142d1f5bc590001184814","640759fa512f630a2bdc333d","6408c17f5ea59136b62acb33","null","","null","","","","","","","","","","","","","","","","","","","fixation","",""
"","","","","","color-precision2","83","346644","0.0-10.0-0.32-0.32","5b6142d1f5bc590001184814","640759fa512f630a2bdc333d","6408c17f5ea59136b62acb33","[242.19999998807907]","","","[17]","[7]","7","104","125.44140917344322","[125.44140917344322]","[21.44140917344322]","[20]","0","0","1","0","147.6629999880679","995.6900000000023","1000","[[[""img/mask5.png""]]]","","","main","104","color-precision2"
"","","","","","html-keyboard-response","84","347150","0.0-10.0-1.32","5b6142d1f5bc590001184814","640759fa512f630a2bdc333d","6408c17f5ea59136b62acb33","null","","null","","","","","","","","","","","","","","","","","","","fixation","",""
"","","","","","color-precision2","85","350089","0.0-10.0-0.33-0.33","5b6142d1f5bc590001184814","640759fa512f630a2bdc333d","6408c17f5ea59136b62acb33","[234.60000002384186]","","","[27]","[114]","114","236","","[null]","[null]","[123]","0","0","1","0","147.46199999999953","1001.0530000238214","1000","[[[""img/mask61.png""]]]","","","main","236","color-precision2"
"","","","","","html-keyboard-response","86","350591","0.0-10.0-1.33","5b6142d1f5bc590001184814","640759fa512f630a2bdc333d","6408c17f5ea59136b62acb33","null","","null","","","","","","","","","","","","","","","","","","","fixation","",""
"","","","","","many-guess-6","87","353301","0.0-10.0-0.34-0.34","5b6142d1f5bc590001184814","640759fa512f630a2bdc333d","6408c17f5ea59136b62acb33","[1028.5]","","","[27,9,21,18,12,32,16,17,2,20,30,33,3,6,24,10,8,14,23,0,1,31,15,26,22,29,34,11,4,13,35,25,19,5,7,28]","[106,96,165,46,335,315,6,26,155,295,36,175,56,126,195,305,16,355,185,76,235,135,86,205,255,285,325,225,265,245,345,215,145,66,275,116]","106","331","313.0972993847769","[313.0972993847769]","[342.0972993847769]","[343]","[120,210,120,300,120,120,210,300,30]","0","36","0","149.08599998807767","16.134000011894386","16","[[[""img/mask52.png""],[""img/mask15.png""],[""img/mask6.png""],[""img/mask71.png""],[""img/mask29.png""],[""img/mask76.png""],[""img/mask27.png""],[""img/mask44.png""],[""img/mask95.png""],[""img/mask24.png""],[""img/mask19.png""],[""img/mask73.png""],[""img/mask19.png""],[""img/mask6.png""],[""img/mask79.png""],[""img/mask84.png""],[""img/mask5.png""],[""img/mask30.png""],[""img/mask91.png""],[""img/mask2.png""],[""img/mask91.png""],[""img/mask21.png""],[""img/mask9.png""],[""img/mask64.png""],[""img/mask14.png""],[""img/mask83.png""],[""img/mask19.png""],[""img/mask26.png""],[""img/mask55.png""],[""img/mask40.png""],[""img/mask80.png""],[""img/mask56.png""],[""img/mask75.png""],[""img/mask14.png""],[""img/mask26.png""],[""img/mask39.png""]]]","","[27,9,21,18,12,32,16,17,2,20,30,33,3,6,24,10,8,14,23,0,1,31,15,26,22,29,34,11,4,13,35,25,19,5,7,28]","main","331","many-guess-6"
"","","","","","html-keyboard-response","88","353803","0.0-10.0-1.34","5b6142d1f5bc590001184814","640759fa512f630a2bdc333d","6408c17f5ea59136b62acb33","null","","null","","","","","","","","","","","","","","","","","","","fixation","",""
"","","","","","many-guess-6","89","356721","0.0-10.0-0.35-0.35","5b6142d1f5bc590001184814","640759fa512f630a2bdc333d","6408c17f5ea59136b62acb33","[1346.800000011921]","","","[17,16,4,26,29,20,9,33,2,22,21,7,6,8,3,13,11,34,35,15,0,24,14,30,10,18,32,28,25,27,12,5,19,1,23,31]","[221,241,290,1,111,251,21,151,91,71,261,101,51,201,211,11,320,310,121,41,350,61,131,271,231,31,330,161,81,171,141,300,340,281,191,181]","221","66","153.53669258055893","[153.53669258055893]","[87.53669258055893]","[86]","[300,120,120,300,210,210,30,210,30]","0","36","0","149.0220000357367","19.043000000005122","16","[[[""img/mask48.png""],[""img/mask46.png""],[""img/mask14.png""],[""img/mask41.png""],[""img/mask20.png""],[""img/mask34.png""],[""img/mask61.png""],[""img/mask66.png""],[""img/mask77.png""],[""img/mask41.png""],[""img/mask21.png""],[""img/mask67.png""],[""img/mask27.png""],[""img/mask34.png""],[""img/mask68.png""],[""img/mask28.png""],[""img/mask82.png""],[""img/mask99.png""],[""img/mask52.png""],[""img/mask73.png""],[""img/mask86.png""],[""img/mask39.png""],[""img/mask58.png""],[""img/mask1.png""],[""img/mask96.png""],[""img/mask55.png""],[""img/mask53.png""],[""img/mask20.png""],[""img/mask45.png""],[""img/mask46.png""],[""img/mask73.png""],[""img/mask25.png""],[""img/mask64.png""],[""img/mask24.png""],[""img/mask23.png""],[""img/mask81.png""]]]","","[17,16,4,26,29,20,9,33,2,22,21,7,6,8,3,13,11,34,35,15,0,24,14,30,10,18,32,28,25,27,12,5,19,1,23,31]","main","66","many-guess-6"
"","","","","","html-keyboard-response","90","357223","0.0-10.0-1.35","5b6142d1f5bc590001184814","640759fa512f630a2bdc333d","6408c17f5ea59136b62acb33","null","","null","","","","","","","","","","","","","","","","","","","fixation","",""
"","","","","","color-precision2","91","359925","0.0-10.0-0.36-0.36","5b6142d1f5bc590001184814","640759fa512f630a2bdc333d","6408c17f5ea59136b62acb33","[247]","","","[2]","[232]","232","287","161.30763723744423","[161.30763723744423]","[234.30763723744423]","[233]","0","0","1","0","147.48700001189718","996.9520000238554","1000","[[[""img/mask53.png""]]]","","","main","287","color-precision2"
"","","","","","html-keyboard-response","92","360439","0.0-10.0-1.36","5b6142d1f5bc590001184814","640759fa512f630a2bdc333d","6408c17f5ea59136b62acb33","null","","null","","","","","","","","","","","","","","","","","","","fixation","",""
"","","","","","many-guess-6","93","363337","0.0-10.0-0.37-0.37","5b6142d1f5bc590001184814","640759fa512f630a2bdc333d","6408c17f5ea59136b62acb33","[1391.1000000238419]","","","[6,23,33,28,4,15,30,25,22,24,32,29,31,0,5,26,20,35,19,9,11,14,34,2,27,16,7,1,12,13,17,18,10,21,8,3]","[340,110,280,1,70,240,180,51,330,150,100,11,140,31,61,270,290,220,210,41,120,130,160,190,260,90,320,250,80,230,21,170,310,200,350,300]","340","12","256.97029866730077","[256.97029866730077]","[244.97029866730077]","[245]","[120,30,210,120,30,210,300,120,210]","0","36","0","148.5439999999944","11.097000000008848","16","[[[""img/mask3.png""],[""img/mask85.png""],[""img/mask53.png""],[""img/mask3.png""],[""img/mask66.png""],[""img/mask94.png""],[""img/mask7.png""],[""img/mask51.png""],[""img/mask21.png""],[""img/mask84.png""],[""img/mask100.png""],[""img/mask77.png""],[""img/mask38.png""],[""img/mask74.png""],[""img/mask20.png""],[""img/mask79.png""],[""img/mask43.png""],[""img/mask41.png""],[""img/mask70.png""],[""img/mask24.png""],[""img/mask48.png""],[""img/mask27.png""],[""img/mask76.png""],[""img/mask68.png""],[""img/mask12.png""],[""img/mask36.png""],[""img/mask60.png""],[""img/mask21.png""],[""img/mask45.png""],[""img/mask43.png""],[""img/mask39.png""],[""img/mask62.png""],[""img/mask19.png""],[""img/mask61.png""],[""img/mask6.png""],[""img/mask85.png""]]]","","[6,23,33,28,4,15,30,25,22,24,32,29,31,0,5,26,20,35,19,9,11,14,34,2,27,16,7,1,12,13,17,18,10,21,8,3]","main","12","many-guess-6"
"","","","","","html-keyboard-response","94","363839","0.0-10.0-1.37","5b6142d1f5bc590001184814","640759fa512f630a2bdc333d","6408c17f5ea59136b62acb33","null","","null","","","","","","","","","","","","","","","","","","","fixation","",""
"","","","","","many-guess-6","95","367984","0.0-10.0-0.38-0.38","5b6142d1f5bc590001184814","640759fa512f630a2bdc333d","6408c17f5ea59136b62acb33","[2486.599999964237]","","","[35,16,9,17,22,24,26,32,23,3,31,30,4,5,10,21,18,12,6,25,7,19,2,1,13,28,27,0,33,29,34,15,8,20,11,14]","[136,57,336,117,206,17,266,226,87,107,37,216,186,346,166,316,7,47,356,286,196,146,156,127,176,256,67,306,246,236,77,97,27,326,296,276]","136","81","161.9415955741131","[161.9415955741131]","[80.94159557411311]","[80]","[30,120,30,210,300,30,300,210,120]","0","36","0","148.99700002383906","18.863000011944678","16","[[[""img/mask4.png""],[""img/mask17.png""],[""img/mask88.png""],[""img/mask34.png""],[""img/mask56.png""],[""img/mask9.png""],[""img/mask94.png""],[""img/mask82.png""],[""img/mask90.png""],[""img/mask55.png""],[""img/mask98.png""],[""img/mask70.png""],[""img/mask3.png""],[""img/mask5.png""],[""img/mask91.png""],[""img/mask46.png""],[""img/mask100.png""],[""img/mask69.png""],[""img/mask10.png""],[""img/mask3.png""],[""img/mask18.png""],[""img/mask25.png""],[""img/mask42.png""],[""img/mask26.png""],[""img/mask18.png""],[""img/mask55.png""],[""img/mask37.png""],[""img/mask91.png""],[""img/mask2.png""],[""img/mask84.png""],[""img/mask27.png""],[""img/mask64.png""],[""img/mask2.png""],[""img/mask51.png""],[""img/mask36.png""],[""img/mask9.png""]]]","","[35,16,9,17,22,24,26,32,23,3,31,30,4,5,10,21,18,12,6,25,7,19,2,1,13,28,27,0,33,29,34,15,8,20,11,14]","main","81","many-guess-6"
"","","","","","html-keyboard-response","96","368487","0.0-10.0-1.38","5b6142d1f5bc590001184814","640759fa512f630a2bdc333d","6408c17f5ea59136b62acb33","null","","null","","","","","","","","","","","","","","","","","","","fixation","",""
"","","","","","color-precision2","97","372517","0.0-10.0-0.39-0.39","5b6142d1f5bc590001184814","640759fa512f630a2bdc333d","6408c17f5ea59136b62acb33","[397.19999998807907]","","","[17]","[121]","121","72","207.29415043328345","[207.29415043328345]","[135.29415043328345]","[135]","0","0","1","0","148.39500002382556","995.0119999880553","1000","[[[""img/mask40.png""]]]","","","main","72","color-precision2"
"","","","","","html-keyboard-response","98","374357","0.0-10.0-1.39","5b6142d1f5bc590001184814","640759fa512f630a2bdc333d","6408c17f5ea59136b62acb33","1838.8999999761581","Wow! You've completed 40 out of 180 trials! </p> <p>  </p><p> Take a quick break, then press any key when you're ready to continue."," ","","","","","","","","","","","","","","","","","","","fixation","",""
"","","","","","many-guess-6","99","378415","0.0-10.0-0.40-0.40","5b6142d1f5bc590001184814","640759fa512f630a2bdc333d","6408c17f5ea59136b62acb33","[2026.1000000238419]","","","[32,16,30,19,13,22,24,26,21,0,35,15,11,25,31,33,20,8,6,5,10,23,3,1,2,9,12,4,27,34,28,17,14,7,18,29]","[222,262,83,182,232,292,133,252,123,342,162,93,103,3,43,202,352,63,242,73,53,13,143,332,312,272,302,153,322,113,282,23,33,212,192,172]","222","283","73.92931778611187","[73.92931778611187]","[150.92931778611188]","[149]","[300,300,300,210,300,210,300,120,210]","0","36","0","148.92800002382137","8.176000011910219","16","[[[""img/mask24.png""],[""img/mask37.png""],[""img/mask26.png""],[""img/mask76.png""],[""img/mask77.png""],[""img/mask4.png""],[""img/mask44.png""],[""img/mask6.png""],[""img/mask29.png""],[""img/mask53.png""],[""img/mask88.png""],[""img/mask97.png""],[""img/mask93.png""],[""img/mask92.png""],[""img/mask89.png""],[""img/mask27.png""],[""img/mask73.png""],[""img/mask62.png""],[""img/mask41.png""],[""img/mask45.png""],[""img/mask17.png""],[""img/mask59.png""],[""img/mask100.png""],[""img/mask41.png""],[""img/mask86.png""],[""img/mask52.png""],[""img/mask21.png""],[""img/mask93.png""],[""img/mask90.png""],[""img/mask47.png""],[""img/mask1.png""],[""img/mask65.png""],[""img/mask28.png""],[""img/mask62.png""],[""img/mask32.png""],[""img/mask14.png""]]]","","[32,16,30,19,13,22,24,26,21,0,35,15,11,25,31,33,20,8,6,5,10,23,3,1,2,9,12,4,27,34,28,17,14,7,18,29]","main","283","many-guess-6"
"","","","","","html-keyboard-response","100","378917","0.0-10.0-1.40","5b6142d1f5bc590001184814","640759fa512f630a2bdc333d","6408c17f5ea59136b62acb33","null","","null","","","","","","","","","","","","","","","","","","","fixation","",""
"","","","","","many-guess-6","101","382105","0.0-10.0-0.41-0.41","5b6142d1f5bc590001184814","640759fa512f630a2bdc333d","6408c17f5ea59136b62acb33","[1763.5]","","","[20,26,19,15,32,9,14,34,27,18,16,6,12,25,33,29,28,5,7,13,23,10,11,3,4,35,22,24,0,8,2,21,17,31,30,1]","[331,182,271,351,52,291,232,22,62,122,241,82,251,261,192,202,212,2,152,281,92,142,172,321,72,112,162,301,42,311,222,132,102,32,341,12]","331","67","26.919244457352754","[26.919244457352754]","[319.91924445735276]","[319]","[30,120,120,30,210,120,300,210,210]","0","36","0","149.31600002385676","12.89200001192512","16","[[[""img/mask87.png""],[""img/mask85.png""],[""img/mask100.png""],[""img/mask30.png""],[""img/mask96.png""],[""img/mask94.png""],[""img/mask27.png""],[""img/mask95.png""],[""img/mask12.png""],[""img/mask51.png""],[""img/mask3.png""],[""img/mask81.png""],[""img/mask22.png""],[""img/mask56.png""],[""img/mask96.png""],[""img/mask45.png""],[""img/mask100.png""],[""img/mask78.png""],[""img/mask29.png""],[""img/mask37.png""],[""img/mask18.png""],[""img/mask42.png""],[""img/mask84.png""],[""img/mask17.png""],[""img/mask7.png""],[""img/mask52.png""],[""img/mask20.png""],[""img/mask87.png""],[""img/mask83.png""],[""img/mask63.png""],[""img/mask98.png""],[""img/mask11.png""],[""img/mask6.png""],[""img/mask71.png""],[""img/mask74.png""],[""img/mask49.png""]]]","","[20,26,19,15,32,9,14,34,27,18,16,6,12,25,33,29,28,5,7,13,23,10,11,3,4,35,22,24,0,8,2,21,17,31,30,1]","main","67","many-guess-6"
"","","","","","html-keyboard-response","102","382607","0.0-10.0-1.41","5b6142d1f5bc590001184814","640759fa512f630a2bdc333d","6408c17f5ea59136b62acb33","null","","null","","","","","","","","","","","","","","","","","","","fixation","",""
"","","","","","many-guess-6","103","386042","0.0-10.0-0.42-0.42","5b6142d1f5bc590001184814","640759fa512f630a2bdc333d","6408c17f5ea59136b62acb33","[1815]","","","[22,20,27,33,3,26,7,11,15,8,2,28,24,16,12,9,14,10,1,17,31,23,29,30,19,13,34,5,35,0,25,6,18,4,32,21]","[167,77,297,67,227,37,277,287,27,177,237,197,247,127,187,217,356,257,137,316,346,157,207,97,47,7,57,87,117,17,306,107,147,326,336,267]","167","16","89.8115850417096","[89.8115850417096]","[73.8115850417096]","[72]","[300,210,300,120,210,30,120,300,210]","0","36","0","148.84699998807628","24.508999988087453","16","[[[""img/mask44.png""],[""img/mask55.png""],[""img/mask95.png""],[""img/mask72.png""],[""img/mask64.png""],[""img/mask44.png""],[""img/mask10.png""],[""img/mask98.png""],[""img/mask32.png""],[""img/mask23.png""],[""img/mask45.png""],[""img/mask45.png""],[""img/mask27.png""],[""img/mask10.png""],[""img/mask92.png""],[""img/mask1.png""],[""img/mask41.png""],[""img/mask39.png""],[""img/mask38.png""],[""img/mask71.png""],[""img/mask27.png""],[""img/mask100.png""],[""img/mask37.png""],[""img/mask43.png""],[""img/mask49.png""],[""img/mask24.png""],[""img/mask14.png""],[""img/mask85.png""],[""img/mask75.png""],[""img/mask67.png""],[""img/mask33.png""],[""img/mask15.png""],[""img/mask94.png""],[""img/mask84.png""],[""img/mask74.png""],[""img/mask41.png""]]]","","[22,20,27,33,3,26,7,11,15,8,2,28,24,16,12,9,14,10,1,17,31,23,29,30,19,13,34,5,35,0,25,6,18,4,32,21]","main","16","many-guess-6"
"","","","","","html-keyboard-response","104","386545","0.0-10.0-1.42","5b6142d1f5bc590001184814","640759fa512f630a2bdc333d","6408c17f5ea59136b62acb33","null","","null","","","","","","","","","","","","","","","","","","","fixation","",""
"","","","","","many-guess-6","105","389764","0.0-10.0-0.43-0.43","5b6142d1f5bc590001184814","640759fa512f630a2bdc333d","6408c17f5ea59136b62acb33","[1584.300000011921]","","","[1,33,22,15,21,0,19,10,11,18,27,29,3,32,26,2,17,23,8,4,20,30,6,14,7,25,9,5,24,12,35,28,13,31,16,34]","[159,59,298,239,139,328,308,129,149,229,99,358,189,169,249,19,119,279,9,29,109,318,179,348,49,259,79,338,219,269,199,288,69,39,89,209]","159","97","276.80812311397005","[276.80812311397005]","[179.80812311397005]","[180]","[210,30,120,120,210,30,210,210,210]","0","36","0","148.93600003578467","16.840000023832545","16","[[[""img/mask22.png""],[""img/mask44.png""],[""img/mask87.png""],[""img/mask52.png""],[""img/mask52.png""],[""img/mask7.png""],[""img/mask19.png""],[""img/mask62.png""],[""img/mask33.png""],[""img/mask19.png""],[""img/mask52.png""],[""img/mask46.png""],[""img/mask21.png""],[""img/mask63.png""],[""img/mask62.png""],[""img/mask58.png""],[""img/mask81.png""],[""img/mask46.png""],[""img/mask21.png""],[""img/mask17.png""],[""img/mask5.png""],[""img/mask64.png""],[""img/mask93.png""],[""img/mask98.png""],[""img/mask86.png""],[""img/mask49.png""],[""img/mask27.png""],[""img/mask89.png""],[""img/mask53.png""],[""img/mask2.png""],[""img/mask5.png""],[""img/mask79.png""],[""img/mask90.png""],[""img/mask56.png""],[""img/mask85.png""],[""img/mask47.png""]]]","","[1,33,22,15,21,0,19,10,11,18,27,29,3,32,26,2,17,23,8,4,20,30,6,14,7,25,9,5,24,12,35,28,13,31,16,34]","main","97","many-guess-6"
"","","","","","html-keyboard-response","106","390265","0.0-10.0-1.43","5b6142d1f5bc590001184814","640759fa512f630a2bdc333d","6408c17f5ea59136b62acb33","null","","null","","","","","","","","","","","","","","","","","","","fixation","",""
"","","","","","many-guess-6","107","393944","0.0-10.0-0.44-0.44","5b6142d1f5bc590001184814","640759fa512f630a2bdc333d","6408c17f5ea59136b62acb33","[1759.8999999761581]","","","[14,24,11,23,29,2,27,1,20,31,10,9,16,6,5,33,34,19,35,18,7,25,32,22,28,4,13,21,17,0,3,30,12,26,15,8]","[234,114,5,324,334,144,35,204,154,184,45,284,95,294,164,65,224,85,134,124,214,194,304,25,344,55,354,314,174,75,244,104,274,264,15,254]","234","193","96.06212236097468","[96.06212236097468]","[263.0621223609747]","[261]","[210,300,300,300,300,120,300,120,210]","0","36","0","149.49400001193862","19.195999988063704","16","[[[""img/mask70.png""],[""img/mask88.png""],[""img/mask60.png""],[""img/mask78.png""],[""img/mask87.png""],[""img/mask83.png""],[""img/mask91.png""],[""img/mask35.png""],[""img/mask40.png""],[""img/mask80.png""],[""img/mask31.png""],[""img/mask54.png""],[""img/mask15.png""],[""img/mask40.png""],[""img/mask85.png""],[""img/mask77.png""],[""img/mask96.png""],[""img/mask96.png""],[""img/mask55.png""],[""img/mask4.png""],[""img/mask65.png""],[""img/mask70.png""],[""img/mask40.png""],[""img/mask98.png""],[""img/mask83.png""],[""img/mask7.png""],[""img/mask50.png""],[""img/mask30.png""],[""img/mask38.png""],[""img/mask37.png""],[""img/mask25.png""],[""img/mask39.png""],[""img/mask5.png""],[""img/mask48.png""],[""img/mask6.png""],[""img/mask17.png""]]]","","[14,24,11,23,29,2,27,1,20,31,10,9,16,6,5,33,34,19,35,18,7,25,32,22,28,4,13,21,17,0,3,30,12,26,15,8]","main","193","many-guess-6"
"","","","","","html-keyboard-response","108","394447","0.0-10.0-1.44","5b6142d1f5bc590001184814","640759fa512f630a2bdc333d","6408c17f5ea59136b62acb33","null","","null","","","","","","","","","","","","","","","","","","","fixation","",""
"","","","","","color-precision2","109","397811","0.0-10.0-0.45-0.45","5b6142d1f5bc590001184814","640759fa512f630a2bdc333d","6408c17f5ea59136b62acb33","[607.5]","","","[1]","[273]","273","79","355.4357544046191","[355.4357544046191]","[276.4357544046191]","[276]","0","0","1","0","148.0060000238591","995.2410000357777","1000","[[[""img/mask43.png""]]]","","","main","79","color-precision2"
"","","","","","html-keyboard-response","110","398313","0.0-10.0-1.45","5b6142d1f5bc590001184814","640759fa512f630a2bdc333d","6408c17f5ea59136b62acb33","null","","null","","","","","","","","","","","","","","","","","","","fixation","",""
"","","","","","color-precision2","111","401878","0.0-10.0-0.46-0.46","5b6142d1f5bc590001184814","640759fa512f630a2bdc333d","6408c17f5ea59136b62acb33","[938.0999999642372]","","","[10]","[20]","20","325","327.9387631960509","[327.9387631960509]","[2.9387631960508998]","[3]","0","0","1","0","147.87199999997392","999.4390000357525","1000","[[[""img/mask89.png""]]]","","","main","325","color-precision2"
"","","","","","html-keyboard-response","112","402379","0.0-10.0-1.46","5b6142d1f5bc590001184814","640759fa512f630a2bdc333d","6408c17f5ea59136b62acb33","null","","null","","","","","","","","","","","","","","","","","","","fixation","",""
"","","","","","color-precision2","113","405485","0.0-10.0-0.47-0.47","5b6142d1f5bc590001184814","640759fa512f630a2bdc333d","6408c17f5ea59136b62acb33","[458.69999998807907]","","","[14]","[148]","148","44","199.88092295608095","[199.88092295608095]","[155.88092295608095]","[155]","0","0","1","0","148.83300003578188","1003.2690000238363","1000","[[[""img/mask97.png""]]]","","","main","44","color-precision2"
"","","","","","html-keyboard-response","114","405987","0.0-10.0-1.47","5b6142d1f5bc590001184814","640759fa512f630a2bdc333d","6408c17f5ea59136b62acb33","null","","null","","","","","","","","","","","","","","","","","","","fixation","",""
"","","","","","color-precision2","115","409754","0.0-10.0-0.48-0.48","5b6142d1f5bc590001184814","640759fa512f630a2bdc333d","6408c17f5ea59136b62acb33","[1227.2000000476837]","","","[31]","[329]","329","273","254.01622753373562","[254.01622753373562]","[341.0162275337356]","[341]","0","0","1","0","148.06299998809118","1000.6840000238153","1000","[[[""img/mask54.png""]]]","","","main","273","color-precision2"
"","","","","","html-keyboard-response","116","410260","0.0-10.0-1.48","5b6142d1f5bc590001184814","640759fa512f630a2bdc333d","6408c17f5ea59136b62acb33","null","","null","","","","","","","","","","","","","","","","","","","fixation","",""
"","","","","","many-guess-6","117","413391","0.0-10.0-0.49-0.49","5b6142d1f5bc590001184814","640759fa512f630a2bdc333d","6408c17f5ea59136b62acb33","[1244]","","","[6,24,25,2,14,20,18,35,31,1,21,16,15,22,7,26,11,27,28,33,23,30,13,29,3,9,0,12,19,32,17,4,10,5,8,34]","[323,224,34,144,174,303,54,94,104,24,284,184,194,214,204,14,353,4,343,333,114,134,313,74,274,254,64,234,244,124,154,264,293,44,164,84]","323","181","303.341816351954","[303.341816351954]","[122.34181635195398]","[122]","[30,300,210,210,120,210,30,300,300]","0","36","0","149.44100003578933","13.14400003576884","16","[[[""img/mask79.png""],[""img/mask93.png""],[""img/mask12.png""],[""img/mask70.png""],[""img/mask60.png""],[""img/mask9.png""],[""img/mask12.png""],[""img/mask82.png""],[""img/mask95.png""],[""img/mask31.png""],[""img/mask48.png""],[""img/mask20.png""],[""img/mask73.png""],[""img/mask24.png""],[""img/mask9.png""],[""img/mask59.png""],[""img/mask57.png""],[""img/mask13.png""],[""img/mask3.png""],[""img/mask70.png""],[""img/mask41.png""],[""img/mask54.png""],[""img/mask69.png""],[""img/mask25.png""],[""img/mask53.png""],[""img/mask19.png""],[""img/mask28.png""],[""img/mask71.png""],[""img/mask62.png""],[""img/mask91.png""],[""img/mask17.png""],[""img/mask26.png""],[""img/mask6.png""],[""img/mask21.png""],[""img/mask9.png""],[""img/mask90.png""]]]","","[6,24,25,2,14,20,18,35,31,1,21,16,15,22,7,26,11,27,28,33,23,30,13,29,3,9,0,12,19,32,17,4,10,5,8,34]","main","181","many-guess-6"
"","","","","","html-keyboard-response","118","413893","0.0-10.0-1.49","5b6142d1f5bc590001184814","640759fa512f630a2bdc333d","6408c17f5ea59136b62acb33","null","","null","","","","","","","","","","","","","","","","","","","fixation","",""
"","","","","","many-guess-6","119","417939","0.0-10.0-0.50-0.50","5b6142d1f5bc590001184814","640759fa512f630a2bdc333d","6408c17f5ea59136b62acb33","[2422.899999976158]","","","[11,31,20,0,4,24,28,10,8,16,9,1,22,30,27,25,17,18,13,7,5,35,6,15,3,21,26,14,19,34,32,29,33,23,12,2]","[46,36,106,236,96,216,196,186,116,56,266,166,126,296,306,86,256,66,176,76,16,6,246,226,146,286,316,156,355,336,206,345,276,26,136,326]","46","128","128.66498290873835","[128.66498290873835]","[0.6649829087383523]","[359]","[210,30,210,120,30,30,30,210,30]","0","36","0","149.5430000119377","17.291000023833476","16","[[[""img/mask42.png""],[""img/mask36.png""],[""img/mask42.png""],[""img/mask51.png""],[""img/mask67.png""],[""img/mask56.png""],[""img/mask76.png""],[""img/mask13.png""],[""img/mask87.png""],[""img/mask46.png""],[""img/mask9.png""],[""img/mask64.png""],[""img/mask36.png""],[""img/mask73.png""],[""img/mask68.png""],[""img/mask58.png""],[""img/mask74.png""],[""img/mask94.png""],[""img/mask58.png""],[""img/mask70.png""],[""img/mask51.png""],[""img/mask11.png""],[""img/mask8.png""],[""img/mask68.png""],[""img/mask10.png""],[""img/mask67.png""],[""img/mask70.png""],[""img/mask11.png""],[""img/mask90.png""],[""img/mask21.png""],[""img/mask75.png""],[""img/mask89.png""],[""img/mask18.png""],[""img/mask79.png""],[""img/mask97.png""],[""img/mask72.png""]]]","","[11,31,20,0,4,24,28,10,8,16,9,1,22,30,27,25,17,18,13,7,5,35,6,15,3,21,26,14,19,34,32,29,33,23,12,2]","main","128","many-guess-6"
"","","","","","html-keyboard-response","120","418441","0.0-10.0-1.50","5b6142d1f5bc590001184814","640759fa512f630a2bdc333d","6408c17f5ea59136b62acb33","null","","null","","","","","","","","","","","","","","","","","","","fixation","",""
"","","","","","color-precision2","121","421683","0.0-10.0-0.51-0.51","5b6142d1f5bc590001184814","640759fa512f630a2bdc333d","6408c17f5ea59136b62acb33","[563.1999999880791]","","","[35]","[341]","341","160","129.75076698913557","[129.75076698913557]","[329.75076698913557]","[328]","0","0","1","0","147.87699999997858","1000.4610000000102","1000","[[[""img/mask90.png""]]]","","","main","160","color-precision2"
"","","","","","html-keyboard-response","122","422185","0.0-10.0-1.51","5b6142d1f5bc590001184814","640759fa512f630a2bdc333d","6408c17f5ea59136b62acb33","null","","null","","","","","","","","","","","","","","","","","","","fixation","",""
"","","","","","many-guess-6","123","425189","0.0-10.0-0.52-0.52","5b6142d1f5bc590001184814","640759fa512f630a2bdc333d","6408c17f5ea59136b62acb33","[1234.0999999642372]","","","[16,19,1,32,34,28,33,17,35,24,0,3,13,11,9,20,15,27,7,26,25,14,4,12,29,18,10,5,22,2,31,21,23,6,30,8]","[55,344,234,15,155,294,75,195,244,145,25,45,95,135,205,254,304,185,314,175,224,354,35,65,324,165,284,125,5,105,85,115,215,274,334,264]","55","332","142.77520998891413","[142.77520998891413]","[170.77520998891413]","[169]","[30,120,300,30,300,300,30,120,30]","0","36","0","149.9930000238237","13.028000011923723","16","[[[""img/mask15.png""],[""img/mask5.png""],[""img/mask83.png""],[""img/mask7.png""],[""img/mask70.png""],[""img/mask14.png""],[""img/mask59.png""],[""img/mask33.png""],[""img/mask2.png""],[""img/mask68.png""],[""img/mask48.png""],[""img/mask29.png""],[""img/mask22.png""],[""img/mask60.png""],[""img/mask66.png""],[""img/mask17.png""],[""img/mask97.png""],[""img/mask93.png""],[""img/mask71.png""],[""img/mask60.png""],[""img/mask88.png""],[""img/mask13.png""],[""img/mask42.png""],[""img/mask21.png""],[""img/mask87.png""],[""img/mask54.png""],[""img/mask25.png""],[""img/mask85.png""],[""img/mask34.png""],[""img/mask68.png""],[""img/mask5.png""],[""img/mask72.png""],[""img/mask38.png""],[""img/mask25.png""],[""img/mask100.png""],[""img/mask81.png""]]]","","[16,19,1,32,34,28,33,17,35,24,0,3,13,11,9,20,15,27,7,26,25,14,4,12,29,18,10,5,22,2,31,21,23,6,30,8]","main","332","many-guess-6"
"","","","","","html-keyboard-response","124","425690","0.0-10.0-1.52","5b6142d1f5bc590001184814","640759fa512f630a2bdc333d","6408c17f5ea59136b62acb33","null","","null","","","","","","","","","","","","","","","","","","","fixation","",""
"","","","","","many-guess-6","125","429303","0.0-10.0-0.53-0.53","5b6142d1f5bc590001184814","640759fa512f630a2bdc333d","6408c17f5ea59136b62acb33","[1878.9000000357628]","","","[15,16,32,26,2,24,20,10,1,17,9,14,28,3,4,0,31,12,18,22,5,8,11,30,25,6,23,33,29,13,35,19,34,21,27,7]","[12,351,261,301,331,241,321,151,231,52,62,112,2,201,171,341,141,92,102,122,271,72,32,291,191,132,281,221,22,181,161,311,42,211,82,251]","12","325","333.7048670621715","[333.7048670621715]","[8.704867062171502]","[9]","[30,120,30,210,30,30,300,30,120]","0","36","0","149.59000003576512","8.331000035745092","16","[[[""img/mask90.png""],[""img/mask36.png""],[""img/mask42.png""],[""img/mask20.png""],[""img/mask45.png""],[""img/mask7.png""],[""img/mask86.png""],[""img/mask82.png""],[""img/mask71.png""],[""img/mask72.png""],[""img/mask31.png""],[""img/mask61.png""],[""img/mask15.png""],[""img/mask44.png""],[""img/mask7.png""],[""img/mask79.png""],[""img/mask10.png""],[""img/mask83.png""],[""img/mask57.png""],[""img/mask68.png""],[""img/mask97.png""],[""img/mask90.png""],[""img/mask98.png""],[""img/mask35.png""],[""img/mask45.png""],[""img/mask7.png""],[""img/mask67.png""],[""img/mask53.png""],[""img/mask2.png""],[""img/mask100.png""],[""img/mask9.png""],[""img/mask83.png""],[""img/mask66.png""],[""img/mask89.png""],[""img/mask48.png""],[""img/mask79.png""]]]","","[15,16,32,26,2,24,20,10,1,17,9,14,28,3,4,0,31,12,18,22,5,8,11,30,25,6,23,33,29,13,35,19,34,21,27,7]","main","325","many-guess-6"
"","","","","","html-keyboard-response","126","429804","0.0-10.0-1.53","5b6142d1f5bc590001184814","640759fa512f630a2bdc333d","6408c17f5ea59136b62acb33","null","","null","","","","","","","","","","","","","","","","","","","fixation","",""
"","","","","","color-precision2","127","432661","0.0-10.0-0.54-0.54","5b6142d1f5bc590001184814","640759fa512f630a2bdc333d","6408c17f5ea59136b62acb33","[315.69999998807907]","","","[11]","[239]","239","323","197.63785769165085","[197.63785769165085]","[234.63785769165085]","[234]","0","0","1","0","148.20100003574044","1006.1340000118944","1000","[[[""img/mask35.png""]]]","","","main","323","color-precision2"
"","","","","","html-keyboard-response","128","433162","0.0-10.0-1.54","5b6142d1f5bc590001184814","640759fa512f630a2bdc333d","6408c17f5ea59136b62acb33","null","","null","","","","","","","","","","","","","","","","","","","fixation","",""
"","","","","","color-precision2","129","435835","0.0-10.0-0.55-0.55","5b6142d1f5bc590001184814","640759fa512f630a2bdc333d","6408c17f5ea59136b62acb33","[204.9000000357628]","","","[5]","[8]","8","356","","[null]","[null]","[340]","0","0","1","0","147.83500003576046","1000.3550000357791","1000","[[[""img/mask78.png""]]]","","","main","356","color-precision2"
"","","","","","html-keyboard-response","130","436336","0.0-10.0-1.55","5b6142d1f5bc590001184814","640759fa512f630a2bdc333d","6408c17f5ea59136b62acb33","null","","null","","","","","","","","","","","","","","","","","","","fixation","",""
"","","","","","many-guess-6","131","440142","0.0-10.0-0.56-0.56","5b6142d1f5bc590001184814","640759fa512f630a2bdc333d","6408c17f5ea59136b62acb33","[2360]","","","[3,27,25,4,26,35,7,6,31,32,5,24,21,20,30,1,11,2,17,19,12,13,14,16,8,0,10,23,15,29,9,18,33,34,22,28]","[344,215,165,145,205,175,245,275,155,15,115,284,304,5,95,314,105,195,135,324,294,65,185,354,265,35,235,75,334,125,25,55,45,85,255,225]","344","258","84.17015319768922","[84.17015319768922]","[186.17015319768922]","[184]","[30,300,210,120,30,30,120,210,210]","0","36","0","149.23900002386654","10.702000011922792","16","[[[""img/mask5.png""],[""img/mask86.png""],[""img/mask92.png""],[""img/mask97.png""],[""img/mask22.png""],[""img/mask82.png""],[""img/mask98.png""],[""img/mask77.png""],[""img/mask87.png""],[""img/mask18.png""],[""img/mask4.png""],[""img/mask74.png""],[""img/mask86.png""],[""img/mask27.png""],[""img/mask47.png""],[""img/mask75.png""],[""img/mask21.png""],[""img/mask96.png""],[""img/mask60.png""],[""img/mask100.png""],[""img/mask38.png""],[""img/mask56.png""],[""img/mask71.png""],[""img/mask28.png""],[""img/mask64.png""],[""img/mask17.png""],[""img/mask51.png""],[""img/mask53.png""],[""img/mask47.png""],[""img/mask73.png""],[""img/mask64.png""],[""img/mask65.png""],[""img/mask18.png""],[""img/mask7.png""],[""img/mask68.png""],[""img/mask84.png""]]]","","[3,27,25,4,26,35,7,6,31,32,5,24,21,20,30,1,11,2,17,19,12,13,14,16,8,0,10,23,15,29,9,18,33,34,22,28]","main","258","many-guess-6"
"","","","","","html-keyboard-response","132","440651","0.0-10.0-1.56","5b6142d1f5bc590001184814","640759fa512f630a2bdc333d","6408c17f5ea59136b62acb33","null","","null","","","","","","","","","","","","","","","","","","","fixation","",""
"","","","","","many-guess-6","133","444955","0.0-10.0-0.57-0.57","5b6142d1f5bc590001184814","640759fa512f630a2bdc333d","6408c17f5ea59136b62acb33","[1669]","","","[31,26,35,10,29,34,23,25,22,13,17,27,33,14,11,18,16,28,3,2,1,8,12,4,5,6,32,7,30,20,24,9,15,21,19,0]","[57,236,216,336,77,156,276,117,137,246,107,17,67,147,166,356,256,286,296,127,226,266,196,37,306,316,206,186,326,47,87,176,346,27,97,7]","57","95","114.35380789321752","[114.35380789321752]","[19.35380789321752]","[17]","[210,300,30,120,210,210,210,210,210]","0","36","0","149.3810000238591","13.06500002386747","16","[[[""img/mask95.png""],[""img/mask23.png""],[""img/mask87.png""],[""img/mask23.png""],[""img/mask83.png""],[""img/mask6.png""],[""img/mask63.png""],[""img/mask99.png""],[""img/mask67.png""],[""img/mask92.png""],[""img/mask49.png""],[""img/mask100.png""],[""img/mask4.png""],[""img/mask30.png""],[""img/mask84.png""],[""img/mask6.png""],[""img/mask43.png""],[""img/mask6.png""],[""img/mask13.png""],[""img/mask39.png""],[""img/mask69.png""],[""img/mask27.png""],[""img/mask41.png""],[""img/mask52.png""],[""img/mask73.png""],[""img/mask7.png""],[""img/mask9.png""],[""img/mask33.png""],[""img/mask77.png""],[""img/mask62.png""],[""img/mask78.png""],[""img/mask56.png""],[""img/mask65.png""],[""img/mask84.png""],[""img/mask80.png""],[""img/mask88.png""]]]","","[31,26,35,10,29,34,23,25,22,13,17,27,33,14,11,18,16,28,3,2,1,8,12,4,5,6,32,7,30,20,24,9,15,21,19,0]","main","95","many-guess-6"
"","","","","","html-keyboard-response","134","445456","0.0-10.0-1.57","5b6142d1f5bc590001184814","640759fa512f630a2bdc333d","6408c17f5ea59136b62acb33","null","","null","","","","","","","","","","","","","","","","","","","fixation","",""
"","","","","","color-precision2","135","448550","0.0-10.0-0.58-0.58","5b6142d1f5bc590001184814","640759fa512f630a2bdc333d","6408c17f5ea59136b62acb33","[245.10000002384186]","","","[10]","[148]","148","222","28.725468409292542","[28.725468409292542]","[166.72546840929255]","[166]","0","0","1","0","148.545999999973","997.1800000357907","1000","[[[""img/mask50.png""]]]","","","main","222","color-precision2"
"","","","","","html-keyboard-response","136","449052","0.0-10.0-1.58","5b6142d1f5bc590001184814","640759fa512f630a2bdc333d","6408c17f5ea59136b62acb33","null","","null","","","","","","","","","","","","","","","","","","","fixation","",""
"","","","","","color-precision2","137","452003","0.0-10.0-0.59-0.59","5b6142d1f5bc590001184814","640759fa512f630a2bdc333d","6408c17f5ea59136b62acb33","[327.9000000357628]","","","[8]","[250]","250","279","171.182793421773","[171.182793421773]","[252.182793421773]","[251]","0","0","1","0","147.25400001194794","1003.5","1000","[[[""img/mask94.png""]]]","","","main","279","color-precision2"
"","","","","","html-keyboard-response","138","453793","0.0-10.0-1.59","5b6142d1f5bc590001184814","640759fa512f630a2bdc333d","6408c17f5ea59136b62acb33","1789.2000000476837","Wow! You've completed 60 out of 180 trials! </p> <p>  </p><p> Take a quick break, then press any key when you're ready to continue."," ","","","","","","","","","","","","","","","","","","","fixation","",""
"","","","","","many-guess-6","139","457630","0.0-10.0-0.60-0.60","5b6142d1f5bc590001184814","640759fa512f630a2bdc333d","6408c17f5ea59136b62acb33","[1753.800000011921]","","","[11,32,25,16,27,30,31,6,12,7,28,35,24,3,5,17,20,34,15,13,23,0,18,10,29,33,14,8,22,2,1,19,21,4,9,26]","[199,89,10,139,119,30,319,80,159,40,20,209,299,60,50,179,239,289,149,249,99,189,169,269,109,309,279,329,339,359,70,229,129,349,219,259]","199","281","85.79686242725901","[85.79686242725901]","[164.79686242725901]","[163]","[120,120,210,120,30,300,30,300,120]","0","36","0","149.06300003576325","22.028000035788864","16","[[[""img/mask13.png""],[""img/mask25.png""],[""img/mask68.png""],[""img/mask23.png""],[""img/mask8.png""],[""img/mask74.png""],[""img/mask78.png""],[""img/mask40.png""],[""img/mask32.png""],[""img/mask36.png""],[""img/mask59.png""],[""img/mask97.png""],[""img/mask82.png""],[""img/mask11.png""],[""img/mask74.png""],[""img/mask39.png""],[""img/mask80.png""],[""img/mask83.png""],[""img/mask77.png""],[""img/mask65.png""],[""img/mask17.png""],[""img/mask41.png""],[""img/mask19.png""],[""img/mask10.png""],[""img/mask97.png""],[""img/mask6.png""],[""img/mask45.png""],[""img/mask73.png""],[""img/mask5.png""],[""img/mask72.png""],[""img/mask50.png""],[""img/mask77.png""],[""img/mask36.png""],[""img/mask51.png""],[""img/mask75.png""],[""img/mask16.png""]]]","","[11,32,25,16,27,30,31,6,12,7,28,35,24,3,5,17,20,34,15,13,23,0,18,10,29,33,14,8,22,2,1,19,21,4,9,26]","main","281","many-guess-6"
"","","","","","html-keyboard-response","140","458132","0.0-10.0-1.60","5b6142d1f5bc590001184814","640759fa512f630a2bdc333d","6408c17f5ea59136b62acb33","null","","null","","","","","","","","","","","","","","","","","","","fixation","",""
"","","","","","many-guess-6","141","461663","0.0-10.0-0.61-0.61","5b6142d1f5bc590001184814","640759fa512f630a2bdc333d","6408c17f5ea59136b62acb33","[1717]","","","[25,19,31,24,13,34,10,6,29,18,16,22,21,4,26,20,3,32,0,7,2,11,9,15,8,14,12,27,5,30,1,23,33,35,17,28]","[103,83,113,192,312,262,212,322,133,63,282,153,302,162,352,93,73,33,23,3,252,272,292,202,53,13,232,332,222,242,182,43,143,342,123,172]","103","170","328.2785016104068","[328.2785016104068]","[158.2785016104068]","[158]","[120,210,30,210,120,210,30,120,30]","0","36","0","149.59499999997206","12.430000035790727","16","[[[""img/mask95.png""],[""img/mask11.png""],[""img/mask44.png""],[""img/mask66.png""],[""img/mask99.png""],[""img/mask98.png""],[""img/mask76.png""],[""img/mask58.png""],[""img/mask96.png""],[""img/mask83.png""],[""img/mask42.png""],[""img/mask91.png""],[""img/mask71.png""],[""img/mask61.png""],[""img/mask74.png""],[""img/mask46.png""],[""img/mask38.png""],[""img/mask22.png""],[""img/mask14.png""],[""img/mask25.png""],[""img/mask68.png""],[""img/mask84.png""],[""img/mask74.png""],[""img/mask20.png""],[""img/mask55.png""],[""img/mask35.png""],[""img/mask79.png""],[""img/mask13.png""],[""img/mask44.png""],[""img/mask97.png""],[""img/mask42.png""],[""img/mask5.png""],[""img/mask32.png""],[""img/mask60.png""],[""img/mask67.png""],[""img/mask56.png""]]]","","[25,19,31,24,13,34,10,6,29,18,16,22,21,4,26,20,3,32,0,7,2,11,9,15,8,14,12,27,5,30,1,23,33,35,17,28]","main","170","many-guess-6"
"","","","","","html-keyboard-response","142","462177","0.0-10.0-1.61","5b6142d1f5bc590001184814","640759fa512f630a2bdc333d","6408c17f5ea59136b62acb33","null","","null","","","","","","","","","","","","","","","","","","","fixation","",""
"","","","","","many-guess-6","143","465174","0.0-10.0-0.62-0.62","5b6142d1f5bc590001184814","640759fa512f630a2bdc333d","6408c17f5ea59136b62acb33","[1174.800000011921]","","","[12,15,14,0,28,11,19,26,13,23,33,9,18,29,10,7,5,3,27,30,6,1,8,35,2,24,4,22,25,20,21,16,31,34,17,32]","[218,118,38,168,158,48,78,287,327,198,188,208,128,68,357,148,257,237,28,347,178,277,108,88,98,267,138,8,337,18,307,247,297,317,228,58]","218","207","19.082497046139153","[19.082497046139153]","[172.08249704613917]","[171]","[30,210,120,210,120,210,120,300,120]","0","36","0","148.79599998809863","13.10900001192931","16","[[[""img/mask50.png""],[""img/mask74.png""],[""img/mask17.png""],[""img/mask65.png""],[""img/mask23.png""],[""img/mask40.png""],[""img/mask71.png""],[""img/mask29.png""],[""img/mask31.png""],[""img/mask3.png""],[""img/mask33.png""],[""img/mask90.png""],[""img/mask13.png""],[""img/mask54.png""],[""img/mask39.png""],[""img/mask88.png""],[""img/mask22.png""],[""img/mask45.png""],[""img/mask30.png""],[""img/mask71.png""],[""img/mask43.png""],[""img/mask40.png""],[""img/mask4.png""],[""img/mask78.png""],[""img/mask70.png""],[""img/mask50.png""],[""img/mask54.png""],[""img/mask71.png""],[""img/mask1.png""],[""img/mask82.png""],[""img/mask57.png""],[""img/mask21.png""],[""img/mask35.png""],[""img/mask9.png""],[""img/mask58.png""],[""img/mask93.png""]]]","","[12,15,14,0,28,11,19,26,13,23,33,9,18,29,10,7,5,3,27,30,6,1,8,35,2,24,4,22,25,20,21,16,31,34,17,32]","main","207","many-guess-6"
"","","","","","html-keyboard-response","144","465677","0.0-10.0-1.62","5b6142d1f5bc590001184814","640759fa512f630a2bdc333d","6408c17f5ea59136b62acb33","null","","null","","","","","","","","","","","","","","","","","","","fixation","",""
"","","","","","color-precision2","145","468395","0.0-10.0-0.63-0.63","5b6142d1f5bc590001184814","640759fa512f630a2bdc333d","6408c17f5ea59136b62acb33","[175.10000002384186]","","","[0]","[22]","22","280","","[null]","[null]","[0]","0","0","1","0","148.53100002382416","1000.109999999986","1000","[[[""img/mask59.png""]]]","","","main","280","color-precision2"
"","","","","","html-keyboard-response","146","468895","0.0-10.0-1.63","5b6142d1f5bc590001184814","640759fa512f630a2bdc333d","6408c17f5ea59136b62acb33","null","","null","","","","","","","","","","","","","","","","","","","fixation","",""
"","","","","","color-precision2","147","471644","0.0-10.0-0.64-0.64","5b6142d1f5bc590001184814","640759fa512f630a2bdc333d","6408c17f5ea59136b62acb33","[223.5]","","","[9]","[122]","122","231","","[null]","[null]","[137]","0","0","1","0","148.5439999999944","1002.4640000357758","1000","[[[""img/mask76.png""]]]","","","main","231","color-precision2"
"","","","","","html-keyboard-response","148","472147","0.0-10.0-1.64","5b6142d1f5bc590001184814","640759fa512f630a2bdc333d","6408c17f5ea59136b62acb33","null","","null","","","","","","","","","","","","","","","","","","","fixation","",""
"","","","","","many-guess-6","149","475837","0.0-10.0-0.65-0.65","5b6142d1f5bc590001184814","640759fa512f630a2bdc333d","6408c17f5ea59136b62acb33","[2214.800000011921]","","","[12,15,28,31,8,19,14,20,29,22,3,1,5,18,34,26,6,4,23,13,16,30,35,10,7,17,25,11,2,32,9,0,33,24,21,27]","[291,92,251,241,42,311,172,12,122,112,2,341,162,281,102,192,62,221,351,142,32,231,201,182,22,82,301,152,261,132,52,331,72,321,211,271]","291","223","354.57792455981183","[354.57792455981183]","[131.57792455981183]","[131]","[30,210,210,120,300,300,300,210,30]","0","36","0","148.65200001193443","10.738999988068826","16","[[[""img/mask90.png""],[""img/mask29.png""],[""img/mask43.png""],[""img/mask69.png""],[""img/mask76.png""],[""img/mask25.png""],[""img/mask88.png""],[""img/mask74.png""],[""img/mask93.png""],[""img/mask28.png""],[""img/mask89.png""],[""img/mask31.png""],[""img/mask95.png""],[""img/mask46.png""],[""img/mask17.png""],[""img/mask60.png""],[""img/mask84.png""],[""img/mask77.png""],[""img/mask100.png""],[""img/mask32.png""],[""img/mask81.png""],[""img/mask17.png""],[""img/mask56.png""],[""img/mask37.png""],[""img/mask6.png""],[""img/mask79.png""],[""img/mask45.png""],[""img/mask3.png""],[""img/mask32.png""],[""img/mask76.png""],[""img/mask21.png""],[""img/mask58.png""],[""img/mask24.png""],[""img/mask83.png""],[""img/mask11.png""],[""img/mask78.png""]]]","","[12,15,28,31,8,19,14,20,29,22,3,1,5,18,34,26,6,4,23,13,16,30,35,10,7,17,25,11,2,32,9,0,33,24,21,27]","main","223","many-guess-6"
"","","","","","html-keyboard-response","150","476338","0.0-10.0-1.65","5b6142d1f5bc590001184814","640759fa512f630a2bdc333d","6408c17f5ea59136b62acb33","null","","null","","","","","","","","","","","","","","","","","","","fixation","",""
"","","","","","color-precision2","151","478993","0.0-10.0-0.66-0.66","5b6142d1f5bc590001184814","640759fa512f630a2bdc333d","6408c17f5ea59136b62acb33","[183.4000000357628]","","","[3]","[93]","93","53","149.68447125067803","[149.68447125067803]","[96.68447125067803]","[95]","0","0","1","0","148.5650000119349","997.2550000119372","1000","[[[""img/mask3.png""]]]","","","main","53","color-precision2"
"","","","","","html-keyboard-response","152","479494","0.0-10.0-1.66","5b6142d1f5bc590001184814","640759fa512f630a2bdc333d","6408c17f5ea59136b62acb33","null","","null","","","","","","","","","","","","","","","","","","","fixation","",""
"","","","","","color-precision2","153","481996","0.0-10.0-0.67-0.67","5b6142d1f5bc590001184814","640759fa512f630a2bdc333d","6408c17f5ea59136b62acb33","[35]","","","[30]","[28]","28","272","","[null]","[null]","[21]","0","0","1","0","149.64400002383627","1001.5509999999776","1000","[[[""img/mask9.png""]]]","","","main","272","color-precision2"
"","","","","","html-keyboard-response","154","482498","0.0-10.0-1.67","5b6142d1f5bc590001184814","640759fa512f630a2bdc333d","6408c17f5ea59136b62acb33","null","","null","","","","","","","","","","","","","","","","","","","fixation","",""
"","","","","","color-precision2","155","485085","0.0-10.0-0.68-0.68","5b6142d1f5bc590001184814","640759fa512f630a2bdc333d","6408c17f5ea59136b62acb33","[155]","","","[16]","[249]","249","36","279.53489440419094","[279.53489440419094]","[243.53489440419094]","[244]","0","0","1","0","148.00600003579166","1005.9240000238642","1000","[[[""img/mask10.png""]]]","","","main","36","color-precision2"
"","","","","","html-keyboard-response","156","485587","0.0-10.0-1.68","5b6142d1f5bc590001184814","640759fa512f630a2bdc333d","6408c17f5ea59136b62acb33","null","","null","","","","","","","","","","","","","","","","","","","fixation","",""
"","","","","","color-precision2","157","488411","0.0-10.0-0.69-0.69","5b6142d1f5bc590001184814","640759fa512f630a2bdc333d","6408c17f5ea59136b62acb33","[211.5]","","","[30]","[335]","335","199","","[null]","[null]","[347]","0","0","1","0","149.27400002384093","999.0179999881075","1000","[[[""img/mask36.png""]]]","","","main","199","color-precision2"
"","","","","","html-keyboard-response","158","488912","0.0-10.0-1.69","5b6142d1f5bc590001184814","640759fa512f630a2bdc333d","6408c17f5ea59136b62acb33","null","","null","","","","","","","","","","","","","","","","","","","fixation","",""
"","","","","","color-precision2","159","491716","0.0-10.0-0.70-0.70","5b6142d1f5bc590001184814","640759fa512f630a2bdc333d","6408c17f5ea59136b62acb33","[397.39999997615814]","","","[10]","[43]","43","28","50.39427925823668","[50.39427925823668]","[22.39427925823668]","[21]","0","0","1","0","146.6430000119144","1000.8130000238307","1000","[[[""img/mask91.png""]]]","","","main","28","color-precision2"
"","","","","","html-keyboard-response","160","492218","0.0-10.0-1.70","5b6142d1f5bc590001184814","640759fa512f630a2bdc333d","6408c17f5ea59136b62acb33","null","","null","","","","","","","","","","","","","","","","","","","fixation","",""
"","","","","","many-guess-6","161","495777","0.0-10.0-0.71-0.71","5b6142d1f5bc590001184814","640759fa512f630a2bdc333d","6408c17f5ea59136b62acb33","[2007.300000011921]","","","[33,22,3,14,31,35,21,27,20,11,8,24,7,30,15,4,23,9,16,13,29,19,25,1,5,12,10,28,17,2,26,6,34,18,0,32]","[199,60,339,239,269,80,289,180,90,319,40,110,50,229,170,279,30,349,299,160,70,249,130,309,259,209,189,120,150,10,140,20,359,100,219,329]","199","283","310.0423075939469","[310.0423075939469]","[27.042307593946873]","[27]","[300,120,120,30,210,120,300,120,210]","0","36","0","148.8920000238577","21.149000035773497","16","[[[""img/mask96.png""],[""img/mask20.png""],[""img/mask75.png""],[""img/mask20.png""],[""img/mask78.png""],[""img/mask10.png""],[""img/mask53.png""],[""img/mask79.png""],[""img/mask39.png""],[""img/mask100.png""],[""img/mask68.png""],[""img/mask86.png""],[""img/mask9.png""],[""img/mask40.png""],[""img/mask64.png""],[""img/mask51.png""],[""img/mask50.png""],[""img/mask75.png""],[""img/mask15.png""],[""img/mask92.png""],[""img/mask4.png""],[""img/mask65.png""],[""img/mask20.png""],[""img/mask90.png""],[""img/mask72.png""],[""img/mask86.png""],[""img/mask42.png""],[""img/mask7.png""],[""img/mask6.png""],[""img/mask83.png""],[""img/mask47.png""],[""img/mask8.png""],[""img/mask51.png""],[""img/mask82.png""],[""img/mask29.png""],[""img/mask96.png""]]]","","[33,22,3,14,31,35,21,27,20,11,8,24,7,30,15,4,23,9,16,13,29,19,25,1,5,12,10,28,17,2,26,6,34,18,0,32]","main","283","many-guess-6"
"","","","","","html-keyboard-response","162","496279","0.0-10.0-1.71","5b6142d1f5bc590001184814","640759fa512f630a2bdc333d","6408c17f5ea59136b62acb33","null","","null","","","","","","","","","","","","","","","","","","","fixation","",""
"","","","","","many-guess-6","163","498981","0.0-10.0-0.72-0.72","5b6142d1f5bc590001184814","640759fa512f630a2bdc333d","6408c17f5ea59136b62acb33","[1375.0999999642372]","","","[2,18,35,15,25,5,20,26,1,17,12,23,6,27,28,7,21,10,16,29,34,9,3,22,31,13,11,32,30,19,14,33,24,8,4,0]","[5,134,174,115,344,164,314,354,55,284,45,294,264,144,65,274,254,15,85,75,95,35,154,214,304,124,324,184,244,25,334,204,194,234,224,105]","5","296","239.7457518795679","[239.7457518795679]","[303.74575187956793]","[304]","[120,210,300,300,30,210,30,300,120]","0","36","0","148.63499998807674","13.129000011947937","16","[[[""img/mask19.png""],[""img/mask66.png""],[""img/mask24.png""],[""img/mask53.png""],[""img/mask49.png""],[""img/mask91.png""],[""img/mask87.png""],[""img/mask37.png""],[""img/mask64.png""],[""img/mask69.png""],[""img/mask18.png""],[""img/mask18.png""],[""img/mask71.png""],[""img/mask8.png""],[""img/mask16.png""],[""img/mask64.png""],[""img/mask36.png""],[""img/mask96.png""],[""img/mask100.png""],[""img/mask36.png""],[""img/mask96.png""],[""img/mask1.png""],[""img/mask98.png""],[""img/mask34.png""],[""img/mask73.png""],[""img/mask3.png""],[""img/mask3.png""],[""img/mask22.png""],[""img/mask29.png""],[""img/mask44.png""],[""img/mask47.png""],[""img/mask41.png""],[""img/mask53.png""],[""img/mask19.png""],[""img/mask18.png""],[""img/mask56.png""]]]","","[2,18,35,15,25,5,20,26,1,17,12,23,6,27,28,7,21,10,16,29,34,9,3,22,31,13,11,32,30,19,14,33,24,8,4,0]","main","296","many-guess-6"
"","","","","","html-keyboard-response","164","499482","0.0-10.0-1.72","5b6142d1f5bc590001184814","640759fa512f630a2bdc333d","6408c17f5ea59136b62acb33","null","","null","","","","","","","","","","","","","","","","","","","fixation","",""
"","","","","","color-precision2","165","502362","0.0-10.0-0.73-0.73","5b6142d1f5bc590001184814","640759fa512f630a2bdc333d","6408c17f5ea59136b62acb33","[187.5]","","","[13]","[230]","230","337","217.9350852553574","[217.9350852553574]","[240.9350852553574]","[241]","0","0","1","0","147.6689999999944","997.0640000119456","1000","[[[""img/mask22.png""]]]","","","main","337","color-precision2"
"","","","","","html-keyboard-response","166","502864","0.0-10.0-1.73","5b6142d1f5bc590001184814","640759fa512f630a2bdc333d","6408c17f5ea59136b62acb33","null","","null","","","","","","","","","","","","","","","","","","","fixation","",""
"","","","","","color-precision2","167","506554","0.0-10.0-0.74-0.74","5b6142d1f5bc590001184814","640759fa512f630a2bdc333d","6408c17f5ea59136b62acb33","[1226.699999988079]","","","[14]","[135]","135","348","135.40139271976562","[135.40139271976562]","[147.40139271976562]","[146]","0","0","1","0","147.8310000357451","1001.8599999880535","1000","[[[""img/mask96.png""]]]","","","main","348","color-precision2"
"","","","","","html-keyboard-response","168","507057","0.0-10.0-1.74","5b6142d1f5bc590001184814","640759fa512f630a2bdc333d","6408c17f5ea59136b62acb33","null","","null","","","","","","","","","","","","","","","","","","","fixation","",""
"","","","","","color-precision2","169","510082","0.0-10.0-0.75-0.75","5b6142d1f5bc590001184814","640759fa512f630a2bdc333d","6408c17f5ea59136b62acb33","[484.5]","","","[33]","[35]","35","105","130.13872799547528","[130.13872799547528]","[25.13872799547528]","[23]","0","0","1","0","147.58100002387073","995.8570000238251","1000","[[[""img/mask20.png""]]]","","","main","105","color-precision2"
"","","","","","html-keyboard-response","170","510596","0.0-10.0-1.75","5b6142d1f5bc590001184814","640759fa512f630a2bdc333d","6408c17f5ea59136b62acb33","null","","null","","","","","","","","","","","","","","","","","","","fixation","",""
"","","","","","many-guess-6","171","514234","0.0-10.0-0.76-0.76","5b6142d1f5bc590001184814","640759fa512f630a2bdc333d","6408c17f5ea59136b62acb33","[2102.599999964237]","","","[5,34,3,14,4,32,17,26,11,21,18,16,23,2,10,1,6,29,13,25,7,8,19,9,12,24,35,22,31,0,20,33,30,28,27,15]","[160,319,130,100,10,40,279,50,349,150,259,20,239,80,289,199,309,90,60,249,329,339,209,179,140,219,299,30,189,120,359,170,70,229,110,269]","160","38","100.00816848770678","[100.00816848770678]","[62.00816848770678]","[60]","[30,30,210,120,30,300,300,300,300]","0","36","0","149.06699998810655","10.03500001190696","16","[[[""img/mask8.png""],[""img/mask98.png""],[""img/mask88.png""],[""img/mask58.png""],[""img/mask89.png""],[""img/mask97.png""],[""img/mask23.png""],[""img/mask90.png""],[""img/mask92.png""],[""img/mask65.png""],[""img/mask57.png""],[""img/mask29.png""],[""img/mask30.png""],[""img/mask11.png""],[""img/mask21.png""],[""img/mask52.png""],[""img/mask89.png""],[""img/mask96.png""],[""img/mask68.png""],[""img/mask23.png""],[""img/mask66.png""],[""img/mask80.png""],[""img/mask24.png""],[""img/mask74.png""],[""img/mask25.png""],[""img/mask69.png""],[""img/mask48.png""],[""img/mask91.png""],[""img/mask25.png""],[""img/mask58.png""],[""img/mask27.png""],[""img/mask52.png""],[""img/mask65.png""],[""img/mask44.png""],[""img/mask41.png""],[""img/mask37.png""]]]","","[5,34,3,14,4,32,17,26,11,21,18,16,23,2,10,1,6,29,13,25,7,8,19,9,12,24,35,22,31,0,20,33,30,28,27,15]","main","38","many-guess-6"
"","","","","","html-keyboard-response","172","514736","0.0-10.0-1.76","5b6142d1f5bc590001184814","640759fa512f630a2bdc333d","6408c17f5ea59136b62acb33","null","","null","","","","","","","","","","","","","","","","","","","fixation","",""
"","","","","","color-precision2","173","518194","0.0-10.0-0.77-0.77","5b6142d1f5bc590001184814","640759fa512f630a2bdc333d","6408c17f5ea59136b62acb33","[941.1000000238419]","","","[12]","[38]","38","169","206.4304163794558","[206.4304163794558]","[37.43041637945581]","[38]","0","0","1","0","148.2710000119405","1004.3830000357702","1000","[[[""img/mask48.png""]]]","","","main","169","color-precision2"
"","","","","","html-keyboard-response","174","518696","0.0-10.0-1.77","5b6142d1f5bc590001184814","640759fa512f630a2bdc333d","6408c17f5ea59136b62acb33","null","","null","","","","","","","","","","","","","","","","","","","fixation","",""
