"success","timeout","failed_images","failed_audio","failed_video","trial_type","trial_index","time_elapsed","internal_node_id","subject_id","study_id","session_id","rt","stimulus","response","position_of_items","colors_of_items","color_of_target","wheel_spin","response_angle","physical_response_angle","reported_color_angle","reported_color_discrete","locs","which_test","set_size","wheel_num_options","actual_mask_duration","actual_stim_duration","CMDispTime","maskArray","maskRotation","item_positions","task","randomSpinAmount","mainTask"
"true","false","[]","[]","[]","preload","0","6419","0.0-0.0","5c8676deddda2d00012ad386","640759fa512f630a2bdc333d","6408c18217b650113cca9d30","","","","","","","","","","","","","","","","","","","","","","","",""
"true","","","","","fullscreen","1","32340","0.0-1.0","5c8676deddda2d00012ad386","640759fa512f630a2bdc333d","6408c18217b650113cca9d30","","","","","","","","","","","","","","","","","","","","","","","",""
"","","","","","html-keyboard-response","2","51969","0.0-2.0","5c8676deddda2d00012ad386","640759fa512f630a2bdc333d","6408c18217b650113cca9d30","19627","What a beautiful Wednesday to do some awesome science! </p> <p>  </p><p> </p>
    By completing this survey or questionnaire, you are consenting to be in this research study. </p>
    Your participation is voluntary and you can stop at any time.<p> [Press any key to continue] </p>"," ","","","","","","","","","","","","","","","","","","","","",""
"","","","","","html-keyboard-response","3","61972","0.0-3.0","5c8676deddda2d00012ad386","640759fa512f630a2bdc333d","6408c18217b650113cca9d30","null","
    <div style='width: 1000px;'>
    <div style='float: center;'><img src='img/TaskInstructions1.png'></img>
    </div>
    ","null","","","","","","","","","","","","","","","","","","","","",""
"","","","","","html-keyboard-response","4","63070","0.0-4.0","5c8676deddda2d00012ad386","640759fa512f630a2bdc333d","6408c18217b650113cca9d30","1095","
    <div style='width: 1000px;'>
    <div style='float: center;'><img src='img/TaskInstructions1.png'></img>
    </div>
    "," ","","","","","","","","","","","","","","","","","","","","",""
"","","","","","html-keyboard-response","5","73076","0.0-5.0","5c8676deddda2d00012ad386","640759fa512f630a2bdc333d","6408c18217b650113cca9d30","null","
    <div style='width: 1000px;'>
    <div style='float: center;'><img src='img/TaskInstructions2.png'></img>
    </div>
    ","null","","","","","","","","","","","","","","","","","","","","",""
"","","","","","html-keyboard-response","6","81074","0.0-6.0","5c8676deddda2d00012ad386","640759fa512f630a2bdc333d","6408c18217b650113cca9d30","7996","
    <div style='width: 1000px;'>
    <div style='float: center;'><img src='img/TaskInstructions2.png'></img>
    </div>
    ","arrowdown","","","","","","","","","","","","","","","","","","","","",""
"","","","","","video-keyboard-response","7","100623","0.0-7.0","5c8676deddda2d00012ad386","640759fa512f630a2bdc333d","6408c18217b650113cca9d30","19541","[""video/TaskInstructions3.mp4""]"," ","","","","","","","","","","","","","","","","","","","","",""
"","","","","","image-keyboard-response","8","123342","0.0-8.0-0.0","5c8676deddda2d00012ad386","640759fa512f630a2bdc333d","6408c18217b650113cca9d30","22717","img/training1.png"," ","","","","","","","","","","","","","","","","","","","","",""
"","","","","","color-precision2","9","137155","0.0-8.0-1.0-0.0","5c8676deddda2d00012ad386","640759fa512f630a2bdc333d","6408c18217b650113cca9d30","[4910]","","","[6]","[358]","358","244","239.37050133420627","[239.37050133420627]","[355.37050133420627]","[356]","0","0","1","0","497","1006","1000","","","0","training","",""
"","","","","","image-keyboard-response","10","170107","0.0-8.0-0.1","5c8676deddda2d00012ad386","640759fa512f630a2bdc333d","6408c18217b650113cca9d30","32949","img/training2.png"," ","","","","","","","","","","","","","","","","","","","","",""
"","","","","","many-guess-6","11","177810","0.0-8.0-1.1-0.1","5c8676deddda2d00012ad386","640759fa512f630a2bdc333d","6408c18217b650113cca9d30","[2382]","","","[23,35,19]","[316,328,345]","316","42","59.69943616251444","[59.69943616251444]","[17.699436162514438]","[16]","[30,120,210,210,120,120,30,30,30,30,30,30,30,30,30,300,30,30,210,210,300,300,30,210,210,210,120,120,300,30,210,300,120,120,300,30]","0","3","0","998","1000","1000","[[[""img/mask61.png""],[""img/mask18.png""],[""img/mask9.png""]]]","","[23,35,19]","training","",""
"","","","","","image-keyboard-response","12","182801","0.0-8.0-0.2","5c8676deddda2d00012ad386","640759fa512f630a2bdc333d","6408c18217b650113cca9d30","4989","img/training3.png"," ","","","","","","","","","","","","","","","","","","","","",""
"","","","","","[""many-guess-6""]","13","191695","0.0-8.0-1.2-0.2","5c8676deddda2d00012ad386","640759fa512f630a2bdc333d","6408c18217b650113cca9d30","[3938]","","","[20,15,7,5,18]","[27,348,247,300,60]","27","14","129.64240470974508","[129.64240470974508]","[115.64240470974508]","[114]","[120,210,120,210,30,300,300,30,120,210,30,300,300,120,210,120,300,30,120,300,120,120,210,120,30,300,30,210,120,210,210,30,300,300,120,30]","0","5","0","500","494","500","[[[""img/mask42.png""],[""img/mask59.png""],[""img/mask24.png""],[""img/mask70.png""],[""img/mask76.png""]]]","","[20,15,7,5,18]","training","",""
"","","","","","image-keyboard-response","14","199931","0.0-8.0-0.3","5c8676deddda2d00012ad386","640759fa512f630a2bdc333d","6408c18217b650113cca9d30","8232","img/training4.png"," ","","","","","","","","","","","","","","","","","","","","",""
"","","","","","[""many-guess-6""]","15","205804","0.0-8.0-1.3-0.3","5c8676deddda2d00012ad386","640759fa512f630a2bdc333d","6408c18217b650113cca9d30","[2649]","","","[26,28,35,1,11,13,5,32,18,33]","[206,171,192,239,320,219,160,286,309,252]","206","317","232.23618176270577","[232.23618176270577]","[275.23618176270577]","[275]","[120,300,120,300,210,120,30,120,210,120,30,300,30,120,120,120,120,300,300,120,300,120,120,300,300,30,210,120,210,30,300,30,30,30,210,210]","0","10","0","132","128","132","[[[""img/mask94.png""],[""img/mask36.png""],[""img/mask31.png""],[""img/mask43.png""],[""img/mask12.png""],[""img/mask29.png""],[""img/mask38.png""],[""img/mask33.png""],[""img/mask97.png""],[""img/mask99.png""]]]","","[26,28,35,1,11,13,5,32,18,33]","training","",""
"","","","","","image-keyboard-response","16","211868","0.0-8.0-0.4","5c8676deddda2d00012ad386","640759fa512f630a2bdc333d","6408c18217b650113cca9d30","6062","img/training5.png"," ","","","","","","","","","","","","","","","","","","","","",""
"","","","","","[""many-guess-6""]","17","219722","0.0-8.0-1.4-0.4","5c8676deddda2d00012ad386","640759fa512f630a2bdc333d","6408c18217b650113cca9d30","[2505]","","","[3,27,13,1,24,9,22,4,11,0,33,30,15,10,25,7,8,18,28,31,20,32,19,6,26,17,16,14,12,21,5,23,2,34,29,35]","[293,203,193,273,143,73,233,213,322,312,133,223,342,153,33,352,93,113,63,3,303,53,263,183,283,23,43,243,103,332,163,123,13,83,253,173]","293","102","350.7856953456198","[350.7856953456198]","[248.78569534561979]","[249]","[30,120,30,120,300,120,210,210,210,210,120,30,120,300,120,30,30,300,120,120,210,120,210,300,210,210,30,120,300,210,210,120,300,120,300,210]","0","36","0","127","14","16","[[[""img/mask17.png""],[""img/mask7.png""],[""img/mask79.png""],[""img/mask21.png""],[""img/mask18.png""],[""img/mask30.png""],[""img/mask97.png""],[""img/mask24.png""],[""img/mask35.png""],[""img/mask64.png""],[""img/mask27.png""],[""img/mask50.png""],[""img/mask4.png""],[""img/mask68.png""],[""img/mask88.png""],[""img/mask25.png""],[""img/mask31.png""],[""img/mask98.png""],[""img/mask96.png""],[""img/mask65.png""],[""img/mask70.png""],[""img/mask70.png""],[""img/mask59.png""],[""img/mask3.png""],[""img/mask5.png""],[""img/mask21.png""],[""img/mask22.png""],[""img/mask19.png""],[""img/mask63.png""],[""img/mask27.png""],[""img/mask57.png""],[""img/mask66.png""],[""img/mask85.png""],[""img/mask30.png""],[""img/mask75.png""],[""img/mask54.png""]]]","","[3,27,13,1,24,9,22,4,11,0,33,30,15,10,25,7,8,18,28,31,20,32,19,6,26,17,16,14,12,21,5,23,2,34,29,35]","training","",""
"","","","","","image-keyboard-response","18","224853","0.0-9.0","5c8676deddda2d00012ad386","640759fa512f630a2bdc333d","6408c18217b650113cca9d30","5130","[""img/endTraining.png""]"," ","","","","","","","","","","","","","","","","","","","","",""
"","","","","","html-keyboard-response","19","225356","0.0-10.0-0.0","5c8676deddda2d00012ad386","640759fa512f630a2bdc333d","6408c18217b650113cca9d30","null","","null","","","","","","","","","","","","","","","","","","","fixation","",""
"","","","","","many-guess-6","20","230710","0.0-10.0-1.0-0.0","5c8676deddda2d00012ad386","640759fa512f630a2bdc333d","6408c18217b650113cca9d30","[2473]","","","[18,15,9,35,11,0,29,33,21,13,30,10,5,20,14,1,17,26,34,12,28,19,23,25,7,32,16,3,4,27,6,31,24,8,2,22]","[266,146,97,126,226,346,246,57,236,326,276,7,17,196,216,206,87,286,156,186,356,166,107,67,296,37,306,256,47,77,116,176,136,316,336,27]","266","196","226.51006221687916","[226.51006221687916]","[30.510062216879163]","[30]","[300,210,210,210,120,210,300,120,210]","0","36","0","147","21","16","[[[""img/mask94.png""],[""img/mask51.png""],[""img/mask91.png""],[""img/mask11.png""],[""img/mask54.png""],[""img/mask13.png""],[""img/mask16.png""],[""img/mask81.png""],[""img/mask7.png""],[""img/mask22.png""],[""img/mask95.png""],[""img/mask80.png""],[""img/mask22.png""],[""img/mask69.png""],[""img/mask49.png""],[""img/mask92.png""],[""img/mask54.png""],[""img/mask3.png""],[""img/mask94.png""],[""img/mask89.png""],[""img/mask65.png""],[""img/mask82.png""],[""img/mask48.png""],[""img/mask51.png""],[""img/mask52.png""],[""img/mask75.png""],[""img/mask6.png""],[""img/mask90.png""],[""img/mask25.png""],[""img/mask31.png""],[""img/mask100.png""],[""img/mask8.png""],[""img/mask60.png""],[""img/mask47.png""],[""img/mask33.png""],[""img/mask45.png""]]]","","[18,15,9,35,11,0,29,33,21,13,30,10,5,20,14,1,17,26,34,12,28,19,23,25,7,32,16,3,4,27,6,31,24,8,2,22]","main","196","many-guess-6"
"","","","","","html-keyboard-response","21","231216","0.0-10.0-0.1","5c8676deddda2d00012ad386","640759fa512f630a2bdc333d","6408c18217b650113cca9d30","null","","null","","","","","","","","","","","","","","","","","","","fixation","",""
"","","","","","color-precision2","22","239752","0.0-10.0-1.1-0.1","5c8676deddda2d00012ad386","640759fa512f630a2bdc333d","6408c18217b650113cca9d30","[4734]","","","[16]","[86]","86","173","281.63862197373726","[281.63862197373726]","[108.63862197373726]","[109]","0","0","1","0","144","1005","1000","[[[""img/mask52.png""]]]","","","main","173","color-precision2"
"","","","","","html-keyboard-response","23","240260","0.0-10.0-0.2","5c8676deddda2d00012ad386","640759fa512f630a2bdc333d","6408c18217b650113cca9d30","null","","null","","","","","","","","","","","","","","","","","","","fixation","",""
"","","","","","many-guess-6","24","245086","0.0-10.0-1.2-0.2","5c8676deddda2d00012ad386","640759fa512f630a2bdc333d","6408c18217b650113cca9d30","[2301]","","","[35,33,15,25,26,11,10,5,6,28,16,19,24,17,31,20,30,8,34,12,32,18,22,3,4,2,13,1,0,14,7,29,21,23,9,27]","[71,41,171,300,290,260,51,111,280,61,161,11,81,101,121,1,231,241,221,350,251,31,340,181,201,141,270,91,151,310,320,211,21,131,191,330]","71","344","235.47557535262962","[235.47557535262962]","[251.47557535262962]","[251]","[300,30,300,300,30,300,30,120,300]","0","36","0","147","9","16","[[[""img/mask77.png""],[""img/mask82.png""],[""img/mask79.png""],[""img/mask93.png""],[""img/mask37.png""],[""img/mask29.png""],[""img/mask29.png""],[""img/mask70.png""],[""img/mask87.png""],[""img/mask92.png""],[""img/mask60.png""],[""img/mask61.png""],[""img/mask63.png""],[""img/mask29.png""],[""img/mask98.png""],[""img/mask52.png""],[""img/mask73.png""],[""img/mask12.png""],[""img/mask35.png""],[""img/mask59.png""],[""img/mask71.png""],[""img/mask17.png""],[""img/mask57.png""],[""img/mask17.png""],[""img/mask11.png""],[""img/mask57.png""],[""img/mask62.png""],[""img/mask58.png""],[""img/mask70.png""],[""img/mask98.png""],[""img/mask89.png""],[""img/mask79.png""],[""img/mask32.png""],[""img/mask89.png""],[""img/mask80.png""],[""img/mask10.png""]]]","","[35,33,15,25,26,11,10,5,6,28,16,19,24,17,31,20,30,8,34,12,32,18,22,3,4,2,13,1,0,14,7,29,21,23,9,27]","main","344","many-guess-6"
"","","","","","html-keyboard-response","25","245588","0.0-10.0-0.3","5c8676deddda2d00012ad386","640759fa512f630a2bdc333d","6408c18217b650113cca9d30","null","","null","","","","","","","","","","","","","","","","","","","fixation","",""
"","","","","","many-guess-6","26","250206","0.0-10.0-1.3-0.3","5c8676deddda2d00012ad386","640759fa512f630a2bdc333d","6408c18217b650113cca9d30","[2554]","","","[23,0,8,4,9,25,27,16,15,29,14,20,11,33,13,32,21,7,30,12,5,26,17,24,6,1,31,35,18,3,22,19,2,10,28,34]","[110,349,140,339,329,210,319,60,90,230,359,279,299,270,150,190,220,100,20,160,30,130,80,50,170,309,200,40,240,10,289,180,260,250,120,70]","110","287","302.58055457949183","[302.58055457949183]","[15.580554579491832]","[16]","[210,30,300,210,30,120,300,300,30]","0","36","0","148","20","16","[[[""img/mask23.png""],[""img/mask11.png""],[""img/mask27.png""],[""img/mask90.png""],[""img/mask54.png""],[""img/mask78.png""],[""img/mask73.png""],[""img/mask11.png""],[""img/mask56.png""],[""img/mask23.png""],[""img/mask99.png""],[""img/mask35.png""],[""img/mask97.png""],[""img/mask69.png""],[""img/mask40.png""],[""img/mask87.png""],[""img/mask1.png""],[""img/mask32.png""],[""img/mask39.png""],[""img/mask70.png""],[""img/mask70.png""],[""img/mask5.png""],[""img/mask16.png""],[""img/mask94.png""],[""img/mask33.png""],[""img/mask25.png""],[""img/mask90.png""],[""img/mask16.png""],[""img/mask94.png""],[""img/mask67.png""],[""img/mask75.png""],[""img/mask97.png""],[""img/mask21.png""],[""img/mask84.png""],[""img/mask57.png""],[""img/mask60.png""]]]","","[23,0,8,4,9,25,27,16,15,29,14,20,11,33,13,32,21,7,30,12,5,26,17,24,6,1,31,35,18,3,22,19,2,10,28,34]","main","287","many-guess-6"
"","","","","","html-keyboard-response","27","250708","0.0-10.0-0.4","5c8676deddda2d00012ad386","640759fa512f630a2bdc333d","6408c18217b650113cca9d30","null","","null","","","","","","","","","","","","","","","","","","","fixation","",""
"","","","","","many-guess-6","28","254668","0.0-10.0-1.4-0.4","5c8676deddda2d00012ad386","640759fa512f630a2bdc333d","6408c18217b650113cca9d30","[1867]","","","[4,17,20,1,24,8,22,0,32,26,6,16,23,9,5,33,7,28,34,29,31,3,18,21,30,19,10,27,25,14,11,2,13,15,12,35]","[13,242,322,122,62,212,23,252,302,332,43,172,282,142,232,182,162,152,3,132,112,92,352,192,292,102,272,202,342,72,82,262,222,33,52,312]","13","212","306.3242442028957","[306.3242442028957]","[94.32424420289573]","[95]","[210,30,120,30,210,300,120,30,300]","0","36","0","147","19","16","[[[""img/mask82.png""],[""img/mask46.png""],[""img/mask33.png""],[""img/mask34.png""],[""img/mask7.png""],[""img/mask44.png""],[""img/mask21.png""],[""img/mask83.png""],[""img/mask2.png""],[""img/mask90.png""],[""img/mask72.png""],[""img/mask20.png""],[""img/mask68.png""],[""img/mask38.png""],[""img/mask15.png""],[""img/mask46.png""],[""img/mask88.png""],[""img/mask80.png""],[""img/mask80.png""],[""img/mask45.png""],[""img/mask64.png""],[""img/mask79.png""],[""img/mask27.png""],[""img/mask24.png""],[""img/mask13.png""],[""img/mask88.png""],[""img/mask82.png""],[""img/mask51.png""],[""img/mask58.png""],[""img/mask9.png""],[""img/mask10.png""],[""img/mask65.png""],[""img/mask63.png""],[""img/mask34.png""],[""img/mask90.png""],[""img/mask24.png""]]]","","[4,17,20,1,24,8,22,0,32,26,6,16,23,9,5,33,7,28,34,29,31,3,18,21,30,19,10,27,25,14,11,2,13,15,12,35]","main","212","many-guess-6"
"","","","","","html-keyboard-response","29","255172","0.0-10.0-0.5","5c8676deddda2d00012ad386","640759fa512f630a2bdc333d","6408c18217b650113cca9d30","null","","null","","","","","","","","","","","","","","","","","","","fixation","",""
"","","","","","color-precision2","30","260083","0.0-10.0-1.5-0.5","5c8676deddda2d00012ad386","640759fa512f630a2bdc333d","6408c18217b650113cca9d30","[1031]","","","[3]","[297]","297","46","330.4206551574029","[330.4206551574029]","[284.4206551574029]","[284]","0","0","1","0","145","1006","1000","[[[""img/mask17.png""]]]","","","main","46","color-precision2"
"","","","","","html-keyboard-response","31","260587","0.0-10.0-0.6","5c8676deddda2d00012ad386","640759fa512f630a2bdc333d","6408c18217b650113cca9d30","null","","null","","","","","","","","","","","","","","","","","","","fixation","",""
"","","","","","color-precision2","32","267610","0.0-10.0-1.6-0.6","5c8676deddda2d00012ad386","640759fa512f630a2bdc333d","6408c18217b650113cca9d30","[1076]","","","[3]","[147]","147","260","42.502294272427825","[42.502294272427825]","[142.50229427242783]","[141]","0","0","1","0","146","1002","1000","[[[""img/mask82.png""]]]","","","main","260","color-precision2"
"","","","","","html-keyboard-response","33","268116","0.0-10.0-0.7","5c8676deddda2d00012ad386","640759fa512f630a2bdc333d","6408c18217b650113cca9d30","null","","null","","","","","","","","","","","","","","","","","","","fixation","",""
"","","","","","color-precision2","34","272474","0.0-10.0-1.7-0.7","5c8676deddda2d00012ad386","640759fa512f630a2bdc333d","6408c18217b650113cca9d30","[1256]","","","[18]","[317]","317","82","37.67370210666448","[37.67370210666448]","[315.67370210666445]","[315]","0","0","1","0","143","996","1000","[[[""img/mask4.png""]]]","","","main","82","color-precision2"
"","","","","","html-keyboard-response","35","272980","0.0-10.0-0.8","5c8676deddda2d00012ad386","640759fa512f630a2bdc333d","6408c18217b650113cca9d30","null","","null","","","","","","","","","","","","","","","","","","","fixation","",""
"","","","","","many-guess-6","36","279008","0.0-10.0-1.8-0.8","5c8676deddda2d00012ad386","640759fa512f630a2bdc333d","6408c18217b650113cca9d30","[3091]","","","[6,23,20,12,17,21,26,4,16,7,32,19,33,11,30,2,27,3,1,28,18,35,13,22,29,34,9,8,0,10,24,31,25,15,5,14]","[259,10,170,90,229,319,200,309,359,210,180,329,299,80,120,70,150,289,239,40,249,50,60,20,349,279,220,110,30,160,130,190,140,100,339,269]","259","251","138.32283100565795","[138.32283100565795]","[247.32283100565795]","[246]","[120,300,30,30,30,300,210,120,120]","0","36","0","148","14","16","[[[""img/mask3.png""],[""img/mask94.png""],[""img/mask85.png""],[""img/mask15.png""],[""img/mask77.png""],[""img/mask99.png""],[""img/mask79.png""],[""img/mask41.png""],[""img/mask80.png""],[""img/mask23.png""],[""img/mask49.png""],[""img/mask51.png""],[""img/mask31.png""],[""img/mask51.png""],[""img/mask23.png""],[""img/mask49.png""],[""img/mask25.png""],[""img/mask17.png""],[""img/mask19.png""],[""img/mask86.png""],[""img/mask96.png""],[""img/mask80.png""],[""img/mask26.png""],[""img/mask58.png""],[""img/mask77.png""],[""img/mask77.png""],[""img/mask5.png""],[""img/mask46.png""],[""img/mask18.png""],[""img/mask21.png""],[""img/mask33.png""],[""img/mask40.png""],[""img/mask57.png""],[""img/mask56.png""],[""img/mask93.png""],[""img/mask36.png""]]]","","[6,23,20,12,17,21,26,4,16,7,32,19,33,11,30,2,27,3,1,28,18,35,13,22,29,34,9,8,0,10,24,31,25,15,5,14]","main","251","many-guess-6"
"","","","","","html-keyboard-response","37","279515","0.0-10.0-0.9","5c8676deddda2d00012ad386","640759fa512f630a2bdc333d","6408c18217b650113cca9d30","null","","null","","","","","","","","","","","","","","","","","","","fixation","",""
"","","","","","color-precision2","38","284004","0.0-10.0-1.9-0.9","5c8676deddda2d00012ad386","640759fa512f630a2bdc333d","6408c18217b650113cca9d30","[1086]","","","[26]","[302]","302","274","228.57700514326268","[228.57700514326268]","[314.5770051432627]","[314]","0","0","1","0","143","994","1000","[[[""img/mask73.png""]]]","","","main","274","color-precision2"
"","","","","","html-keyboard-response","39","284508","0.0-10.0-0.10","5c8676deddda2d00012ad386","640759fa512f630a2bdc333d","6408c18217b650113cca9d30","null","","null","","","","","","","","","","","","","","","","","","","fixation","",""
"","","","","","many-guess-6","40","290767","0.0-10.0-1.10-0.10","5c8676deddda2d00012ad386","640759fa512f630a2bdc333d","6408c18217b650113cca9d30","[3483]","","","[3,26,16,21,9,4,24,6,25,17,10,13,23,22,30,19,15,7,29,28,35,2,14,12,34,32,1,20,0,33,18,8,5,27,31,11]","[91,170,160,101,270,310,1,330,350,260,41,230,250,131,151,180,340,220,190,11,320,71,240,290,280,141,31,300,210,121,200,111,51,21,81,61]","91","236","208.8771832491774","[208.8771832491774]","[332.8771832491774]","[332]","[300,210,30,300,300,210,210,210,210]","0","36","0","148","12","16","[[[""img/mask9.png""],[""img/mask67.png""],[""img/mask44.png""],[""img/mask90.png""],[""img/mask86.png""],[""img/mask40.png""],[""img/mask11.png""],[""img/mask41.png""],[""img/mask32.png""],[""img/mask89.png""],[""img/mask20.png""],[""img/mask65.png""],[""img/mask83.png""],[""img/mask80.png""],[""img/mask37.png""],[""img/mask89.png""],[""img/mask66.png""],[""img/mask61.png""],[""img/mask15.png""],[""img/mask71.png""],[""img/mask65.png""],[""img/mask14.png""],[""img/mask1.png""],[""img/mask86.png""],[""img/mask57.png""],[""img/mask48.png""],[""img/mask87.png""],[""img/mask71.png""],[""img/mask81.png""],[""img/mask6.png""],[""img/mask68.png""],[""img/mask89.png""],[""img/mask90.png""],[""img/mask79.png""],[""img/mask54.png""],[""img/mask43.png""]]]","","[3,26,16,21,9,4,24,6,25,17,10,13,23,22,30,19,15,7,29,28,35,2,14,12,34,32,1,20,0,33,18,8,5,27,31,11]","main","236","many-guess-6"
"","","","","","html-keyboard-response","41","291268","0.0-10.0-0.11","5c8676deddda2d00012ad386","640759fa512f630a2bdc333d","6408c18217b650113cca9d30","null","","null","","","","","","","","","","","","","","","","","","","fixation","",""
"","","","","","color-precision2","42","307828","0.0-10.0-1.11-0.11","5c8676deddda2d00012ad386","640759fa512f630a2bdc333d","6408c18217b650113cca9d30","[878]","","","[19]","[1]","1","106","123.26587039723069","[123.26587039723069]","[17.265870397230685]","[15]","0","0","1","0","148","998","1000","[[[""img/mask27.png""]]]","","","main","106","color-precision2"
"","","","","","html-keyboard-response","43","308330","0.0-10.0-0.12","5c8676deddda2d00012ad386","640759fa512f630a2bdc333d","6408c18217b650113cca9d30","null","","null","","","","","","","","","","","","","","","","","","","fixation","",""
"","","","","","color-precision2","44","313649","0.0-10.0-1.12-0.12","5c8676deddda2d00012ad386","640759fa512f630a2bdc333d","6408c18217b650113cca9d30","[751]","","","[15]","[334]","334","161","143.42603675057518","[143.42603675057518]","[342.4260367505752]","[341]","0","0","1","0","145","996","1000","[[[""img/mask95.png""]]]","","","main","161","color-precision2"
"","","","","","html-keyboard-response","45","314156","0.0-10.0-0.13","5c8676deddda2d00012ad386","640759fa512f630a2bdc333d","6408c18217b650113cca9d30","null","","null","","","","","","","","","","","","","","","","","","","fixation","",""
"","","","","","color-precision2","46","323613","0.0-10.0-1.13-0.13","5c8676deddda2d00012ad386","640759fa512f630a2bdc333d","6408c18217b650113cca9d30","[1232]","","","[7]","[41]","41","166","200.31643604787","[200.31643604787]","[34.31643604787001]","[34]","0","0","1","0","144","1007","1000","[[[""img/mask73.png""]]]","","","main","166","color-precision2"
"","","","","","html-keyboard-response","47","324116","0.0-10.0-0.14","5c8676deddda2d00012ad386","640759fa512f630a2bdc333d","6408c18217b650113cca9d30","null","","null","","","","","","","","","","","","","","","","","","","fixation","",""
"","","","","","many-guess-6","48","331526","0.0-10.0-1.14-0.14","5c8676deddda2d00012ad386","640759fa512f630a2bdc333d","6408c18217b650113cca9d30","[2495]","","","[13,35,8,20,34,27,6,28,29,16,7,14,11,15,0,1,9,3,17,2,33,24,22,31,25,30,19,18,10,32,4,26,21,23,5,12]","[41,330,31,61,151,260,350,210,21,270,1,101,240,290,220,11,191,310,51,161,81,121,171,71,111,181,280,131,91,200,230,300,141,320,250,340]","41","83","43.385353901038954","[43.385353901038954]","[320.38535390103897]","[319]","[120,300,120,120,300,210,210,210,210]","0","36","0","147","16","16","[[[""img/mask43.png""],[""img/mask77.png""],[""img/mask1.png""],[""img/mask47.png""],[""img/mask94.png""],[""img/mask2.png""],[""img/mask82.png""],[""img/mask23.png""],[""img/mask49.png""],[""img/mask44.png""],[""img/mask30.png""],[""img/mask94.png""],[""img/mask24.png""],[""img/mask17.png""],[""img/mask46.png""],[""img/mask46.png""],[""img/mask59.png""],[""img/mask38.png""],[""img/mask58.png""],[""img/mask61.png""],[""img/mask90.png""],[""img/mask76.png""],[""img/mask78.png""],[""img/mask62.png""],[""img/mask31.png""],[""img/mask78.png""],[""img/mask1.png""],[""img/mask20.png""],[""img/mask27.png""],[""img/mask41.png""],[""img/mask4.png""],[""img/mask82.png""],[""img/mask86.png""],[""img/mask14.png""],[""img/mask98.png""],[""img/mask93.png""]]]","","[13,35,8,20,34,27,6,28,29,16,7,14,11,15,0,1,9,3,17,2,33,24,22,31,25,30,19,18,10,32,4,26,21,23,5,12]","main","83","many-guess-6"
"","","","","","html-keyboard-response","49","332036","0.0-10.0-0.15","5c8676deddda2d00012ad386","640759fa512f630a2bdc333d","6408c18217b650113cca9d30","null","","null","","","","","","","","","","","","","","","","","","","fixation","",""
"","","","","","color-precision2","50","338904","0.0-10.0-1.15-0.15","5c8676deddda2d00012ad386","640759fa512f630a2bdc333d","6408c18217b650113cca9d30","[3809]","","","[29]","[287]","287","146","121.13346077264625","[121.13346077264625]","[335.13346077264623]","[333]","0","0","1","0","145","1002","1000","[[[""img/mask9.png""]]]","","","main","146","color-precision2"
"","","","","","html-keyboard-response","51","339412","0.0-10.0-0.16","5c8676deddda2d00012ad386","640759fa512f630a2bdc333d","6408c18217b650113cca9d30","null","","null","","","","","","","","","","","","","","","","","","","fixation","",""
"","","","","","color-precision2","52","344389","0.0-10.0-1.16-0.16","5c8676deddda2d00012ad386","640759fa512f630a2bdc333d","6408c18217b650113cca9d30","[1442]","","","[9]","[326]","326","298","268.6227911719527","[268.6227911719527]","[330.6227911719527]","[332]","0","0","1","0","145","1005","1000","[[[""img/mask73.png""]]]","","","main","298","color-precision2"
"","","","","","html-keyboard-response","53","344892","0.0-10.0-0.17","5c8676deddda2d00012ad386","640759fa512f630a2bdc333d","6408c18217b650113cca9d30","null","","null","","","","","","","","","","","","","","","","","","","fixation","",""
"","","","","","many-guess-6","54","349598","0.0-10.0-1.17-0.17","5c8676deddda2d00012ad386","640759fa512f630a2bdc333d","6408c18217b650113cca9d30","[2069]","","","[10,27,2,7,32,23,5,13,35,3,34,18,30,4,9,15,17,6,19,22,8,29,31,25,0,11,12,21,24,16,1,20,14,33,26,28]","[17,117,326,37,226,137,157,217,207,246,356,316,67,107,177,77,256,7,27,197,87,336,187,296,57,167,306,276,97,286,127,266,147,47,236,346]","17","292","325.7522051841886","[325.7522051841886]","[33.7522051841886]","[33]","[30,120,30,30,120,30,300,120,120]","0","36","0","147","11","16","[[[""img/mask95.png""],[""img/mask21.png""],[""img/mask82.png""],[""img/mask3.png""],[""img/mask66.png""],[""img/mask58.png""],[""img/mask65.png""],[""img/mask62.png""],[""img/mask79.png""],[""img/mask39.png""],[""img/mask93.png""],[""img/mask1.png""],[""img/mask100.png""],[""img/mask73.png""],[""img/mask92.png""],[""img/mask13.png""],[""img/mask60.png""],[""img/mask82.png""],[""img/mask33.png""],[""img/mask76.png""],[""img/mask14.png""],[""img/mask38.png""],[""img/mask51.png""],[""img/mask49.png""],[""img/mask55.png""],[""img/mask96.png""],[""img/mask36.png""],[""img/mask60.png""],[""img/mask95.png""],[""img/mask42.png""],[""img/mask5.png""],[""img/mask92.png""],[""img/mask92.png""],[""img/mask84.png""],[""img/mask50.png""],[""img/mask12.png""]]]","","[10,27,2,7,32,23,5,13,35,3,34,18,30,4,9,15,17,6,19,22,8,29,31,25,0,11,12,21,24,16,1,20,14,33,26,28]","main","292","many-guess-6"
"","","","","","html-keyboard-response","55","350102","0.0-10.0-0.18","5c8676deddda2d00012ad386","640759fa512f630a2bdc333d","6408c18217b650113cca9d30","null","","null","","","","","","","","","","","","","","","","","","","fixation","",""
"","","","","","many-guess-6","56","354760","0.0-10.0-1.18-0.18","5c8676deddda2d00012ad386","640759fa512f630a2bdc333d","6408c18217b650113cca9d30","[1881]","","","[2,18,0,15,20,17,33,23,10,3,4,22,34,30,26,1,21,5,14,27,19,9,32,31,16,7,29,24,11,13,28,25,12,6,8,35]","[350,211,51,181,201,171,310,290,191,221,61,300,41,280,111,320,21,11,251,330,141,340,91,231,1,71,121,101,260,31,241,81,151,270,131,161]","350","21","42.02727388822474","[42.02727388822474]","[21.02727388822474]","[19]","[210,300,300,120,210,120,30,30,120]","0","36","0","148","8","16","[[[""img/mask41.png""],[""img/mask24.png""],[""img/mask51.png""],[""img/mask36.png""],[""img/mask17.png""],[""img/mask4.png""],[""img/mask2.png""],[""img/mask8.png""],[""img/mask45.png""],[""img/mask43.png""],[""img/mask14.png""],[""img/mask100.png""],[""img/mask51.png""],[""img/mask39.png""],[""img/mask12.png""],[""img/mask61.png""],[""img/mask2.png""],[""img/mask1.png""],[""img/mask95.png""],[""img/mask60.png""],[""img/mask20.png""],[""img/mask88.png""],[""img/mask79.png""],[""img/mask38.png""],[""img/mask50.png""],[""img/mask75.png""],[""img/mask51.png""],[""img/mask5.png""],[""img/mask58.png""],[""img/mask61.png""],[""img/mask3.png""],[""img/mask60.png""],[""img/mask44.png""],[""img/mask2.png""],[""img/mask14.png""],[""img/mask59.png""]]]","","[2,18,0,15,20,17,33,23,10,3,4,22,34,30,26,1,21,5,14,27,19,9,32,31,16,7,29,24,11,13,28,25,12,6,8,35]","main","21","many-guess-6"
"","","","","","html-keyboard-response","57","359230","0.0-10.0-0.19","5c8676deddda2d00012ad386","640759fa512f630a2bdc333d","6408c18217b650113cca9d30","4468","Wow! You've completed 20 out of 180 trials! </p> <p>  </p><p> Take a quick break, then press any key when you're ready to continue."," ","","","","","","","","","","","","","","","","","","","fixation","",""
"","","","","","many-guess-6","58","364925","0.0-10.0-1.19-0.19","5c8676deddda2d00012ad386","640759fa512f630a2bdc333d","6408c18217b650113cca9d30","[2079]","","","[18,5,10,30,22,1,2,12,31,13,8,20,23,25,9,21,3,35,29,11,24,7,34,33,26,14,4,0,27,28,6,32,19,16,17,15]","[22,222,102,202,122,2,72,92,182,132,142,232,291,242,271,12,192,351,62,172,32,152,311,112,261,301,52,321,331,341,162,212,281,82,42,252]","22","286","25.04623766474015","[25.04623766474015]","[99.04623766474015]","[98]","[30,300,300,30,300,300,30,30,210]","0","36","0","147","22","16","[[[""img/mask5.png""],[""img/mask1.png""],[""img/mask23.png""],[""img/mask76.png""],[""img/mask5.png""],[""img/mask8.png""],[""img/mask99.png""],[""img/mask32.png""],[""img/mask31.png""],[""img/mask13.png""],[""img/mask94.png""],[""img/mask24.png""],[""img/mask36.png""],[""img/mask86.png""],[""img/mask13.png""],[""img/mask80.png""],[""img/mask62.png""],[""img/mask90.png""],[""img/mask6.png""],[""img/mask11.png""],[""img/mask29.png""],[""img/mask47.png""],[""img/mask6.png""],[""img/mask52.png""],[""img/mask22.png""],[""img/mask55.png""],[""img/mask38.png""],[""img/mask27.png""],[""img/mask41.png""],[""img/mask26.png""],[""img/mask84.png""],[""img/mask40.png""],[""img/mask20.png""],[""img/mask71.png""],[""img/mask96.png""],[""img/mask96.png""]]]","","[18,5,10,30,22,1,2,12,31,13,8,20,23,25,9,21,3,35,29,11,24,7,34,33,26,14,4,0,27,28,6,32,19,16,17,15]","main","286","many-guess-6"
"","","","","","html-keyboard-response","59","365427","0.0-10.0-0.20","5c8676deddda2d00012ad386","640759fa512f630a2bdc333d","6408c18217b650113cca9d30","null","","null","","","","","","","","","","","","","","","","","","","fixation","",""
"","","","","","many-guess-6","60","370055","0.0-10.0-1.20-0.20","5c8676deddda2d00012ad386","640759fa512f630a2bdc333d","6408c18217b650113cca9d30","[1677]","","","[20,30,11,26,8,3,19,22,10,24,35,5,17,7,4,2,1,9,29,31,15,18,34,23,6,13,0,14,32,25,16,28,27,21,33,12]","[203,73,183,223,113,93,303,213,123,3,352,193,133,143,283,243,173,63,313,163,332,253,153,43,263,53,23,342,83,33,273,13,103,322,233,293]","203","14","351.91705671174367","[351.91705671174367]","[337.91705671174367]","[337]","[210,30,300,300,120,210,210,210,300]","0","36","0","146","11","16","[[[""img/mask3.png""],[""img/mask22.png""],[""img/mask23.png""],[""img/mask27.png""],[""img/mask5.png""],[""img/mask26.png""],[""img/mask10.png""],[""img/mask27.png""],[""img/mask41.png""],[""img/mask89.png""],[""img/mask60.png""],[""img/mask97.png""],[""img/mask79.png""],[""img/mask55.png""],[""img/mask58.png""],[""img/mask67.png""],[""img/mask53.png""],[""img/mask41.png""],[""img/mask35.png""],[""img/mask3.png""],[""img/mask81.png""],[""img/mask31.png""],[""img/mask59.png""],[""img/mask87.png""],[""img/mask1.png""],[""img/mask60.png""],[""img/mask65.png""],[""img/mask91.png""],[""img/mask93.png""],[""img/mask28.png""],[""img/mask13.png""],[""img/mask16.png""],[""img/mask16.png""],[""img/mask69.png""],[""img/mask34.png""],[""img/mask69.png""]]]","","[20,30,11,26,8,3,19,22,10,24,35,5,17,7,4,2,1,9,29,31,15,18,34,23,6,13,0,14,32,25,16,28,27,21,33,12]","main","14","many-guess-6"
"","","","","","html-keyboard-response","61","370560","0.0-10.0-0.21","5c8676deddda2d00012ad386","640759fa512f630a2bdc333d","6408c18217b650113cca9d30","null","","null","","","","","","","","","","","","","","","","","","","fixation","",""
"","","","","","color-precision2","62","374437","0.0-10.0-1.21-0.21","5c8676deddda2d00012ad386","640759fa512f630a2bdc333d","6408c18217b650113cca9d30","[677]","","","[34]","[340]","340","30","22.68618179811744","[22.68618179811744]","[352.68618179811745]","[352]","0","0","1","0","147","993","1000","[[[""img/mask3.png""]]]","","","main","30","color-precision2"
"","","","","","html-keyboard-response","63","374940","0.0-10.0-0.22","5c8676deddda2d00012ad386","640759fa512f630a2bdc333d","6408c18217b650113cca9d30","null","","null","","","","","","","","","","","","","","","","","","","fixation","",""
"","","","","","many-guess-6","64","379921","0.0-10.0-1.22-0.22","5c8676deddda2d00012ad386","640759fa512f630a2bdc333d","6408c18217b650113cca9d30","[1826]","","","[10,32,22,8,35,25,19,5,16,30,29,12,28,31,4,1,6,23,15,26,7,11,3,21,24,0,9,17,14,20,34,27,18,2,13,33]","[267,87,227,207,317,237,247,18,357,197,337,97,287,167,117,327,157,57,107,137,127,147,297,277,347,28,8,47,77,257,67,187,37,177,217,307]","267","61","155.49050984960516","[155.49050984960516]","[94.49050984960516]","[93]","[300,120,30,300,210,30,300,300,120]","0","36","0","147","8","16","[[[""img/mask88.png""],[""img/mask18.png""],[""img/mask1.png""],[""img/mask64.png""],[""img/mask72.png""],[""img/mask54.png""],[""img/mask38.png""],[""img/mask88.png""],[""img/mask24.png""],[""img/mask91.png""],[""img/mask87.png""],[""img/mask40.png""],[""img/mask6.png""],[""img/mask44.png""],[""img/mask87.png""],[""img/mask36.png""],[""img/mask71.png""],[""img/mask92.png""],[""img/mask18.png""],[""img/mask100.png""],[""img/mask82.png""],[""img/mask60.png""],[""img/mask19.png""],[""img/mask26.png""],[""img/mask57.png""],[""img/mask57.png""],[""img/mask83.png""],[""img/mask64.png""],[""img/mask23.png""],[""img/mask53.png""],[""img/mask26.png""],[""img/mask40.png""],[""img/mask73.png""],[""img/mask78.png""],[""img/mask78.png""],[""img/mask33.png""]]]","","[10,32,22,8,35,25,19,5,16,30,29,12,28,31,4,1,6,23,15,26,7,11,3,21,24,0,9,17,14,20,34,27,18,2,13,33]","main","61","many-guess-6"
"","","","","","html-keyboard-response","65","380428","0.0-10.0-0.23","5c8676deddda2d00012ad386","640759fa512f630a2bdc333d","6408c18217b650113cca9d30","null","","null","","","","","","","","","","","","","","","","","","","fixation","",""
"","","","","","color-precision2","66","383904","0.0-10.0-1.23-0.23","5c8676deddda2d00012ad386","640759fa512f630a2bdc333d","6408c18217b650113cca9d30","[711]","","","[7]","[241]","241","41","277.8025417893295","[277.8025417893295]","[236.8025417893295]","[237]","0","0","1","0","146","997","1000","[[[""img/mask48.png""]]]","","","main","41","color-precision2"
"","","","","","html-keyboard-response","67","384409","0.0-10.0-0.24","5c8676deddda2d00012ad386","640759fa512f630a2bdc333d","6408c18217b650113cca9d30","null","","null","","","","","","","","","","","","","","","","","","","fixation","",""
"","","","","","many-guess-6","68","389807","0.0-10.0-1.24-0.24","5c8676deddda2d00012ad386","640759fa512f630a2bdc333d","6408c18217b650113cca9d30","[3213]","","","[24,22,11,35,3,5,4,20,9,2,0,27,30,7,18,13,17,23,1,33,16,12,31,15,25,8,26,29,34,28,32,14,21,6,10,19]","[149,139,349,179,299,199,19,49,339,319,239,99,79,169,119,329,189,39,9,89,229,359,59,69,129,109,249,29,309,259,159,289,219,269,279,209]","149","84","123.4611492659255","[123.4611492659255]","[39.4611492659255]","[38]","[30,120,120,120,120,300,300,120,120]","0","36","0","146","18","16","[[[""img/mask49.png""],[""img/mask56.png""],[""img/mask6.png""],[""img/mask87.png""],[""img/mask31.png""],[""img/mask20.png""],[""img/mask51.png""],[""img/mask55.png""],[""img/mask2.png""],[""img/mask17.png""],[""img/mask34.png""],[""img/mask40.png""],[""img/mask18.png""],[""img/mask50.png""],[""img/mask92.png""],[""img/mask10.png""],[""img/mask44.png""],[""img/mask35.png""],[""img/mask95.png""],[""img/mask98.png""],[""img/mask97.png""],[""img/mask99.png""],[""img/mask87.png""],[""img/mask80.png""],[""img/mask86.png""],[""img/mask77.png""],[""img/mask67.png""],[""img/mask64.png""],[""img/mask1.png""],[""img/mask65.png""],[""img/mask62.png""],[""img/mask14.png""],[""img/mask85.png""],[""img/mask6.png""],[""img/mask49.png""],[""img/mask2.png""]]]","","[24,22,11,35,3,5,4,20,9,2,0,27,30,7,18,13,17,23,1,33,16,12,31,15,25,8,26,29,34,28,32,14,21,6,10,19]","main","84","many-guess-6"
"","","","","","html-keyboard-response","69","390308","0.0-10.0-0.25","5c8676deddda2d00012ad386","640759fa512f630a2bdc333d","6408c18217b650113cca9d30","null","","null","","","","","","","","","","","","","","","","","","","fixation","",""
"","","","","","many-guess-6","70","396266","0.0-10.0-1.25-0.25","5c8676deddda2d00012ad386","640759fa512f630a2bdc333d","6408c18217b650113cca9d30","[2239]","","","[11,16,4,30,14,3,9,6,33,24,7,25,29,34,31,18,10,20,5,22,27,13,19,8,12,2,17,23,32,35,21,28,26,15,0,1]","[26,105,235,96,115,155,225,205,345,56,165,305,325,125,195,215,175,355,265,86,315,255,6,285,135,295,275,335,46,76,145,185,36,245,66,16]","26","310","218.41161496347328","[218.41161496347328]","[268.4116149634733]","[268]","[120,30,300,210,120,30,120,30,120]","0","36","0","147","20","16","[[[""img/mask77.png""],[""img/mask63.png""],[""img/mask83.png""],[""img/mask11.png""],[""img/mask81.png""],[""img/mask4.png""],[""img/mask17.png""],[""img/mask22.png""],[""img/mask52.png""],[""img/mask81.png""],[""img/mask72.png""],[""img/mask53.png""],[""img/mask75.png""],[""img/mask94.png""],[""img/mask99.png""],[""img/mask35.png""],[""img/mask30.png""],[""img/mask28.png""],[""img/mask38.png""],[""img/mask5.png""],[""img/mask35.png""],[""img/mask18.png""],[""img/mask27.png""],[""img/mask11.png""],[""img/mask100.png""],[""img/mask4.png""],[""img/mask81.png""],[""img/mask92.png""],[""img/mask73.png""],[""img/mask68.png""],[""img/mask88.png""],[""img/mask72.png""],[""img/mask90.png""],[""img/mask21.png""],[""img/mask55.png""],[""img/mask1.png""]]]","","[11,16,4,30,14,3,9,6,33,24,7,25,29,34,31,18,10,20,5,22,27,13,19,8,12,2,17,23,32,35,21,28,26,15,0,1]","main","310","many-guess-6"
"","","","","","html-keyboard-response","71","396772","0.0-10.0-0.26","5c8676deddda2d00012ad386","640759fa512f630a2bdc333d","6408c18217b650113cca9d30","null","","null","","","","","","","","","","","","","","","","","","","fixation","",""
"","","","","","many-guess-6","72","400715","0.0-10.0-1.26-0.26","5c8676deddda2d00012ad386","640759fa512f630a2bdc333d","6408c18217b650113cca9d30","[1872]","","","[20,27,29,18,23,3,6,17,5,11,26,7,4,10,16,13,33,15,32,30,9,34,19,24,22,8,31,0,35,12,21,25,14,1,2,28]","[242,112,182,282,3,122,132,152,312,272,82,172,212,142,342,352,192,62,23,202,232,162,252,92,292,332,102,52,42,222,13,302,72,33,262,322]","242","35","162.2507073283248","[162.2507073283248]","[127.25070732832481]","[126]","[120,300,30,30,210,30,30,300,300]","0","36","0","147","20","16","[[[""img/mask32.png""],[""img/mask19.png""],[""img/mask26.png""],[""img/mask82.png""],[""img/mask33.png""],[""img/mask19.png""],[""img/mask3.png""],[""img/mask59.png""],[""img/mask61.png""],[""img/mask25.png""],[""img/mask83.png""],[""img/mask59.png""],[""img/mask43.png""],[""img/mask86.png""],[""img/mask38.png""],[""img/mask63.png""],[""img/mask45.png""],[""img/mask12.png""],[""img/mask77.png""],[""img/mask60.png""],[""img/mask94.png""],[""img/mask33.png""],[""img/mask36.png""],[""img/mask4.png""],[""img/mask80.png""],[""img/mask35.png""],[""img/mask86.png""],[""img/mask6.png""],[""img/mask94.png""],[""img/mask100.png""],[""img/mask38.png""],[""img/mask27.png""],[""img/mask87.png""],[""img/mask64.png""],[""img/mask61.png""],[""img/mask56.png""]]]","","[20,27,29,18,23,3,6,17,5,11,26,7,4,10,16,13,33,15,32,30,9,34,19,24,22,8,31,0,35,12,21,25,14,1,2,28]","main","35","many-guess-6"
"","","","","","html-keyboard-response","73","401220","0.0-10.0-0.27","5c8676deddda2d00012ad386","640759fa512f630a2bdc333d","6408c18217b650113cca9d30","null","","null","","","","","","","","","","","","","","","","","","","fixation","",""
"","","","","","color-precision2","74","408331","0.0-10.0-1.27-0.27","5c8676deddda2d00012ad386","640759fa512f630a2bdc333d","6408c18217b650113cca9d30","[4421]","","","[24]","[47]","47","45","121.25090402240917","[121.25090402240917]","[76.25090402240917]","[75]","0","0","1","0","145","1002","1000","[[[""img/mask65.png""]]]","","","main","45","color-precision2"
"","","","","","html-keyboard-response","75","408836","0.0-10.0-0.28","5c8676deddda2d00012ad386","640759fa512f630a2bdc333d","6408c18217b650113cca9d30","null","","null","","","","","","","","","","","","","","","","","","","fixation","",""
"","","","","","many-guess-6","76","413568","0.0-10.0-1.28-0.28","5c8676deddda2d00012ad386","640759fa512f630a2bdc333d","6408c18217b650113cca9d30","[2310]","","","[1,20,34,4,6,15,24,18,26,12,29,0,17,3,25,23,13,10,9,32,2,14,35,16,22,27,5,28,33,31,30,11,21,7,8,19]","[132,13,63,242,212,73,172,222,232,282,33,332,272,3,182,23,312,252,202,102,92,43,262,322,53,142,83,152,122,112,302,292,342,192,162,352]","132","195","208.75589458069337","[208.75589458069337]","[13.755894580693365]","[13]","[30,30,210,210,30,120,30,300,120]","0","36","0","146","13","16","[[[""img/mask68.png""],[""img/mask17.png""],[""img/mask68.png""],[""img/mask20.png""],[""img/mask37.png""],[""img/mask34.png""],[""img/mask99.png""],[""img/mask50.png""],[""img/mask63.png""],[""img/mask70.png""],[""img/mask83.png""],[""img/mask2.png""],[""img/mask64.png""],[""img/mask89.png""],[""img/mask57.png""],[""img/mask86.png""],[""img/mask55.png""],[""img/mask48.png""],[""img/mask19.png""],[""img/mask8.png""],[""img/mask72.png""],[""img/mask75.png""],[""img/mask5.png""],[""img/mask5.png""],[""img/mask12.png""],[""img/mask80.png""],[""img/mask93.png""],[""img/mask47.png""],[""img/mask3.png""],[""img/mask10.png""],[""img/mask1.png""],[""img/mask81.png""],[""img/mask43.png""],[""img/mask82.png""],[""img/mask90.png""],[""img/mask97.png""]]]","","[1,20,34,4,6,15,24,18,26,12,29,0,17,3,25,23,13,10,9,32,2,14,35,16,22,27,5,28,33,31,30,11,21,7,8,19]","main","195","many-guess-6"
"","","","","","html-keyboard-response","77","414074","0.0-10.0-0.29","5c8676deddda2d00012ad386","640759fa512f630a2bdc333d","6408c18217b650113cca9d30","null","","null","","","","","","","","","","","","","","","","","","","fixation","",""
"","","","","","color-precision2","78","417416","0.0-10.0-1.29-0.29","5c8676deddda2d00012ad386","640759fa512f630a2bdc333d","6408c18217b650113cca9d30","[627]","","","[15]","[208]","208","322","167.1254663161995","[167.1254663161995]","[205.1254663161995]","[205]","0","0","1","0","157","1003","1000","[[[""img/mask34.png""]]]","","","main","322","color-precision2"
"","","","","","html-keyboard-response","79","417924","0.0-10.0-0.30","5c8676deddda2d00012ad386","640759fa512f630a2bdc333d","6408c18217b650113cca9d30","null","","null","","","","","","","","","","","","","","","","","","","fixation","",""
"","","","","","many-guess-6","80","422675","0.0-10.0-1.30-0.30","5c8676deddda2d00012ad386","640759fa512f630a2bdc333d","6408c18217b650113cca9d30","[2216]","","","[25,27,10,18,29,17,31,13,35,9,2,5,4,23,14,3,15,34,28,11,30,7,33,1,12,24,0,19,22,8,21,16,32,6,20,26]","[273,34,74,84,183,213,303,243,313,323,94,333,134,163,104,54,14,353,173,283,4,64,203,253,114,44,193,143,233,263,293,153,343,124,223,24]","273","184","161.33311310217294","[161.33311310217294]","[337.33311310217294]","[336]","[210,210,120,210,300,300,300,120,120]","0","36","0","146","20","16","[[[""img/mask58.png""],[""img/mask10.png""],[""img/mask10.png""],[""img/mask40.png""],[""img/mask95.png""],[""img/mask64.png""],[""img/mask16.png""],[""img/mask54.png""],[""img/mask63.png""],[""img/mask3.png""],[""img/mask40.png""],[""img/mask56.png""],[""img/mask47.png""],[""img/mask78.png""],[""img/mask92.png""],[""img/mask16.png""],[""img/mask75.png""],[""img/mask43.png""],[""img/mask55.png""],[""img/mask69.png""],[""img/mask55.png""],[""img/mask58.png""],[""img/mask13.png""],[""img/mask52.png""],[""img/mask76.png""],[""img/mask58.png""],[""img/mask34.png""],[""img/mask95.png""],[""img/mask99.png""],[""img/mask69.png""],[""img/mask10.png""],[""img/mask71.png""],[""img/mask85.png""],[""img/mask79.png""],[""img/mask65.png""],[""img/mask10.png""]]]","","[25,27,10,18,29,17,31,13,35,9,2,5,4,23,14,3,15,34,28,11,30,7,33,1,12,24,0,19,22,8,21,16,32,6,20,26]","main","184","many-guess-6"
"","","","","","html-keyboard-response","81","423180","0.0-10.0-0.31","5c8676deddda2d00012ad386","640759fa512f630a2bdc333d","6408c18217b650113cca9d30","null","","null","","","","","","","","","","","","","","","","","","","fixation","",""
"","","","","","many-guess-6","82","430744","0.0-10.0-1.31-0.31","5c8676deddda2d00012ad386","640759fa512f630a2bdc333d","6408c18217b650113cca9d30","[5369]","","","[13,0,3,17,23,25,20,29,28,26,16,24,7,6,12,15,27,14,31,22,8,5,11,19,21,18,32,33,1,10,9,34,4,30,35,2]","[272,252,132,302,162,242,2,112,32,102,322,212,342,52,222,202,282,142,292,351,92,332,12,152,232,182,42,72,122,62,262,172,22,312,192,82]","272","56","143.3731104500293","[143.3731104500293]","[87.37311045002929]","[86]","[120,30,210,210,30,300,300,30,300]","0","36","0","148","16","16","[[[""img/mask35.png""],[""img/mask78.png""],[""img/mask36.png""],[""img/mask45.png""],[""img/mask56.png""],[""img/mask27.png""],[""img/mask42.png""],[""img/mask52.png""],[""img/mask13.png""],[""img/mask94.png""],[""img/mask40.png""],[""img/mask4.png""],[""img/mask38.png""],[""img/mask25.png""],[""img/mask77.png""],[""img/mask1.png""],[""img/mask69.png""],[""img/mask12.png""],[""img/mask2.png""],[""img/mask37.png""],[""img/mask15.png""],[""img/mask68.png""],[""img/mask82.png""],[""img/mask42.png""],[""img/mask63.png""],[""img/mask12.png""],[""img/mask96.png""],[""img/mask22.png""],[""img/mask26.png""],[""img/mask59.png""],[""img/mask14.png""],[""img/mask23.png""],[""img/mask25.png""],[""img/mask15.png""],[""img/mask4.png""],[""img/mask64.png""]]]","","[13,0,3,17,23,25,20,29,28,26,16,24,7,6,12,15,27,14,31,22,8,5,11,19,21,18,32,33,1,10,9,34,4,30,35,2]","main","56","many-guess-6"
"","","","","","html-keyboard-response","83","431252","0.0-10.0-0.32","5c8676deddda2d00012ad386","640759fa512f630a2bdc333d","6408c18217b650113cca9d30","null","","null","","","","","","","","","","","","","","","","","","","fixation","",""
"","","","","","color-precision2","84","434653","0.0-10.0-1.32-0.32","5c8676deddda2d00012ad386","640759fa512f630a2bdc333d","6408c18217b650113cca9d30","[496]","","","[22]","[133]","133","319","120.18341297148856","[120.18341297148856]","[161.18341297148856]","[159]","0","0","1","0","146","1001","1000","[[[""img/mask20.png""]]]","","","main","319","color-precision2"
"","","","","","html-keyboard-response","85","435156","0.0-10.0-0.33","5c8676deddda2d00012ad386","640759fa512f630a2bdc333d","6408c18217b650113cca9d30","null","","null","","","","","","","","","","","","","","","","","","","fixation","",""
"","","","","","color-precision2","86","438853","0.0-10.0-1.33-0.33","5c8676deddda2d00012ad386","640759fa512f630a2bdc333d","6408c18217b650113cca9d30","[778]","","","[15]","[185]","185","192","12.015585044824569","[12.015585044824569]","[180.01558504482458]","[179]","0","0","1","0","146","1005","1000","[[[""img/mask52.png""]]]","","","main","192","color-precision2"
"","","","","","html-keyboard-response","87","439356","0.0-10.0-0.34","5c8676deddda2d00012ad386","640759fa512f630a2bdc333d","6408c18217b650113cca9d30","null","","null","","","","","","","","","","","","","","","","","","","fixation","",""
"","","","","","color-precision2","88","443793","0.0-10.0-1.34-0.34","5c8676deddda2d00012ad386","640759fa512f630a2bdc333d","6408c18217b650113cca9d30","[653]","","","[27]","[175]","175","55","236.65824719421676","[236.65824719421676]","[181.65824719421676]","[182]","0","0","1","0","145","1008","1000","[[[""img/mask30.png""]]]","","","main","55","color-precision2"
"","","","","","html-keyboard-response","89","444300","0.0-10.0-0.35","5c8676deddda2d00012ad386","640759fa512f630a2bdc333d","6408c18217b650113cca9d30","null","","null","","","","","","","","","","","","","","","","","","","fixation","",""
"","","","","","color-precision2","90","448501","0.0-10.0-1.35-0.35","5c8676deddda2d00012ad386","640759fa512f630a2bdc333d","6408c18217b650113cca9d30","[694]","","","[4]","[6]","6","47","44.27722296359806","[44.27722296359806]","[357.27722296359804]","[356]","0","0","1","0","144","1001","1000","[[[""img/mask90.png""]]]","","","main","47","color-precision2"
"","","","","","html-keyboard-response","91","449004","0.0-10.0-0.36","5c8676deddda2d00012ad386","640759fa512f630a2bdc333d","6408c18217b650113cca9d30","null","","null","","","","","","","","","","","","","","","","","","","fixation","",""
"","","","","","color-precision2","92","455958","0.0-10.0-1.36-0.36","5c8676deddda2d00012ad386","640759fa512f630a2bdc333d","6408c18217b650113cca9d30","[3435]","","","[15]","[155]","155","65","236.50386545772852","[236.50386545772852]","[171.50386545772852]","[171]","0","0","1","0","145","998","1000","[[[""img/mask78.png""]]]","","","main","65","color-precision2"
"","","","","","html-keyboard-response","93","456460","0.0-10.0-0.37","5c8676deddda2d00012ad386","640759fa512f630a2bdc333d","6408c18217b650113cca9d30","null","","null","","","","","","","","","","","","","","","","","","","fixation","",""
"","","","","","many-guess-6","94","462615","0.0-10.0-1.37-0.37","5c8676deddda2d00012ad386","640759fa512f630a2bdc333d","6408c18217b650113cca9d30","[2542]","","","[23,29,26,18,12,22,1,5,4,15,32,19,20,14,3,17,2,27,35,34,25,10,7,24,0,21,9,28,33,8,16,30,13,6,11,31]","[262,113,252,23,342,282,312,242,222,232,103,163,272,63,352,73,202,322,33,53,332,192,133,143,302,183,93,153,43,13,173,212,3,83,123,292]","262","113","129.23094884704955","[129.23094884704955]","[16.230948847049547]","[14]","[300,120,120,30,210,120,120,120,210]","0","36","0","148","10","16","[[[""img/mask31.png""],[""img/mask11.png""],[""img/mask53.png""],[""img/mask62.png""],[""img/mask35.png""],[""img/mask90.png""],[""img/mask2.png""],[""img/mask10.png""],[""img/mask44.png""],[""img/mask84.png""],[""img/mask77.png""],[""img/mask8.png""],[""img/mask10.png""],[""img/mask45.png""],[""img/mask5.png""],[""img/mask17.png""],[""img/mask73.png""],[""img/mask90.png""],[""img/mask18.png""],[""img/mask8.png""],[""img/mask88.png""],[""img/mask12.png""],[""img/mask23.png""],[""img/mask25.png""],[""img/mask43.png""],[""img/mask99.png""],[""img/mask69.png""],[""img/mask55.png""],[""img/mask65.png""],[""img/mask86.png""],[""img/mask16.png""],[""img/mask23.png""],[""img/mask81.png""],[""img/mask18.png""],[""img/mask67.png""],[""img/mask97.png""]]]","","[23,29,26,18,12,22,1,5,4,15,32,19,20,14,3,17,2,27,35,34,25,10,7,24,0,21,9,28,33,8,16,30,13,6,11,31]","main","113","many-guess-6"
"","","","","","html-keyboard-response","95","463124","0.0-10.0-0.38","5c8676deddda2d00012ad386","640759fa512f630a2bdc333d","6408c18217b650113cca9d30","null","","null","","","","","","","","","","","","","","","","","","","fixation","",""
"","","","","","many-guess-6","96","468946","0.0-10.0-1.38-0.38","5c8676deddda2d00012ad386","640759fa512f630a2bdc333d","6408c18217b650113cca9d30","[1958]","","","[23,21,12,20,19,6,5,25,16,2,33,14,30,9,22,32,4,3,34,10,18,17,28,15,24,26,35,31,1,27,7,11,8,0,29,13]","[95,5,224,264,344,204,234,125,85,174,135,75,284,35,105,164,354,25,15,334,65,55,244,214,304,145,294,115,274,254,194,184,314,45,324,155]","95","336","333.20259174698003","[333.20259174698003]","[357.20259174698003]","[357]","[210,300,30,30,210,210,30,300,210]","0","36","0","146","23","16","[[[""img/mask22.png""],[""img/mask64.png""],[""img/mask32.png""],[""img/mask86.png""],[""img/mask68.png""],[""img/mask17.png""],[""img/mask77.png""],[""img/mask22.png""],[""img/mask80.png""],[""img/mask31.png""],[""img/mask63.png""],[""img/mask16.png""],[""img/mask75.png""],[""img/mask22.png""],[""img/mask86.png""],[""img/mask46.png""],[""img/mask3.png""],[""img/mask40.png""],[""img/mask37.png""],[""img/mask76.png""],[""img/mask68.png""],[""img/mask2.png""],[""img/mask66.png""],[""img/mask93.png""],[""img/mask10.png""],[""img/mask87.png""],[""img/mask94.png""],[""img/mask67.png""],[""img/mask47.png""],[""img/mask52.png""],[""img/mask66.png""],[""img/mask15.png""],[""img/mask92.png""],[""img/mask98.png""],[""img/mask30.png""],[""img/mask6.png""]]]","","[23,21,12,20,19,6,5,25,16,2,33,14,30,9,22,32,4,3,34,10,18,17,28,15,24,26,35,31,1,27,7,11,8,0,29,13]","main","336","many-guess-6"
"","","","","","html-keyboard-response","97","549136","0.0-10.0-0.39","5c8676deddda2d00012ad386","640759fa512f630a2bdc333d","6408c18217b650113cca9d30","80187","Wow! You've completed 40 out of 180 trials! </p> <p>  </p><p> Take a quick break, then press any key when you're ready to continue."," ","","","","","","","","","","","","","","","","","","","fixation","",""
"","","","","","many-guess-6","98","553159","0.0-10.0-1.39-0.39","5c8676deddda2d00012ad386","640759fa512f630a2bdc333d","6408c18217b650113cca9d30","[1675]","","","[35,31,24,16,7,28,27,9,21,4,18,17,23,22,8,32,10,13,14,5,15,0,20,12,29,25,11,3,26,6,34,19,2,33,1,30]","[257,88,277,227,307,177,187,38,197,28,317,167,217,337,138,118,297,357,347,237,8,98,68,58,287,128,147,327,157,48,78,247,207,18,267,108]","257","201","219.74778314803078","[219.74778314803078]","[18.747783148030777]","[19]","[300,120,30,210,300,300,30,30,210]","0","36","0","148","12","16","[[[""img/mask30.png""],[""img/mask52.png""],[""img/mask30.png""],[""img/mask6.png""],[""img/mask14.png""],[""img/mask85.png""],[""img/mask18.png""],[""img/mask95.png""],[""img/mask25.png""],[""img/mask95.png""],[""img/mask30.png""],[""img/mask59.png""],[""img/mask48.png""],[""img/mask77.png""],[""img/mask56.png""],[""img/mask42.png""],[""img/mask8.png""],[""img/mask6.png""],[""img/mask39.png""],[""img/mask61.png""],[""img/mask29.png""],[""img/mask63.png""],[""img/mask64.png""],[""img/mask41.png""],[""img/mask64.png""],[""img/mask2.png""],[""img/mask88.png""],[""img/mask63.png""],[""img/mask54.png""],[""img/mask14.png""],[""img/mask64.png""],[""img/mask25.png""],[""img/mask14.png""],[""img/mask36.png""],[""img/mask60.png""],[""img/mask74.png""]]]","","[35,31,24,16,7,28,27,9,21,4,18,17,23,22,8,32,10,13,14,5,15,0,20,12,29,25,11,3,26,6,34,19,2,33,1,30]","main","201","many-guess-6"
"","","","","","html-keyboard-response","99","553668","0.0-10.0-0.40","5c8676deddda2d00012ad386","640759fa512f630a2bdc333d","6408c18217b650113cca9d30","null","","null","","","","","","","","","","","","","","","","","","","fixation","",""
"","","","","","color-precision2","100","557574","0.0-10.0-1.40-0.40","5c8676deddda2d00012ad386","640759fa512f630a2bdc333d","6408c18217b650113cca9d30","[1472]","","","[10]","[271]","271","289","217.0932154589933","[217.0932154589933]","[288.0932154589933]","[288]","0","0","1","0","146","992","1000","[[[""img/mask70.png""]]]","","","main","289","color-precision2"
"","","","","","html-keyboard-response","101","558084","0.0-10.0-0.41","5c8676deddda2d00012ad386","640759fa512f630a2bdc333d","6408c18217b650113cca9d30","null","","null","","","","","","","","","","","","","","","","","","","fixation","",""
"","","","","","color-precision2","102","561967","0.0-10.0-1.41-0.41","5c8676deddda2d00012ad386","640759fa512f630a2bdc333d","6408c18217b650113cca9d30","[1165]","","","[24]","[348]","348","355","339.6798150354469","[339.6798150354469]","[344.6798150354469]","[344]","0","0","1","0","146","1002","1000","[[[""img/mask91.png""]]]","","","main","355","color-precision2"
"","","","","","html-keyboard-response","103","562476","0.0-10.0-0.42","5c8676deddda2d00012ad386","640759fa512f630a2bdc333d","6408c18217b650113cca9d30","null","","null","","","","","","","","","","","","","","","","","","","fixation","",""
"","","","","","color-precision2","104","567183","0.0-10.0-1.42-0.42","5c8676deddda2d00012ad386","640759fa512f630a2bdc333d","6408c18217b650113cca9d30","[33]","","","[25]","[91]","91","113","","[null]","[null]","[91]","0","0","1","0","144","1002","1000","[[[""img/mask88.png""]]]","","","main","113","color-precision2"
"","","","","","html-keyboard-response","105","567692","0.0-10.0-0.43","5c8676deddda2d00012ad386","640759fa512f630a2bdc333d","6408c18217b650113cca9d30","null","","null","","","","","","","","","","","","","","","","","","","fixation","",""
"","","","","","color-precision2","106","571189","0.0-10.0-1.43-0.43","5c8676deddda2d00012ad386","640759fa512f630a2bdc333d","6408c18217b650113cca9d30","[657]","","","[34]","[236]","236","305","186.13070478308003","[186.13070478308003]","[241.13070478308003]","[240]","0","0","1","0","145","993","1000","[[[""img/mask71.png""]]]","","","main","305","color-precision2"
"","","","","","html-keyboard-response","107","571692","0.0-10.0-0.44","5c8676deddda2d00012ad386","640759fa512f630a2bdc333d","6408c18217b650113cca9d30","null","","null","","","","","","","","","","","","","","","","","","","fixation","",""
"","","","","","many-guess-6","108","577150","0.0-10.0-1.44-0.44","5c8676deddda2d00012ad386","640759fa512f630a2bdc333d","6408c18217b650113cca9d30","[2184]","","","[26,32,31,8,7,27,15,23,21,16,9,0,2,24,20,5,35,4,3,28,12,14,29,13,25,6,30,19,18,22,11,34,17,33,1,10]","[240,320,120,260,250,70,100,51,41,210,180,300,150,330,290,140,230,11,130,350,310,160,80,90,270,190,1,170,110,21,340,61,220,31,200,280]","240","4","38.14976725033374","[38.14976725033374]","[34.14976725033374]","[33]","[120,30,30,210,300,30,120,210,120]","0","36","0","147","8","16","[[[""img/mask16.png""],[""img/mask3.png""],[""img/mask39.png""],[""img/mask21.png""],[""img/mask30.png""],[""img/mask39.png""],[""img/mask68.png""],[""img/mask30.png""],[""img/mask99.png""],[""img/mask91.png""],[""img/mask83.png""],[""img/mask18.png""],[""img/mask55.png""],[""img/mask15.png""],[""img/mask95.png""],[""img/mask12.png""],[""img/mask10.png""],[""img/mask95.png""],[""img/mask62.png""],[""img/mask38.png""],[""img/mask8.png""],[""img/mask1.png""],[""img/mask39.png""],[""img/mask3.png""],[""img/mask29.png""],[""img/mask80.png""],[""img/mask74.png""],[""img/mask55.png""],[""img/mask29.png""],[""img/mask58.png""],[""img/mask51.png""],[""img/mask61.png""],[""img/mask46.png""],[""img/mask1.png""],[""img/mask62.png""],[""img/mask91.png""]]]","","[26,32,31,8,7,27,15,23,21,16,9,0,2,24,20,5,35,4,3,28,12,14,29,13,25,6,30,19,18,22,11,34,17,33,1,10]","main","4","many-guess-6"
"","","","","","html-keyboard-response","109","577652","0.0-10.0-0.45","5c8676deddda2d00012ad386","640759fa512f630a2bdc333d","6408c18217b650113cca9d30","null","","null","","","","","","","","","","","","","","","","","","","fixation","",""
"","","","","","color-precision2","110","582490","0.0-10.0-1.45-0.45","5c8676deddda2d00012ad386","640759fa512f630a2bdc333d","6408c18217b650113cca9d30","[1023]","","","[9]","[40]","40","69","122.1799682078199","[122.1799682078199]","[53.1799682078199]","[52]","0","0","1","0","145","997","1000","[[[""img/mask91.png""]]]","","","main","69","color-precision2"
"","","","","","html-keyboard-response","111","582996","0.0-10.0-0.46","5c8676deddda2d00012ad386","640759fa512f630a2bdc333d","6408c18217b650113cca9d30","null","","null","","","","","","","","","","","","","","","","","","","fixation","",""
"","","","","","many-guess-6","112","587110","0.0-10.0-1.46-0.46","5c8676deddda2d00012ad386","640759fa512f630a2bdc333d","6408c18217b650113cca9d30","[2190]","","","[24,20,1,6,32,8,13,35,23,26,29,25,4,21,3,15,18,17,7,14,34,2,27,9,16,22,10,11,12,19,31,28,5,0,30,33]","[251,351,102,301,42,261,331,172,142,2,192,232,82,271,242,52,162,22,32,112,152,62,72,202,92,341,12,311,222,212,291,122,281,132,321,182]","251","140","330.83129610051697","[330.83129610051697]","[190.83129610051697]","[191]","[300,120,30,210,210,300,300,120,30]","0","36","0","148","19","16","[[[""img/mask24.png""],[""img/mask78.png""],[""img/mask82.png""],[""img/mask77.png""],[""img/mask24.png""],[""img/mask35.png""],[""img/mask40.png""],[""img/mask99.png""],[""img/mask17.png""],[""img/mask83.png""],[""img/mask7.png""],[""img/mask2.png""],[""img/mask31.png""],[""img/mask75.png""],[""img/mask36.png""],[""img/mask30.png""],[""img/mask80.png""],[""img/mask85.png""],[""img/mask64.png""],[""img/mask79.png""],[""img/mask4.png""],[""img/mask9.png""],[""img/mask1.png""],[""img/mask98.png""],[""img/mask47.png""],[""img/mask55.png""],[""img/mask3.png""],[""img/mask68.png""],[""img/mask31.png""],[""img/mask29.png""],[""img/mask95.png""],[""img/mask53.png""],[""img/mask70.png""],[""img/mask98.png""],[""img/mask80.png""],[""img/mask20.png""]]]","","[24,20,1,6,32,8,13,35,23,26,29,25,4,21,3,15,18,17,7,14,34,2,27,9,16,22,10,11,12,19,31,28,5,0,30,33]","main","140","many-guess-6"
"","","","","","html-keyboard-response","113","587612","0.0-10.0-0.47","5c8676deddda2d00012ad386","640759fa512f630a2bdc333d","6408c18217b650113cca9d30","null","","null","","","","","","","","","","","","","","","","","","","fixation","",""
"","","","","","many-guess-6","114","591818","0.0-10.0-1.47-0.47","5c8676deddda2d00012ad386","640759fa512f630a2bdc333d","6408c18217b650113cca9d30","[2519]","","","[13,24,27,0,28,18,22,31,19,11,34,35,29,15,7,25,12,9,17,20,32,3,26,21,14,6,2,10,8,23,16,4,1,33,30,5]","[268,258,98,38,228,208,308,278,188,338,128,78,18,9,248,288,298,68,178,328,138,148,28,218,198,48,118,358,318,158,58,88,348,238,108,168]","268","253","321.551926070973","[321.551926070973]","[68.55192607097302]","[69]","[30,30,30,120,30,300,300,120,210]","0","36","0","147","12","16","[[[""img/mask74.png""],[""img/mask75.png""],[""img/mask52.png""],[""img/mask2.png""],[""img/mask72.png""],[""img/mask88.png""],[""img/mask27.png""],[""img/mask61.png""],[""img/mask36.png""],[""img/mask42.png""],[""img/mask53.png""],[""img/mask17.png""],[""img/mask9.png""],[""img/mask76.png""],[""img/mask88.png""],[""img/mask11.png""],[""img/mask25.png""],[""img/mask100.png""],[""img/mask62.png""],[""img/mask22.png""],[""img/mask26.png""],[""img/mask99.png""],[""img/mask88.png""],[""img/mask27.png""],[""img/mask89.png""],[""img/mask38.png""],[""img/mask20.png""],[""img/mask96.png""],[""img/mask52.png""],[""img/mask87.png""],[""img/mask92.png""],[""img/mask100.png""],[""img/mask76.png""],[""img/mask24.png""],[""img/mask46.png""],[""img/mask16.png""]]]","","[13,24,27,0,28,18,22,31,19,11,34,35,29,15,7,25,12,9,17,20,32,3,26,21,14,6,2,10,8,23,16,4,1,33,30,5]","main","253","many-guess-6"
"","","","","","html-keyboard-response","115","592324","0.0-10.0-0.48","5c8676deddda2d00012ad386","640759fa512f630a2bdc333d","6408c18217b650113cca9d30","null","","null","","","","","","","","","","","","","","","","","","","fixation","",""
"","","","","","color-precision2","116","595253","0.0-10.0-1.48-0.48","5c8676deddda2d00012ad386","640759fa512f630a2bdc333d","6408c18217b650113cca9d30","[420]","","","[15]","[129]","129","256","27.18516336916864","[27.18516336916864]","[131.18516336916863]","[130]","0","0","1","0","148","1001","1000","[[[""img/mask16.png""]]]","","","main","256","color-precision2"
"","","","","","html-keyboard-response","117","595756","0.0-10.0-0.49","5c8676deddda2d00012ad386","640759fa512f630a2bdc333d","6408c18217b650113cca9d30","null","","null","","","","","","","","","","","","","","","","","","","fixation","",""
"","","","","","color-precision2","118","599562","0.0-10.0-1.49-0.49","5c8676deddda2d00012ad386","640759fa512f630a2bdc333d","6408c18217b650113cca9d30","[1279]","","","[33]","[61]","61","279","345.10056426532947","[345.10056426532947]","[66.10056426532947]","[66]","0","0","1","0","144","1006","1000","[[[""img/mask51.png""]]]","","","main","279","color-precision2"
"","","","","","html-keyboard-response","119","600068","0.0-10.0-0.50","5c8676deddda2d00012ad386","640759fa512f630a2bdc333d","6408c18217b650113cca9d30","null","","null","","","","","","","","","","","","","","","","","","","fixation","",""
"","","","","","many-guess-6","120","620282","0.0-10.0-1.50-0.50","5c8676deddda2d00012ad386","640759fa512f630a2bdc333d","6408c18217b650113cca9d30","[2134]","","","[13,6,5,25,4,34,17,9,10,20,21,15,0,31,12,18,23,28,3,2,16,26,29,27,1,11,33,35,22,24,14,19,32,30,8,7]","[321,171,231,211,131,201,31,61,191,81,281,12,21,261,141,151,291,161,241,351,311,251,51,221,101,2,71,41,331,301,181,111,271,91,341,121]","321","49","219.90891653700683","[219.90891653700683]","[170.90891653700683]","[171]","[300,30,300,30,210,210,300,120,210]","0","36","0","146","13","16","[[[""img/mask61.png""],[""img/mask23.png""],[""img/mask82.png""],[""img/mask100.png""],[""img/mask8.png""],[""img/mask63.png""],[""img/mask63.png""],[""img/mask71.png""],[""img/mask39.png""],[""img/mask51.png""],[""img/mask10.png""],[""img/mask5.png""],[""img/mask39.png""],[""img/mask21.png""],[""img/mask59.png""],[""img/mask6.png""],[""img/mask23.png""],[""img/mask74.png""],[""img/mask36.png""],[""img/mask52.png""],[""img/mask77.png""],[""img/mask25.png""],[""img/mask34.png""],[""img/mask23.png""],[""img/mask7.png""],[""img/mask45.png""],[""img/mask51.png""],[""img/mask39.png""],[""img/mask15.png""],[""img/mask41.png""],[""img/mask84.png""],[""img/mask22.png""],[""img/mask61.png""],[""img/mask12.png""],[""img/mask42.png""],[""img/mask23.png""]]]","","[13,6,5,25,4,34,17,9,10,20,21,15,0,31,12,18,23,28,3,2,16,26,29,27,1,11,33,35,22,24,14,19,32,30,8,7]","main","49","many-guess-6"
"","","","","","html-keyboard-response","121","620788","0.0-10.0-0.51","5c8676deddda2d00012ad386","640759fa512f630a2bdc333d","6408c18217b650113cca9d30","null","","null","","","","","","","","","","","","","","","","","","","fixation","",""
"","","","","","many-guess-6","122","624000","0.0-10.0-1.51-0.51","5c8676deddda2d00012ad386","640759fa512f630a2bdc333d","6408c18217b650113cca9d30","[1336]","","","[26,0,12,23,9,34,2,27,17,30,18,6,3,21,19,33,14,32,15,8,25,11,10,5,31,20,22,24,28,16,13,29,4,7,35,1]","[162,132,152,181,281,261,12,32,2,142,62,241,311,92,301,211,122,52,201,231,191,341,22,271,291,102,321,42,112,351,331,72,251,221,171,82]","162","117","149.52348219569973","[149.52348219569973]","[32.52348219569973]","[31]","[120,300,120,210,210,120,210,120,120]","0","36","0","148","17","16","[[[""img/mask20.png""],[""img/mask29.png""],[""img/mask98.png""],[""img/mask61.png""],[""img/mask22.png""],[""img/mask98.png""],[""img/mask81.png""],[""img/mask73.png""],[""img/mask12.png""],[""img/mask58.png""],[""img/mask80.png""],[""img/mask45.png""],[""img/mask86.png""],[""img/mask73.png""],[""img/mask20.png""],[""img/mask46.png""],[""img/mask15.png""],[""img/mask86.png""],[""img/mask67.png""],[""img/mask1.png""],[""img/mask44.png""],[""img/mask50.png""],[""img/mask65.png""],[""img/mask13.png""],[""img/mask47.png""],[""img/mask60.png""],[""img/mask94.png""],[""img/mask2.png""],[""img/mask66.png""],[""img/mask6.png""],[""img/mask67.png""],[""img/mask21.png""],[""img/mask6.png""],[""img/mask56.png""],[""img/mask4.png""],[""img/mask78.png""]]]","","[26,0,12,23,9,34,2,27,17,30,18,6,3,21,19,33,14,32,15,8,25,11,10,5,31,20,22,24,28,16,13,29,4,7,35,1]","main","117","many-guess-6"
"","","","","","html-keyboard-response","123","624508","0.0-10.0-0.52","5c8676deddda2d00012ad386","640759fa512f630a2bdc333d","6408c18217b650113cca9d30","null","","null","","","","","","","","","","","","","","","","","","","fixation","",""
"","","","","","color-precision2","124","628554","0.0-10.0-1.52-0.52","5c8676deddda2d00012ad386","640759fa512f630a2bdc333d","6408c18217b650113cca9d30","[706]","","","[30]","[197]","197","315","152.92720591050042","[152.92720591050042]","[197.92720591050042]","[197]","0","0","1","0","144","993","1000","[[[""img/mask47.png""]]]","","","main","315","color-precision2"
"","","","","","html-keyboard-response","125","629060","0.0-10.0-0.53","5c8676deddda2d00012ad386","640759fa512f630a2bdc333d","6408c18217b650113cca9d30","null","","null","","","","","","","","","","","","","","","","","","","fixation","",""
"","","","","","many-guess-6","126","632855","0.0-10.0-1.53-0.53","5c8676deddda2d00012ad386","640759fa512f630a2bdc333d","6408c18217b650113cca9d30","[1809]","","","[5,13,9,24,8,29,6,1,17,33,0,10,35,25,7,3,22,19,31,14,21,4,11,34,18,30,2,28,32,26,12,16,15,23,20,27]","[264,65,94,144,234,84,5,314,344,134,244,114,294,154,194,25,324,74,104,55,164,124,214,334,35,184,174,354,224,204,254,45,274,304,15,284]","264","18","331.4930766994192","[331.4930766994192]","[313.4930766994192]","[313]","[120,210,30,210,120,120,300,210,210]","0","36","0","148","22","16","[[[""img/mask85.png""],[""img/mask28.png""],[""img/mask44.png""],[""img/mask9.png""],[""img/mask30.png""],[""img/mask2.png""],[""img/mask26.png""],[""img/mask24.png""],[""img/mask62.png""],[""img/mask28.png""],[""img/mask54.png""],[""img/mask26.png""],[""img/mask100.png""],[""img/mask21.png""],[""img/mask52.png""],[""img/mask27.png""],[""img/mask90.png""],[""img/mask87.png""],[""img/mask80.png""],[""img/mask45.png""],[""img/mask47.png""],[""img/mask80.png""],[""img/mask58.png""],[""img/mask14.png""],[""img/mask63.png""],[""img/mask53.png""],[""img/mask2.png""],[""img/mask7.png""],[""img/mask89.png""],[""img/mask85.png""],[""img/mask34.png""],[""img/mask29.png""],[""img/mask99.png""],[""img/mask68.png""],[""img/mask41.png""],[""img/mask35.png""]]]","","[5,13,9,24,8,29,6,1,17,33,0,10,35,25,7,3,22,19,31,14,21,4,11,34,18,30,2,28,32,26,12,16,15,23,20,27]","main","18","many-guess-6"
"","","","","","html-keyboard-response","127","633362","0.0-10.0-0.54","5c8676deddda2d00012ad386","640759fa512f630a2bdc333d","6408c18217b650113cca9d30","null","","null","","","","","","","","","","","","","","","","","","","fixation","",""
"","","","","","color-precision2","128","637270","0.0-10.0-1.54-0.54","5c8676deddda2d00012ad386","640759fa512f630a2bdc333d","6408c18217b650113cca9d30","[406]","","","[14]","[1]","1","359","5.421970265871933","[5.421970265871933]","[6.421970265871948]","[5]","0","0","1","0","146","1002","1000","[[[""img/mask49.png""]]]","","","main","359","color-precision2"
"","","","","","html-keyboard-response","129","637772","0.0-10.0-0.55","5c8676deddda2d00012ad386","640759fa512f630a2bdc333d","6408c18217b650113cca9d30","null","","null","","","","","","","","","","","","","","","","","","","fixation","",""
"","","","","","many-guess-6","130","641208","0.0-10.0-1.55-0.55","5c8676deddda2d00012ad386","640759fa512f630a2bdc333d","6408c18217b650113cca9d30","[1428]","","","[35,29,27,17,7,12,24,31,22,8,30,23,13,20,9,25,19,1,10,26,3,16,34,11,18,15,5,33,6,21,14,0,28,2,4,32]","[206,166,36,325,6,275,265,86,335,16,305,225,56,215,196,116,295,355,255,106,285,126,146,66,96,245,46,76,26,156,235,186,176,136,315,345]","206","5","143.10066696357174","[143.10066696357174]","[138.10066696357174]","[137]","[210,120,210,210,300,120,30,120,210]","0","36","0","149","12","16","[[[""img/mask90.png""],[""img/mask56.png""],[""img/mask93.png""],[""img/mask88.png""],[""img/mask22.png""],[""img/mask11.png""],[""img/mask97.png""],[""img/mask77.png""],[""img/mask58.png""],[""img/mask70.png""],[""img/mask73.png""],[""img/mask56.png""],[""img/mask56.png""],[""img/mask40.png""],[""img/mask60.png""],[""img/mask69.png""],[""img/mask28.png""],[""img/mask52.png""],[""img/mask77.png""],[""img/mask19.png""],[""img/mask13.png""],[""img/mask44.png""],[""img/mask34.png""],[""img/mask16.png""],[""img/mask88.png""],[""img/mask9.png""],[""img/mask29.png""],[""img/mask35.png""],[""img/mask91.png""],[""img/mask87.png""],[""img/mask81.png""],[""img/mask69.png""],[""img/mask77.png""],[""img/mask61.png""],[""img/mask20.png""],[""img/mask30.png""]]]","","[35,29,27,17,7,12,24,31,22,8,30,23,13,20,9,25,19,1,10,26,3,16,34,11,18,15,5,33,6,21,14,0,28,2,4,32]","main","5","many-guess-6"
"","","","","","html-keyboard-response","131","641716","0.0-10.0-0.56","5c8676deddda2d00012ad386","640759fa512f630a2bdc333d","6408c18217b650113cca9d30","null","","null","","","","","","","","","","","","","","","","","","","fixation","",""
"","","","","","color-precision2","132","644868","0.0-10.0-1.56-0.56","5c8676deddda2d00012ad386","640759fa512f630a2bdc333d","6408c18217b650113cca9d30","[689]","","","[25]","[107]","107","356","122.21454754097076","[122.21454754097076]","[126.21454754097076]","[124]","0","0","1","0","146","998","1000","[[[""img/mask43.png""]]]","","","main","356","color-precision2"
"","","","","","html-keyboard-response","133","645372","0.0-10.0-0.57","5c8676deddda2d00012ad386","640759fa512f630a2bdc333d","6408c18217b650113cca9d30","null","","null","","","","","","","","","","","","","","","","","","","fixation","",""
"","","","","","many-guess-6","134","649948","0.0-10.0-1.57-0.57","5c8676deddda2d00012ad386","640759fa512f630a2bdc333d","6408c18217b650113cca9d30","[1587]","","","[22,34,29,5,8,0,33,11,18,17,6,4,1,10,32,9,26,27,31,13,19,3,30,7,14,25,2,23,12,35,21,15,16,20,24,28]","[212,12,62,142,132,222,252,302,292,202,262,242,32,2,311,282,112,92,272,72,192,22,152,351,122,321,162,341,82,52,42,182,172,232,331,102]","212","120","143.40452188793645","[143.40452188793645]","[23.404521887936454]","[22]","[300,300,30,210,120,300,120,120,120]","0","36","0","146","10","16","[[[""img/mask7.png""],[""img/mask71.png""],[""img/mask39.png""],[""img/mask91.png""],[""img/mask36.png""],[""img/mask69.png""],[""img/mask41.png""],[""img/mask29.png""],[""img/mask5.png""],[""img/mask22.png""],[""img/mask98.png""],[""img/mask82.png""],[""img/mask57.png""],[""img/mask100.png""],[""img/mask68.png""],[""img/mask34.png""],[""img/mask5.png""],[""img/mask13.png""],[""img/mask75.png""],[""img/mask53.png""],[""img/mask12.png""],[""img/mask63.png""],[""img/mask92.png""],[""img/mask80.png""],[""img/mask90.png""],[""img/mask26.png""],[""img/mask50.png""],[""img/mask82.png""],[""img/mask53.png""],[""img/mask77.png""],[""img/mask15.png""],[""img/mask12.png""],[""img/mask72.png""],[""img/mask38.png""],[""img/mask16.png""],[""img/mask76.png""]]]","","[22,34,29,5,8,0,33,11,18,17,6,4,1,10,32,9,26,27,31,13,19,3,30,7,14,25,2,23,12,35,21,15,16,20,24,28]","main","120","many-guess-6"
"","","","","","html-keyboard-response","135","650452","0.0-10.0-0.58","5c8676deddda2d00012ad386","640759fa512f630a2bdc333d","6408c18217b650113cca9d30","null","","null","","","","","","","","","","","","","","","","","","","fixation","",""
"","","","","","color-precision2","136","655064","0.0-10.0-1.58-0.58","5c8676deddda2d00012ad386","640759fa512f630a2bdc333d","6408c18217b650113cca9d30","[220]","","","[14]","[150]","150","167","","[null]","[null]","[158]","0","0","1","0","145","993","1000","[[[""img/mask96.png""]]]","","","main","167","color-precision2"
"","","","","","html-keyboard-response","137","656396","0.0-10.0-0.59","5c8676deddda2d00012ad386","640759fa512f630a2bdc333d","6408c18217b650113cca9d30","1331","Wow! You've completed 60 out of 180 trials! </p> <p>  </p><p> Take a quick break, then press any key when you're ready to continue."," ","","","","","","","","","","","","","","","","","","","fixation","",""
"","","","","","color-precision2","138","659754","0.0-10.0-1.59-0.59","5c8676deddda2d00012ad386","640759fa512f630a2bdc333d","6408c18217b650113cca9d30","[325]","","","[8]","[104]","104","171","","[null]","[null]","[108]","0","0","1","0","147","1008","1000","[[[""img/mask80.png""]]]","","","main","171","color-precision2"
"","","","","","html-keyboard-response","139","660260","0.0-10.0-0.60","5c8676deddda2d00012ad386","640759fa512f630a2bdc333d","6408c18217b650113cca9d30","null","","null","","","","","","","","","","","","","","","","","","","fixation","",""
"","","","","","color-precision2","140","664757","0.0-10.0-1.60-0.60","5c8676deddda2d00012ad386","640759fa512f630a2bdc333d","6408c18217b650113cca9d30","[1795]","","","[12]","[27]","27","203","234.9141195885889","[234.9141195885889]","[31.914119588588903]","[32]","0","0","1","0","145","1004","1000","[[[""img/mask6.png""]]]","","","main","203","color-precision2"
"","","","","","html-keyboard-response","141","665260","0.0-10.0-0.61","5c8676deddda2d00012ad386","640759fa512f630a2bdc333d","6408c18217b650113cca9d30","null","","null","","","","","","","","","","","","","","","","","","","fixation","",""
"","","","","","many-guess-6","142","669821","0.0-10.0-1.61-0.61","5c8676deddda2d00012ad386","640759fa512f630a2bdc333d","6408c18217b650113cca9d30","[1827]","","","[22,16,5,29,30,18,11,10,12,2,32,6,17,7,14,26,35,20,25,31,28,13,1,21,8,24,15,33,0,4,23,3,34,19,9,27]","[94,354,314,324,294,184,284,344,54,154,74,104,174,194,304,164,224,44,244,64,234,144,264,84,274,214,134,204,334,124,254,24,14,34,114,5]","94","255","233.44532048447724","[233.44532048447724]","[338.44532048447724]","[338]","[120,120,30,210,120,300,120,210,120]","0","36","0","147","12","16","[[[""img/mask84.png""],[""img/mask1.png""],[""img/mask71.png""],[""img/mask56.png""],[""img/mask97.png""],[""img/mask92.png""],[""img/mask4.png""],[""img/mask4.png""],[""img/mask28.png""],[""img/mask68.png""],[""img/mask30.png""],[""img/mask36.png""],[""img/mask71.png""],[""img/mask79.png""],[""img/mask10.png""],[""img/mask68.png""],[""img/mask20.png""],[""img/mask48.png""],[""img/mask14.png""],[""img/mask71.png""],[""img/mask40.png""],[""img/mask91.png""],[""img/mask42.png""],[""img/mask33.png""],[""img/mask87.png""],[""img/mask47.png""],[""img/mask50.png""],[""img/mask45.png""],[""img/mask30.png""],[""img/mask13.png""],[""img/mask61.png""],[""img/mask37.png""],[""img/mask19.png""],[""img/mask54.png""],[""img/mask13.png""],[""img/mask13.png""]]]","","[22,16,5,29,30,18,11,10,12,2,32,6,17,7,14,26,35,20,25,31,28,13,1,21,8,24,15,33,0,4,23,3,34,19,9,27]","main","255","many-guess-6"
"","","","","","html-keyboard-response","143","670324","0.0-10.0-0.62","5c8676deddda2d00012ad386","640759fa512f630a2bdc333d","6408c18217b650113cca9d30","null","","null","","","","","","","","","","","","","","","","","","","fixation","",""
"","","","","","many-guess-6","144","674905","0.0-10.0-1.62-0.62","5c8676deddda2d00012ad386","640759fa512f630a2bdc333d","6408c18217b650113cca9d30","[1793]","","","[28,4,18,35,26,24,12,31,30,20,11,34,9,3,19,10,0,29,33,27,5,23,8,1,32,6,25,17,7,22,16,21,15,2,14,13]","[21,41,31,220,340,210,100,240,120,110,140,290,11,330,1,80,270,280,71,150,200,310,160,180,61,90,350,260,51,230,320,190,130,250,170,300]","21","248","324.65574202750497","[324.65574202750497]","[76.65574202750497]","[76]","[210,300,300,210,300,120,210,210,30]","0","36","0","148","15","16","[[[""img/mask53.png""],[""img/mask95.png""],[""img/mask100.png""],[""img/mask47.png""],[""img/mask96.png""],[""img/mask34.png""],[""img/mask47.png""],[""img/mask3.png""],[""img/mask94.png""],[""img/mask58.png""],[""img/mask75.png""],[""img/mask44.png""],[""img/mask88.png""],[""img/mask99.png""],[""img/mask34.png""],[""img/mask17.png""],[""img/mask27.png""],[""img/mask29.png""],[""img/mask18.png""],[""img/mask39.png""],[""img/mask75.png""],[""img/mask58.png""],[""img/mask83.png""],[""img/mask42.png""],[""img/mask72.png""],[""img/mask73.png""],[""img/mask100.png""],[""img/mask29.png""],[""img/mask70.png""],[""img/mask47.png""],[""img/mask12.png""],[""img/mask40.png""],[""img/mask59.png""],[""img/mask21.png""],[""img/mask100.png""],[""img/mask58.png""]]]","","[28,4,18,35,26,24,12,31,30,20,11,34,9,3,19,10,0,29,33,27,5,23,8,1,32,6,25,17,7,22,16,21,15,2,14,13]","main","248","many-guess-6"
"","","","","","html-keyboard-response","145","675412","0.0-10.0-0.63","5c8676deddda2d00012ad386","640759fa512f630a2bdc333d","6408c18217b650113cca9d30","null","","null","","","","","","","","","","","","","","","","","","","fixation","",""
"","","","","","color-precision2","146","680959","0.0-10.0-1.63-0.63","5c8676deddda2d00012ad386","640759fa512f630a2bdc333d","6408c18217b650113cca9d30","[2115]","","","[18]","[45]","45","251","301.95937636901976","[301.95937636901976]","[50.959376369019765]","[51]","0","0","1","0","145","998","1000","[[[""img/mask29.png""]]]","","","main","251","color-precision2"
"","","","","","html-keyboard-response","147","681468","0.0-10.0-0.64","5c8676deddda2d00012ad386","640759fa512f630a2bdc333d","6408c18217b650113cca9d30","null","","null","","","","","","","","","","","","","","","","","","","fixation","",""
"","","","","","color-precision2","148","687049","0.0-10.0-1.64-0.64","5c8676deddda2d00012ad386","640759fa512f630a2bdc333d","6408c18217b650113cca9d30","[740]","","","[14]","[312]","312","221","157.84344172522785","[157.84344172522785]","[296.8434417252279]","[296]","0","0","1","0","144","1002","1000","[[[""img/mask33.png""]]]","","","main","221","color-precision2"
"","","","","","html-keyboard-response","149","687556","0.0-10.0-0.65","5c8676deddda2d00012ad386","640759fa512f630a2bdc333d","6408c18217b650113cca9d30","null","","null","","","","","","","","","","","","","","","","","","","fixation","",""
"","","","","","color-precision2","150","692680","0.0-10.0-1.65-0.65","5c8676deddda2d00012ad386","640759fa512f630a2bdc333d","6408c18217b650113cca9d30","[1885]","","","[29]","[222]","222","52","288.2143525830213","[288.2143525830213]","[236.2143525830213]","[236]","0","0","1","0","144","997","1000","[[[""img/mask68.png""]]]","","","main","52","color-precision2"
"","","","","","html-keyboard-response","151","693188","0.0-10.0-0.66","5c8676deddda2d00012ad386","640759fa512f630a2bdc333d","6408c18217b650113cca9d30","null","","null","","","","","","","","","","","","","","","","","","","fixation","",""
"","","","","","color-precision2","152","696748","0.0-10.0-1.66-0.66","5c8676deddda2d00012ad386","640759fa512f630a2bdc333d","6408c18217b650113cca9d30","[536]","","","[28]","[320]","320","161","130.533152222136","[130.533152222136]","[329.533152222136]","[328]","0","0","1","0","144","999","1000","[[[""img/mask80.png""]]]","","","main","161","color-precision2"
"","","","","","html-keyboard-response","153","697252","0.0-10.0-0.67","5c8676deddda2d00012ad386","640759fa512f630a2bdc333d","6408c18217b650113cca9d30","null","","null","","","","","","","","","","","","","","","","","","","fixation","",""
"","","","","","color-precision2","154","705178","0.0-10.0-1.67-0.67","5c8676deddda2d00012ad386","640759fa512f630a2bdc333d","6408c18217b650113cca9d30","[2084]","","","[23]","[81]","81","349","58.56736565338956","[58.56736565338956]","[69.56736565338957]","[69]","0","0","1","0","144","1001","1000","[[[""img/mask72.png""]]]","","","main","349","color-precision2"
"","","","","","html-keyboard-response","155","705684","0.0-10.0-0.68","5c8676deddda2d00012ad386","640759fa512f630a2bdc333d","6408c18217b650113cca9d30","null","","null","","","","","","","","","","","","","","","","","","","fixation","",""
"","","","","","color-precision2","156","713256","0.0-10.0-1.68-0.68","5c8676deddda2d00012ad386","640759fa512f630a2bdc333d","6408c18217b650113cca9d30","[3664]","","","[14]","[358]","358","103","146.01819713891672","[146.01819713891672]","[43.01819713891672]","[42]","0","0","1","0","145","1003","1000","[[[""img/mask22.png""]]]","","","main","103","color-precision2"
"","","","","","html-keyboard-response","157","713757","0.0-10.0-0.69","5c8676deddda2d00012ad386","640759fa512f630a2bdc333d","6408c18217b650113cca9d30","null","","null","","","","","","","","","","","","","","","","","","","fixation","",""
"","","","","","color-precision2","158","717215","0.0-10.0-1.69-0.69","5c8676deddda2d00012ad386","640759fa512f630a2bdc333d","6408c18217b650113cca9d30","[822]","","","[21]","[8]","8","299","297.04765805723184","[297.04765805723184]","[358.04765805723184]","[358]","0","0","1","0","145","1004","1000","[[[""img/mask53.png""]]]","","","main","299","color-precision2"
"","","","","","html-keyboard-response","159","717724","0.0-10.0-0.70","5c8676deddda2d00012ad386","640759fa512f630a2bdc333d","6408c18217b650113cca9d30","null","","null","","","","","","","","","","","","","","","","","","","fixation","",""
"","","","","","many-guess-6","160","721666","0.0-10.0-1.70-0.70","5c8676deddda2d00012ad386","640759fa512f630a2bdc333d","6408c18217b650113cca9d30","[1774]","","","[31,14,8,24,33,7,1,3,23,9,22,15,21,10,16,6,17,35,19,25,27,29,4,11,18,32,34,12,28,13,5,0,20,30,2,26]","[33,23,332,292,272,83,342,143,103,312,282,113,352,13,173,93,183,73,153,222,43,213,203,242,133,163,193,63,322,262,123,302,232,3,252,53]","33","146","57.18654060856024","[57.18654060856024]","[271.1865406085602]","[270]","[120,300,30,120,120,300,300,30,210]","0","36","0","147","20","16","[[[""img/mask11.png""],[""img/mask31.png""],[""img/mask34.png""],[""img/mask15.png""],[""img/mask20.png""],[""img/mask2.png""],[""img/mask82.png""],[""img/mask79.png""],[""img/mask83.png""],[""img/mask77.png""],[""img/mask81.png""],[""img/mask4.png""],[""img/mask33.png""],[""img/mask98.png""],[""img/mask79.png""],[""img/mask45.png""],[""img/mask15.png""],[""img/mask70.png""],[""img/mask97.png""],[""img/mask92.png""],[""img/mask44.png""],[""img/mask75.png""],[""img/mask81.png""],[""img/mask36.png""],[""img/mask82.png""],[""img/mask70.png""],[""img/mask5.png""],[""img/mask93.png""],[""img/mask37.png""],[""img/mask13.png""],[""img/mask23.png""],[""img/mask18.png""],[""img/mask91.png""],[""img/mask99.png""],[""img/mask35.png""],[""img/mask19.png""]]]","","[31,14,8,24,33,7,1,3,23,9,22,15,21,10,16,6,17,35,19,25,27,29,4,11,18,32,34,12,28,13,5,0,20,30,2,26]","main","146","many-guess-6"
"","","","","","html-keyboard-response","161","722172","0.0-10.0-0.71","5c8676deddda2d00012ad386","640759fa512f630a2bdc333d","6408c18217b650113cca9d30","null","","null","","","","","","","","","","","","","","","","","","","fixation","",""
"","","","","","many-guess-6","162","727886","0.0-10.0-1.71-0.71","5c8676deddda2d00012ad386","640759fa512f630a2bdc333d","6408c18217b650113cca9d30","[1660]","","","[6,0,10,7,35,1,25,32,4,21,11,29,31,9,20,26,8,33,28,16,30,5,34,22,23,27,13,19,3,15,24,18,2,17,14,12]","[83,353,253,63,313,93,43,283,303,193,33,53,113,4,293,123,73,103,243,173,163,213,273,233,263,14,343,143,24,203,183,323,153,223,133,333]","83","144","140.4457609551221","[140.4457609551221]","[356.44576095512207]","[355]","[210,210,210,30,120,210,210,30,300]","0","36","0","148","18","16","[[[""img/mask37.png""],[""img/mask92.png""],[""img/mask14.png""],[""img/mask100.png""],[""img/mask10.png""],[""img/mask90.png""],[""img/mask38.png""],[""img/mask88.png""],[""img/mask23.png""],[""img/mask36.png""],[""img/mask63.png""],[""img/mask65.png""],[""img/mask27.png""],[""img/mask37.png""],[""img/mask65.png""],[""img/mask1.png""],[""img/mask79.png""],[""img/mask49.png""],[""img/mask51.png""],[""img/mask57.png""],[""img/mask86.png""],[""img/mask79.png""],[""img/mask44.png""],[""img/mask42.png""],[""img/mask51.png""],[""img/mask89.png""],[""img/mask7.png""],[""img/mask49.png""],[""img/mask91.png""],[""img/mask60.png""],[""img/mask9.png""],[""img/mask55.png""],[""img/mask65.png""],[""img/mask84.png""],[""img/mask100.png""],[""img/mask83.png""]]]","","[6,0,10,7,35,1,25,32,4,21,11,29,31,9,20,26,8,33,28,16,30,5,34,22,23,27,13,19,3,15,24,18,2,17,14,12]","main","144","many-guess-6"
"","","","","","html-keyboard-response","163","728388","0.0-10.0-0.72","5c8676deddda2d00012ad386","640759fa512f630a2bdc333d","6408c18217b650113cca9d30","null","","null","","","","","","","","","","","","","","","","","","","fixation","",""
"","","","","","color-precision2","164","733460","0.0-10.0-1.72-0.72","5c8676deddda2d00012ad386","640759fa512f630a2bdc333d","6408c18217b650113cca9d30","[1338]","","","[13]","[191]","191","267","57.93714002616298","[57.93714002616298]","[150.93714002616298]","[149]","0","0","1","0","144","1000","1000","[[[""img/mask9.png""]]]","","","main","267","color-precision2"
"","","","","","html-keyboard-response","165","733964","0.0-10.0-0.73","5c8676deddda2d00012ad386","640759fa512f630a2bdc333d","6408c18217b650113cca9d30","null","","null","","","","","","","","","","","","","","","","","","","fixation","",""
"","","","","","many-guess-6","166","740104","0.0-10.0-1.73-0.73","5c8676deddda2d00012ad386","640759fa512f630a2bdc333d","6408c18217b650113cca9d30","[2545]","","","[34,23,3,0,4,20,8,6,19,30,1,17,31,26,21,35,22,14,7,18,25,33,9,15,29,12,24,27,13,5,2,10,28,32,16,11]","[247,337,327,137,47,127,57,287,197,27,217,117,17,317,87,267,237,77,167,187,207,347,157,177,147,227,37,107,257,67,357,307,7,277,297,97]","247","60","322.19380297497514","[322.19380297497514]","[262.19380297497514]","[262]","[300,120,210,30,210,210,210,30,210]","0","36","0","146","14","16","[[[""img/mask64.png""],[""img/mask57.png""],[""img/mask80.png""],[""img/mask50.png""],[""img/mask86.png""],[""img/mask10.png""],[""img/mask39.png""],[""img/mask19.png""],[""img/mask32.png""],[""img/mask42.png""],[""img/mask85.png""],[""img/mask6.png""],[""img/mask13.png""],[""img/mask69.png""],[""img/mask31.png""],[""img/mask47.png""],[""img/mask49.png""],[""img/mask1.png""],[""img/mask72.png""],[""img/mask99.png""],[""img/mask81.png""],[""img/mask58.png""],[""img/mask44.png""],[""img/mask59.png""],[""img/mask41.png""],[""img/mask75.png""],[""img/mask11.png""],[""img/mask15.png""],[""img/mask46.png""],[""img/mask56.png""],[""img/mask70.png""],[""img/mask77.png""],[""img/mask60.png""],[""img/mask66.png""],[""img/mask45.png""],[""img/mask44.png""]]]","","[34,23,3,0,4,20,8,6,19,30,1,17,31,26,21,35,22,14,7,18,25,33,9,15,29,12,24,27,13,5,2,10,28,32,16,11]","main","60","many-guess-6"
"","","","","","html-keyboard-response","167","740612","0.0-10.0-0.74","5c8676deddda2d00012ad386","640759fa512f630a2bdc333d","6408c18217b650113cca9d30","null","","null","","","","","","","","","","","","","","","","","","","fixation","",""
"","","","","","color-precision2","168","745706","0.0-10.0-1.74-0.74","5c8676deddda2d00012ad386","640759fa512f630a2bdc333d","6408c18217b650113cca9d30","[1065]","","","[27]","[341]","341","3","353.7267854536776","[353.7267854536776]","[350.7267854536776]","[351]","0","0","1","0","147","995","1000","[[[""img/mask13.png""]]]","","","main","3","color-precision2"
"","","","","","html-keyboard-response","169","746212","0.0-10.0-0.75","5c8676deddda2d00012ad386","640759fa512f630a2bdc333d","6408c18217b650113cca9d30","null","","null","","","","","","","","","","","","","","","","","","","fixation","",""
"","","","","","many-guess-6","170","750820","0.0-10.0-1.75-0.75","5c8676deddda2d00012ad386","640759fa512f630a2bdc333d","6408c18217b650113cca9d30","[2198]","","","[17,16,24,13,12,18,32,3,9,22,8,6,30,1,29,34,35,28,4,15,19,20,14,10,23,26,27,25,11,7,0,31,33,5,2,21]","[302,262,63,43,242,202,163,23,123,252,212,173,312,322,292,182,143,33,133,192,153,3,13,282,53,232,93,73,342,352,272,222,113,83,332,103]","302","266","323.89832088441887","[323.89832088441887]","[57.898320884418865]","[58]","[120,210,120,210,30,210,210,120,30]","0","36","0","147","17","16","[[[""img/mask56.png""],[""img/mask57.png""],[""img/mask90.png""],[""img/mask40.png""],[""img/mask14.png""],[""img/mask56.png""],[""img/mask5.png""],[""img/mask59.png""],[""img/mask70.png""],[""img/mask24.png""],[""img/mask50.png""],[""img/mask35.png""],[""img/mask45.png""],[""img/mask93.png""],[""img/mask27.png""],[""img/mask8.png""],[""img/mask68.png""],[""img/mask26.png""],[""img/mask22.png""],[""img/mask39.png""],[""img/mask17.png""],[""img/mask71.png""],[""img/mask22.png""],[""img/mask43.png""],[""img/mask42.png""],[""img/mask16.png""],[""img/mask1.png""],[""img/mask12.png""],[""img/mask30.png""],[""img/mask79.png""],[""img/mask13.png""],[""img/mask27.png""],[""img/mask99.png""],[""img/mask22.png""],[""img/mask100.png""],[""img/mask42.png""]]]","","[17,16,24,13,12,18,32,3,9,22,8,6,30,1,29,34,35,28,4,15,19,20,14,10,23,26,27,25,11,7,0,31,33,5,2,21]","main","266","many-guess-6"
"","","","","","html-keyboard-response","171","751324","0.0-10.0-0.76","5c8676deddda2d00012ad386","640759fa512f630a2bdc333d","6408c18217b650113cca9d30","null","","null","","","","","","","","","","","","","","","","","","","fixation","",""
"","","","","","many-guess-6","172","757734","0.0-10.0-1.76-0.76","5c8676deddda2d00012ad386","640759fa512f630a2bdc333d","6408c18217b650113cca9d30","[2526]","","","[34,5,31,32,14,28,7,26,19,2,10,15,0,8,13,29,30,33,20,17,12,21,23,25,18,6,27,4,11,16,35,22,3,1,9,24]","[94,144,104,284,64,214,114,274,164,174,294,34,134,14,244,254,24,314,84,264,74,334,194,184,204,154,353,4,324,124,224,54,304,234,44,344]","94","57","153.03773203653517","[153.03773203653517]","[96.03773203653517]","[95]","[120,30,300,120,30,300,210,30,210]","0","36","0","148","8","16","[[[""img/mask1.png""],[""img/mask73.png""],[""img/mask17.png""],[""img/mask67.png""],[""img/mask48.png""],[""img/mask92.png""],[""img/mask48.png""],[""img/mask51.png""],[""img/mask51.png""],[""img/mask28.png""],[""img/mask7.png""],[""img/mask40.png""],[""img/mask94.png""],[""img/mask86.png""],[""img/mask65.png""],[""img/mask62.png""],[""img/mask97.png""],[""img/mask61.png""],[""img/mask39.png""],[""img/mask50.png""],[""img/mask25.png""],[""img/mask6.png""],[""img/mask35.png""],[""img/mask36.png""],[""img/mask7.png""],[""img/mask92.png""],[""img/mask65.png""],[""img/mask3.png""],[""img/mask17.png""],[""img/mask86.png""],[""img/mask24.png""],[""img/mask76.png""],[""img/mask60.png""],[""img/mask60.png""],[""img/mask47.png""],[""img/mask11.png""]]]","","[34,5,31,32,14,28,7,26,19,2,10,15,0,8,13,29,30,33,20,17,12,21,23,25,18,6,27,4,11,16,35,22,3,1,9,24]","main","57","many-guess-6"
"","","","","","html-keyboard-response","173","758236","0.0-10.0-0.77","5c8676deddda2d00012ad386","640759fa512f630a2bdc333d","6408c18217b650113cca9d30","null","","null","","","","","","","","","","","","","","","","","","","fixation","",""
"","","","","","many-guess-6","174","762017","0.0-10.0-1.77-0.77","5c8676deddda2d00012ad386","640759fa512f630a2bdc333d","6408c18217b650113cca9d30","[2295]","","","[6,32,7,4,10,16,19,5,29,1,18,0,14,33,35,31,17,23,11,21,8,25,26,30,12,9,2,3,20,28,24,27,22,34,15,13]","[37,356,127,147,87,177,327,197,297,7,247,107,167,217,317,47,237,307,207,67,97,287,187,227,157,27,137,347,77,257,17,117,337,267,277,57]","37","336","334.5949237104665","[334.5949237104665]","[358.5949237104665]","[358]","[30,30,210,30,120,300,300,30,300]","0","36","0","147","21","16","[[[""img/mask74.png""],[""img/mask15.png""],[""img/mask70.png""],[""img/mask34.png""],[""img/mask10.png""],[""img/mask19.png""],[""img/mask26.png""],[""img/mask78.png""],[""img/mask16.png""],[""img/mask60.png""],[""img/mask92.png""],[""img/mask13.png""],[""img/mask54.png""],[""img/mask75.png""],[""img/mask23.png""],[""img/mask95.png""],[""img/mask62.png""],[""img/mask87.png""],[""img/mask30.png""],[""img/mask61.png""],[""img/mask34.png""],[""img/mask83.png""],[""img/mask38.png""],[""img/mask37.png""],[""img/mask62.png""],[""img/mask81.png""],[""img/mask88.png""],[""img/mask45.png""],[""img/mask43.png""],[""img/mask11.png""],[""img/mask54.png""],[""img/mask8.png""],[""img/mask33.png""],[""img/mask94.png""],[""img/mask95.png""],[""img/mask38.png""]]]","","[6,32,7,4,10,16,19,5,29,1,18,0,14,33,35,31,17,23,11,21,8,25,26,30,12,9,2,3,20,28,24,27,22,34,15,13]","main","336","many-guess-6"
"","","","","","html-keyboard-response","175","762521","0.0-10.0-0.78","5c8676deddda2d00012ad386","640759fa512f630a2bdc333d","6408c18217b650113cca9d30","null","","null","","","","","","","","","","","","","","","","","","","fixation","",""
"","","","","","color-precision2","176","767942","0.0-10.0-1.78-0.78","5c8676deddda2d00012ad386","640759fa512f630a2bdc333d","6408c18217b650113cca9d30","[1584]","","","[25]","[62]","62","134","202.42060456248277","[202.42060456248277]","[68.42060456248277]","[68]","0","0","1","0","144","998","1000","[[[""img/mask69.png""]]]","","","main","134","color-precision2"
"","","","","","html-keyboard-response","177","769095","0.0-10.0-0.79","5c8676deddda2d00012ad386","640759fa512f630a2bdc333d","6408c18217b650113cca9d30","1152","Wow! You've completed 80 out of 180 trials! </p> <p>  </p><p> Take a quick break, then press any key when you're ready to continue."," ","","","","","","","","","","","","","","","","","","","fixation","",""
"","","","","","many-guess-6","178","773018","0.0-10.0-1.79-0.79","5c8676deddda2d00012ad386","640759fa512f630a2bdc333d","6408c18217b650113cca9d30","[1796]","","","[23,8,25,17,1,15,24,10,33,7,0,31,27,9,6,12,2,11,22,30,16,13,28,21,3,35,5,18,29,14,32,26,34,20,19,4]","[239,169,139,39,269,119,179,9,89,249,229,219,308,189,99,59,299,358,69,79,159,199,318,19,129,338,259,149,109,328,279,29,289,49,348,209]","239","64","317.14091598954315","[317.14091598954315]","[253.14091598954315]","[253]","[210,30,30,210,210,300,120,210,300]","0","36","0","147","8","16","[[[""img/mask25.png""],[""img/mask60.png""],[""img/mask62.png""],[""img/mask50.png""],[""img/mask53.png""],[""img/mask57.png""],[""img/mask39.png""],[""img/mask10.png""],[""img/mask36.png""],[""img/mask94.png""],[""img/mask58.png""],[""img/mask63.png""],[""img/mask95.png""],[""img/mask11.png""],[""img/mask87.png""],[""img/mask16.png""],[""img/mask4.png""],[""img/mask59.png""],[""img/mask94.png""],[""img/mask86.png""],[""img/mask49.png""],[""img/mask22.png""],[""img/mask52.png""],[""img/mask19.png""],[""img/mask79.png""],[""img/mask79.png""],[""img/mask31.png""],[""img/mask27.png""],[""img/mask68.png""],[""img/mask17.png""],[""img/mask52.png""],[""img/mask39.png""],[""img/mask67.png""],[""img/mask100.png""],[""img/mask45.png""],[""img/mask68.png""]]]","","[23,8,25,17,1,15,24,10,33,7,0,31,27,9,6,12,2,11,22,30,16,13,28,21,3,35,5,18,29,14,32,26,34,20,19,4]","main","64","many-guess-6"
"","","","","","html-keyboard-response","179","773524","0.0-10.0-0.80","5c8676deddda2d00012ad386","640759fa512f630a2bdc333d","6408c18217b650113cca9d30","null","","null","","","","","","","","","","","","","","","","","","","fixation","",""
"","","","","","color-precision2","180","777729","0.0-10.0-1.80-0.80","5c8676deddda2d00012ad386","640759fa512f630a2bdc333d","6408c18217b650113cca9d30","[1172]","","","[18]","[126]","126","267","46.258583766169764","[46.258583766169764]","[139.25858376616975]","[138]","0","0","1","0","145","1007","1000","[[[""img/mask38.png""]]]","","","main","267","color-precision2"
"","","","","","html-keyboard-response","181","778236","0.0-10.0-0.81","5c8676deddda2d00012ad386","640759fa512f630a2bdc333d","6408c18217b650113cca9d30","null","","null","","","","","","","","","","","","","","","","","","","fixation","",""
