"success","timeout","failed_images","failed_audio","failed_video","trial_type","trial_index","time_elapsed","internal_node_id","subject_id","study_id","session_id","rt","stimulus","response","position_of_items","colors_of_items","color_of_target","wheel_spin","response_angle","physical_response_angle","reported_color_angle","reported_color_discrete","locs","which_test","set_size","wheel_num_options","actual_mask_duration","actual_stim_duration","CMDispTime","maskArray","maskRotation","item_positions","task","randomSpinAmount","mainTask"
"true","false","[]","[]","[]","preload","0","15009","0.0-0.0","5d57f9cdedef630016280505","640759fa512f630a2bdc333d","6408c17ce62ed13e6dfdcde5","","","","","","","","","","","","","","","","","","","","","","","",""
"true","","","","","fullscreen","1","18295","0.0-1.0","5d57f9cdedef630016280505","640759fa512f630a2bdc333d","6408c17ce62ed13e6dfdcde5","","","","","","","","","","","","","","","","","","","","","","","",""
"","","","","","html-keyboard-response","2","26012","0.0-2.0","5d57f9cdedef630016280505","640759fa512f630a2bdc333d","6408c17ce62ed13e6dfdcde5","7708.200000001118","What a beautiful Wednesday to do some awesome science! </p> <p>  </p><p> </p>
    By completing this survey or questionnaire, you are consenting to be in this research study. </p>
    Your participation is voluntary and you can stop at any time.<p> [Press any key to continue] </p>","shift","","","","","","","","","","","","","","","","","","","","",""
"","","","","","html-keyboard-response","3","36022","0.0-3.0","5d57f9cdedef630016280505","640759fa512f630a2bdc333d","6408c17ce62ed13e6dfdcde5","null","
    <div style='width: 1000px;'>
    <div style='float: center;'><img src='img/TaskInstructions1.png'></img>
    </div>
    ","null","","","","","","","","","","","","","","","","","","","","",""
"","","","","","html-keyboard-response","4","36581","0.0-4.0","5d57f9cdedef630016280505","640759fa512f630a2bdc333d","6408c17ce62ed13e6dfdcde5","555","
    <div style='width: 1000px;'>
    <div style='float: center;'><img src='img/TaskInstructions1.png'></img>
    </div>
    ","arrowdown","","","","","","","","","","","","","","","","","","","","",""
"","","","","","html-keyboard-response","5","46612","0.0-5.0","5d57f9cdedef630016280505","640759fa512f630a2bdc333d","6408c17ce62ed13e6dfdcde5","null","
    <div style='width: 1000px;'>
    <div style='float: center;'><img src='img/TaskInstructions2.png'></img>
    </div>
    ","null","","","","","","","","","","","","","","","","","","","","",""
"","","","","","html-keyboard-response","6","70831","0.0-6.0","5d57f9cdedef630016280505","640759fa512f630a2bdc333d","6408c17ce62ed13e6dfdcde5","24210","
    <div style='width: 1000px;'>
    <div style='float: center;'><img src='img/TaskInstructions2.png'></img>
    </div>
    ","arrowdown","","","","","","","","","","","","","","","","","","","","",""
"","","","","","video-keyboard-response","7","103742","0.0-7.0","5d57f9cdedef630016280505","640759fa512f630a2bdc333d","6408c17ce62ed13e6dfdcde5","32717.5","[""video/TaskInstructions3.mp4""]","arrowright","","","","","","","","","","","","","","","","","","","","",""
"","","","","","image-keyboard-response","8","110453","0.0-8.0-0.0","5d57f9cdedef630016280505","640759fa512f630a2bdc333d","6408c17ce62ed13e6dfdcde5","6700.5","img/training1.png","arrowright","","","","","","","","","","","","","","","","","","","","",""
"","","","","","color-precision2","9","124838","0.0-8.0-1.0-0.0","5d57f9cdedef630016280505","640759fa512f630a2bdc333d","6408c17ce62ed13e6dfdcde5","[2207.7000000011176]","","","[32]","[262]","262","61","326.46669208154344","[326.46669208154344]","[265.46669208154344]","[265]","0","0","1","0","495.5430000007327","1005.1610000014771","1000","","","0","training","",""
"","","","","","image-keyboard-response","10","140491","0.0-8.0-0.1","5d57f9cdedef630016280505","640759fa512f630a2bdc333d","6408c17ce62ed13e6dfdcde5","15640.199999999255","img/training2.png","arrowdown","","","","","","","","","","","","","","","","","","","","",""
"","","","","","many-guess-6","11","150945","0.0-8.0-1.1-0.1","5d57f9cdedef630016280505","640759fa512f630a2bdc333d","6408c17ce62ed13e6dfdcde5","[4557.200000001118]","","","[22,25,16]","[261,296,323]","261","210","124.26607807458754","[124.26607807458754]","[274.26607807458754]","[272]","[300,120,30,30,120,210,210,30,210,120,30,30,210,30,120,300,30,120,30,210,30,120,30,210,30,120,120,120,210,210,120,210,210,210,120,300]","0","3","0","996.5810000014899","999.7660000000033","1000","[[[""img/mask22.png""],[""img/mask86.png""],[""img/mask10.png""]]]","","[22,25,16]","training","",""
"","","","","","image-keyboard-response","12","160003","0.0-8.0-0.2","5d57f9cdedef630016280505","640759fa512f630a2bdc333d","6408c17ce62ed13e6dfdcde5","9049.200000001118","img/training3.png","arrowdown","","","","","","","","","","","","","","","","","","","","",""
"","","","","","[""many-guess-6""]","13","169365","0.0-8.0-1.2-0.2","5d57f9cdedef630016280505","640759fa512f630a2bdc333d","6408c17ce62ed13e6dfdcde5","[4724.299999998882]","","","[15,3,14,31,23]","[141,24,343,74,324]","141","139","122.86518528827958","[122.86518528827958]","[343.8651852882796]","[343]","[300,210,120,210,120,30,300,30,300,300,30,210,210,210,120,300,30,30,120,120,30,300,300,210,210,210,300,300,120,210,300,300,30,120,30,30]","0","5","0","497.46500000113156","497.1480000014999","500","[[[""img/mask82.png""],[""img/mask56.png""],[""img/mask31.png""],[""img/mask19.png""],[""img/mask99.png""]]]","","[15,3,14,31,23]","training","",""
"","","","","","image-keyboard-response","14","173766","0.0-8.0-0.3","5d57f9cdedef630016280505","640759fa512f630a2bdc333d","6408c17ce62ed13e6dfdcde5","4393.699999999255","img/training4.png","arrowdown","","","","","","","","","","","","","","","","","","","","",""
"","","","","","[""many-guess-6""]","15","180623","0.0-8.0-1.3-0.3","5d57f9cdedef630016280505","640759fa512f630a2bdc333d","6408c17ce62ed13e6dfdcde5","[3099.5]","","","[9,35,24,1,16,11,27,8,5,31]","[202,253,176,321,216,242,307,347,334,273]","202","137","12.356701843757902","[12.356701843757902]","[235.3567018437579]","[234]","[210,120,300,300,30,30,30,210,120,210,300,210,30,30,30,210,30,30,30,30,300,300,120,210,120,120,120,30,30,210,30,120,30,210,210,120]","0","10","0","130.4250000011234","128.78200000149081","132","[[[""img/mask11.png""],[""img/mask9.png""],[""img/mask11.png""],[""img/mask29.png""],[""img/mask52.png""],[""img/mask37.png""],[""img/mask19.png""],[""img/mask13.png""],[""img/mask59.png""],[""img/mask26.png""]]]","","[9,35,24,1,16,11,27,8,5,31]","training","",""
"","","","","","image-keyboard-response","16","190167","0.0-8.0-0.4","5d57f9cdedef630016280505","640759fa512f630a2bdc333d","6408c17ce62ed13e6dfdcde5","9534.5","img/training5.png","arrowdown","","","","","","","","","","","","","","","","","","","","",""
"","","","","","[""many-guess-6""]","17","198286","0.0-8.0-1.4-0.4","5d57f9cdedef630016280505","640759fa512f630a2bdc333d","6408c17ce62ed13e6dfdcde5","[4518.699999999255]","","","[31,35,18,29,4,23,30,10,32,13,8,3,33,24,12,16,20,25,34,17,11,21,15,9,14,6,27,26,5,1,7,0,19,2,28,22]","[48,18,337,218,278,268,288,158,308,238,258,248,8,357,118,228,347,298,78,188,198,68,318,138,168,108,208,28,98,38,88,327,148,178,58,128]","48","231","114.08893850336929","[114.08893850336929]","[243.0889385033693]","[241]","[210,30,30,300,300,30,30,210,210,30,30,120,30,210,120,30,210,300,30,210,210,300,30,210,210,120,120,210,210,120,300,210,300,30,300,120]","0","36","0","130.07100000148057","32.37000000037369","16","[[[""img/mask18.png""],[""img/mask67.png""],[""img/mask40.png""],[""img/mask14.png""],[""img/mask52.png""],[""img/mask1.png""],[""img/mask52.png""],[""img/mask95.png""],[""img/mask100.png""],[""img/mask43.png""],[""img/mask100.png""],[""img/mask98.png""],[""img/mask23.png""],[""img/mask97.png""],[""img/mask33.png""],[""img/mask54.png""],[""img/mask92.png""],[""img/mask23.png""],[""img/mask93.png""],[""img/mask82.png""],[""img/mask74.png""],[""img/mask5.png""],[""img/mask76.png""],[""img/mask97.png""],[""img/mask94.png""],[""img/mask7.png""],[""img/mask76.png""],[""img/mask40.png""],[""img/mask29.png""],[""img/mask10.png""],[""img/mask35.png""],[""img/mask70.png""],[""img/mask68.png""],[""img/mask62.png""],[""img/mask22.png""],[""img/mask91.png""]]]","","[31,35,18,29,4,23,30,10,32,13,8,3,33,24,12,16,20,25,34,17,11,21,15,9,14,6,27,26,5,1,7,0,19,2,28,22]","training","",""
"","","","","","image-keyboard-response","18","202400","0.0-9.0","5d57f9cdedef630016280505","640759fa512f630a2bdc333d","6408c17ce62ed13e6dfdcde5","4085.7000000011176","[""img/endTraining.png""]","arrowdown","","","","","","","","","","","","","","","","","","","","",""
"","","","","","many-guess-6","19","208614","0.0-10.0-0.0-0.0","5d57f9cdedef630016280505","640759fa512f630a2bdc333d","6408c17ce62ed13e6dfdcde5","[3101.5]","","","[34,0,12,31,27,9,7,19,25,3,30,6,5,10,4,24,1,35,32,15,23,8,13,14,16,26,17,28,20,22,2,18,29,33,21,11]","[357,297,108,38,118,28,8,48,207,168,257,317,78,197,267,158,307,247,68,277,217,18,347,58,128,237,88,138,98,177,287,227,327,337,148,187]","357","183","171.14911151608442","[171.14911151608442]","[348.1491115160844]","[347]","[210,210,210,120,30,210,30,120,210]","0","36","0","145.07800000000861","27.28300000037416","16","[[[""img/mask48.png""],[""img/mask84.png""],[""img/mask78.png""],[""img/mask82.png""],[""img/mask30.png""],[""img/mask15.png""],[""img/mask83.png""],[""img/mask42.png""],[""img/mask100.png""],[""img/mask58.png""],[""img/mask29.png""],[""img/mask99.png""],[""img/mask72.png""],[""img/mask81.png""],[""img/mask67.png""],[""img/mask20.png""],[""img/mask59.png""],[""img/mask68.png""],[""img/mask16.png""],[""img/mask17.png""],[""img/mask59.png""],[""img/mask38.png""],[""img/mask82.png""],[""img/mask74.png""],[""img/mask7.png""],[""img/mask40.png""],[""img/mask79.png""],[""img/mask96.png""],[""img/mask82.png""],[""img/mask51.png""],[""img/mask61.png""],[""img/mask41.png""],[""img/mask63.png""],[""img/mask83.png""],[""img/mask54.png""],[""img/mask31.png""]]]","","[34,0,12,31,27,9,7,19,25,3,30,6,5,10,4,24,1,35,32,15,23,8,13,14,16,26,17,28,20,22,2,18,29,33,21,11]","main","183","many-guess-6"
"","","","","","html-keyboard-response","20","209124","0.0-10.0-1.0","5d57f9cdedef630016280505","640759fa512f630a2bdc333d","6408c17ce62ed13e6dfdcde5","null","","null","","","","","","","","","","","","","","","","","","","fixation","",""
"","","","","","many-guess-6","21","214454","0.0-10.0-0.1-0.1","5d57f9cdedef630016280505","640759fa512f630a2bdc333d","6408c17ce62ed13e6dfdcde5","[3071.699999999255]","","","[35,16,28,22,26,5,11,17,4,34,33,7,6,3,0,24,29,8,2,20,1,15,25,9,27,10,18,13,12,23,32,14,19,21,30,31]","[236,156,136,116,106,26,66,206,255,166,96,6,275,36,196,126,86,146,295,216,46,76,176,345,335,16,285,226,355,56,315,186,305,325,245,265]","236","69","326.73605955585975","[326.73605955585975]","[257.73605955585975]","[258]","[30,120,120,30,120,300,300,210,120]","0","36","0","147.94200000001","39.04300000073272","16","[[[""img/mask81.png""],[""img/mask53.png""],[""img/mask24.png""],[""img/mask42.png""],[""img/mask69.png""],[""img/mask19.png""],[""img/mask42.png""],[""img/mask7.png""],[""img/mask34.png""],[""img/mask79.png""],[""img/mask61.png""],[""img/mask11.png""],[""img/mask63.png""],[""img/mask100.png""],[""img/mask27.png""],[""img/mask70.png""],[""img/mask91.png""],[""img/mask47.png""],[""img/mask93.png""],[""img/mask26.png""],[""img/mask27.png""],[""img/mask85.png""],[""img/mask27.png""],[""img/mask7.png""],[""img/mask62.png""],[""img/mask28.png""],[""img/mask96.png""],[""img/mask33.png""],[""img/mask75.png""],[""img/mask98.png""],[""img/mask29.png""],[""img/mask74.png""],[""img/mask71.png""],[""img/mask2.png""],[""img/mask80.png""],[""img/mask95.png""]]]","","[35,16,28,22,26,5,11,17,4,34,33,7,6,3,0,24,29,8,2,20,1,15,25,9,27,10,18,13,12,23,32,14,19,21,30,31]","main","69","many-guess-6"
"","","","","","html-keyboard-response","22","214959","0.0-10.0-1.1","5d57f9cdedef630016280505","640759fa512f630a2bdc333d","6408c17ce62ed13e6dfdcde5","null","","null","","","","","","","","","","","","","","","","","","","fixation","",""
"","","","","","color-precision2","23","222558","0.0-10.0-0.2-0.2","5d57f9cdedef630016280505","640759fa512f630a2bdc333d","6408c17ce62ed13e6dfdcde5","[4203.0999999996275]","","","[8]","[188]","188","46","228.56399146706394","[228.56399146706394]","[182.56399146706394]","[183]","0","0","1","0","147.75200000149198","1003.8940000000002","1000","[[[""img/mask16.png""]]]","","","main","46","color-precision2"
"","","","","","html-keyboard-response","24","223062","0.0-10.0-1.2","5d57f9cdedef630016280505","640759fa512f630a2bdc333d","6408c17ce62ed13e6dfdcde5","null","","null","","","","","","","","","","","","","","","","","","","fixation","",""
"","","","","","many-guess-6","25","228531","0.0-10.0-0.3-0.3","5d57f9cdedef630016280505","640759fa512f630a2bdc333d","6408c17ce62ed13e6dfdcde5","[3424.699999999255]","","","[26,27,2,9,25,35,10,4,18,28,6,15,8,32,16,31,0,24,34,5,29,12,17,20,21,11,23,14,7,13,30,3,33,19,1,22]","[143,323,123,353,153,24,54,173,163,233,273,313,34,14,213,4,303,203,133,103,74,93,333,193,243,64,253,223,283,183,84,263,343,113,44,293]","143","222","251.4329320119099","[251.4329320119099]","[29.432932011909912]","[29]","[120,300,30,300,30,210,120,30,210]","0","36","0","144.30400000148802","22.390000000363216","16","[[[""img/mask4.png""],[""img/mask2.png""],[""img/mask62.png""],[""img/mask50.png""],[""img/mask75.png""],[""img/mask50.png""],[""img/mask67.png""],[""img/mask88.png""],[""img/mask50.png""],[""img/mask36.png""],[""img/mask45.png""],[""img/mask78.png""],[""img/mask15.png""],[""img/mask83.png""],[""img/mask61.png""],[""img/mask94.png""],[""img/mask40.png""],[""img/mask99.png""],[""img/mask30.png""],[""img/mask81.png""],[""img/mask31.png""],[""img/mask90.png""],[""img/mask53.png""],[""img/mask77.png""],[""img/mask6.png""],[""img/mask90.png""],[""img/mask26.png""],[""img/mask1.png""],[""img/mask50.png""],[""img/mask87.png""],[""img/mask52.png""],[""img/mask37.png""],[""img/mask58.png""],[""img/mask22.png""],[""img/mask88.png""],[""img/mask19.png""]]]","","[26,27,2,9,25,35,10,4,18,28,6,15,8,32,16,31,0,24,34,5,29,12,17,20,21,11,23,14,7,13,30,3,33,19,1,22]","main","222","many-guess-6"
"","","","","","html-keyboard-response","26","229033","0.0-10.0-1.3","5d57f9cdedef630016280505","640759fa512f630a2bdc333d","6408c17ce62ed13e6dfdcde5","null","","null","","","","","","","","","","","","","","","","","","","fixation","",""
"","","","","","color-precision2","27","233341","0.0-10.0-0.4-0.4","5d57f9cdedef630016280505","640759fa512f630a2bdc333d","6408c17ce62ed13e6dfdcde5","[1419.699999999255]","","","[4]","[351]","351","122","118.31973416197116","[118.31973416197116]","[356.31973416197116]","[354]","0","0","1","0","146.67399999999907","1005.5570000000007","1000","[[[""img/mask53.png""]]]","","","main","122","color-precision2"
"","","","","","html-keyboard-response","28","233846","0.0-10.0-1.4","5d57f9cdedef630016280505","640759fa512f630a2bdc333d","6408c17ce62ed13e6dfdcde5","null","","null","","","","","","","","","","","","","","","","","","","fixation","",""
"","","","","","color-precision2","29","240090","0.0-10.0-0.5-0.5","5d57f9cdedef630016280505","640759fa512f630a2bdc333d","6408c17ce62ed13e6dfdcde5","[3210.7999999988824]","","","[2]","[185]","185","313","124.26607807458754","[124.26607807458754]","[171.26607807458754]","[169]","0","0","1","0","155.42999999999302","998.9060000003665","1000","[[[""img/mask85.png""]]]","","","main","313","color-precision2"
"","","","","","html-keyboard-response","30","240594","0.0-10.0-1.5","5d57f9cdedef630016280505","640759fa512f630a2bdc333d","6408c17ce62ed13e6dfdcde5","null","","null","","","","","","","","","","","","","","","","","","","fixation","",""
"","","","","","color-precision2","31","246580","0.0-10.0-0.6-0.6","5d57f9cdedef630016280505","640759fa512f630a2bdc333d","6408c17ce62ed13e6dfdcde5","[1610.0999999996275]","","","[28]","[277]","277","155","77.6091433393191","[77.6091433393191]","[282.6091433393191]","[281]","0","0","1","0","147.8960000007355","1000.5730000011099","1000","[[[""img/mask48.png""]]]","","","main","155","color-precision2"
"","","","","","html-keyboard-response","32","247095","0.0-10.0-1.6","5d57f9cdedef630016280505","640759fa512f630a2bdc333d","6408c17ce62ed13e6dfdcde5","null","","null","","","","","","","","","","","","","","","","","","","fixation","",""
"","","","","","many-guess-6","33","255054","0.0-10.0-0.7-0.7","5d57f9cdedef630016280505","640759fa512f630a2bdc333d","6408c17ce62ed13e6dfdcde5","[5761.5]","","","[24,32,0,9,10,4,2,30,29,5,15,26,20,23,19,34,33,11,25,1,35,13,22,21,28,31,3,12,6,27,16,7,18,14,17,8]","[318,29,209,358,328,229,259,129,109,149,239,338,159,19,348,39,119,249,9,59,199,189,99,89,169,279,79,219,289,179,69,298,308,49,269,139]","318","123","326.1920400899581","[326.1920400899581]","[203.19204008995808]","[203]","[210,30,30,210,120,30,210,300,30]","0","36","0","145.62200000110897","57.05300000074203","16","[[[""img/mask22.png""],[""img/mask33.png""],[""img/mask51.png""],[""img/mask60.png""],[""img/mask80.png""],[""img/mask44.png""],[""img/mask30.png""],[""img/mask92.png""],[""img/mask2.png""],[""img/mask74.png""],[""img/mask98.png""],[""img/mask19.png""],[""img/mask98.png""],[""img/mask30.png""],[""img/mask95.png""],[""img/mask48.png""],[""img/mask37.png""],[""img/mask42.png""],[""img/mask53.png""],[""img/mask67.png""],[""img/mask52.png""],[""img/mask53.png""],[""img/mask89.png""],[""img/mask89.png""],[""img/mask49.png""],[""img/mask26.png""],[""img/mask68.png""],[""img/mask66.png""],[""img/mask93.png""],[""img/mask37.png""],[""img/mask63.png""],[""img/mask75.png""],[""img/mask96.png""],[""img/mask12.png""],[""img/mask22.png""],[""img/mask27.png""]]]","","[24,32,0,9,10,4,2,30,29,5,15,26,20,23,19,34,33,11,25,1,35,13,22,21,28,31,3,12,6,27,16,7,18,14,17,8]","main","123","many-guess-6"
"","","","","","html-keyboard-response","34","255559","0.0-10.0-1.7","5d57f9cdedef630016280505","640759fa512f630a2bdc333d","6408c17ce62ed13e6dfdcde5","null","","null","","","","","","","","","","","","","","","","","","","fixation","",""
"","","","","","many-guess-6","35","260546","0.0-10.0-0.8-0.8","5d57f9cdedef630016280505","640759fa512f630a2bdc333d","6408c17ce62ed13e6dfdcde5","[2863.2000000011176]","","","[14,10,24,11,31,25,30,12,35,13,19,20,32,2,8,18,29,22,33,1,0,3,16,28,34,4,5,23,27,26,7,9,17,21,6,15]","[272,23,113,103,263,292,322,203,342,133,312,163,153,13,233,173,3,53,33,332,213,302,143,83,73,123,243,43,253,193,282,352,183,93,63,223]","272","312","79.02350185789986","[79.02350185789986]","[127.02350185789987]","[125]","[30,300,300,210,120,210,120,210,210]","0","36","0","147.44400000036694","35.320000000006985","16","[[[""img/mask16.png""],[""img/mask15.png""],[""img/mask49.png""],[""img/mask3.png""],[""img/mask40.png""],[""img/mask5.png""],[""img/mask62.png""],[""img/mask7.png""],[""img/mask80.png""],[""img/mask97.png""],[""img/mask46.png""],[""img/mask69.png""],[""img/mask38.png""],[""img/mask54.png""],[""img/mask88.png""],[""img/mask79.png""],[""img/mask87.png""],[""img/mask26.png""],[""img/mask64.png""],[""img/mask40.png""],[""img/mask31.png""],[""img/mask100.png""],[""img/mask6.png""],[""img/mask22.png""],[""img/mask82.png""],[""img/mask20.png""],[""img/mask74.png""],[""img/mask27.png""],[""img/mask37.png""],[""img/mask78.png""],[""img/mask19.png""],[""img/mask90.png""],[""img/mask70.png""],[""img/mask50.png""],[""img/mask19.png""],[""img/mask51.png""]]]","","[14,10,24,11,31,25,30,12,35,13,19,20,32,2,8,18,29,22,33,1,0,3,16,28,34,4,5,23,27,26,7,9,17,21,6,15]","main","312","many-guess-6"
"","","","","","html-keyboard-response","36","261050","0.0-10.0-1.8","5d57f9cdedef630016280505","640759fa512f630a2bdc333d","6408c17ce62ed13e6dfdcde5","null","","null","","","","","","","","","","","","","","","","","","","fixation","",""
"","","","","","many-guess-6","37","271560","0.0-10.0-0.9-0.9","5d57f9cdedef630016280505","640759fa512f630a2bdc333d","6408c17ce62ed13e6dfdcde5","[4244.700000001118]","","","[35,20,2,21,3,32,4,10,30,6,16,27,26,14,5,8,12,19,13,7,17,18,23,34,0,1,33,22,31,28,9,25,11,15,29,24]","[348,179,199,39,69,289,149,129,49,299,169,219,269,89,229,19,249,9,309,29,159,239,279,209,318,328,189,139,259,338,99,119,79,358,59,109]","348","299","338.57641872184854","[338.57641872184854]","[39.57641872184854]","[40]","[30,210,30,300,120,120,120,120,300]","0","36","0","155.44600000150967","43.86400000035064","16","[[[""img/mask74.png""],[""img/mask21.png""],[""img/mask55.png""],[""img/mask8.png""],[""img/mask77.png""],[""img/mask71.png""],[""img/mask15.png""],[""img/mask83.png""],[""img/mask40.png""],[""img/mask60.png""],[""img/mask49.png""],[""img/mask80.png""],[""img/mask40.png""],[""img/mask39.png""],[""img/mask68.png""],[""img/mask23.png""],[""img/mask3.png""],[""img/mask39.png""],[""img/mask9.png""],[""img/mask2.png""],[""img/mask30.png""],[""img/mask18.png""],[""img/mask47.png""],[""img/mask100.png""],[""img/mask36.png""],[""img/mask92.png""],[""img/mask65.png""],[""img/mask9.png""],[""img/mask86.png""],[""img/mask57.png""],[""img/mask18.png""],[""img/mask42.png""],[""img/mask82.png""],[""img/mask74.png""],[""img/mask96.png""],[""img/mask62.png""]]]","","[35,20,2,21,3,32,4,10,30,6,16,27,26,14,5,8,12,19,13,7,17,18,23,34,0,1,33,22,31,28,9,25,11,15,29,24]","main","299","many-guess-6"
"","","","","","html-keyboard-response","38","272065","0.0-10.0-1.9","5d57f9cdedef630016280505","640759fa512f630a2bdc333d","6408c17ce62ed13e6dfdcde5","null","","null","","","","","","","","","","","","","","","","","","","fixation","",""
"","","","","","many-guess-6","39","277119","0.0-10.0-0.10-0.10","5d57f9cdedef630016280505","640759fa512f630a2bdc333d","6408c17ce62ed13e6dfdcde5","[2974.7999999988824]","","","[0,16,4,15,1,14,5,23,32,34,28,35,21,26,2,24,30,6,7,19,8,27,9,20,10,25,3,22,18,33,29,12,13,11,31,17]","[19,209,318,278,258,79,119,99,248,149,348,89,189,129,49,9,268,328,229,239,59,159,219,39,358,109,298,69,199,169,139,179,338,288,29,308]","19","236","296.0506247804576","[296.0506247804576]","[60.05062478045761]","[61]","[30,300,30,300,120,120,300,210,300]","0","36","0","147.66400000150315","30.52500000112923","16","[[[""img/mask93.png""],[""img/mask18.png""],[""img/mask71.png""],[""img/mask65.png""],[""img/mask90.png""],[""img/mask100.png""],[""img/mask47.png""],[""img/mask97.png""],[""img/mask62.png""],[""img/mask1.png""],[""img/mask13.png""],[""img/mask46.png""],[""img/mask92.png""],[""img/mask54.png""],[""img/mask47.png""],[""img/mask53.png""],[""img/mask94.png""],[""img/mask82.png""],[""img/mask99.png""],[""img/mask86.png""],[""img/mask68.png""],[""img/mask10.png""],[""img/mask62.png""],[""img/mask80.png""],[""img/mask1.png""],[""img/mask61.png""],[""img/mask81.png""],[""img/mask30.png""],[""img/mask99.png""],[""img/mask7.png""],[""img/mask23.png""],[""img/mask76.png""],[""img/mask81.png""],[""img/mask45.png""],[""img/mask87.png""],[""img/mask63.png""]]]","","[0,16,4,15,1,14,5,23,32,34,28,35,21,26,2,24,30,6,7,19,8,27,9,20,10,25,3,22,18,33,29,12,13,11,31,17]","main","236","many-guess-6"
"","","","","","html-keyboard-response","40","277623","0.0-10.0-1.10","5d57f9cdedef630016280505","640759fa512f630a2bdc333d","6408c17ce62ed13e6dfdcde5","null","","null","","","","","","","","","","","","","","","","","","","fixation","",""
"","","","","","many-guess-6","41","282344","0.0-10.0-0.11-0.11","5d57f9cdedef630016280505","640759fa512f630a2bdc333d","6408c17ce62ed13e6dfdcde5","[2583.300000000745]","","","[15,23,8,10,25,0,11,18,27,1,7,21,30,33,6,32,24,34,28,16,29,9,14,35,2,3,22,5,13,31,12,19,4,26,20,17]","[206,296,276,106,126,166,326,306,176,27,17,356,136,7,346,96,156,57,316,186,116,266,146,77,236,86,256,286,246,196,47,336,216,226,37,67]","206","160","32.26292463901501","[32.26292463901501]","[232.262924639015]","[231]","[210,120,30,120,120,30,300,30,30]","0","36","0","146.88900000002468","27.17599999997765","16","[[[""img/mask67.png""],[""img/mask62.png""],[""img/mask10.png""],[""img/mask27.png""],[""img/mask12.png""],[""img/mask82.png""],[""img/mask27.png""],[""img/mask4.png""],[""img/mask53.png""],[""img/mask64.png""],[""img/mask70.png""],[""img/mask99.png""],[""img/mask33.png""],[""img/mask55.png""],[""img/mask51.png""],[""img/mask73.png""],[""img/mask82.png""],[""img/mask27.png""],[""img/mask18.png""],[""img/mask62.png""],[""img/mask62.png""],[""img/mask2.png""],[""img/mask59.png""],[""img/mask47.png""],[""img/mask28.png""],[""img/mask96.png""],[""img/mask31.png""],[""img/mask37.png""],[""img/mask50.png""],[""img/mask68.png""],[""img/mask40.png""],[""img/mask77.png""],[""img/mask86.png""],[""img/mask93.png""],[""img/mask29.png""],[""img/mask93.png""]]]","","[15,23,8,10,25,0,11,18,27,1,7,21,30,33,6,32,24,34,28,16,29,9,14,35,2,3,22,5,13,31,12,19,4,26,20,17]","main","160","many-guess-6"
"","","","","","html-keyboard-response","42","282850","0.0-10.0-1.11","5d57f9cdedef630016280505","640759fa512f630a2bdc333d","6408c17ce62ed13e6dfdcde5","null","","null","","","","","","","","","","","","","","","","","","","fixation","",""
"","","","","","many-guess-6","43","287142","0.0-10.0-0.12-0.12","5d57f9cdedef630016280505","640759fa512f630a2bdc333d","6408c17ce62ed13e6dfdcde5","[2220.4000000003725]","","","[24,26,35,28,14,29,2,27,4,1,20,3,9,21,33,16,34,17,12,23,5,18,7,15,8,11,10,22,0,13,25,19,30,31,32,6]","[145,46,6,345,76,56,325,285,155,275,66,126,255,335,235,136,195,106,305,165,265,225,205,215,245,96,26,86,36,185,315,16,175,355,116,295]","145","156","84.20516907044421","[84.20516907044421]","[288.2051690704442]","[286]","[30,210,300,210,30,210,210,210,120]","0","36","0","148.03200000076322","28.698000001139008","16","[[[""img/mask31.png""],[""img/mask11.png""],[""img/mask15.png""],[""img/mask65.png""],[""img/mask16.png""],[""img/mask55.png""],[""img/mask72.png""],[""img/mask60.png""],[""img/mask49.png""],[""img/mask41.png""],[""img/mask4.png""],[""img/mask49.png""],[""img/mask45.png""],[""img/mask36.png""],[""img/mask63.png""],[""img/mask5.png""],[""img/mask59.png""],[""img/mask32.png""],[""img/mask41.png""],[""img/mask25.png""],[""img/mask52.png""],[""img/mask58.png""],[""img/mask27.png""],[""img/mask25.png""],[""img/mask35.png""],[""img/mask26.png""],[""img/mask33.png""],[""img/mask26.png""],[""img/mask65.png""],[""img/mask11.png""],[""img/mask100.png""],[""img/mask63.png""],[""img/mask14.png""],[""img/mask79.png""],[""img/mask5.png""],[""img/mask57.png""]]]","","[24,26,35,28,14,29,2,27,4,1,20,3,9,21,33,16,34,17,12,23,5,18,7,15,8,11,10,22,0,13,25,19,30,31,32,6]","main","156","many-guess-6"
"","","","","","html-keyboard-response","44","287646","0.0-10.0-1.12","5d57f9cdedef630016280505","640759fa512f630a2bdc333d","6408c17ce62ed13e6dfdcde5","null","","null","","","","","","","","","","","","","","","","","","","fixation","",""
"","","","","","color-precision2","45","293114","0.0-10.0-0.13-0.13","5d57f9cdedef630016280505","640759fa512f630a2bdc333d","6408c17ce62ed13e6dfdcde5","[2148.2000000011176]","","","[25]","[90]","90","226","314.3883245252862","[314.3883245252862]","[88.38832452528618]","[90]","0","0","1","0","147.38900000002468","993.7680000014952","1000","[[[""img/mask83.png""]]]","","","main","226","color-precision2"
"","","","","","html-keyboard-response","46","293620","0.0-10.0-1.13","5d57f9cdedef630016280505","640759fa512f630a2bdc333d","6408c17ce62ed13e6dfdcde5","null","","null","","","","","","","","","","","","","","","","","","","fixation","",""
"","","","","","many-guess-6","47","298250","0.0-10.0-0.14-0.14","5d57f9cdedef630016280505","640759fa512f630a2bdc333d","6408c17ce62ed13e6dfdcde5","[2343.7999999988824]","","","[13,33,17,34,14,24,0,5,4,10,25,31,32,23,15,16,9,2,18,6,11,35,3,29,26,21,30,1,8,28,22,12,20,7,19,27]","[43,272,342,332,322,123,262,232,53,143,13,292,103,202,63,172,113,222,162,312,3,282,212,93,302,153,83,352,242,23,182,252,33,73,133,192]","43","80","338.9419602117472","[338.9419602117472]","[258.9419602117472]","[259]","[300,210,210,300,300,30,300,300,120]","0","36","0","147.16700000147102","58.646000000764616","16","[[[""img/mask58.png""],[""img/mask29.png""],[""img/mask70.png""],[""img/mask72.png""],[""img/mask13.png""],[""img/mask71.png""],[""img/mask7.png""],[""img/mask5.png""],[""img/mask13.png""],[""img/mask53.png""],[""img/mask40.png""],[""img/mask22.png""],[""img/mask20.png""],[""img/mask65.png""],[""img/mask98.png""],[""img/mask40.png""],[""img/mask57.png""],[""img/mask83.png""],[""img/mask71.png""],[""img/mask66.png""],[""img/mask13.png""],[""img/mask58.png""],[""img/mask21.png""],[""img/mask1.png""],[""img/mask36.png""],[""img/mask92.png""],[""img/mask61.png""],[""img/mask89.png""],[""img/mask46.png""],[""img/mask81.png""],[""img/mask90.png""],[""img/mask11.png""],[""img/mask87.png""],[""img/mask30.png""],[""img/mask27.png""],[""img/mask60.png""]]]","","[13,33,17,34,14,24,0,5,4,10,25,31,32,23,15,16,9,2,18,6,11,35,3,29,26,21,30,1,8,28,22,12,20,7,19,27]","main","80","many-guess-6"
"","","","","","html-keyboard-response","48","298755","0.0-10.0-1.14","5d57f9cdedef630016280505","640759fa512f630a2bdc333d","6408c17ce62ed13e6dfdcde5","null","","null","","","","","","","","","","","","","","","","","","","fixation","",""
"","","","","","many-guess-6","49","303641","0.0-10.0-0.15-0.15","5d57f9cdedef630016280505","640759fa512f630a2bdc333d","6408c17ce62ed13e6dfdcde5","[2613.699999999255]","","","[35,29,10,26,12,7,1,11,17,22,8,27,14,33,20,0,3,25,32,13,6,2,5,30,34,31,16,15,4,18,23,21,28,9,24,19]","[120,140,170,101,61,280,310,150,290,340,1,11,270,110,160,91,200,240,21,210,130,81,41,320,51,71,330,31,260,300,180,230,220,350,250,190]","120","315","11.70390510227653","[11.70390510227653]","[56.70390510227651]","[56]","[300,300,210,30,30,300,210,210,120]","0","36","0","146.9189999999944","55.4650000007241","16","[[[""img/mask86.png""],[""img/mask88.png""],[""img/mask16.png""],[""img/mask48.png""],[""img/mask40.png""],[""img/mask35.png""],[""img/mask64.png""],[""img/mask7.png""],[""img/mask86.png""],[""img/mask75.png""],[""img/mask25.png""],[""img/mask28.png""],[""img/mask56.png""],[""img/mask98.png""],[""img/mask87.png""],[""img/mask4.png""],[""img/mask82.png""],[""img/mask47.png""],[""img/mask49.png""],[""img/mask24.png""],[""img/mask84.png""],[""img/mask63.png""],[""img/mask59.png""],[""img/mask95.png""],[""img/mask70.png""],[""img/mask21.png""],[""img/mask37.png""],[""img/mask41.png""],[""img/mask14.png""],[""img/mask49.png""],[""img/mask47.png""],[""img/mask9.png""],[""img/mask7.png""],[""img/mask52.png""],[""img/mask7.png""],[""img/mask76.png""]]]","","[35,29,10,26,12,7,1,11,17,22,8,27,14,33,20,0,3,25,32,13,6,2,5,30,34,31,16,15,4,18,23,21,28,9,24,19]","main","315","many-guess-6"
"","","","","","html-keyboard-response","50","304162","0.0-10.0-1.15","5d57f9cdedef630016280505","640759fa512f630a2bdc333d","6408c17ce62ed13e6dfdcde5","null","","null","","","","","","","","","","","","","","","","","","","fixation","",""
"","","","","","color-precision2","51","308921","0.0-10.0-0.16-0.16","5d57f9cdedef630016280505","640759fa512f630a2bdc333d","6408c17ce62ed13e6dfdcde5","[1529]","","","[18]","[285]","285","333","252.404327930056","[252.404327930056]","[279.404327930056]","[279]","0","0","1","0","146.94200000114506","992.204000001133","1000","[[[""img/mask64.png""]]]","","","main","333","color-precision2"
"","","","","","html-keyboard-response","52","309423","0.0-10.0-1.16","5d57f9cdedef630016280505","640759fa512f630a2bdc333d","6408c17ce62ed13e6dfdcde5","null","","null","","","","","","","","","","","","","","","","","","","fixation","",""
"","","","","","many-guess-6","53","313547","0.0-10.0-0.17-0.17","5d57f9cdedef630016280505","640759fa512f630a2bdc333d","6408c17ce62ed13e6dfdcde5","[2044.5]","","","[25,27,21,3,24,1,17,32,23,0,2,12,4,15,16,9,29,28,30,11,5,22,10,20,7,19,35,33,14,8,31,26,34,6,18,13]","[133,263,203,73,103,143,293,343,273,233,83,223,54,163,14,173,4,253,93,113,313,183,333,303,243,213,123,283,44,24,153,353,193,34,63,323]","133","73","103.45751790231873","[103.45751790231873]","[30.457517902318727]","[28]","[210,30,300,210,210,120,30,300,300]","0","36","0","146.9780000015162","12.185999999986961","16","[[[""img/mask25.png""],[""img/mask12.png""],[""img/mask55.png""],[""img/mask12.png""],[""img/mask92.png""],[""img/mask93.png""],[""img/mask95.png""],[""img/mask86.png""],[""img/mask62.png""],[""img/mask68.png""],[""img/mask16.png""],[""img/mask93.png""],[""img/mask40.png""],[""img/mask7.png""],[""img/mask89.png""],[""img/mask30.png""],[""img/mask87.png""],[""img/mask99.png""],[""img/mask43.png""],[""img/mask55.png""],[""img/mask25.png""],[""img/mask27.png""],[""img/mask97.png""],[""img/mask23.png""],[""img/mask10.png""],[""img/mask20.png""],[""img/mask18.png""],[""img/mask97.png""],[""img/mask8.png""],[""img/mask7.png""],[""img/mask61.png""],[""img/mask54.png""],[""img/mask21.png""],[""img/mask15.png""],[""img/mask25.png""],[""img/mask71.png""]]]","","[25,27,21,3,24,1,17,32,23,0,2,12,4,15,16,9,29,28,30,11,5,22,10,20,7,19,35,33,14,8,31,26,34,6,18,13]","main","73","many-guess-6"
"","","","","","html-keyboard-response","54","314052","0.0-10.0-1.17","5d57f9cdedef630016280505","640759fa512f630a2bdc333d","6408c17ce62ed13e6dfdcde5","null","","null","","","","","","","","","","","","","","","","","","","fixation","",""
"","","","","","color-precision2","55","318754","0.0-10.0-0.18-0.18","5d57f9cdedef630016280505","640759fa512f630a2bdc333d","6408c17ce62ed13e6dfdcde5","[1460.8999999985099]","","","[28]","[45]","45","259","299.2339546169866","[299.2339546169866]","[40.23395461698658]","[40]","0","0","1","0","147.04800000000978","997.320000000007","1000","[[[""img/mask74.png""]]]","","","main","259","color-precision2"
"","","","","","html-keyboard-response","56","319257","0.0-10.0-1.18","5d57f9cdedef630016280505","640759fa512f630a2bdc333d","6408c17ce62ed13e6dfdcde5","null","","null","","","","","","","","","","","","","","","","","","","fixation","",""
"","","","","","many-guess-6","57","323273","0.0-10.0-0.19-0.19","5d57f9cdedef630016280505","640759fa512f630a2bdc333d","6408c17ce62ed13e6dfdcde5","[2128.199999999255]","","","[28,3,31,6,8,5,25,12,27,15,1,32,13,33,23,20,18,4,22,0,30,26,35,19,34,14,10,2,16,24,29,11,9,17,7,21]","[79,178,228,148,99,158,298,248,268,138,308,39,59,9,69,238,338,288,208,29,318,258,118,49,128,348,358,108,168,328,19,198,278,218,188,89]","79","3","354.67547190733615","[354.67547190733615]","[351.67547190733615]","[351]","[30,210,30,210,300,30,30,300,120]","0","36","0","154.20199999999022","40.29599999997299","16","[[[""img/mask64.png""],[""img/mask87.png""],[""img/mask28.png""],[""img/mask31.png""],[""img/mask94.png""],[""img/mask67.png""],[""img/mask59.png""],[""img/mask2.png""],[""img/mask14.png""],[""img/mask37.png""],[""img/mask61.png""],[""img/mask38.png""],[""img/mask56.png""],[""img/mask91.png""],[""img/mask68.png""],[""img/mask6.png""],[""img/mask10.png""],[""img/mask46.png""],[""img/mask55.png""],[""img/mask96.png""],[""img/mask100.png""],[""img/mask72.png""],[""img/mask69.png""],[""img/mask33.png""],[""img/mask4.png""],[""img/mask66.png""],[""img/mask47.png""],[""img/mask12.png""],[""img/mask27.png""],[""img/mask22.png""],[""img/mask49.png""],[""img/mask95.png""],[""img/mask4.png""],[""img/mask6.png""],[""img/mask32.png""],[""img/mask19.png""]]]","","[28,3,31,6,8,5,25,12,27,15,1,32,13,33,23,20,18,4,22,0,30,26,35,19,34,14,10,2,16,24,29,11,9,17,7,21]","main","3","many-guess-6"
"","","","","","html-keyboard-response","58","327808","0.0-10.0-1.19","5d57f9cdedef630016280505","640759fa512f630a2bdc333d","6408c17ce62ed13e6dfdcde5","4532.800000000745","Wow! You've completed 20 out of 180 trials! </p> <p>  </p><p> Take a quick break, then press any key when you're ready to continue.","arrowdown","","","","","","","","","","","","","","","","","","","fixation","",""
"","","","","","color-precision2","59","334144","0.0-10.0-0.20-0.20","5d57f9cdedef630016280505","640759fa512f630a2bdc333d","6408c17ce62ed13e6dfdcde5","[2654.199999999255]","","","[32]","[190]","190","264","61.479574877115525","[61.479574877115525]","[157.4795748771155]","[156]","0","0","1","0","147.35500000038883","1007.347000001464","1000","[[[""img/mask26.png""]]]","","","main","264","color-precision2"
"","","","","","html-keyboard-response","60","334649","0.0-10.0-1.20","5d57f9cdedef630016280505","640759fa512f630a2bdc333d","6408c17ce62ed13e6dfdcde5","null","","null","","","","","","","","","","","","","","","","","","","fixation","",""
"","","","","","color-precision2","61","338785","0.0-10.0-0.21-0.21","5d57f9cdedef630016280505","640759fa512f630a2bdc333d","6408c17ce62ed13e6dfdcde5","[1156.7000000011176]","","","[14]","[22]","22","100","124.90249561592474","[124.90249561592474]","[24.902495615924735]","[23]","0","0","1","0","145.52700000000186","995.6690000003437","1000","[[[""img/mask64.png""]]]","","","main","100","color-precision2"
"","","","","","html-keyboard-response","62","339307","0.0-10.0-1.21","5d57f9cdedef630016280505","640759fa512f630a2bdc333d","6408c17ce62ed13e6dfdcde5","null","","null","","","","","","","","","","","","","","","","","","","fixation","",""
"","","","","","many-guess-6","63","343609","0.0-10.0-0.22-0.22","5d57f9cdedef630016280505","640759fa512f630a2bdc333d","6408c17ce62ed13e6dfdcde5","[2211.699999999255]","","","[20,34,12,21,11,26,23,8,18,19,25,0,9,22,31,10,24,29,14,27,32,33,16,5,17,6,3,7,4,1,15,30,35,28,13,2]","[168,318,288,129,268,139,258,69,328,49,208,39,338,109,198,348,119,89,19,238,278,358,228,308,99,188,79,159,149,9,298,218,59,248,178,29]","168","233","330.1479237308173","[330.1479237308173]","[97.1479237308173]","[97]","[210,300,300,120,210,300,210,300,30]","0","36","0","156.54600000038045","39.158000000345055","16","[[[""img/mask39.png""],[""img/mask96.png""],[""img/mask88.png""],[""img/mask26.png""],[""img/mask100.png""],[""img/mask95.png""],[""img/mask10.png""],[""img/mask71.png""],[""img/mask76.png""],[""img/mask32.png""],[""img/mask23.png""],[""img/mask63.png""],[""img/mask39.png""],[""img/mask32.png""],[""img/mask52.png""],[""img/mask67.png""],[""img/mask82.png""],[""img/mask3.png""],[""img/mask48.png""],[""img/mask76.png""],[""img/mask97.png""],[""img/mask44.png""],[""img/mask3.png""],[""img/mask55.png""],[""img/mask21.png""],[""img/mask62.png""],[""img/mask84.png""],[""img/mask22.png""],[""img/mask100.png""],[""img/mask80.png""],[""img/mask36.png""],[""img/mask56.png""],[""img/mask78.png""],[""img/mask55.png""],[""img/mask83.png""],[""img/mask74.png""]]]","","[20,34,12,21,11,26,23,8,18,19,25,0,9,22,31,10,24,29,14,27,32,33,16,5,17,6,3,7,4,1,15,30,35,28,13,2]","main","233","many-guess-6"
"","","","","","html-keyboard-response","64","344117","0.0-10.0-1.22","5d57f9cdedef630016280505","640759fa512f630a2bdc333d","6408c17ce62ed13e6dfdcde5","null","","null","","","","","","","","","","","","","","","","","","","fixation","",""
"","","","","","many-guess-6","65","347431","0.0-10.0-0.23-0.23","5d57f9cdedef630016280505","640759fa512f630a2bdc333d","6408c17ce62ed13e6dfdcde5","[1519]","","","[21,28,10,26,12,20,27,3,16,19,0,30,11,23,17,9,35,8,13,34,1,15,18,14,25,32,6,33,5,31,4,7,24,2,22,29]","[351,42,291,181,12,171,72,211,132,112,22,261,191,122,281,231,52,311,241,201,301,62,341,331,2,162,82,221,92,152,321,251,142,32,271,102]","351","66","185.99476921297125","[185.99476921297125]","[119.99476921297125]","[119]","[120,300,300,300,120,210,120,210,30]","0","36","0","145.67100000113714","27.23200000001816","16","[[[""img/mask34.png""],[""img/mask86.png""],[""img/mask30.png""],[""img/mask16.png""],[""img/mask58.png""],[""img/mask47.png""],[""img/mask92.png""],[""img/mask5.png""],[""img/mask13.png""],[""img/mask11.png""],[""img/mask99.png""],[""img/mask96.png""],[""img/mask95.png""],[""img/mask5.png""],[""img/mask62.png""],[""img/mask43.png""],[""img/mask75.png""],[""img/mask68.png""],[""img/mask16.png""],[""img/mask78.png""],[""img/mask50.png""],[""img/mask30.png""],[""img/mask62.png""],[""img/mask79.png""],[""img/mask55.png""],[""img/mask15.png""],[""img/mask85.png""],[""img/mask92.png""],[""img/mask21.png""],[""img/mask19.png""],[""img/mask92.png""],[""img/mask15.png""],[""img/mask93.png""],[""img/mask27.png""],[""img/mask22.png""],[""img/mask98.png""]]]","","[21,28,10,26,12,20,27,3,16,19,0,30,11,23,17,9,35,8,13,34,1,15,18,14,25,32,6,33,5,31,4,7,24,2,22,29]","main","66","many-guess-6"
"","","","","","html-keyboard-response","66","347934","0.0-10.0-1.23","5d57f9cdedef630016280505","640759fa512f630a2bdc333d","6408c17ce62ed13e6dfdcde5","null","","null","","","","","","","","","","","","","","","","","","","fixation","",""
"","","","","","many-guess-6","67","352578","0.0-10.0-0.24-0.24","5d57f9cdedef630016280505","640759fa512f630a2bdc333d","6408c17ce62ed13e6dfdcde5","[2717.800000000745]","","","[23,18,15,8,9,24,13,6,4,14,19,35,17,32,22,34,11,5,25,31,0,10,2,12,26,21,16,28,3,1,20,7,27,29,30,33]","[67,47,246,206,137,187,356,37,147,226,296,336,167,216,77,266,157,107,27,57,127,286,196,316,256,306,87,326,7,17,346,97,236,276,177,117]","67","43","11.419799605924478","[11.419799605924478]","[328.4197996059245]","[328]","[120,120,210,120,210,30,120,300,30]","0","36","0","146.2910000011325","27.37699999997858","16","[[[""img/mask12.png""],[""img/mask84.png""],[""img/mask97.png""],[""img/mask74.png""],[""img/mask95.png""],[""img/mask88.png""],[""img/mask34.png""],[""img/mask31.png""],[""img/mask54.png""],[""img/mask25.png""],[""img/mask59.png""],[""img/mask62.png""],[""img/mask65.png""],[""img/mask39.png""],[""img/mask80.png""],[""img/mask10.png""],[""img/mask89.png""],[""img/mask78.png""],[""img/mask67.png""],[""img/mask64.png""],[""img/mask39.png""],[""img/mask83.png""],[""img/mask77.png""],[""img/mask48.png""],[""img/mask13.png""],[""img/mask35.png""],[""img/mask28.png""],[""img/mask74.png""],[""img/mask13.png""],[""img/mask87.png""],[""img/mask54.png""],[""img/mask26.png""],[""img/mask78.png""],[""img/mask15.png""],[""img/mask61.png""],[""img/mask90.png""]]]","","[23,18,15,8,9,24,13,6,4,14,19,35,17,32,22,34,11,5,25,31,0,10,2,12,26,21,16,28,3,1,20,7,27,29,30,33]","main","43","many-guess-6"
"","","","","","html-keyboard-response","68","353082","0.0-10.0-1.24","5d57f9cdedef630016280505","640759fa512f630a2bdc333d","6408c17ce62ed13e6dfdcde5","null","","null","","","","","","","","","","","","","","","","","","","fixation","",""
"","","","","","color-precision2","69","359449","0.0-10.0-0.25-0.25","5d57f9cdedef630016280505","640759fa512f630a2bdc333d","6408c17ce62ed13e6dfdcde5","[3523.5999999996275]","","","[16]","[188]","188","232","36.84114913871666","[36.84114913871666]","[164.84114913871667]","[163]","0","0","1","0","147.938000000373","1005.6500000007218","1000","[[[""img/mask50.png""]]]","","","main","232","color-precision2"
"","","","","","html-keyboard-response","70","359953","0.0-10.0-1.25","5d57f9cdedef630016280505","640759fa512f630a2bdc333d","6408c17ce62ed13e6dfdcde5","null","","null","","","","","","","","","","","","","","","","","","","fixation","",""
"","","","","","many-guess-6","71","365515","0.0-10.0-0.26-0.26","5d57f9cdedef630016280505","640759fa512f630a2bdc333d","6408c17ce62ed13e6dfdcde5","[2397.9000000003725]","","","[14,33,27,13,19,12,2,18,11,32,7,25,20,26,30,10,15,8,6,0,1,34,23,17,5,4,21,31,28,22,3,24,29,9,35,16]","[103,43,73,53,272,232,33,212,83,63,312,173,222,163,282,342,292,143,182,123,322,23,352,3,192,93,242,13,113,302,252,153,202,133,262,332]","103","18","356.3086140135487","[356.3086140135487]","[338.3086140135487]","[338]","[210,30,30,210,120,300,30,120,300]","0","36","0","147.17800000001444","58.98100000002887","16","[[[""img/mask37.png""],[""img/mask3.png""],[""img/mask41.png""],[""img/mask91.png""],[""img/mask96.png""],[""img/mask36.png""],[""img/mask53.png""],[""img/mask82.png""],[""img/mask16.png""],[""img/mask50.png""],[""img/mask41.png""],[""img/mask78.png""],[""img/mask82.png""],[""img/mask13.png""],[""img/mask29.png""],[""img/mask86.png""],[""img/mask28.png""],[""img/mask1.png""],[""img/mask16.png""],[""img/mask19.png""],[""img/mask99.png""],[""img/mask4.png""],[""img/mask50.png""],[""img/mask6.png""],[""img/mask51.png""],[""img/mask24.png""],[""img/mask50.png""],[""img/mask33.png""],[""img/mask6.png""],[""img/mask81.png""],[""img/mask28.png""],[""img/mask22.png""],[""img/mask2.png""],[""img/mask33.png""],[""img/mask66.png""],[""img/mask66.png""]]]","","[14,33,27,13,19,12,2,18,11,32,7,25,20,26,30,10,15,8,6,0,1,34,23,17,5,4,21,31,28,22,3,24,29,9,35,16]","main","18","many-guess-6"
"","","","","","html-keyboard-response","72","366020","0.0-10.0-1.26","5d57f9cdedef630016280505","640759fa512f630a2bdc333d","6408c17ce62ed13e6dfdcde5","null","","null","","","","","","","","","","","","","","","","","","","fixation","",""
"","","","","","many-guess-6","73","370298","0.0-10.0-0.27-0.27","5d57f9cdedef630016280505","640759fa512f630a2bdc333d","6408c17ce62ed13e6dfdcde5","[2394.7000000011176]","","","[11,7,2,31,19,32,6,24,1,14,21,34,35,12,10,33,8,15,16,4,18,29,20,23,26,9,27,13,30,28,5,22,25,0,17,3]","[98,38,248,8,277,208,88,158,58,347,287,228,337,267,148,357,78,327,238,188,118,178,168,128,28,257,218,48,307,68,198,138,108,317,297,18]","98","108","5.117314849972638","[5.117314849972638]","[257.1173148499727]","[256]","[120,30,210,30,30,300,30,210,120]","0","36","0","147.63199999998324","12.419999999983702","16","[[[""img/mask59.png""],[""img/mask46.png""],[""img/mask79.png""],[""img/mask98.png""],[""img/mask2.png""],[""img/mask67.png""],[""img/mask66.png""],[""img/mask80.png""],[""img/mask45.png""],[""img/mask93.png""],[""img/mask23.png""],[""img/mask72.png""],[""img/mask22.png""],[""img/mask18.png""],[""img/mask41.png""],[""img/mask90.png""],[""img/mask28.png""],[""img/mask65.png""],[""img/mask30.png""],[""img/mask44.png""],[""img/mask74.png""],[""img/mask72.png""],[""img/mask23.png""],[""img/mask43.png""],[""img/mask75.png""],[""img/mask7.png""],[""img/mask48.png""],[""img/mask87.png""],[""img/mask14.png""],[""img/mask8.png""],[""img/mask37.png""],[""img/mask66.png""],[""img/mask14.png""],[""img/mask38.png""],[""img/mask53.png""],[""img/mask1.png""]]]","","[11,7,2,31,19,32,6,24,1,14,21,34,35,12,10,33,8,15,16,4,18,29,20,23,26,9,27,13,30,28,5,22,25,0,17,3]","main","108","many-guess-6"
"","","","","","html-keyboard-response","74","370803","0.0-10.0-1.27","5d57f9cdedef630016280505","640759fa512f630a2bdc333d","6408c17ce62ed13e6dfdcde5","null","","null","","","","","","","","","","","","","","","","","","","fixation","",""
"","","","","","color-precision2","75","375160","0.0-10.0-0.28-0.28","5d57f9cdedef630016280505","640759fa512f630a2bdc333d","6408c17ce62ed13e6dfdcde5","[1432.4000000003725]","","","[6]","[179]","179","354","157.52939800293686","[157.52939800293686]","[163.52939800293686]","[162]","0","0","1","0","144.54800000035902","1006.0210000014631","1000","[[[""img/mask24.png""]]]","","","main","354","color-precision2"
"","","","","","html-keyboard-response","76","375667","0.0-10.0-1.28","5d57f9cdedef630016280505","640759fa512f630a2bdc333d","6408c17ce62ed13e6dfdcde5","null","","null","","","","","","","","","","","","","","","","","","","fixation","",""
"","","","","","color-precision2","77","379321","0.0-10.0-0.29-0.29","5d57f9cdedef630016280505","640759fa512f630a2bdc333d","6408c17ce62ed13e6dfdcde5","[891.0999999996275]","","","[34]","[234]","234","228","119.8128276386608","[119.8128276386608]","[251.8128276386608]","[250]","0","0","1","0","147.49700000113808","1005.9510000003502","1000","[[[""img/mask72.png""]]]","","","main","228","color-precision2"
"","","","","","html-keyboard-response","78","379825","0.0-10.0-1.29","5d57f9cdedef630016280505","640759fa512f630a2bdc333d","6408c17ce62ed13e6dfdcde5","null","","null","","","","","","","","","","","","","","","","","","","fixation","",""
"","","","","","color-precision2","79","385761","0.0-10.0-0.30-0.30","5d57f9cdedef630016280505","640759fa512f630a2bdc333d","6408c17ce62ed13e6dfdcde5","[3019.4000000003725]","","","[1]","[74]","74","157","205.76073562027727","[205.76073562027727]","[48.76073562027727]","[48]","0","0","1","0","147.42900000035297","997.4480000014883","1000","[[[""img/mask36.png""]]]","","","main","157","color-precision2"
"","","","","","html-keyboard-response","80","386266","0.0-10.0-1.30","5d57f9cdedef630016280505","640759fa512f630a2bdc333d","6408c17ce62ed13e6dfdcde5","null","","null","","","","","","","","","","","","","","","","","","","fixation","",""
"","","","","","many-guess-6","81","390722","0.0-10.0-0.31-0.31","5d57f9cdedef630016280505","640759fa512f630a2bdc333d","6408c17ce62ed13e6dfdcde5","[2409.300000000745]","","","[18,17,28,23,20,15,7,34,21,4,32,10,22,19,9,35,6,16,29,1,25,5,12,11,0,30,3,14,31,24,33,26,13,2,27,8]","[20,309,70,10,169,359,89,299,139,149,329,99,50,199,179,269,60,319,219,239,279,40,209,289,119,159,30,349,339,129,259,249,229,109,80,189]","20","37","287.66864656179985","[287.66864656179985]","[250.66864656179985]","[251]","[210,120,30,210,210,210,30,30,210]","0","36","0","146.58800000074552","32.365000000747386","16","[[[""img/mask78.png""],[""img/mask57.png""],[""img/mask86.png""],[""img/mask29.png""],[""img/mask25.png""],[""img/mask79.png""],[""img/mask17.png""],[""img/mask22.png""],[""img/mask98.png""],[""img/mask60.png""],[""img/mask91.png""],[""img/mask8.png""],[""img/mask80.png""],[""img/mask97.png""],[""img/mask93.png""],[""img/mask51.png""],[""img/mask68.png""],[""img/mask35.png""],[""img/mask28.png""],[""img/mask85.png""],[""img/mask15.png""],[""img/mask78.png""],[""img/mask59.png""],[""img/mask79.png""],[""img/mask14.png""],[""img/mask64.png""],[""img/mask58.png""],[""img/mask93.png""],[""img/mask63.png""],[""img/mask92.png""],[""img/mask96.png""],[""img/mask59.png""],[""img/mask9.png""],[""img/mask29.png""],[""img/mask37.png""],[""img/mask66.png""]]]","","[18,17,28,23,20,15,7,34,21,4,32,10,22,19,9,35,6,16,29,1,25,5,12,11,0,30,3,14,31,24,33,26,13,2,27,8]","main","37","many-guess-6"
"","","","","","html-keyboard-response","82","391226","0.0-10.0-1.31","5d57f9cdedef630016280505","640759fa512f630a2bdc333d","6408c17ce62ed13e6dfdcde5","null","","null","","","","","","","","","","","","","","","","","","","fixation","",""
"","","","","","color-precision2","83","395923","0.0-10.0-0.32-0.32","5d57f9cdedef630016280505","640759fa512f630a2bdc333d","6408c17ce62ed13e6dfdcde5","[1723.9000000003725]","","","[9]","[125]","125","91","229.44310920519612","[229.44310920519612]","[138.44310920519612]","[138]","0","0","1","0","146.7170000007609","1007.2119999999995","1000","[[[""img/mask98.png""]]]","","","main","91","color-precision2"
"","","","","","html-keyboard-response","84","396426","0.0-10.0-1.32","5d57f9cdedef630016280505","640759fa512f630a2bdc333d","6408c17ce62ed13e6dfdcde5","null","","null","","","","","","","","","","","","","","","","","","","fixation","",""
"","","","","","many-guess-6","85","400427","0.0-10.0-0.33-0.33","5d57f9cdedef630016280505","640759fa512f630a2bdc333d","6408c17ce62ed13e6dfdcde5","[2195.9000000003725]","","","[23,33,18,19,16,12,30,28,20,5,10,25,31,4,22,14,7,17,27,3,32,34,21,9,1,35,26,29,6,11,13,0,2,15,24,8]","[81,101,320,91,340,250,330,280,191,121,21,61,151,41,230,270,71,161,31,240,1,11,300,141,171,131,310,220,51,111,260,290,181,200,350,210]","81","311","313.5830788255043","[313.5830788255043]","[2.5830788255042876]","[3]","[30,120,210,300,300,300,120,30,30]","0","36","0","146.8630000014673","24.248000001127366","16","[[[""img/mask11.png""],[""img/mask81.png""],[""img/mask11.png""],[""img/mask36.png""],[""img/mask22.png""],[""img/mask7.png""],[""img/mask39.png""],[""img/mask72.png""],[""img/mask55.png""],[""img/mask30.png""],[""img/mask41.png""],[""img/mask38.png""],[""img/mask76.png""],[""img/mask88.png""],[""img/mask97.png""],[""img/mask74.png""],[""img/mask49.png""],[""img/mask69.png""],[""img/mask39.png""],[""img/mask34.png""],[""img/mask92.png""],[""img/mask83.png""],[""img/mask20.png""],[""img/mask86.png""],[""img/mask35.png""],[""img/mask21.png""],[""img/mask18.png""],[""img/mask17.png""],[""img/mask5.png""],[""img/mask33.png""],[""img/mask57.png""],[""img/mask78.png""],[""img/mask87.png""],[""img/mask62.png""],[""img/mask83.png""],[""img/mask8.png""]]]","","[23,33,18,19,16,12,30,28,20,5,10,25,31,4,22,14,7,17,27,3,32,34,21,9,1,35,26,29,6,11,13,0,2,15,24,8]","main","311","many-guess-6"
"","","","","","html-keyboard-response","86","400933","0.0-10.0-1.33","5d57f9cdedef630016280505","640759fa512f630a2bdc333d","6408c17ce62ed13e6dfdcde5","null","","null","","","","","","","","","","","","","","","","","","","fixation","",""
"","","","","","color-precision2","87","405139","0.0-10.0-0.34-0.34","5d57f9cdedef630016280505","640759fa512f630a2bdc333d","6408c17ce62ed13e6dfdcde5","[1330.4000000003725]","","","[14]","[57]","57","92","145.08699284366887","[145.08699284366887]","[53.08699284366887]","[51]","0","0","1","0","148.2900000003865","994.4750000007334","1000","[[[""img/mask89.png""]]]","","","main","92","color-precision2"
"","","","","","html-keyboard-response","88","405643","0.0-10.0-1.34","5d57f9cdedef630016280505","640759fa512f630a2bdc333d","6408c17ce62ed13e6dfdcde5","null","","null","","","","","","","","","","","","","","","","","","","fixation","",""
"","","","","","color-precision2","89","409034","0.0-10.0-0.35-0.35","5d57f9cdedef630016280505","640759fa512f630a2bdc333d","6408c17ce62ed13e6dfdcde5","[700.9000000003725]","","","[11]","[11]","11","220","233.9624280070452","[233.9624280070452]","[13.96242800704519]","[14]","0","0","1","0","158.22899999999208","993.2290000003995","1000","[[[""img/mask31.png""]]]","","","main","220","color-precision2"
"","","","","","html-keyboard-response","90","409538","0.0-10.0-1.35","5d57f9cdedef630016280505","640759fa512f630a2bdc333d","6408c17ce62ed13e6dfdcde5","null","","null","","","","","","","","","","","","","","","","","","","fixation","",""
"","","","","","color-precision2","91","413972","0.0-10.0-0.36-0.36","5d57f9cdedef630016280505","640759fa512f630a2bdc333d","6408c17ce62ed13e6dfdcde5","[1623.5]","","","[24]","[355]","355","287","283.1110929897426","[283.1110929897426]","[356.1110929897426]","[356]","0","0","1","0","144","1007.4730000011041","1000","[[[""img/mask9.png""]]]","","","main","287","color-precision2"
"","","","","","html-keyboard-response","92","414476","0.0-10.0-1.36","5d57f9cdedef630016280505","640759fa512f630a2bdc333d","6408c17ce62ed13e6dfdcde5","null","","null","","","","","","","","","","","","","","","","","","","fixation","",""
"","","","","","color-precision2","93","418572","0.0-10.0-0.37-0.37","5d57f9cdedef630016280505","640759fa512f630a2bdc333d","6408c17ce62ed13e6dfdcde5","[1086.7000000011176]","","","[24]","[157]","157","31","184.57944853940455","[184.57944853940455]","[153.57944853940455]","[153]","0","0","1","0","145.1240000014659","1000.7800000000279","1000","[[[""img/mask2.png""]]]","","","main","31","color-precision2"
"","","","","","html-keyboard-response","94","419076","0.0-10.0-1.37","5d57f9cdedef630016280505","640759fa512f630a2bdc333d","6408c17ce62ed13e6dfdcde5","null","","null","","","","","","","","","","","","","","","","","","","fixation","",""
"","","","","","color-precision2","95","422962","0.0-10.0-0.38-0.38","5d57f9cdedef630016280505","640759fa512f630a2bdc333d","6408c17ce62ed13e6dfdcde5","[982.5]","","","[27]","[257]","257","59","315.406346233309","[315.406346233309]","[256.406346233309]","[257]","0","0","1","0","145.85200000111945","995.6310000010999","1000","[[[""img/mask94.png""]]]","","","main","59","color-precision2"
"","","","","","html-keyboard-response","96","423468","0.0-10.0-1.38","5d57f9cdedef630016280505","640759fa512f630a2bdc333d","6408c17ce62ed13e6dfdcde5","null","","null","","","","","","","","","","","","","","","","","","","fixation","",""
"","","","","","many-guess-6","97","427555","0.0-10.0-0.39-0.39","5d57f9cdedef630016280505","640759fa512f630a2bdc333d","6408c17ce62ed13e6dfdcde5","[2113.0999999996275]","","","[0,32,33,27,28,19,24,22,18,8,14,7,11,12,3,16,10,21,25,6,20,5,13,2,4,26,1,23,31,17,34,9,30,29,15,35]","[296,196,186,157,256,67,266,286,127,236,336,306,97,216,226,246,167,107,117,27,47,57,137,316,346,77,7,87,147,177,276,37,326,356,17,206]","296","152","346.73466239382384","[346.73466239382384]","[194.73466239382384]","[194]","[120,120,210,210,210,210,120,30,120]","0","36","0","157.76400000002468","23.781000000366475","16","[[[""img/mask6.png""],[""img/mask65.png""],[""img/mask34.png""],[""img/mask75.png""],[""img/mask79.png""],[""img/mask60.png""],[""img/mask14.png""],[""img/mask20.png""],[""img/mask55.png""],[""img/mask66.png""],[""img/mask76.png""],[""img/mask11.png""],[""img/mask22.png""],[""img/mask100.png""],[""img/mask61.png""],[""img/mask65.png""],[""img/mask38.png""],[""img/mask26.png""],[""img/mask93.png""],[""img/mask84.png""],[""img/mask30.png""],[""img/mask90.png""],[""img/mask92.png""],[""img/mask1.png""],[""img/mask4.png""],[""img/mask96.png""],[""img/mask56.png""],[""img/mask24.png""],[""img/mask40.png""],[""img/mask53.png""],[""img/mask94.png""],[""img/mask7.png""],[""img/mask77.png""],[""img/mask10.png""],[""img/mask34.png""],[""img/mask22.png""]]]","","[0,32,33,27,28,19,24,22,18,8,14,7,11,12,3,16,10,21,25,6,20,5,13,2,4,26,1,23,31,17,34,9,30,29,15,35]","main","152","many-guess-6"
"","","","","","html-keyboard-response","98","430515","0.0-10.0-1.39","5d57f9cdedef630016280505","640759fa512f630a2bdc333d","6408c17ce62ed13e6dfdcde5","2956.5999999996275","Wow! You've completed 40 out of 180 trials! </p> <p>  </p><p> Take a quick break, then press any key when you're ready to continue.","arrowdown","","","","","","","","","","","","","","","","","","","fixation","",""
"","","","","","color-precision2","99","436389","0.0-10.0-0.40-0.40","5d57f9cdedef630016280505","640759fa512f630a2bdc333d","6408c17ce62ed13e6dfdcde5","[1352.5999999996275]","","","[11]","[229]","229","29","277.3704680031787","[277.3704680031787]","[248.3704680031787]","[249]","0","0","1","0","147.75700000108918","995.6270000007353","1000","[[[""img/mask39.png""]]]","","","main","29","color-precision2"
"","","","","","html-keyboard-response","100","436895","0.0-10.0-1.40","5d57f9cdedef630016280505","640759fa512f630a2bdc333d","6408c17ce62ed13e6dfdcde5","null","","null","","","","","","","","","","","","","","","","","","","fixation","",""
"","","","","","many-guess-6","101","440652","0.0-10.0-0.41-0.41","5d57f9cdedef630016280505","640759fa512f630a2bdc333d","6408c17ce62ed13e6dfdcde5","[1789.5]","","","[8,27,10,31,17,32,4,25,0,28,5,15,11,12,13,9,24,26,30,34,35,18,29,6,19,23,21,14,16,33,2,22,1,7,3,20]","[293,24,183,64,233,173,133,273,263,243,223,143,74,34,113,323,313,4,343,84,14,153,353,193,104,44,203,213,253,333,303,94,163,54,283,123]","293","195","339.21418204680066","[339.21418204680066]","[144.21418204680066]","[144]","[120,120,120,300,210,120,120,30,120]","0","36","0","153.35400000074878","32.65299999999115","16","[[[""img/mask40.png""],[""img/mask77.png""],[""img/mask37.png""],[""img/mask32.png""],[""img/mask64.png""],[""img/mask74.png""],[""img/mask84.png""],[""img/mask1.png""],[""img/mask59.png""],[""img/mask67.png""],[""img/mask51.png""],[""img/mask15.png""],[""img/mask22.png""],[""img/mask16.png""],[""img/mask31.png""],[""img/mask79.png""],[""img/mask42.png""],[""img/mask14.png""],[""img/mask19.png""],[""img/mask19.png""],[""img/mask65.png""],[""img/mask33.png""],[""img/mask23.png""],[""img/mask94.png""],[""img/mask73.png""],[""img/mask13.png""],[""img/mask48.png""],[""img/mask54.png""],[""img/mask72.png""],[""img/mask24.png""],[""img/mask56.png""],[""img/mask59.png""],[""img/mask60.png""],[""img/mask28.png""],[""img/mask100.png""],[""img/mask7.png""]]]","","[8,27,10,31,17,32,4,25,0,28,5,15,11,12,13,9,24,26,30,34,35,18,29,6,19,23,21,14,16,33,2,22,1,7,3,20]","main","195","many-guess-6"
"","","","","","html-keyboard-response","102","441157","0.0-10.0-1.41","5d57f9cdedef630016280505","640759fa512f630a2bdc333d","6408c17ce62ed13e6dfdcde5","null","","null","","","","","","","","","","","","","","","","","","","fixation","",""
"","","","","","color-precision2","103","445939","0.0-10.0-0.42-0.42","5d57f9cdedef630016280505","640759fa512f630a2bdc333d","6408c17ce62ed13e6dfdcde5","[1667.5]","","","[32]","[250]","250","26","299.122313568282","[299.122313568282]","[273.122313568282]","[273]","0","0","1","0","158.18800000002375","1002.7530000000261","1000","[[[""img/mask82.png""]]]","","","main","26","color-precision2"
"","","","","","html-keyboard-response","104","446442","0.0-10.0-1.42","5d57f9cdedef630016280505","640759fa512f630a2bdc333d","6408c17ce62ed13e6dfdcde5","null","","null","","","","","","","","","","","","","","","","","","","fixation","",""
"","","","","","many-guess-6","105","450549","0.0-10.0-0.43-0.43","5d57f9cdedef630016280505","640759fa512f630a2bdc333d","6408c17ce62ed13e6dfdcde5","[2318.5]","","","[16,35,5,34,8,33,27,14,26,21,3,9,25,19,10,20,11,29,12,31,2,28,30,1,32,0,7,13,6,18,15,23,22,17,4,24]","[168,49,268,198,9,248,308,188,348,278,298,19,328,228,238,99,358,288,218,128,39,178,138,29,208,258,318,79,148,59,69,158,338,119,109,89]","168","213","20.45415597397038","[20.45415597397038]","[167.4541559739704]","[168]","[120,120,300,120,30,210,30,30,300]","0","36","0","146.81199999997625","19.31900000112364","16","[[[""img/mask86.png""],[""img/mask51.png""],[""img/mask18.png""],[""img/mask25.png""],[""img/mask49.png""],[""img/mask78.png""],[""img/mask56.png""],[""img/mask29.png""],[""img/mask49.png""],[""img/mask42.png""],[""img/mask8.png""],[""img/mask65.png""],[""img/mask8.png""],[""img/mask91.png""],[""img/mask10.png""],[""img/mask20.png""],[""img/mask23.png""],[""img/mask46.png""],[""img/mask57.png""],[""img/mask33.png""],[""img/mask8.png""],[""img/mask36.png""],[""img/mask53.png""],[""img/mask37.png""],[""img/mask53.png""],[""img/mask17.png""],[""img/mask38.png""],[""img/mask9.png""],[""img/mask67.png""],[""img/mask53.png""],[""img/mask88.png""],[""img/mask57.png""],[""img/mask71.png""],[""img/mask87.png""],[""img/mask46.png""],[""img/mask97.png""]]]","","[16,35,5,34,8,33,27,14,26,21,3,9,25,19,10,20,11,29,12,31,2,28,30,1,32,0,7,13,6,18,15,23,22,17,4,24]","main","213","many-guess-6"
"","","","","","html-keyboard-response","106","451055","0.0-10.0-1.43","5d57f9cdedef630016280505","640759fa512f630a2bdc333d","6408c17ce62ed13e6dfdcde5","null","","null","","","","","","","","","","","","","","","","","","","fixation","",""
"","","","","","color-precision2","107","455846","0.0-10.0-0.44-0.44","5d57f9cdedef630016280505","640759fa512f630a2bdc333d","6408c17ce62ed13e6dfdcde5","[1671.0999999996275]","","","[33]","[136]","136","194","339.31047621114294","[339.31047621114294]","[145.31047621114294]","[145]","0","0","1","0","144.7510000015027","1090.933000000019","1000","[[[""img/mask56.png""]]]","","","main","194","color-precision2"
"","","","","","html-keyboard-response","108","456352","0.0-10.0-1.44","5d57f9cdedef630016280505","640759fa512f630a2bdc333d","6408c17ce62ed13e6dfdcde5","null","","null","","","","","","","","","","","","","","","","","","","fixation","",""
"","","","","","color-precision2","109","459940","0.0-10.0-0.45-0.45","5d57f9cdedef630016280505","640759fa512f630a2bdc333d","6408c17ce62ed13e6dfdcde5","[743.2000000011176]","","","[14]","[328]","328","9","349.61819484076176","[349.61819484076176]","[340.61819484076176]","[340]","0","0","1","0","144.18000000109896","1007.541000000725","1000","[[[""img/mask63.png""]]]","","","main","9","color-precision2"
"","","","","","html-keyboard-response","110","460443","0.0-10.0-1.45","5d57f9cdedef630016280505","640759fa512f630a2bdc333d","6408c17ce62ed13e6dfdcde5","null","","null","","","","","","","","","","","","","","","","","","","fixation","",""
"","","","","","color-precision2","111","463870","0.0-10.0-0.46-0.46","5d57f9cdedef630016280505","640759fa512f630a2bdc333d","6408c17ce62ed13e6dfdcde5","[669.5]","","","[5]","[236]","236","150","23.087264657279825","[23.087264657279825]","[233.08726465727983]","[232]","0","0","1","0","144.80300000112038","1007.2600000003586","1000","[[[""img/mask97.png""]]]","","","main","150","color-precision2"
"","","","","","html-keyboard-response","112","464375","0.0-10.0-1.46","5d57f9cdedef630016280505","640759fa512f630a2bdc333d","6408c17ce62ed13e6dfdcde5","null","","null","","","","","","","","","","","","","","","","","","","fixation","",""
"","","","","","color-precision2","113","469043","0.0-10.0-0.47-0.47","5d57f9cdedef630016280505","640759fa512f630a2bdc333d","6408c17ce62ed13e6dfdcde5","[1846.800000000745]","","","[17]","[274]","274","288","208.78661831001403","[208.78661831001403]","[280.78661831001403]","[280]","0","0","1","0","143.1810000014957","995.994000001112","1000","[[[""img/mask38.png""]]]","","","main","288","color-precision2"
"","","","","","html-keyboard-response","114","469549","0.0-10.0-1.47","5d57f9cdedef630016280505","640759fa512f630a2bdc333d","6408c17ce62ed13e6dfdcde5","null","","null","","","","","","","","","","","","","","","","","","","fixation","",""
"","","","","","color-precision2","115","474125","0.0-10.0-0.48-0.48","5d57f9cdedef630016280505","640759fa512f630a2bdc333d","6408c17ce62ed13e6dfdcde5","[1360]","","","[26]","[24]","24","223","225.39109139705704","[225.39109139705704]","[2.391091397057039]","[2]","0","0","1","0","146.56599999999162","994.3229999999749","1000","[[[""img/mask20.png""]]]","","","main","223","color-precision2"
"","","","","","html-keyboard-response","116","474631","0.0-10.0-1.48","5d57f9cdedef630016280505","640759fa512f630a2bdc333d","6408c17ce62ed13e6dfdcde5","null","","null","","","","","","","","","","","","","","","","","","","fixation","",""
"","","","","","color-precision2","117","477884","0.0-10.0-0.49-0.49","5d57f9cdedef630016280505","640759fa512f630a2bdc333d","6408c17ce62ed13e6dfdcde5","[321]","","","[19]","[153]","153","31","198.2628899421941","[198.2628899421941]","[167.2628899421941]","[167]","0","0","1","0","156.51600000075996","1002.018000001146","1000","[[[""img/mask66.png""]]]","","","main","31","color-precision2"
"","","","","","html-keyboard-response","118","478390","0.0-10.0-1.49","5d57f9cdedef630016280505","640759fa512f630a2bdc333d","6408c17ce62ed13e6dfdcde5","null","","null","","","","","","","","","","","","","","","","","","","fixation","",""
"","","","","","many-guess-6","119","482909","0.0-10.0-0.50-0.50","5d57f9cdedef630016280505","640759fa512f630a2bdc333d","6408c17ce62ed13e6dfdcde5","[1639.2000000011176]","","","[18,27,30,28,19,35,2,17,16,25,11,0,3,8,22,21,9,7,5,24,29,33,34,14,1,15,13,23,6,4,12,32,26,10,20,31]","[311,171,81,341,22,191,2,321,201,111,241,31,121,61,231,211,331,131,351,91,51,141,71,12,161,251,221,271,261,151,301,291,181,101,281,41]","311","110","339.696877414397","[339.696877414397]","[229.69687741439702]","[229]","[210,120,120,210,210,120,210,300,30]","0","36","0","143.88600000110455","22.76600000075996","16","[[[""img/mask52.png""],[""img/mask84.png""],[""img/mask35.png""],[""img/mask57.png""],[""img/mask52.png""],[""img/mask68.png""],[""img/mask16.png""],[""img/mask14.png""],[""img/mask39.png""],[""img/mask77.png""],[""img/mask40.png""],[""img/mask13.png""],[""img/mask57.png""],[""img/mask80.png""],[""img/mask64.png""],[""img/mask52.png""],[""img/mask25.png""],[""img/mask39.png""],[""img/mask80.png""],[""img/mask8.png""],[""img/mask15.png""],[""img/mask40.png""],[""img/mask83.png""],[""img/mask40.png""],[""img/mask14.png""],[""img/mask3.png""],[""img/mask59.png""],[""img/mask11.png""],[""img/mask79.png""],[""img/mask75.png""],[""img/mask70.png""],[""img/mask61.png""],[""img/mask54.png""],[""img/mask67.png""],[""img/mask91.png""],[""img/mask93.png""]]]","","[18,27,30,28,19,35,2,17,16,25,11,0,3,8,22,21,9,7,5,24,29,33,34,14,1,15,13,23,6,4,12,32,26,10,20,31]","main","110","many-guess-6"
"","","","","","html-keyboard-response","120","483413","0.0-10.0-1.50","5d57f9cdedef630016280505","640759fa512f630a2bdc333d","6408c17ce62ed13e6dfdcde5","null","","null","","","","","","","","","","","","","","","","","","","fixation","",""
"","","","","","many-guess-6","121","487222","0.0-10.0-0.51-0.51","5d57f9cdedef630016280505","640759fa512f630a2bdc333d","6408c17ce62ed13e6dfdcde5","[2090.199999999255]","","","[9,17,23,34,30,12,24,33,13,25,20,16,4,29,11,2,15,1,8,5,32,3,10,26,19,18,0,28,22,35,31,21,27,7,6,14]","[336,76,286,86,46,306,246,166,326,66,186,136,16,176,345,116,146,276,26,256,6,196,266,226,36,236,316,206,156,126,355,296,216,96,56,106]","336","19","346.8333888893995","[346.8333888893995]","[327.8333888893995]","[327]","[30,210,30,30,300,210,300,120,300]","0","36","0","144.37600000039674","25.04600000072969","16","[[[""img/mask49.png""],[""img/mask99.png""],[""img/mask9.png""],[""img/mask92.png""],[""img/mask7.png""],[""img/mask77.png""],[""img/mask98.png""],[""img/mask43.png""],[""img/mask11.png""],[""img/mask78.png""],[""img/mask75.png""],[""img/mask26.png""],[""img/mask75.png""],[""img/mask88.png""],[""img/mask56.png""],[""img/mask77.png""],[""img/mask54.png""],[""img/mask8.png""],[""img/mask55.png""],[""img/mask8.png""],[""img/mask65.png""],[""img/mask51.png""],[""img/mask37.png""],[""img/mask74.png""],[""img/mask61.png""],[""img/mask83.png""],[""img/mask81.png""],[""img/mask49.png""],[""img/mask51.png""],[""img/mask63.png""],[""img/mask82.png""],[""img/mask78.png""],[""img/mask100.png""],[""img/mask13.png""],[""img/mask36.png""],[""img/mask39.png""]]]","","[9,17,23,34,30,12,24,33,13,25,20,16,4,29,11,2,15,1,8,5,32,3,10,26,19,18,0,28,22,35,31,21,27,7,6,14]","main","19","many-guess-6"
"","","","","","html-keyboard-response","122","487727","0.0-10.0-1.51","5d57f9cdedef630016280505","640759fa512f630a2bdc333d","6408c17ce62ed13e6dfdcde5","null","","null","","","","","","","","","","","","","","","","","","","fixation","",""
"","","","","","color-precision2","123","491861","0.0-10.0-0.52-0.52","5d57f9cdedef630016280505","640759fa512f630a2bdc333d","6408c17ce62ed13e6dfdcde5","[911.5]","","","[18]","[126]","126","140","275.8378854522893","[275.8378854522893]","[135.8378854522893]","[136]","0","0","1","0","143.86500000039814","1002.7220000000088","1000","[[[""img/mask20.png""]]]","","","main","140","color-precision2"
"","","","","","html-keyboard-response","124","492373","0.0-10.0-1.52","5d57f9cdedef630016280505","640759fa512f630a2bdc333d","6408c17ce62ed13e6dfdcde5","null","","null","","","","","","","","","","","","","","","","","","","fixation","",""
"","","","","","color-precision2","125","496685","0.0-10.0-0.53-0.53","5d57f9cdedef630016280505","640759fa512f630a2bdc333d","6408c17ce62ed13e6dfdcde5","[1584.2999999988824]","","","[1]","[172]","172","57","224.51527569730658","[224.51527569730658]","[167.51527569730658]","[167]","0","0","1","0","144.3020000011311","992.5460000011371","1000","[[[""img/mask42.png""]]]","","","main","57","color-precision2"
"","","","","","html-keyboard-response","126","497190","0.0-10.0-1.53","5d57f9cdedef630016280505","640759fa512f630a2bdc333d","6408c17ce62ed13e6dfdcde5","null","","null","","","","","","","","","","","","","","","","","","","fixation","",""
"","","","","","many-guess-6","127","501727","0.0-10.0-0.54-0.54","5d57f9cdedef630016280505","640759fa512f630a2bdc333d","6408c17ce62ed13e6dfdcde5","[2577.0999999996275]","","","[16,20,10,24,19,29,0,12,5,28,7,8,32,9,34,22,17,13,18,11,26,35,21,27,15,31,2,1,4,23,14,3,30,25,6,33]","[116,195,46,255,345,96,106,66,175,275,26,325,56,185,16,36,155,205,355,136,245,86,285,165,265,295,225,305,315,335,146,215,6,126,76,235]","116","142","176.0122744275482","[176.0122744275482]","[34.01227442754819]","[33]","[120,30,300,300,300,120,30,300,120]","0","36","0","147.98100000037812","26.095000001136214","16","[[[""img/mask94.png""],[""img/mask89.png""],[""img/mask96.png""],[""img/mask58.png""],[""img/mask91.png""],[""img/mask92.png""],[""img/mask76.png""],[""img/mask91.png""],[""img/mask25.png""],[""img/mask89.png""],[""img/mask89.png""],[""img/mask65.png""],[""img/mask83.png""],[""img/mask39.png""],[""img/mask76.png""],[""img/mask13.png""],[""img/mask16.png""],[""img/mask16.png""],[""img/mask45.png""],[""img/mask70.png""],[""img/mask20.png""],[""img/mask81.png""],[""img/mask51.png""],[""img/mask31.png""],[""img/mask6.png""],[""img/mask10.png""],[""img/mask39.png""],[""img/mask1.png""],[""img/mask87.png""],[""img/mask6.png""],[""img/mask10.png""],[""img/mask78.png""],[""img/mask82.png""],[""img/mask57.png""],[""img/mask81.png""],[""img/mask20.png""]]]","","[16,20,10,24,19,29,0,12,5,28,7,8,32,9,34,22,17,13,18,11,26,35,21,27,15,31,2,1,4,23,14,3,30,25,6,33]","main","142","many-guess-6"
"","","","","","html-keyboard-response","128","502238","0.0-10.0-1.54","5d57f9cdedef630016280505","640759fa512f630a2bdc333d","6408c17ce62ed13e6dfdcde5","null","","null","","","","","","","","","","","","","","","","","","","fixation","",""
"","","","","","many-guess-6","129","506727","0.0-10.0-0.55-0.55","5d57f9cdedef630016280505","640759fa512f630a2bdc333d","6408c17ce62ed13e6dfdcde5","[2726.4000000003725]","","","[25,21,32,20,26,17,34,33,35,28,23,18,27,22,4,11,7,14,31,15,12,3,29,6,19,13,16,10,8,24,2,0,30,9,5,1]","[204,45,174,324,314,75,95,65,85,234,244,194,134,25,344,224,354,284,115,334,264,125,55,15,274,214,144,5,35,184,105,154,164,294,304,254]","204","228","4.220283885757777","[4.220283885757777]","[136.22028388575777]","[136]","[210,30,30,30,30,210,300,120,300]","0","36","0","146.62300000037067","30.607000001473352","16","[[[""img/mask2.png""],[""img/mask61.png""],[""img/mask25.png""],[""img/mask77.png""],[""img/mask26.png""],[""img/mask55.png""],[""img/mask85.png""],[""img/mask84.png""],[""img/mask71.png""],[""img/mask68.png""],[""img/mask4.png""],[""img/mask24.png""],[""img/mask32.png""],[""img/mask33.png""],[""img/mask48.png""],[""img/mask54.png""],[""img/mask66.png""],[""img/mask56.png""],[""img/mask4.png""],[""img/mask77.png""],[""img/mask39.png""],[""img/mask79.png""],[""img/mask25.png""],[""img/mask20.png""],[""img/mask3.png""],[""img/mask39.png""],[""img/mask30.png""],[""img/mask73.png""],[""img/mask94.png""],[""img/mask75.png""],[""img/mask67.png""],[""img/mask86.png""],[""img/mask63.png""],[""img/mask51.png""],[""img/mask79.png""],[""img/mask8.png""]]]","","[25,21,32,20,26,17,34,33,35,28,23,18,27,22,4,11,7,14,31,15,12,3,29,6,19,13,16,10,8,24,2,0,30,9,5,1]","main","228","many-guess-6"
"","","","","","html-keyboard-response","130","507232","0.0-10.0-1.55","5d57f9cdedef630016280505","640759fa512f630a2bdc333d","6408c17ce62ed13e6dfdcde5","null","","null","","","","","","","","","","","","","","","","","","","fixation","",""
"","","","","","many-guess-6","131","511374","0.0-10.0-0.56-0.56","5d57f9cdedef630016280505","640759fa512f630a2bdc333d","6408c17ce62ed13e6dfdcde5","[2407.300000000745]","","","[13,33,27,22,26,5,7,14,6,8,19,4,28,2,20,29,23,16,15,35,0,25,34,21,10,12,17,31,3,24,30,11,9,1,18,32]","[159,269,189,99,20,179,149,89,359,299,70,219,339,169,129,30,109,349,209,50,119,10,249,329,139,259,40,309,239,289,229,60,79,199,319,279]","159","260","25.359670001874562","[25.359670001874562]","[125.35967000187458]","[124]","[210,300,120,30,300,30,120,30,210]","0","36","0","146.75200000114273","37.31599999999162","16","[[[""img/mask96.png""],[""img/mask27.png""],[""img/mask15.png""],[""img/mask33.png""],[""img/mask65.png""],[""img/mask75.png""],[""img/mask1.png""],[""img/mask98.png""],[""img/mask92.png""],[""img/mask56.png""],[""img/mask24.png""],[""img/mask77.png""],[""img/mask49.png""],[""img/mask85.png""],[""img/mask83.png""],[""img/mask14.png""],[""img/mask12.png""],[""img/mask98.png""],[""img/mask28.png""],[""img/mask16.png""],[""img/mask46.png""],[""img/mask66.png""],[""img/mask13.png""],[""img/mask38.png""],[""img/mask81.png""],[""img/mask25.png""],[""img/mask87.png""],[""img/mask1.png""],[""img/mask92.png""],[""img/mask24.png""],[""img/mask44.png""],[""img/mask62.png""],[""img/mask78.png""],[""img/mask57.png""],[""img/mask21.png""],[""img/mask38.png""]]]","","[13,33,27,22,26,5,7,14,6,8,19,4,28,2,20,29,23,16,15,35,0,25,34,21,10,12,17,31,3,24,30,11,9,1,18,32]","main","260","many-guess-6"
"","","","","","html-keyboard-response","132","511878","0.0-10.0-1.56","5d57f9cdedef630016280505","640759fa512f630a2bdc333d","6408c17ce62ed13e6dfdcde5","null","","null","","","","","","","","","","","","","","","","","","","fixation","",""
"","","","","","many-guess-6","133","516273","0.0-10.0-0.57-0.57","5d57f9cdedef630016280505","640759fa512f630a2bdc333d","6408c17ce62ed13e6dfdcde5","[2132]","","","[19,29,9,2,14,33,0,27,7,11,3,10,34,18,21,16,32,31,24,23,4,35,25,8,20,1,15,22,26,28,13,12,30,17,6,5]","[63,73,113,263,3,53,23,33,293,233,143,183,83,163,123,133,243,193,253,313,343,43,93,13,333,153,323,283,273,303,103,213,352,223,203,173]","63","226","288.3451435994221","[288.3451435994221]","[62.3451435994221]","[63]","[210,120,30,300,210,120,30,210,30]","0","36","0","148.07800000114366","29.45300000073621","16","[[[""img/mask34.png""],[""img/mask5.png""],[""img/mask54.png""],[""img/mask28.png""],[""img/mask5.png""],[""img/mask79.png""],[""img/mask90.png""],[""img/mask53.png""],[""img/mask39.png""],[""img/mask76.png""],[""img/mask31.png""],[""img/mask15.png""],[""img/mask98.png""],[""img/mask94.png""],[""img/mask39.png""],[""img/mask73.png""],[""img/mask10.png""],[""img/mask74.png""],[""img/mask23.png""],[""img/mask31.png""],[""img/mask35.png""],[""img/mask3.png""],[""img/mask20.png""],[""img/mask16.png""],[""img/mask60.png""],[""img/mask11.png""],[""img/mask6.png""],[""img/mask13.png""],[""img/mask20.png""],[""img/mask70.png""],[""img/mask42.png""],[""img/mask81.png""],[""img/mask17.png""],[""img/mask44.png""],[""img/mask75.png""],[""img/mask21.png""]]]","","[19,29,9,2,14,33,0,27,7,11,3,10,34,18,21,16,32,31,24,23,4,35,25,8,20,1,15,22,26,28,13,12,30,17,6,5]","main","226","many-guess-6"
"","","","","","html-keyboard-response","134","516779","0.0-10.0-1.57","5d57f9cdedef630016280505","640759fa512f630a2bdc333d","6408c17ce62ed13e6dfdcde5","null","","null","","","","","","","","","","","","","","","","","","","fixation","",""
"","","","","","many-guess-6","135","520766","0.0-10.0-0.58-0.58","5d57f9cdedef630016280505","640759fa512f630a2bdc333d","6408c17ce62ed13e6dfdcde5","[1743.699999999255]","","","[35,34,25,12,10,15,18,21,7,26,20,19,2,29,24,22,33,9,1,32,14,6,11,31,28,17,23,30,8,4,3,16,5,13,0,27]","[132,142,102,82,252,212,23,332,352,152,32,112,292,322,192,3,262,72,42,62,242,222,282,312,172,92,342,162,13,202,182,302,52,272,232,122]","132","136","230.03678270952253","[230.03678270952253]","[94.03678270952253]","[94]","[120,30,120,120,30,120,120,210,210]","0","36","0","144.05400000116788","42.64399999997113","16","[[[""img/mask69.png""],[""img/mask78.png""],[""img/mask60.png""],[""img/mask54.png""],[""img/mask68.png""],[""img/mask1.png""],[""img/mask83.png""],[""img/mask7.png""],[""img/mask11.png""],[""img/mask36.png""],[""img/mask75.png""],[""img/mask19.png""],[""img/mask28.png""],[""img/mask76.png""],[""img/mask49.png""],[""img/mask94.png""],[""img/mask11.png""],[""img/mask53.png""],[""img/mask26.png""],[""img/mask58.png""],[""img/mask84.png""],[""img/mask5.png""],[""img/mask15.png""],[""img/mask15.png""],[""img/mask10.png""],[""img/mask3.png""],[""img/mask29.png""],[""img/mask70.png""],[""img/mask74.png""],[""img/mask94.png""],[""img/mask74.png""],[""img/mask24.png""],[""img/mask71.png""],[""img/mask63.png""],[""img/mask66.png""],[""img/mask44.png""]]]","","[35,34,25,12,10,15,18,21,7,26,20,19,2,29,24,22,33,9,1,32,14,6,11,31,28,17,23,30,8,4,3,16,5,13,0,27]","main","136","many-guess-6"
"","","","","","html-keyboard-response","136","521271","0.0-10.0-1.58","5d57f9cdedef630016280505","640759fa512f630a2bdc333d","6408c17ce62ed13e6dfdcde5","null","","null","","","","","","","","","","","","","","","","","","","fixation","",""
"","","","","","color-precision2","137","525291","0.0-10.0-0.59-0.59","5d57f9cdedef630016280505","640759fa512f630a2bdc333d","6408c17ce62ed13e6dfdcde5","[1209.4000000003725]","","","[1]","[32]","32","35","36.666927616048504","[36.666927616048504]","[1.666927616048504]","[1]","0","0","1","0","143.59100000036415","994.2450000006938","1000","[[[""img/mask18.png""]]]","","","main","35","color-precision2"
"","","","","","html-keyboard-response","138","528813","0.0-10.0-1.59","5d57f9cdedef630016280505","640759fa512f630a2bdc333d","6408c17ce62ed13e6dfdcde5","3516","Wow! You've completed 60 out of 180 trials! </p> <p>  </p><p> Take a quick break, then press any key when you're ready to continue.","arrowdown","","","","","","","","","","","","","","","","","","","fixation","",""
"","","","","","many-guess-6","139","533790","0.0-10.0-0.60-0.60","5d57f9cdedef630016280505","640759fa512f630a2bdc333d","6408c17ce62ed13e6dfdcde5","[1438.5]","","","[15,14,17,31,3,33,6,27,24,34,0,13,30,5,25,7,1,10,11,12,8,20,9,18,16,29,35,26,21,19,23,32,2,4,22,28]","[148,19,218,288,348,49,69,138,208,228,119,59,328,99,89,198,168,9,318,268,178,158,278,29,248,338,258,79,109,129,358,238,298,188,308,39]","148","112","321.7865853588314","[321.7865853588314]","[209.78658535883142]","[210]","[210,30,300,210,210,210,300,30,300]","0","36","0","147.80700000107754","26.194000000716187","16","[[[""img/mask68.png""],[""img/mask100.png""],[""img/mask37.png""],[""img/mask93.png""],[""img/mask3.png""],[""img/mask16.png""],[""img/mask62.png""],[""img/mask32.png""],[""img/mask10.png""],[""img/mask62.png""],[""img/mask9.png""],[""img/mask42.png""],[""img/mask30.png""],[""img/mask46.png""],[""img/mask75.png""],[""img/mask46.png""],[""img/mask66.png""],[""img/mask9.png""],[""img/mask6.png""],[""img/mask37.png""],[""img/mask18.png""],[""img/mask72.png""],[""img/mask63.png""],[""img/mask28.png""],[""img/mask89.png""],[""img/mask25.png""],[""img/mask66.png""],[""img/mask46.png""],[""img/mask34.png""],[""img/mask61.png""],[""img/mask6.png""],[""img/mask29.png""],[""img/mask49.png""],[""img/mask44.png""],[""img/mask67.png""],[""img/mask54.png""]]]","","[15,14,17,31,3,33,6,27,24,34,0,13,30,5,25,7,1,10,11,12,8,20,9,18,16,29,35,26,21,19,23,32,2,4,22,28]","main","112","many-guess-6"
"","","","","","html-keyboard-response","140","534294","0.0-10.0-1.60","5d57f9cdedef630016280505","640759fa512f630a2bdc333d","6408c17ce62ed13e6dfdcde5","null","","null","","","","","","","","","","","","","","","","","","","fixation","",""
"","","","","","color-precision2","141","538460","0.0-10.0-0.61-0.61","5d57f9cdedef630016280505","640759fa512f630a2bdc333d","6408c17ce62ed13e6dfdcde5","[1333]","","","[24]","[210]","210","186","22.79846021458394","[22.79846021458394]","[196.79846021458394]","[196]","0","0","1","0","145.47700000042096","994.2160000003641","1000","[[[""img/mask93.png""]]]","","","main","186","color-precision2"
"","","","","","html-keyboard-response","142","538965","0.0-10.0-1.61","5d57f9cdedef630016280505","640759fa512f630a2bdc333d","6408c17ce62ed13e6dfdcde5","null","","null","","","","","","","","","","","","","","","","","","","fixation","",""
"","","","","","many-guess-6","143","543328","0.0-10.0-0.62-0.62","5d57f9cdedef630016280505","640759fa512f630a2bdc333d","6408c17ce62ed13e6dfdcde5","[2810.300000000745]","","","[17,18,22,23,33,35,21,1,6,13,25,5,11,29,19,4,7,12,34,27,16,20,10,32,14,15,26,28,9,2,24,31,3,30,8,0]","[264,25,94,284,184,224,274,334,294,204,134,55,354,234,244,254,324,174,154,35,214,45,75,85,164,114,194,124,15,104,304,344,144,65,5,314]","264","259","262.66562119858327","[262.66562119858327]","[3.665621198583267]","[4]","[30,30,30,120,120,120,120,210,120]","0","36","0","146.18299999996088","14.06500000145752","16","[[[""img/mask71.png""],[""img/mask31.png""],[""img/mask92.png""],[""img/mask6.png""],[""img/mask10.png""],[""img/mask51.png""],[""img/mask42.png""],[""img/mask49.png""],[""img/mask13.png""],[""img/mask2.png""],[""img/mask52.png""],[""img/mask36.png""],[""img/mask69.png""],[""img/mask7.png""],[""img/mask41.png""],[""img/mask50.png""],[""img/mask18.png""],[""img/mask76.png""],[""img/mask53.png""],[""img/mask22.png""],[""img/mask19.png""],[""img/mask16.png""],[""img/mask66.png""],[""img/mask33.png""],[""img/mask34.png""],[""img/mask58.png""],[""img/mask12.png""],[""img/mask46.png""],[""img/mask79.png""],[""img/mask7.png""],[""img/mask27.png""],[""img/mask31.png""],[""img/mask77.png""],[""img/mask79.png""],[""img/mask86.png""],[""img/mask24.png""]]]","","[17,18,22,23,33,35,21,1,6,13,25,5,11,29,19,4,7,12,34,27,16,20,10,32,14,15,26,28,9,2,24,31,3,30,8,0]","main","259","many-guess-6"
"","","","","","html-keyboard-response","144","543834","0.0-10.0-1.62","5d57f9cdedef630016280505","640759fa512f630a2bdc333d","6408c17ce62ed13e6dfdcde5","null","","null","","","","","","","","","","","","","","","","","","","fixation","",""
"","","","","","many-guess-6","145","547844","0.0-10.0-0.63-0.63","5d57f9cdedef630016280505","640759fa512f630a2bdc333d","6408c17ce62ed13e6dfdcde5","[2254.800000000745]","","","[21,12,34,7,24,11,25,2,13,14,16,20,1,22,35,33,29,18,0,19,31,8,26,27,4,3,23,32,10,15,28,17,30,5,6,9]","[60,100,319,50,359,209,309,269,189,40,109,159,139,259,229,179,20,70,30,349,169,129,249,90,299,199,239,219,10,289,149,119,279,329,80,339]","60","98","177.0297693928035","[177.0297693928035]","[79.0297693928035]","[78]","[210,30,120,30,210,120,300,30,120]","0","36","0","146.8639999999432","24.532000000355765","16","[[[""img/mask8.png""],[""img/mask91.png""],[""img/mask55.png""],[""img/mask40.png""],[""img/mask17.png""],[""img/mask61.png""],[""img/mask88.png""],[""img/mask67.png""],[""img/mask99.png""],[""img/mask77.png""],[""img/mask2.png""],[""img/mask16.png""],[""img/mask64.png""],[""img/mask2.png""],[""img/mask34.png""],[""img/mask3.png""],[""img/mask84.png""],[""img/mask47.png""],[""img/mask77.png""],[""img/mask52.png""],[""img/mask79.png""],[""img/mask67.png""],[""img/mask12.png""],[""img/mask63.png""],[""img/mask25.png""],[""img/mask33.png""],[""img/mask5.png""],[""img/mask45.png""],[""img/mask60.png""],[""img/mask18.png""],[""img/mask87.png""],[""img/mask10.png""],[""img/mask8.png""],[""img/mask49.png""],[""img/mask79.png""],[""img/mask20.png""]]]","","[21,12,34,7,24,11,25,2,13,14,16,20,1,22,35,33,29,18,0,19,31,8,26,27,4,3,23,32,10,15,28,17,30,5,6,9]","main","98","many-guess-6"
"","","","","","html-keyboard-response","146","548350","0.0-10.0-1.63","5d57f9cdedef630016280505","640759fa512f630a2bdc333d","6408c17ce62ed13e6dfdcde5","null","","null","","","","","","","","","","","","","","","","","","","fixation","",""
"","","","","","color-precision2","147","552364","0.0-10.0-0.64-0.64","5d57f9cdedef630016280505","640759fa512f630a2bdc333d","6408c17ce62ed13e6dfdcde5","[1027.9000000003725]","","","[29]","[37]","37","291","305.83765295427827","[305.83765295427827]","[14.83765295427827]","[15]","0","0","1","0","142.3910000011092","995.8470000004163","1000","[[[""img/mask35.png""]]]","","","main","291","color-precision2"
"","","","","","html-keyboard-response","148","552868","0.0-10.0-1.64","5d57f9cdedef630016280505","640759fa512f630a2bdc333d","6408c17ce62ed13e6dfdcde5","null","","null","","","","","","","","","","","","","","","","","","","fixation","",""
"","","","","","color-precision2","149","556498","0.0-10.0-0.65-0.65","5d57f9cdedef630016280505","640759fa512f630a2bdc333d","6408c17ce62ed13e6dfdcde5","[836.4000000003725]","","","[5]","[171]","171","141","313.2642954110716","[313.2642954110716]","[172.2642954110716]","[173]","0","0","1","0","146.6459999999497","999.2110000007087","1000","[[[""img/mask91.png""]]]","","","main","141","color-precision2"
"","","","","","html-keyboard-response","150","557001","0.0-10.0-1.65","5d57f9cdedef630016280505","640759fa512f630a2bdc333d","6408c17ce62ed13e6dfdcde5","null","","null","","","","","","","","","","","","","","","","","","","fixation","",""
"","","","","","color-precision2","151","560629","0.0-10.0-0.66-0.66","5d57f9cdedef630016280505","640759fa512f630a2bdc333d","6408c17ce62ed13e6dfdcde5","[884.7000000011176]","","","[4]","[237]","237","189","72.05627341598863","[72.05627341598863]","[243.05627341598864]","[241]","0","0","1","0","143.60800000000745","1001.7510000003967","1000","[[[""img/mask99.png""]]]","","","main","189","color-precision2"
"","","","","","html-keyboard-response","152","561134","0.0-10.0-1.66","5d57f9cdedef630016280505","640759fa512f630a2bdc333d","6408c17ce62ed13e6dfdcde5","null","","null","","","","","","","","","","","","","","","","","","","fixation","",""
"","","","","","color-precision2","153","565379","0.0-10.0-0.67-0.67","5d57f9cdedef630016280505","640759fa512f630a2bdc333d","6408c17ce62ed13e6dfdcde5","[1068.7000000011176]","","","[22]","[329]","329","177","160.0645803414236","[160.0645803414236]","[343.0645803414236]","[342]","0","0","1","0","146.70900000073016","1004.1650000000373","1000","[[[""img/mask4.png""]]]","","","main","177","color-precision2"
"","","","","","html-keyboard-response","154","565882","0.0-10.0-1.67","5d57f9cdedef630016280505","640759fa512f630a2bdc333d","6408c17ce62ed13e6dfdcde5","null","","null","","","","","","","","","","","","","","","","","","","fixation","",""
"","","","","","color-precision2","155","569263","0.0-10.0-0.68-0.68","5d57f9cdedef630016280505","640759fa512f630a2bdc333d","6408c17ce62ed13e6dfdcde5","[625.9000000003725]","","","[31]","[243]","243","240","129.10070589617698","[129.10070589617698]","[249.10070589617698]","[248]","0","0","1","0","142.7619999999879","1001.066000001505","1000","[[[""img/mask61.png""]]]","","","main","240","color-precision2"
"","","","","","html-keyboard-response","156","569768","0.0-10.0-1.68","5d57f9cdedef630016280505","640759fa512f630a2bdc333d","6408c17ce62ed13e6dfdcde5","null","","null","","","","","","","","","","","","","","","","","","","fixation","",""
"","","","","","color-precision2","157","573165","0.0-10.0-0.69-0.69","5d57f9cdedef630016280505","640759fa512f630a2bdc333d","6408c17ce62ed13e6dfdcde5","[650.3000000007451]","","","[24]","[34]","34","4","33.36636600105956","[33.36636600105956]","[29.36636600105956]","[29]","0","0","1","0","157.69599999999627","1003.0660000006901","1000","[[[""img/mask47.png""]]]","","","main","4","color-precision2"
"","","","","","html-keyboard-response","158","573668","0.0-10.0-1.69","5d57f9cdedef630016280505","640759fa512f630a2bdc333d","6408c17ce62ed13e6dfdcde5","null","","null","","","","","","","","","","","","","","","","","","","fixation","",""
"","","","","","many-guess-6","159","577024","0.0-10.0-0.70-0.70","5d57f9cdedef630016280505","640759fa512f630a2bdc333d","6408c17ce62ed13e6dfdcde5","[1629.5]","","","[35,9,21,3,12,34,8,7,13,2,19,31,17,6,10,22,33,5,18,20,0,26,15,1,28,24,14,16,32,4,23,30,27,11,25,29]","[161,181,221,31,41,151,231,251,171,51,71,241,320,300,201,350,141,21,261,310,111,101,211,330,1,271,131,340,290,11,61,121,81,280,91,191]","161","174","0.4307872170086284","[0.4307872170086284]","[186.43078721700863]","[186]","[210,300,30,120,300,210,210,210,30]","0","36","0","148.035000001546","11.117000000318512","16","[[[""img/mask7.png""],[""img/mask56.png""],[""img/mask99.png""],[""img/mask91.png""],[""img/mask55.png""],[""img/mask1.png""],[""img/mask69.png""],[""img/mask83.png""],[""img/mask75.png""],[""img/mask26.png""],[""img/mask64.png""],[""img/mask52.png""],[""img/mask46.png""],[""img/mask62.png""],[""img/mask38.png""],[""img/mask13.png""],[""img/mask21.png""],[""img/mask29.png""],[""img/mask75.png""],[""img/mask17.png""],[""img/mask69.png""],[""img/mask46.png""],[""img/mask18.png""],[""img/mask19.png""],[""img/mask22.png""],[""img/mask58.png""],[""img/mask70.png""],[""img/mask22.png""],[""img/mask83.png""],[""img/mask98.png""],[""img/mask29.png""],[""img/mask6.png""],[""img/mask97.png""],[""img/mask90.png""],[""img/mask10.png""],[""img/mask53.png""]]]","","[35,9,21,3,12,34,8,7,13,2,19,31,17,6,10,22,33,5,18,20,0,26,15,1,28,24,14,16,32,4,23,30,27,11,25,29]","main","174","many-guess-6"
"","","","","","html-keyboard-response","160","577529","0.0-10.0-1.70","5d57f9cdedef630016280505","640759fa512f630a2bdc333d","6408c17ce62ed13e6dfdcde5","null","","null","","","","","","","","","","","","","","","","","","","fixation","",""
"","","","","","many-guess-6","161","582297","0.0-10.0-0.71-0.71","5d57f9cdedef630016280505","640759fa512f630a2bdc333d","6408c17ce62ed13e6dfdcde5","[1679.0999999996275]","","","[25,34,12,18,2,19,0,28,1,11,32,21,9,33,27,8,4,15,5,22,26,35,3,29,16,20,23,7,17,6,14,30,31,13,10,24]","[198,138,68,108,348,128,268,148,238,278,88,18,338,48,98,38,298,118,178,208,358,318,248,288,228,168,258,188,158,28,308,218,328,58,78,8]","198","296","330.13186429681275","[330.13186429681275]","[34.13186429681275]","[34]","[30,30,300,30,210,210,210,30,300]","0","36","0","154.52700000116602","50.70600000070408","16","[[[""img/mask75.png""],[""img/mask21.png""],[""img/mask86.png""],[""img/mask82.png""],[""img/mask92.png""],[""img/mask16.png""],[""img/mask73.png""],[""img/mask53.png""],[""img/mask61.png""],[""img/mask68.png""],[""img/mask93.png""],[""img/mask21.png""],[""img/mask28.png""],[""img/mask51.png""],[""img/mask42.png""],[""img/mask11.png""],[""img/mask46.png""],[""img/mask85.png""],[""img/mask25.png""],[""img/mask92.png""],[""img/mask97.png""],[""img/mask47.png""],[""img/mask78.png""],[""img/mask90.png""],[""img/mask26.png""],[""img/mask55.png""],[""img/mask96.png""],[""img/mask54.png""],[""img/mask99.png""],[""img/mask40.png""],[""img/mask70.png""],[""img/mask51.png""],[""img/mask5.png""],[""img/mask81.png""],[""img/mask35.png""],[""img/mask57.png""]]]","","[25,34,12,18,2,19,0,28,1,11,32,21,9,33,27,8,4,15,5,22,26,35,3,29,16,20,23,7,17,6,14,30,31,13,10,24]","main","296","many-guess-6"
"","","","","","html-keyboard-response","162","582801","0.0-10.0-1.71","5d57f9cdedef630016280505","640759fa512f630a2bdc333d","6408c17ce62ed13e6dfdcde5","null","","null","","","","","","","","","","","","","","","","","","","fixation","",""
"","","","","","color-precision2","163","586763","0.0-10.0-0.72-0.72","5d57f9cdedef630016280505","640759fa512f630a2bdc333d","6408c17ce62ed13e6dfdcde5","[1301.7999999988824]","","","[4]","[106]","106","150","257.5624517509935","[257.5624517509935]","[107.56245175099349]","[108]","0","0","1","0","147.70400000107475","1004.5140000011306","1000","[[[""img/mask98.png""]]]","","","main","150","color-precision2"
"","","","","","html-keyboard-response","164","587266","0.0-10.0-1.72","5d57f9cdedef630016280505","640759fa512f630a2bdc333d","6408c17ce62ed13e6dfdcde5","null","","null","","","","","","","","","","","","","","","","","","","fixation","",""
"","","","","","many-guess-6","165","591645","0.0-10.0-0.73-0.73","5d57f9cdedef630016280505","640759fa512f630a2bdc333d","6408c17ce62ed13e6dfdcde5","[2243.9000000003725]","","","[8,35,11,20,7,9,34,15,0,14,10,25,22,24,13,28,6,19,26,12,3,29,32,5,16,23,27,2,31,4,30,1,18,17,33,21]","[59,139,339,10,50,159,319,89,229,69,289,329,30,219,239,349,79,129,309,149,119,359,109,199,209,99,259,20,40,299,169,179,249,269,189,279]","59","347","25.238704500319972","[25.238704500319972]","[38.238704500319955]","[37]","[210,30,30,120,210,210,30,210,30]","0","36","0","145.34800000069663","12.518000001087785","16","[[[""img/mask83.png""],[""img/mask98.png""],[""img/mask22.png""],[""img/mask69.png""],[""img/mask64.png""],[""img/mask96.png""],[""img/mask22.png""],[""img/mask56.png""],[""img/mask25.png""],[""img/mask57.png""],[""img/mask74.png""],[""img/mask9.png""],[""img/mask19.png""],[""img/mask93.png""],[""img/mask85.png""],[""img/mask42.png""],[""img/mask92.png""],[""img/mask99.png""],[""img/mask5.png""],[""img/mask92.png""],[""img/mask67.png""],[""img/mask69.png""],[""img/mask32.png""],[""img/mask93.png""],[""img/mask24.png""],[""img/mask43.png""],[""img/mask23.png""],[""img/mask15.png""],[""img/mask3.png""],[""img/mask34.png""],[""img/mask9.png""],[""img/mask97.png""],[""img/mask73.png""],[""img/mask43.png""],[""img/mask85.png""],[""img/mask94.png""]]]","","[8,35,11,20,7,9,34,15,0,14,10,25,22,24,13,28,6,19,26,12,3,29,32,5,16,23,27,2,31,4,30,1,18,17,33,21]","main","347","many-guess-6"
"","","","","","html-keyboard-response","166","592163","0.0-10.0-1.73","5d57f9cdedef630016280505","640759fa512f630a2bdc333d","6408c17ce62ed13e6dfdcde5","null","","null","","","","","","","","","","","","","","","","","","","fixation","",""
"","","","","","color-precision2","167","596568","0.0-10.0-0.74-0.74","5d57f9cdedef630016280505","640759fa512f630a2bdc333d","6408c17ce62ed13e6dfdcde5","[1425.0999999996275]","","","[35]","[171]","171","354","154.16712340048585","[154.16712340048585]","[160.16712340048585]","[159]","0","0","1","0","143.16200000152458","1001.2400000003399","1000","[[[""img/mask32.png""]]]","","","main","354","color-precision2"
"","","","","","html-keyboard-response","168","597076","0.0-10.0-1.74","5d57f9cdedef630016280505","640759fa512f630a2bdc333d","6408c17ce62ed13e6dfdcde5","null","","null","","","","","","","","","","","","","","","","","","","fixation","",""
"","","","","","color-precision2","169","600319","0.0-10.0-0.75-0.75","5d57f9cdedef630016280505","640759fa512f630a2bdc333d","6408c17ce62ed13e6dfdcde5","[349.59999999962747]","","","[28]","[246]","246","71","318.74676309421335","[318.74676309421335]","[247.74676309421335]","[248]","0","0","1","0","157.96300000033807","1002.4490000007208","1000","[[[""img/mask12.png""]]]","","","main","71","color-precision2"
"","","","","","html-keyboard-response","170","600822","0.0-10.0-1.75","5d57f9cdedef630016280505","640759fa512f630a2bdc333d","6408c17ce62ed13e6dfdcde5","null","","null","","","","","","","","","","","","","","","","","","","fixation","",""
"","","","","","color-precision2","171","604343","0.0-10.0-0.76-0.76","5d57f9cdedef630016280505","640759fa512f630a2bdc333d","6408c17ce62ed13e6dfdcde5","[476.5]","","","[27]","[356]","356","58","46.18936089109445","[46.18936089109445]","[348.18936089109445]","[347]","0","0","1","0","142.90700000035577","997.719000000041","1000","[[[""img/mask16.png""]]]","","","main","58","color-precision2"
"","","","","","html-keyboard-response","172","604846","0.0-10.0-1.76","5d57f9cdedef630016280505","640759fa512f630a2bdc333d","6408c17ce62ed13e6dfdcde5","null","","null","","","","","","","","","","","","","","","","","","","fixation","",""
"","","","","","many-guess-6","173","608762","0.0-10.0-0.77-0.77","5d57f9cdedef630016280505","640759fa512f630a2bdc333d","6408c17ce62ed13e6dfdcde5","[1956.5999999996275]","","","[2,24,28,5,4,19,26,11,17,22,12,35,15,0,20,13,10,14,9,18,33,8,29,23,25,1,16,30,3,32,7,27,6,31,34,21]","[356,126,246,116,97,176,306,346,106,316,77,87,136,146,67,266,186,47,196,206,276,286,326,156,27,226,37,7,57,256,216,17,166,296,336,236]","356","136","52.58114294954038","[52.58114294954038]","[276.5811429495404]","[275]","[30,30,300,210,120,30,120,30,300]","0","36","0","147.63300000107847","40.80100000149105","16","[[[""img/mask30.png""],[""img/mask87.png""],[""img/mask26.png""],[""img/mask54.png""],[""img/mask36.png""],[""img/mask77.png""],[""img/mask77.png""],[""img/mask59.png""],[""img/mask64.png""],[""img/mask23.png""],[""img/mask56.png""],[""img/mask94.png""],[""img/mask38.png""],[""img/mask50.png""],[""img/mask19.png""],[""img/mask23.png""],[""img/mask44.png""],[""img/mask30.png""],[""img/mask74.png""],[""img/mask24.png""],[""img/mask9.png""],[""img/mask44.png""],[""img/mask42.png""],[""img/mask54.png""],[""img/mask54.png""],[""img/mask24.png""],[""img/mask89.png""],[""img/mask19.png""],[""img/mask78.png""],[""img/mask33.png""],[""img/mask31.png""],[""img/mask2.png""],[""img/mask92.png""],[""img/mask94.png""],[""img/mask88.png""],[""img/mask100.png""]]]","","[2,24,28,5,4,19,26,11,17,22,12,35,15,0,20,13,10,14,9,18,33,8,29,23,25,1,16,30,3,32,7,27,6,31,34,21]","main","136","many-guess-6"
"","","","","","html-keyboard-response","174","609266","0.0-10.0-1.77","5d57f9cdedef630016280505","640759fa512f630a2bdc333d","6408c17ce62ed13e6dfdcde5","null","","null","","","","","","","","","","","","","","","","","","","fixation","",""
"","","","","","color-precision2","175","613945","0.0-10.0-0.78-0.78","5d57f9cdedef630016280505","640759fa512f630a2bdc333d","6408c17ce62ed13e6dfdcde5","[1629.199999999255]","","","[22]","[323]","323","223","202.36512436864749","[202.36512436864749]","[339.36512436864746]","[339]","0","0","1","0","145.03000000154134","991.6940000000177","1000","[[[""img/mask57.png""]]]","","","main","223","color-precision2"
