"success","timeout","failed_images","failed_audio","failed_video","trial_type","trial_index","time_elapsed","internal_node_id","subject_id","study_id","session_id","rt","stimulus","response","position_of_items","colors_of_items","color_of_target","wheel_spin","response_angle","physical_response_angle","reported_color_angle","reported_color_discrete","locs","which_test","set_size","wheel_num_options","actual_mask_duration","actual_stim_duration","CMDispTime","maskArray","maskRotation","item_positions","task","randomSpinAmount","mainTask"
"true","false","[]","[]","[]","preload","0","9885","0.0-0.0","5dee72917309b950e5262f3a","640759fa512f630a2bdc333d","6408c17cc347c840b5e435e0","","","","","","","","","","","","","","","","","","","","","","","",""
"true","","","","","fullscreen","1","105014","0.0-1.0","5dee72917309b950e5262f3a","640759fa512f630a2bdc333d","6408c17cc347c840b5e435e0","","","","","","","","","","","","","","","","","","","","","","","",""
"","","","","","html-keyboard-response","2","110692","0.0-2.0","5dee72917309b950e5262f3a","640759fa512f630a2bdc333d","6408c17cc347c840b5e435e0","5674.100000143051","What a beautiful Wednesday to do some awesome science! </p> <p>  </p><p> </p>
    By completing this survey or questionnaire, you are consenting to be in this research study. </p>
    Your participation is voluntary and you can stop at any time.<p> [Press any key to continue] </p>"," ","","","","","","","","","","","","","","","","","","","","",""
"","","","","","html-keyboard-response","3","120707","0.0-3.0","5dee72917309b950e5262f3a","640759fa512f630a2bdc333d","6408c17cc347c840b5e435e0","null","
    <div style='width: 1000px;'>
    <div style='float: center;'><img src='img/TaskInstructions1.png'></img>
    </div>
    ","null","","","","","","","","","","","","","","","","","","","","",""
"","","","","","html-keyboard-response","4","146678","0.0-4.0","5dee72917309b950e5262f3a","640759fa512f630a2bdc333d","6408c17cc347c840b5e435e0","25969.700000047684","
    <div style='width: 1000px;'>
    <div style='float: center;'><img src='img/TaskInstructions1.png'></img>
    </div>
    "," ","","","","","","","","","","","","","","","","","","","","",""
"","","","","","html-keyboard-response","5","156689","0.0-5.0","5dee72917309b950e5262f3a","640759fa512f630a2bdc333d","6408c17cc347c840b5e435e0","null","
    <div style='width: 1000px;'>
    <div style='float: center;'><img src='img/TaskInstructions2.png'></img>
    </div>
    ","null","","","","","","","","","","","","","","","","","","","","",""
"","","","","","html-keyboard-response","6","212282","0.0-6.0","5dee72917309b950e5262f3a","640759fa512f630a2bdc333d","6408c17cc347c840b5e435e0","55592","
    <div style='width: 1000px;'>
    <div style='float: center;'><img src='img/TaskInstructions2.png'></img>
    </div>
    "," ","","","","","","","","","","","","","","","","","","","","",""
"","","","","","video-keyboard-response","7","226020","0.0-7.0","5dee72917309b950e5262f3a","640759fa512f630a2bdc333d","6408c17cc347c840b5e435e0","13731.799999952316","[""video/TaskInstructions3.mp4""]"," ","","","","","","","","","","","","","","","","","","","","",""
"","","","","","image-keyboard-response","8","235843","0.0-8.0-0.0","5dee72917309b950e5262f3a","640759fa512f630a2bdc333d","6408c17cc347c840b5e435e0","9818","img/training1.png"," ","","","","","","","","","","","","","","","","","","","","",""
"","","","","","color-precision2","9","248304","0.0-8.0-1.0-0.0","5dee72917309b950e5262f3a","640759fa512f630a2bdc333d","6408c17cc347c840b5e435e0","[3587]","","","[4]","[159]","159","63","233.53205845167724","[233.53205845167724]","[170.53205845167724]","[170]","0","0","1","0","498.8020000476972","996.21300004769","1000","","","0","training","",""
"","","","","","image-keyboard-response","10","264790","0.0-8.0-0.1","5dee72917309b950e5262f3a","640759fa512f630a2bdc333d","6408c17cc347c840b5e435e0","16484.700000047684","img/training2.png"," ","","","","","","","","","","","","","","","","","","","","",""
"","","","","","many-guess-6","11","275549","0.0-8.0-1.1-0.1","5dee72917309b950e5262f3a","640759fa512f630a2bdc333d","6408c17cc347c840b5e435e0","[6084.299999952316]","","","[9,30,4]","[207,166,82]","207","41","293.1339628516096","[293.1339628516096]","[252.13396285160962]","[252]","[120,120,30,300,120,30,300,300,30,120,30,300,120,210,120,30,30,120,30,210,300,210,30,210,30,30,300,300,210,210,210,300,210,30,120,120]","0","3","0","999.25","1005.1790000953479","1000","[[[""img/mask97.png""],[""img/mask15.png""],[""img/mask16.png""]]]","","[9,30,4]","training","",""
"","","","","","image-keyboard-response","12","281500","0.0-8.0-0.2","5dee72917309b950e5262f3a","640759fa512f630a2bdc333d","6408c17cc347c840b5e435e0","5949.700000047684","img/training3.png"," ","","","","","","","","","","","","","","","","","","","","",""
"","","","","","[""many-guess-6""]","13","287559","0.0-8.0-1.2-0.2","5dee72917309b950e5262f3a","640759fa512f630a2bdc333d","6408c17cc347c840b5e435e0","[2732.300000190735]","","","[16,22,30,19,12]","[199,246,27,315,181]","199","339","153.5362120881115","[153.5362120881115]","[174.5362120881115]","[173]","[120,120,210,30,300,300,120,210,120,300,30,30,210,30,300,30,210,30,210,300,300,120,210,300,210,120,210,300,210,30,210,300,120,120,30,210]","0","5","0","499.2360001907218","496.24000009539304","500","[[[""img/mask93.png""],[""img/mask40.png""],[""img/mask44.png""],[""img/mask11.png""],[""img/mask38.png""]]]","","[16,22,30,19,12]","training","",""
"","","","","","image-keyboard-response","14","290949","0.0-8.0-0.3","5dee72917309b950e5262f3a","640759fa512f630a2bdc333d","6408c17cc347c840b5e435e0","3388.2000000476837","img/training4.png"," ","","","","","","","","","","","","","","","","","","","","",""
"","","","","","[""many-guess-6""]","15","297027","0.0-8.0-1.3-0.3","5dee72917309b950e5262f3a","640759fa512f630a2bdc333d","6408c17cc347c840b5e435e0","[3235]","","","[2,12,1,26,0,32,17,30,19,21]","[4,100,134,34,292,323,343,70,48,157]","4","358","63.389712475497916","[63.389712475497916]","[65.3897124754979]","[63]","[210,210,300,210,30,210,120,120,120,30,120,300,30,120,30,30,210,210,120,120,210,120,300,210,300,120,210,30,210,300,120,300,30,210,300,30]","0","10","0","132.1550000477","125.06400004768511","132","[[[""img/mask13.png""],[""img/mask68.png""],[""img/mask75.png""],[""img/mask89.png""],[""img/mask8.png""],[""img/mask75.png""],[""img/mask54.png""],[""img/mask75.png""],[""img/mask68.png""],[""img/mask4.png""]]]","","[2,12,1,26,0,32,17,30,19,21]","training","",""
"","","","","","image-keyboard-response","16","308864","0.0-8.0-0.4","5dee72917309b950e5262f3a","640759fa512f630a2bdc333d","6408c17cc347c840b5e435e0","11836.099999904633","img/training5.png"," ","","","","","","","","","","","","","","","","","","","","",""
"","","","","","[""many-guess-6""]","17","314243","0.0-8.0-1.4-0.4","5dee72917309b950e5262f3a","640759fa512f630a2bdc333d","6408c17cc347c840b5e435e0","[2771]","","","[20,10,4,15,0,8,27,13,31,16,26,21,22,1,19,7,9,29,3,33,11,5,14,2,34,18,25,17,32,28,12,35,23,24,30,6]","[232,312,3,302,43,192,162,83,13,352,222,182,202,53,152,332,292,142,112,252,63,93,23,102,322,212,172,122,242,33,272,73,132,342,262,282]","232","356","59.76054770422788","[59.76054770422788]","[63.76054770422786]","[62]","[120,210,210,210,30,30,30,120,120,30,210,120,30,30,30,210,120,210,210,30,210,210,300,210,120,300,210,30,30,120,30,30,210,210,210,300]","0","36","0","131.1090000953409","11.69700009538792","16","[[[""img/mask66.png""],[""img/mask23.png""],[""img/mask34.png""],[""img/mask10.png""],[""img/mask63.png""],[""img/mask11.png""],[""img/mask54.png""],[""img/mask81.png""],[""img/mask58.png""],[""img/mask23.png""],[""img/mask46.png""],[""img/mask90.png""],[""img/mask24.png""],[""img/mask37.png""],[""img/mask50.png""],[""img/mask18.png""],[""img/mask47.png""],[""img/mask98.png""],[""img/mask24.png""],[""img/mask21.png""],[""img/mask15.png""],[""img/mask77.png""],[""img/mask96.png""],[""img/mask45.png""],[""img/mask55.png""],[""img/mask11.png""],[""img/mask45.png""],[""img/mask70.png""],[""img/mask14.png""],[""img/mask91.png""],[""img/mask2.png""],[""img/mask82.png""],[""img/mask11.png""],[""img/mask93.png""],[""img/mask95.png""],[""img/mask51.png""]]]","","[20,10,4,15,0,8,27,13,31,16,26,21,22,1,19,7,9,29,3,33,11,5,14,2,34,18,25,17,32,28,12,35,23,24,30,6]","training","",""
"","","","","","image-keyboard-response","18","319724","0.0-9.0","5dee72917309b950e5262f3a","640759fa512f630a2bdc333d","6408c17cc347c840b5e435e0","5479.700000047684","[""img/endTraining.png""]"," ","","","","","","","","","","","","","","","","","","","","",""
"","","","","","html-keyboard-response","19","320226","0.0-10.0-0.0","5dee72917309b950e5262f3a","640759fa512f630a2bdc333d","6408c17cc347c840b5e435e0","null","","null","","","","","","","","","","","","","","","","","","","fixation","",""
"","","","","","color-precision2","20","324966","0.0-10.0-1.0-0.0","5dee72917309b950e5262f3a","640759fa512f630a2bdc333d","6408c17cc347c840b5e435e0","[2147.4000000953674]","","","[19]","[179]","179","180","359.57908583254556","[359.57908583254556]","[179.57908583254556]","[179]","0","0","1","0","149.25600014306838","1003.0650001430768","1000","[[[""img/mask4.png""]]]","","","main","180","color-precision2"
"","","","","","html-keyboard-response","21","325468","0.0-10.0-0.1","5dee72917309b950e5262f3a","640759fa512f630a2bdc333d","6408c17cc347c840b5e435e0","null","","null","","","","","","","","","","","","","","","","","","","fixation","",""
"","","","","","many-guess-6","22","334026","0.0-10.0-1.1-0.1","5dee72917309b950e5262f3a","640759fa512f630a2bdc333d","6408c17cc347c840b5e435e0","[6473.599999904633]","","","[7,24,32,9,26,21,19,16,23,30,28,13,34,20,10,29,25,3,18,1,17,35,0,11,27,4,12,8,33,14,5,6,31,2,22,15]","[150,290,330,210,70,310,260,250,10,30,280,180,130,359,240,339,90,220,160,140,110,230,80,320,170,349,50,190,270,120,300,60,100,200,40,20]","150","39","68.86379313896576","[68.86379313896576]","[29.86379313896576]","[28]","[120,210,120,210,120,120,210,210,300]","0","36","0","148.67600014305208","11.467000143078621","16","[[[""img/mask96.png""],[""img/mask50.png""],[""img/mask76.png""],[""img/mask10.png""],[""img/mask94.png""],[""img/mask27.png""],[""img/mask58.png""],[""img/mask11.png""],[""img/mask30.png""],[""img/mask7.png""],[""img/mask21.png""],[""img/mask23.png""],[""img/mask40.png""],[""img/mask62.png""],[""img/mask97.png""],[""img/mask21.png""],[""img/mask26.png""],[""img/mask67.png""],[""img/mask90.png""],[""img/mask16.png""],[""img/mask78.png""],[""img/mask20.png""],[""img/mask71.png""],[""img/mask27.png""],[""img/mask16.png""],[""img/mask99.png""],[""img/mask28.png""],[""img/mask32.png""],[""img/mask60.png""],[""img/mask78.png""],[""img/mask67.png""],[""img/mask76.png""],[""img/mask22.png""],[""img/mask77.png""],[""img/mask70.png""],[""img/mask68.png""]]]","","[7,24,32,9,26,21,19,16,23,30,28,13,34,20,10,29,25,3,18,1,17,35,0,11,27,4,12,8,33,14,5,6,31,2,22,15]","main","39","many-guess-6"
"","","","","","html-keyboard-response","23","334542","0.0-10.0-0.2","5dee72917309b950e5262f3a","640759fa512f630a2bdc333d","6408c17cc347c840b5e435e0","null","","null","","","","","","","","","","","","","","","","","","","fixation","",""
"","","","","","color-precision2","24","340807","0.0-10.0-1.2-0.2","5dee72917309b950e5262f3a","640759fa512f630a2bdc333d","6408c17cc347c840b5e435e0","[3223.0999999046326]","","","[4]","[191]","191","59","250.68481533347074","[250.68481533347074]","[191.68481533347074]","[192]","0","0","1","0","149.2790000953828","995.0340001907316","1000","[[[""img/mask90.png""]]]","","","main","59","color-precision2"
"","","","","","html-keyboard-response","25","341309","0.0-10.0-0.3","5dee72917309b950e5262f3a","640759fa512f630a2bdc333d","6408c17cc347c840b5e435e0","null","","null","","","","","","","","","","","","","","","","","","","fixation","",""
"","","","","","color-precision2","26","346821","0.0-10.0-1.3-0.3","5dee72917309b950e5262f3a","640759fa512f630a2bdc333d","6408c17cc347c840b5e435e0","[2655.399999856949]","","","[21]","[296]","296","107","43.06615310622639","[43.06615310622639]","[296.0661531062264]","[296]","0","0","1","0","149.36600009538233","1000.9790001430665","1000","[[[""img/mask68.png""]]]","","","main","107","color-precision2"
"","","","","","html-keyboard-response","27","347322","0.0-10.0-0.4","5dee72917309b950e5262f3a","640759fa512f630a2bdc333d","6408c17cc347c840b5e435e0","null","","null","","","","","","","","","","","","","","","","","","","fixation","",""
"","","","","","color-precision2","28","352666","0.0-10.0-1.4-0.4","5dee72917309b950e5262f3a","640759fa512f630a2bdc333d","6408c17cc347c840b5e435e0","[2551.4000000953674]","","","[13]","[114]","114","131","240.47251311328978","[240.47251311328978]","[109.47251311328978]","[110]","0","0","1","0","149.1100000953884","1007.2980000476819","1000","[[[""img/mask15.png""]]]","","","main","131","color-precision2"
"","","","","","html-keyboard-response","29","353168","0.0-10.0-0.5","5dee72917309b950e5262f3a","640759fa512f630a2bdc333d","6408c17cc347c840b5e435e0","null","","null","","","","","","","","","","","","","","","","","","","fixation","",""
"","","","","","color-precision2","30","359198","0.0-10.0-1.5-0.5","5dee72917309b950e5262f3a","640759fa512f630a2bdc333d","6408c17cc347c840b5e435e0","[3418.5999999046326]","","","[30]","[171]","171","269","73.86774468400658","[73.86774468400658]","[164.8677446840066]","[163]","0","0","1","0","148.5670000477112","1007.8390001430525","1000","[[[""img/mask18.png""]]]","","","main","269","color-precision2"
"","","","","","html-keyboard-response","31","359700","0.0-10.0-0.6","5dee72917309b950e5262f3a","640759fa512f630a2bdc333d","6408c17cc347c840b5e435e0","null","","null","","","","","","","","","","","","","","","","","","","fixation","",""
"","","","","","many-guess-6","32","365180","0.0-10.0-1.6-0.6","5dee72917309b950e5262f3a","640759fa512f630a2bdc333d","6408c17cc347c840b5e435e0","[3401.0999999046326]","","","[26,25,2,12,8,6,14,29,18,23,28,7,13,31,16,33,19,34,30,0,15,4,5,17,21,9,20,24,22,1,11,10,27,32,3,35]","[71,330,21,231,101,111,300,310,241,61,171,1,51,31,320,290,181,201,221,280,340,161,251,121,211,260,270,41,131,151,350,141,91,81,191,11]","71","282","222.8981091930171","[222.8981091930171]","[300.8981091930171]","[301]","[300,120,120,30,210,30,120,120,30]","0","36","0","147.8320001430693","10.420000095386058","16","[[[""img/mask56.png""],[""img/mask10.png""],[""img/mask53.png""],[""img/mask62.png""],[""img/mask83.png""],[""img/mask69.png""],[""img/mask35.png""],[""img/mask34.png""],[""img/mask17.png""],[""img/mask80.png""],[""img/mask29.png""],[""img/mask97.png""],[""img/mask36.png""],[""img/mask24.png""],[""img/mask58.png""],[""img/mask37.png""],[""img/mask33.png""],[""img/mask16.png""],[""img/mask35.png""],[""img/mask36.png""],[""img/mask3.png""],[""img/mask25.png""],[""img/mask78.png""],[""img/mask4.png""],[""img/mask72.png""],[""img/mask50.png""],[""img/mask62.png""],[""img/mask39.png""],[""img/mask84.png""],[""img/mask34.png""],[""img/mask24.png""],[""img/mask76.png""],[""img/mask81.png""],[""img/mask89.png""],[""img/mask41.png""],[""img/mask49.png""]]]","","[26,25,2,12,8,6,14,29,18,23,28,7,13,31,16,33,19,34,30,0,15,4,5,17,21,9,20,24,22,1,11,10,27,32,3,35]","main","282","many-guess-6"
"","","","","","html-keyboard-response","33","365682","0.0-10.0-0.7","5dee72917309b950e5262f3a","640759fa512f630a2bdc333d","6408c17cc347c840b5e435e0","null","","null","","","","","","","","","","","","","","","","","","","fixation","",""
"","","","","","color-precision2","34","372256","0.0-10.0-1.7-0.7","5dee72917309b950e5262f3a","640759fa512f630a2bdc333d","6408c17cc347c840b5e435e0","[3979.600000143051]","","","[6]","[79]","79","76","150.55734201509034","[150.55734201509034]","[74.55734201509034]","[73]","0","0","1","0","149.25000009534415","999.2199999999721","1000","[[[""img/mask57.png""]]]","","","main","76","color-precision2"
"","","","","","html-keyboard-response","35","372758","0.0-10.0-0.8","5dee72917309b950e5262f3a","640759fa512f630a2bdc333d","6408c17cc347c840b5e435e0","null","","null","","","","","","","","","","","","","","","","","","","fixation","",""
"","","","","","many-guess-6","36","378733","0.0-10.0-1.8-0.8","5dee72917309b950e5262f3a","640759fa512f630a2bdc333d","6408c17cc347c840b5e435e0","[3524.5999999046326]","","","[14,4,22,34,11,8,15,12,30,25,35,7,18,10,6,13,26,2,32,5,1,17,20,21,31,9,0,24,19,29,23,27,16,28,33,3]","[34,224,343,4,54,154,194,254,94,84,134,44,234,324,104,244,184,124,264,64,304,144,294,333,314,24,284,214,353,14,204,114,74,274,174,164]","34","109","42.683134476460644","[42.683134476460644]","[293.6831344764606]","[292]","[30,30,210,210,300,120,300,120,120]","0","36","0","148.67400004767114","10.399000143050216","16","[[[""img/mask29.png""],[""img/mask46.png""],[""img/mask41.png""],[""img/mask19.png""],[""img/mask60.png""],[""img/mask69.png""],[""img/mask95.png""],[""img/mask51.png""],[""img/mask14.png""],[""img/mask36.png""],[""img/mask63.png""],[""img/mask41.png""],[""img/mask13.png""],[""img/mask98.png""],[""img/mask59.png""],[""img/mask36.png""],[""img/mask14.png""],[""img/mask38.png""],[""img/mask18.png""],[""img/mask75.png""],[""img/mask52.png""],[""img/mask61.png""],[""img/mask55.png""],[""img/mask42.png""],[""img/mask13.png""],[""img/mask49.png""],[""img/mask44.png""],[""img/mask84.png""],[""img/mask35.png""],[""img/mask70.png""],[""img/mask23.png""],[""img/mask84.png""],[""img/mask88.png""],[""img/mask58.png""],[""img/mask25.png""],[""img/mask12.png""]]]","","[14,4,22,34,11,8,15,12,30,25,35,7,18,10,6,13,26,2,32,5,1,17,20,21,31,9,0,24,19,29,23,27,16,28,33,3]","main","109","many-guess-6"
"","","","","","html-keyboard-response","37","379236","0.0-10.0-0.9","5dee72917309b950e5262f3a","640759fa512f630a2bdc333d","6408c17cc347c840b5e435e0","null","","null","","","","","","","","","","","","","","","","","","","fixation","",""
"","","","","","many-guess-6","38","384453","0.0-10.0-1.9-0.9","5dee72917309b950e5262f3a","640759fa512f630a2bdc333d","6408c17cc347c840b5e435e0","[3327.100000143051]","","","[22,13,15,20,0,29,27,3,10,25,12,21,19,5,18,2,6,32,23,14,35,31,8,7,26,9,4,24,33,1,11,17,30,34,28,16]","[297,287,108,118,347,88,138,307,257,217,188,28,38,327,227,68,178,198,317,158,277,337,168,237,18,78,98,247,58,48,148,128,8,357,207,267]","297","179","150.88108713880195","[150.88108713880195]","[331.88108713880195]","[330]","[120,300,210,120,300,210,30,300,30]","0","36","0","149.38500009535346","9.47100014303578","16","[[[""img/mask8.png""],[""img/mask22.png""],[""img/mask9.png""],[""img/mask31.png""],[""img/mask81.png""],[""img/mask54.png""],[""img/mask100.png""],[""img/mask90.png""],[""img/mask11.png""],[""img/mask99.png""],[""img/mask9.png""],[""img/mask78.png""],[""img/mask57.png""],[""img/mask82.png""],[""img/mask6.png""],[""img/mask29.png""],[""img/mask42.png""],[""img/mask85.png""],[""img/mask38.png""],[""img/mask4.png""],[""img/mask22.png""],[""img/mask96.png""],[""img/mask35.png""],[""img/mask33.png""],[""img/mask30.png""],[""img/mask41.png""],[""img/mask39.png""],[""img/mask11.png""],[""img/mask44.png""],[""img/mask89.png""],[""img/mask17.png""],[""img/mask64.png""],[""img/mask95.png""],[""img/mask67.png""],[""img/mask95.png""],[""img/mask75.png""]]]","","[22,13,15,20,0,29,27,3,10,25,12,21,19,5,18,2,6,32,23,14,35,31,8,7,26,9,4,24,33,1,11,17,30,34,28,16]","main","179","many-guess-6"
"","","","","","html-keyboard-response","39","384961","0.0-10.0-0.10","5dee72917309b950e5262f3a","640759fa512f630a2bdc333d","6408c17cc347c840b5e435e0","null","","null","","","","","","","","","","","","","","","","","","","fixation","",""
"","","","","","color-precision2","40","390608","0.0-10.0-1.10-0.10","5dee72917309b950e5262f3a","640759fa512f630a2bdc333d","6408c17cc347c840b5e435e0","[2852.5]","","","[16]","[97]","97","27","129.57235758210945","[129.57235758210945]","[102.57235758210945]","[101]","0","0","1","0","149.34200009534834","1007.877000143053","1000","[[[""img/mask90.png""]]]","","","main","27","color-precision2"
"","","","","","html-keyboard-response","41","391110","0.0-10.0-0.11","5dee72917309b950e5262f3a","640759fa512f630a2bdc333d","6408c17cc347c840b5e435e0","null","","null","","","","","","","","","","","","","","","","","","","fixation","",""
"","","","","","color-precision2","42","396918","0.0-10.0-1.11-0.11","5dee72917309b950e5262f3a","640759fa512f630a2bdc333d","6408c17cc347c840b5e435e0","[2878.7999999523163]","","","[23]","[111]","111","110","219.3300790953777","[219.3300790953777]","[109.3300790953777]","[111]","0","0","1","0","148.80500019073952","993.4690001430572","1000","[[[""img/mask45.png""]]]","","","main","110","color-precision2"
"","","","","","html-keyboard-response","43","397420","0.0-10.0-0.12","5dee72917309b950e5262f3a","640759fa512f630a2bdc333d","6408c17cc347c840b5e435e0","null","","null","","","","","","","","","","","","","","","","","","","fixation","",""
"","","","","","many-guess-6","44","404562","0.0-10.0-1.12-0.12","5dee72917309b950e5262f3a","640759fa512f630a2bdc333d","6408c17cc347c840b5e435e0","[5475]","","","[31,19,6,27,15,28,13,22,21,30,10,24,33,29,34,3,11,0,32,35,12,16,8,20,5,7,4,1,18,14,25,26,23,9,17,2]","[174,164,54,14,293,124,94,134,273,263,114,154,343,224,333,243,24,184,44,323,253,4,194,64,204,34,144,233,84,353,74,303,313,104,283,214]","174","183","246.99508154272405","[246.99508154272405]","[63.99508154272405]","[64]","[210,30,120,120,210,300,210,300,30]","0","36","0","149.24500004766742","15.622000047704205","16","[[[""img/mask22.png""],[""img/mask46.png""],[""img/mask42.png""],[""img/mask2.png""],[""img/mask35.png""],[""img/mask94.png""],[""img/mask53.png""],[""img/mask79.png""],[""img/mask96.png""],[""img/mask47.png""],[""img/mask16.png""],[""img/mask82.png""],[""img/mask24.png""],[""img/mask97.png""],[""img/mask40.png""],[""img/mask26.png""],[""img/mask44.png""],[""img/mask97.png""],[""img/mask71.png""],[""img/mask17.png""],[""img/mask76.png""],[""img/mask67.png""],[""img/mask83.png""],[""img/mask27.png""],[""img/mask97.png""],[""img/mask17.png""],[""img/mask46.png""],[""img/mask33.png""],[""img/mask4.png""],[""img/mask66.png""],[""img/mask70.png""],[""img/mask72.png""],[""img/mask13.png""],[""img/mask7.png""],[""img/mask70.png""],[""img/mask13.png""]]]","","[31,19,6,27,15,28,13,22,21,30,10,24,33,29,34,3,11,0,32,35,12,16,8,20,5,7,4,1,18,14,25,26,23,9,17,2]","main","183","many-guess-6"
"","","","","","html-keyboard-response","45","405064","0.0-10.0-0.13","5dee72917309b950e5262f3a","640759fa512f630a2bdc333d","6408c17cc347c840b5e435e0","null","","null","","","","","","","","","","","","","","","","","","","fixation","",""
"","","","","","color-precision2","46","410871","0.0-10.0-1.13-0.13","5dee72917309b950e5262f3a","640759fa512f630a2bdc333d","6408c17cc347c840b5e435e0","[3085.2999999523163]","","","[29]","[84]","84","46","122.60997101170304","[122.60997101170304]","[76.60997101170304]","[75]","0","0","1","0","149.2740001907223","1007.9200000476558","1000","[[[""img/mask69.png""]]]","","","main","46","color-precision2"
"","","","","","html-keyboard-response","47","411373","0.0-10.0-0.14","5dee72917309b950e5262f3a","640759fa512f630a2bdc333d","6408c17cc347c840b5e435e0","null","","null","","","","","","","","","","","","","","","","","","","fixation","",""
"","","","","","many-guess-6","48","416124","0.0-10.0-1.14-0.14","5dee72917309b950e5262f3a","640759fa512f630a2bdc333d","6408c17cc347c840b5e435e0","[2806]","","","[14,20,12,29,6,5,0,13,32,35,19,24,23,15,26,4,8,31,33,18,1,2,27,16,17,22,25,9,28,34,21,11,30,7,10,3]","[80,319,90,119,359,50,159,149,349,169,329,179,249,209,339,109,139,10,199,259,40,60,309,189,20,279,129,229,70,239,219,299,30,289,100,269]","80","339","219.9410725694112","[219.9410725694112]","[240.9410725694112]","[241]","[30,210,300,210,120,210,30,30,120]","0","36","0","149.1240000000107","16.229000047664158","16","[[[""img/mask4.png""],[""img/mask67.png""],[""img/mask55.png""],[""img/mask81.png""],[""img/mask90.png""],[""img/mask66.png""],[""img/mask96.png""],[""img/mask93.png""],[""img/mask91.png""],[""img/mask9.png""],[""img/mask33.png""],[""img/mask92.png""],[""img/mask25.png""],[""img/mask29.png""],[""img/mask93.png""],[""img/mask68.png""],[""img/mask54.png""],[""img/mask88.png""],[""img/mask21.png""],[""img/mask4.png""],[""img/mask100.png""],[""img/mask36.png""],[""img/mask22.png""],[""img/mask32.png""],[""img/mask69.png""],[""img/mask52.png""],[""img/mask32.png""],[""img/mask50.png""],[""img/mask18.png""],[""img/mask9.png""],[""img/mask93.png""],[""img/mask98.png""],[""img/mask95.png""],[""img/mask6.png""],[""img/mask11.png""],[""img/mask37.png""]]]","","[14,20,12,29,6,5,0,13,32,35,19,24,23,15,26,4,8,31,33,18,1,2,27,16,17,22,25,9,28,34,21,11,30,7,10,3]","main","339","many-guess-6"
"","","","","","html-keyboard-response","49","416626","0.0-10.0-0.15","5dee72917309b950e5262f3a","640759fa512f630a2bdc333d","6408c17cc347c840b5e435e0","null","","null","","","","","","","","","","","","","","","","","","","fixation","",""
"","","","","","color-precision2","50","422210","0.0-10.0-1.15-0.15","5dee72917309b950e5262f3a","640759fa512f630a2bdc333d","6408c17cc347c840b5e435e0","[2593]","","","[29]","[153]","153","9","164.4336675461397","[164.4336675461397]","[155.4336675461397]","[154]","0","0","1","0","148.71400019072462","1001.5080000477028","1000","[[[""img/mask43.png""]]]","","","main","9","color-precision2"
"","","","","","html-keyboard-response","51","422711","0.0-10.0-0.16","5dee72917309b950e5262f3a","640759fa512f630a2bdc333d","6408c17cc347c840b5e435e0","null","","null","","","","","","","","","","","","","","","","","","","fixation","",""
"","","","","","many-guess-6","52","428888","0.0-10.0-1.16-0.16","5dee72917309b950e5262f3a","640759fa512f630a2bdc333d","6408c17cc347c840b5e435e0","[4238]","","","[17,14,2,33,15,28,26,30,32,7,18,5,10,20,9,8,3,29,35,21,25,34,22,23,27,6,13,16,11,4,1,12,24,0,19,31]","[61,230,150,21,300,220,120,51,71,81,41,180,31,11,320,340,90,310,250,350,280,240,1,130,110,140,170,210,330,100,290,270,160,260,190,200]","61","76","327.13707522178174","[327.13707522178174]","[251.13707522178174]","[251]","[300,30,300,300,120,120,210,120,210]","0","36","0","148.66100019071018","11.440000190748833","16","[[[""img/mask57.png""],[""img/mask9.png""],[""img/mask90.png""],[""img/mask24.png""],[""img/mask93.png""],[""img/mask70.png""],[""img/mask14.png""],[""img/mask23.png""],[""img/mask43.png""],[""img/mask45.png""],[""img/mask67.png""],[""img/mask67.png""],[""img/mask33.png""],[""img/mask63.png""],[""img/mask63.png""],[""img/mask44.png""],[""img/mask41.png""],[""img/mask7.png""],[""img/mask49.png""],[""img/mask10.png""],[""img/mask99.png""],[""img/mask68.png""],[""img/mask62.png""],[""img/mask30.png""],[""img/mask85.png""],[""img/mask10.png""],[""img/mask83.png""],[""img/mask8.png""],[""img/mask58.png""],[""img/mask92.png""],[""img/mask1.png""],[""img/mask54.png""],[""img/mask25.png""],[""img/mask91.png""],[""img/mask90.png""],[""img/mask3.png""]]]","","[17,14,2,33,15,28,26,30,32,7,18,5,10,20,9,8,3,29,35,21,25,34,22,23,27,6,13,16,11,4,1,12,24,0,19,31]","main","76","many-guess-6"
"","","","","","html-keyboard-response","53","429389","0.0-10.0-0.17","5dee72917309b950e5262f3a","640759fa512f630a2bdc333d","6408c17cc347c840b5e435e0","null","","null","","","","","","","","","","","","","","","","","","","fixation","",""
"","","","","","color-precision2","54","436987","0.0-10.0-1.17-0.17","5dee72917309b950e5262f3a","640759fa512f630a2bdc333d","6408c17cc347c840b5e435e0","[5022.700000047684]","","","[27]","[48]","48","93","132.61003647128274","[132.61003647128274]","[39.61003647128274]","[38]","0","0","1","0","149.35600004770095","1003.6110001430498","1000","[[[""img/mask43.png""]]]","","","main","93","color-precision2"
"","","","","","html-keyboard-response","55","437487","0.0-10.0-0.18","5dee72917309b950e5262f3a","640759fa512f630a2bdc333d","6408c17cc347c840b5e435e0","null","","null","","","","","","","","","","","","","","","","","","","fixation","",""
"","","","","","many-guess-6","56","444336","0.0-10.0-1.18-0.18","5dee72917309b950e5262f3a","640759fa512f630a2bdc333d","6408c17cc347c840b5e435e0","[5189.400000095367]","","","[26,7,31,3,21,23,9,25,17,15,32,4,27,28,29,18,5,20,13,33,2,8,30,0,10,34,12,19,24,1,14,11,6,16,35,22]","[187,297,97,57,137,267,87,77,8,227,317,207,277,107,197,37,18,237,157,247,27,337,117,177,217,257,67,147,127,357,347,167,287,327,307,47]","187","233","125.93539484144664","[125.93539484144664]","[252.93539484144662]","[251]","[210,120,210,30,300,300,300,300,30]","0","36","0","149.0470000000205","19.45500014303252","16","[[[""img/mask97.png""],[""img/mask26.png""],[""img/mask36.png""],[""img/mask26.png""],[""img/mask47.png""],[""img/mask35.png""],[""img/mask44.png""],[""img/mask16.png""],[""img/mask30.png""],[""img/mask64.png""],[""img/mask3.png""],[""img/mask42.png""],[""img/mask82.png""],[""img/mask72.png""],[""img/mask25.png""],[""img/mask39.png""],[""img/mask76.png""],[""img/mask83.png""],[""img/mask42.png""],[""img/mask85.png""],[""img/mask94.png""],[""img/mask31.png""],[""img/mask38.png""],[""img/mask48.png""],[""img/mask58.png""],[""img/mask56.png""],[""img/mask33.png""],[""img/mask96.png""],[""img/mask42.png""],[""img/mask67.png""],[""img/mask14.png""],[""img/mask40.png""],[""img/mask51.png""],[""img/mask66.png""],[""img/mask76.png""],[""img/mask91.png""]]]","","[26,7,31,3,21,23,9,25,17,15,32,4,27,28,29,18,5,20,13,33,2,8,30,0,10,34,12,19,24,1,14,11,6,16,35,22]","main","233","many-guess-6"
"","","","","","html-keyboard-response","57","446811","0.0-10.0-0.19","5dee72917309b950e5262f3a","640759fa512f630a2bdc333d","6408c17cc347c840b5e435e0","2473.5","Wow! You've completed 20 out of 180 trials! </p> <p>  </p><p> Take a quick break, then press any key when you're ready to continue."," ","","","","","","","","","","","","","","","","","","","fixation","",""
"","","","","","many-guess-6","58","452646","0.0-10.0-1.19-0.19","5dee72917309b950e5262f3a","640759fa512f630a2bdc333d","6408c17cc347c840b5e435e0","[4281.399999856949]","","","[32,12,18,24,10,28,0,31,11,3,33,9,27,15,13,6,25,29,8,14,19,1,17,35,30,23,21,34,16,7,4,20,22,26,2,5]","[178,39,218,308,49,29,128,258,108,148,98,118,288,138,348,238,248,318,9,78,208,338,59,228,19,328,168,278,198,188,268,68,88,298,358,158]","178","73","173.62376702265254","[173.62376702265254]","[100.62376702265254]","[100]","[300,120,300,120,300,120,210,120,30]","0","36","0","149.09300019073999","21.534000047657173","16","[[[""img/mask19.png""],[""img/mask17.png""],[""img/mask20.png""],[""img/mask13.png""],[""img/mask86.png""],[""img/mask61.png""],[""img/mask7.png""],[""img/mask1.png""],[""img/mask39.png""],[""img/mask57.png""],[""img/mask42.png""],[""img/mask60.png""],[""img/mask65.png""],[""img/mask59.png""],[""img/mask85.png""],[""img/mask48.png""],[""img/mask36.png""],[""img/mask16.png""],[""img/mask37.png""],[""img/mask74.png""],[""img/mask81.png""],[""img/mask99.png""],[""img/mask79.png""],[""img/mask5.png""],[""img/mask8.png""],[""img/mask62.png""],[""img/mask57.png""],[""img/mask81.png""],[""img/mask4.png""],[""img/mask61.png""],[""img/mask26.png""],[""img/mask62.png""],[""img/mask51.png""],[""img/mask85.png""],[""img/mask41.png""],[""img/mask61.png""]]]","","[32,12,18,24,10,28,0,31,11,3,33,9,27,15,13,6,25,29,8,14,19,1,17,35,30,23,21,34,16,7,4,20,22,26,2,5]","main","73","many-guess-6"
"","","","","","html-keyboard-response","59","453155","0.0-10.0-0.20","5dee72917309b950e5262f3a","640759fa512f630a2bdc333d","6408c17cc347c840b5e435e0","null","","null","","","","","","","","","","","","","","","","","","","fixation","",""
"","","","","","color-precision2","60","459089","0.0-10.0-1.20-0.20","5dee72917309b950e5262f3a","640759fa512f630a2bdc333d","6408c17cc347c840b5e435e0","[3379.300000190735]","","","[34]","[270]","270","181","112.37930121004453","[112.37930121004453]","[291.37930121004456]","[289]","0","0","1","0","148.59300004766556","1000.3609999999753","1000","[[[""img/mask69.png""]]]","","","main","181","color-precision2"
"","","","","","html-keyboard-response","61","459591","0.0-10.0-0.21","5dee72917309b950e5262f3a","640759fa512f630a2bdc333d","6408c17cc347c840b5e435e0","null","","null","","","","","","","","","","","","","","","","","","","fixation","",""
"","","","","","many-guess-6","62","465472","0.0-10.0-1.21-0.21","5dee72917309b950e5262f3a","640759fa512f630a2bdc333d","6408c17cc347c840b5e435e0","[3978.0999999046326]","","","[27,11,2,9,15,35,14,1,16,10,20,33,34,19,17,0,29,31,18,24,4,12,23,8,5,25,28,32,22,6,13,26,7,3,21,30]","[112,162,53,232,252,292,3,33,322,23,63,182,122,272,222,352,152,82,302,92,192,202,132,142,73,332,102,212,43,262,13,242,312,282,342,172]","112","340","336.13048291012177","[336.13048291012177]","[356.13048291012177]","[356]","[300,210,120,300,120,210,30,210,210]","0","36","0","149.30500014306745","19.80600019072881","16","[[[""img/mask43.png""],[""img/mask73.png""],[""img/mask72.png""],[""img/mask55.png""],[""img/mask65.png""],[""img/mask26.png""],[""img/mask74.png""],[""img/mask40.png""],[""img/mask10.png""],[""img/mask60.png""],[""img/mask27.png""],[""img/mask96.png""],[""img/mask63.png""],[""img/mask88.png""],[""img/mask59.png""],[""img/mask49.png""],[""img/mask78.png""],[""img/mask7.png""],[""img/mask50.png""],[""img/mask45.png""],[""img/mask30.png""],[""img/mask64.png""],[""img/mask46.png""],[""img/mask61.png""],[""img/mask55.png""],[""img/mask30.png""],[""img/mask33.png""],[""img/mask51.png""],[""img/mask21.png""],[""img/mask90.png""],[""img/mask11.png""],[""img/mask91.png""],[""img/mask7.png""],[""img/mask92.png""],[""img/mask54.png""],[""img/mask99.png""]]]","","[27,11,2,9,15,35,14,1,16,10,20,33,34,19,17,0,29,31,18,24,4,12,23,8,5,25,28,32,22,6,13,26,7,3,21,30]","main","340","many-guess-6"
"","","","","","html-keyboard-response","63","465974","0.0-10.0-0.22","5dee72917309b950e5262f3a","640759fa512f630a2bdc333d","6408c17cc347c840b5e435e0","null","","null","","","","","","","","","","","","","","","","","","","fixation","",""
"","","","","","color-precision2","64","471212","0.0-10.0-1.22-0.22","5dee72917309b950e5262f3a","640759fa512f630a2bdc333d","6408c17cc347c840b5e435e0","[2553.2999999523163]","","","[35]","[53]","53","291","340.9866289174973","[340.9866289174973]","[49.986628917497285]","[50]","0","0","1","0","148.92999999999302","996.9650000476977","1000","[[[""img/mask70.png""]]]","","","main","291","color-precision2"
"","","","","","html-keyboard-response","65","471713","0.0-10.0-0.23","5dee72917309b950e5262f3a","640759fa512f630a2bdc333d","6408c17cc347c840b5e435e0","null","","null","","","","","","","","","","","","","","","","","","","fixation","",""
"","","","","","many-guess-6","66","476201","0.0-10.0-1.23-0.23","5dee72917309b950e5262f3a","640759fa512f630a2bdc333d","6408c17cc347c840b5e435e0","[2795]","","","[5,34,27,25,28,20,8,4,6,22,7,18,9,33,3,35,11,12,1,23,29,10,17,31,21,14,24,13,16,26,30,32,2,0,19,15]","[208,338,128,9,68,188,318,148,38,258,358,158,48,58,168,178,118,29,288,228,218,138,248,98,298,88,268,238,308,328,198,348,19,278,108,78]","208","292","154.77764856066503","[154.77764856066503]","[222.77764856066503]","[221]","[300,30,120,30,120,120,30,120,120]","0","36","0","148.76100004767068","8.84200009534834","16","[[[""img/mask3.png""],[""img/mask58.png""],[""img/mask17.png""],[""img/mask95.png""],[""img/mask77.png""],[""img/mask15.png""],[""img/mask20.png""],[""img/mask94.png""],[""img/mask19.png""],[""img/mask53.png""],[""img/mask81.png""],[""img/mask52.png""],[""img/mask77.png""],[""img/mask45.png""],[""img/mask1.png""],[""img/mask62.png""],[""img/mask59.png""],[""img/mask39.png""],[""img/mask11.png""],[""img/mask96.png""],[""img/mask69.png""],[""img/mask18.png""],[""img/mask12.png""],[""img/mask29.png""],[""img/mask95.png""],[""img/mask91.png""],[""img/mask86.png""],[""img/mask86.png""],[""img/mask29.png""],[""img/mask64.png""],[""img/mask34.png""],[""img/mask46.png""],[""img/mask94.png""],[""img/mask96.png""],[""img/mask52.png""],[""img/mask13.png""]]]","","[5,34,27,25,28,20,8,4,6,22,7,18,9,33,3,35,11,12,1,23,29,10,17,31,21,14,24,13,16,26,30,32,2,0,19,15]","main","292","many-guess-6"
"","","","","","html-keyboard-response","67","476702","0.0-10.0-0.24","5dee72917309b950e5262f3a","640759fa512f630a2bdc333d","6408c17cc347c840b5e435e0","null","","null","","","","","","","","","","","","","","","","","","","fixation","",""
"","","","","","many-guess-6","68","481952","0.0-10.0-1.24-0.24","5dee72917309b950e5262f3a","640759fa512f630a2bdc333d","6408c17cc347c840b5e435e0","[3245.4000000953674]","","","[5,22,28,11,16,32,35,26,17,27,14,18,31,0,6,19,24,30,2,21,25,3,20,9,15,23,7,33,4,34,8,1,13,29,10,12]","[57,137,147,207,227,256,157,77,316,306,67,246,217,7,97,127,336,286,236,37,197,266,107,177,167,47,27,296,326,346,87,17,117,276,356,187]","57","284","180.1378490588156","[180.1378490588156]","[256.1378490588156]","[255]","[300,120,30,30,30,30,210,30,210]","0","36","0","149.16800014307955","11.803000095358584","16","[[[""img/mask46.png""],[""img/mask78.png""],[""img/mask92.png""],[""img/mask32.png""],[""img/mask46.png""],[""img/mask35.png""],[""img/mask90.png""],[""img/mask83.png""],[""img/mask21.png""],[""img/mask69.png""],[""img/mask17.png""],[""img/mask57.png""],[""img/mask28.png""],[""img/mask87.png""],[""img/mask67.png""],[""img/mask5.png""],[""img/mask92.png""],[""img/mask31.png""],[""img/mask80.png""],[""img/mask74.png""],[""img/mask92.png""],[""img/mask18.png""],[""img/mask22.png""],[""img/mask21.png""],[""img/mask42.png""],[""img/mask77.png""],[""img/mask66.png""],[""img/mask80.png""],[""img/mask2.png""],[""img/mask68.png""],[""img/mask33.png""],[""img/mask27.png""],[""img/mask75.png""],[""img/mask20.png""],[""img/mask6.png""],[""img/mask87.png""]]]","","[5,22,28,11,16,32,35,26,17,27,14,18,31,0,6,19,24,30,2,21,25,3,20,9,15,23,7,33,4,34,8,1,13,29,10,12]","main","284","many-guess-6"
"","","","","","html-keyboard-response","69","482456","0.0-10.0-0.25","5dee72917309b950e5262f3a","640759fa512f630a2bdc333d","6408c17cc347c840b5e435e0","null","","null","","","","","","","","","","","","","","","","","","","fixation","",""
"","","","","","many-guess-6","70","489355","0.0-10.0-1.25-0.25","5dee72917309b950e5262f3a","640759fa512f630a2bdc333d","6408c17cc347c840b5e435e0","[5084.400000095367]","","","[35,13,12,34,31,28,11,23,21,22,6,15,32,29,33,3,2,7,26,10,17,1,16,9,4,24,0,30,18,14,8,20,25,27,5,19]","[196,17,67,246,137,276,206,336,7,147,87,27,117,236,157,286,97,187,316,167,346,216,256,226,177,47,356,127,57,306,296,107,37,326,266,77]","196","218","244.22387540399885","[244.22387540399885]","[26.223875403998846]","[26]","[210,300,30,300,30,210,300,210,300]","0","36","0","149.32000004767906","10.413000000000466","16","[[[""img/mask89.png""],[""img/mask63.png""],[""img/mask20.png""],[""img/mask1.png""],[""img/mask100.png""],[""img/mask89.png""],[""img/mask26.png""],[""img/mask22.png""],[""img/mask40.png""],[""img/mask33.png""],[""img/mask40.png""],[""img/mask41.png""],[""img/mask81.png""],[""img/mask57.png""],[""img/mask76.png""],[""img/mask6.png""],[""img/mask17.png""],[""img/mask20.png""],[""img/mask77.png""],[""img/mask9.png""],[""img/mask18.png""],[""img/mask53.png""],[""img/mask62.png""],[""img/mask74.png""],[""img/mask46.png""],[""img/mask42.png""],[""img/mask99.png""],[""img/mask29.png""],[""img/mask3.png""],[""img/mask71.png""],[""img/mask7.png""],[""img/mask97.png""],[""img/mask88.png""],[""img/mask18.png""],[""img/mask69.png""],[""img/mask61.png""]]]","","[35,13,12,34,31,28,11,23,21,22,6,15,32,29,33,3,2,7,26,10,17,1,16,9,4,24,0,30,18,14,8,20,25,27,5,19]","main","218","many-guess-6"
"","","","","","html-keyboard-response","71","489856","0.0-10.0-0.26","5dee72917309b950e5262f3a","640759fa512f630a2bdc333d","6408c17cc347c840b5e435e0","null","","null","","","","","","","","","","","","","","","","","","","fixation","",""
"","","","","","color-precision2","72","495410","0.0-10.0-1.26-0.26","5dee72917309b950e5262f3a","640759fa512f630a2bdc333d","6408c17cc347c840b5e435e0","[2889.7999999523163]","","","[14]","[192]","192","20","206.8304043890195","[206.8304043890195]","[186.8304043890195]","[186]","0","0","1","0","149.41300000000047","1008.0420001907623","1000","[[[""img/mask14.png""]]]","","","main","20","color-precision2"
"","","","","","html-keyboard-response","73","495911","0.0-10.0-0.27","5dee72917309b950e5262f3a","640759fa512f630a2bdc333d","6408c17cc347c840b5e435e0","null","","null","","","","","","","","","","","","","","","","","","","fixation","",""
"","","","","","many-guess-6","74","503013","0.0-10.0-1.27-0.27","5dee72917309b950e5262f3a","640759fa512f630a2bdc333d","6408c17cc347c840b5e435e0","[5344]","","","[3,34,23,17,5,30,31,28,21,24,14,0,16,7,18,15,8,33,29,35,26,20,19,10,12,11,2,13,6,4,9,32,1,25,27,22]","[276,117,207,27,286,147,107,97,227,47,346,256,157,336,237,77,137,296,167,57,187,356,17,306,87,7,177,316,67,37,197,326,217,127,246,266]","276","106","321.5453390444652","[321.5453390444652]","[215.5453390444652]","[216]","[210,30,30,120,210,300,30,120,120]","0","36","0","148.3240000953665","14.034000190731604","16","[[[""img/mask18.png""],[""img/mask54.png""],[""img/mask38.png""],[""img/mask57.png""],[""img/mask6.png""],[""img/mask14.png""],[""img/mask31.png""],[""img/mask63.png""],[""img/mask83.png""],[""img/mask34.png""],[""img/mask77.png""],[""img/mask92.png""],[""img/mask50.png""],[""img/mask18.png""],[""img/mask31.png""],[""img/mask5.png""],[""img/mask34.png""],[""img/mask10.png""],[""img/mask34.png""],[""img/mask67.png""],[""img/mask92.png""],[""img/mask67.png""],[""img/mask12.png""],[""img/mask18.png""],[""img/mask76.png""],[""img/mask86.png""],[""img/mask46.png""],[""img/mask11.png""],[""img/mask85.png""],[""img/mask14.png""],[""img/mask11.png""],[""img/mask51.png""],[""img/mask84.png""],[""img/mask70.png""],[""img/mask12.png""],[""img/mask7.png""]]]","","[3,34,23,17,5,30,31,28,21,24,14,0,16,7,18,15,8,33,29,35,26,20,19,10,12,11,2,13,6,4,9,32,1,25,27,22]","main","106","many-guess-6"
"","","","","","html-keyboard-response","75","503515","0.0-10.0-0.28","5dee72917309b950e5262f3a","640759fa512f630a2bdc333d","6408c17cc347c840b5e435e0","null","","null","","","","","","","","","","","","","","","","","","","fixation","",""
"","","","","","color-precision2","76","509034","0.0-10.0-1.28-0.28","5dee72917309b950e5262f3a","640759fa512f630a2bdc333d","6408c17cc347c840b5e435e0","[2883.7999999523163]","","","[15]","[232]","232","40","262.4183074278352","[262.4183074278352]","[222.4183074278352]","[223]","0","0","1","0","148.87900019076187","996.4180000000051","1000","[[[""img/mask64.png""]]]","","","main","40","color-precision2"
"","","","","","html-keyboard-response","77","509536","0.0-10.0-0.29","5dee72917309b950e5262f3a","640759fa512f630a2bdc333d","6408c17cc347c840b5e435e0","null","","null","","","","","","","","","","","","","","","","","","","fixation","",""
"","","","","","color-precision2","78","515448","0.0-10.0-1.29-0.29","5dee72917309b950e5262f3a","640759fa512f630a2bdc333d","6408c17cc347c840b5e435e0","[3298.2000000476837]","","","[9]","[123]","123","227","336.333942055752","[336.333942055752]","[109.333942055752]","[109]","0","0","1","0","149.3060000477126","1002.1500001907116","1000","[[[""img/mask69.png""]]]","","","main","227","color-precision2"
"","","","","","html-keyboard-response","79","515949","0.0-10.0-0.30","5dee72917309b950e5262f3a","640759fa512f630a2bdc333d","6408c17cc347c840b5e435e0","null","","null","","","","","","","","","","","","","","","","","","","fixation","",""
"","","","","","many-guess-6","80","521016","0.0-10.0-1.30-0.30","5dee72917309b950e5262f3a","640759fa512f630a2bdc333d","6408c17cc347c840b5e435e0","[3214.5999999046326]","","","[9,34,30,2,33,13,1,20,11,27,22,7,0,31,23,26,19,12,35,25,5,17,8,3,15,24,18,10,6,28,32,14,4,29,16,21]","[32,22,182,301,222,321,251,261,62,82,122,351,52,311,162,102,291,232,142,271,152,112,202,12,72,92,132,192,42,242,281,172,341,331,212,2]","32","166","213.67914930729492","[213.67914930729492]","[47.67914930729492]","[48]","[300,300,120,30,210,30,120,30,120]","0","36","0","149.01900014304556","21.824000143038575","16","[[[""img/mask58.png""],[""img/mask82.png""],[""img/mask8.png""],[""img/mask19.png""],[""img/mask52.png""],[""img/mask85.png""],[""img/mask77.png""],[""img/mask43.png""],[""img/mask69.png""],[""img/mask64.png""],[""img/mask23.png""],[""img/mask97.png""],[""img/mask71.png""],[""img/mask93.png""],[""img/mask96.png""],[""img/mask51.png""],[""img/mask54.png""],[""img/mask68.png""],[""img/mask45.png""],[""img/mask88.png""],[""img/mask60.png""],[""img/mask88.png""],[""img/mask99.png""],[""img/mask2.png""],[""img/mask36.png""],[""img/mask4.png""],[""img/mask49.png""],[""img/mask18.png""],[""img/mask44.png""],[""img/mask71.png""],[""img/mask96.png""],[""img/mask89.png""],[""img/mask43.png""],[""img/mask100.png""],[""img/mask21.png""],[""img/mask52.png""]]]","","[9,34,30,2,33,13,1,20,11,27,22,7,0,31,23,26,19,12,35,25,5,17,8,3,15,24,18,10,6,28,32,14,4,29,16,21]","main","166","many-guess-6"
"","","","","","html-keyboard-response","81","521530","0.0-10.0-0.31","5dee72917309b950e5262f3a","640759fa512f630a2bdc333d","6408c17cc347c840b5e435e0","null","","null","","","","","","","","","","","","","","","","","","","fixation","",""
"","","","","","many-guess-6","82","526252","0.0-10.0-1.31-0.31","5dee72917309b950e5262f3a","640759fa512f630a2bdc333d","6408c17cc347c840b5e435e0","[2871.2000000476837]","","","[3,22,8,34,6,11,29,25,23,33,5,4,0,24,16,12,10,31,1,17,32,27,15,35,7,2,14,13,21,28,20,18,19,30,26,9]","[181,22,2,301,311,142,152,221,82,241,112,72,171,92,201,291,341,42,331,132,261,211,52,12,102,281,251,122,162,271,231,351,32,321,62,191]","181","307","55.58952336819401","[55.58952336819401]","[108.58952336819402]","[107]","[120,300,30,300,210,300,300,30,210]","0","36","0","148.3860001907451","18.984000000054948","16","[[[""img/mask61.png""],[""img/mask24.png""],[""img/mask66.png""],[""img/mask63.png""],[""img/mask96.png""],[""img/mask48.png""],[""img/mask37.png""],[""img/mask83.png""],[""img/mask83.png""],[""img/mask36.png""],[""img/mask98.png""],[""img/mask29.png""],[""img/mask30.png""],[""img/mask25.png""],[""img/mask84.png""],[""img/mask19.png""],[""img/mask56.png""],[""img/mask66.png""],[""img/mask62.png""],[""img/mask87.png""],[""img/mask50.png""],[""img/mask40.png""],[""img/mask84.png""],[""img/mask91.png""],[""img/mask31.png""],[""img/mask86.png""],[""img/mask25.png""],[""img/mask50.png""],[""img/mask99.png""],[""img/mask81.png""],[""img/mask25.png""],[""img/mask100.png""],[""img/mask4.png""],[""img/mask60.png""],[""img/mask45.png""],[""img/mask93.png""]]]","","[3,22,8,34,6,11,29,25,23,33,5,4,0,24,16,12,10,31,1,17,32,27,15,35,7,2,14,13,21,28,20,18,19,30,26,9]","main","307","many-guess-6"
"","","","","","html-keyboard-response","83","526754","0.0-10.0-0.32","5dee72917309b950e5262f3a","640759fa512f630a2bdc333d","6408c17cc347c840b5e435e0","null","","null","","","","","","","","","","","","","","","","","","","fixation","",""
"","","","","","color-precision2","84","532073","0.0-10.0-1.32-0.32","5dee72917309b950e5262f3a","640759fa512f630a2bdc333d","6408c17cc347c840b5e435e0","[2859.9000000953674]","","","[2]","[338]","338","212","208.86476956838027","[208.86476956838027]","[356.86476956838027]","[356]","0","0","1","0","149.57000004767906","1003.9070001906948","1000","[[[""img/mask34.png""]]]","","","main","212","color-precision2"
"","","","","","html-keyboard-response","85","532575","0.0-10.0-0.33","5dee72917309b950e5262f3a","640759fa512f630a2bdc333d","6408c17cc347c840b5e435e0","null","","null","","","","","","","","","","","","","","","","","","","fixation","",""
"","","","","","color-precision2","86","539780","0.0-10.0-1.33-0.33","5dee72917309b950e5262f3a","640759fa512f630a2bdc333d","6408c17cc347c840b5e435e0","[4335.5]","","","[19]","[178]","178","202","24.446341637900293","[24.446341637900293]","[182.4463416379003]","[181]","0","0","1","0","149.39900009531993","1002.1860001907917","1000","[[[""img/mask45.png""]]]","","","main","202","color-precision2"
"","","","","","html-keyboard-response","87","540282","0.0-10.0-0.34","5dee72917309b950e5262f3a","640759fa512f630a2bdc333d","6408c17cc347c840b5e435e0","null","","null","","","","","","","","","","","","","","","","","","","fixation","",""
"","","","","","many-guess-6","88","545914","0.0-10.0-1.34-0.34","5dee72917309b950e5262f3a","640759fa512f630a2bdc333d","6408c17cc347c840b5e435e0","[4137.799999952316]","","","[31,16,29,30,13,21,6,10,28,33,26,23,17,18,27,4,3,19,35,15,34,0,8,25,24,12,22,1,7,9,32,20,14,11,2,5]","[340,91,171,211,141,201,231,181,240,71,290,280,250,310,131,320,330,350,1,101,11,161,21,221,260,61,121,191,81,111,31,270,151,41,300,51]","340","331","208.78657720150971","[208.78657720150971]","[237.78657720150971]","[237]","[300,300,120,210,30,210,210,210,300]","0","36","0","148.81000004766975","16.346000095363706","16","[[[""img/mask38.png""],[""img/mask15.png""],[""img/mask85.png""],[""img/mask100.png""],[""img/mask1.png""],[""img/mask21.png""],[""img/mask42.png""],[""img/mask11.png""],[""img/mask81.png""],[""img/mask28.png""],[""img/mask75.png""],[""img/mask84.png""],[""img/mask45.png""],[""img/mask40.png""],[""img/mask85.png""],[""img/mask57.png""],[""img/mask26.png""],[""img/mask34.png""],[""img/mask49.png""],[""img/mask31.png""],[""img/mask10.png""],[""img/mask49.png""],[""img/mask10.png""],[""img/mask68.png""],[""img/mask92.png""],[""img/mask92.png""],[""img/mask40.png""],[""img/mask63.png""],[""img/mask92.png""],[""img/mask52.png""],[""img/mask64.png""],[""img/mask15.png""],[""img/mask34.png""],[""img/mask39.png""],[""img/mask76.png""],[""img/mask47.png""]]]","","[31,16,29,30,13,21,6,10,28,33,26,23,17,18,27,4,3,19,35,15,34,0,8,25,24,12,22,1,7,9,32,20,14,11,2,5]","main","331","many-guess-6"
"","","","","","html-keyboard-response","89","546417","0.0-10.0-0.35","5dee72917309b950e5262f3a","640759fa512f630a2bdc333d","6408c17cc347c840b5e435e0","null","","null","","","","","","","","","","","","","","","","","","","fixation","",""
"","","","","","many-guess-6","90","551311","0.0-10.0-1.35-0.35","5dee72917309b950e5262f3a","640759fa512f630a2bdc333d","6408c17cc347c840b5e435e0","[3368.2000000476837]","","","[14,29,13,12,20,16,7,4,11,9,1,27,17,28,10,0,30,35,32,25,2,33,3,24,6,34,26,19,21,23,18,22,15,31,5,8]","[301,181,261,271,141,31,121,191,241,61,51,21,201,151,1,221,101,350,11,251,171,340,231,91,291,81,281,161,331,321,71,131,211,111,41,311]","301","137","124.26143879636064","[124.26143879636064]","[347.2614387963606]","[345]","[210,30,210,120,210,300,120,300,210]","0","36","0","148.37800019071437","15.258000095374882","16","[[[""img/mask80.png""],[""img/mask51.png""],[""img/mask43.png""],[""img/mask15.png""],[""img/mask61.png""],[""img/mask41.png""],[""img/mask78.png""],[""img/mask54.png""],[""img/mask53.png""],[""img/mask84.png""],[""img/mask44.png""],[""img/mask50.png""],[""img/mask99.png""],[""img/mask100.png""],[""img/mask27.png""],[""img/mask43.png""],[""img/mask3.png""],[""img/mask59.png""],[""img/mask59.png""],[""img/mask100.png""],[""img/mask87.png""],[""img/mask12.png""],[""img/mask16.png""],[""img/mask12.png""],[""img/mask68.png""],[""img/mask44.png""],[""img/mask84.png""],[""img/mask51.png""],[""img/mask74.png""],[""img/mask14.png""],[""img/mask60.png""],[""img/mask8.png""],[""img/mask47.png""],[""img/mask21.png""],[""img/mask77.png""],[""img/mask44.png""]]]","","[14,29,13,12,20,16,7,4,11,9,1,27,17,28,10,0,30,35,32,25,2,33,3,24,6,34,26,19,21,23,18,22,15,31,5,8]","main","137","many-guess-6"
"","","","","","html-keyboard-response","91","551814","0.0-10.0-0.36","5dee72917309b950e5262f3a","640759fa512f630a2bdc333d","6408c17cc347c840b5e435e0","null","","null","","","","","","","","","","","","","","","","","","","fixation","",""
"","","","","","color-precision2","92","558260","0.0-10.0-1.36-0.36","5dee72917309b950e5262f3a","640759fa512f630a2bdc333d","6408c17cc347c840b5e435e0","[3885.7000000476837]","","","[32]","[253]","253","211","91.08616159487164","[91.08616159487164]","[240.08616159487164]","[238]","0","0","1","0","148.41600009531248","1001.5580001430353","1000","[[[""img/mask69.png""]]]","","","main","211","color-precision2"
"","","","","","html-keyboard-response","93","558769","0.0-10.0-0.37","5dee72917309b950e5262f3a","640759fa512f630a2bdc333d","6408c17cc347c840b5e435e0","null","","null","","","","","","","","","","","","","","","","","","","fixation","",""
"","","","","","many-guess-6","94","564923","0.0-10.0-1.37-0.37","5dee72917309b950e5262f3a","640759fa512f630a2bdc333d","6408c17cc347c840b5e435e0","[4648.400000095367]","","","[8,33,4,14,25,27,19,17,22,12,21,26,23,11,3,28,34,18,30,35,1,24,2,10,29,16,31,0,9,13,5,20,32,6,15,7]","[195,155,115,235,285,95,85,145,135,345,325,105,185,215,265,125,6,46,16,315,295,75,36,275,165,205,225,175,65,56,26,355,245,305,335,255]","195","199","57.34804350242701","[57.34804350242701]","[218.348043502427]","[217]","[210,210,210,210,300,120,30,30,300]","0","36","0","148.60300004773308","19.913999999989755","16","[[[""img/mask9.png""],[""img/mask45.png""],[""img/mask4.png""],[""img/mask31.png""],[""img/mask36.png""],[""img/mask65.png""],[""img/mask56.png""],[""img/mask50.png""],[""img/mask43.png""],[""img/mask38.png""],[""img/mask71.png""],[""img/mask33.png""],[""img/mask92.png""],[""img/mask63.png""],[""img/mask54.png""],[""img/mask87.png""],[""img/mask83.png""],[""img/mask3.png""],[""img/mask46.png""],[""img/mask85.png""],[""img/mask77.png""],[""img/mask64.png""],[""img/mask92.png""],[""img/mask51.png""],[""img/mask45.png""],[""img/mask52.png""],[""img/mask20.png""],[""img/mask99.png""],[""img/mask39.png""],[""img/mask8.png""],[""img/mask61.png""],[""img/mask4.png""],[""img/mask44.png""],[""img/mask75.png""],[""img/mask98.png""],[""img/mask14.png""]]]","","[8,33,4,14,25,27,19,17,22,12,21,26,23,11,3,28,34,18,30,35,1,24,2,10,29,16,31,0,9,13,5,20,32,6,15,7]","main","199","many-guess-6"
"","","","","","html-keyboard-response","95","565425","0.0-10.0-0.38","5dee72917309b950e5262f3a","640759fa512f630a2bdc333d","6408c17cc347c840b5e435e0","null","","null","","","","","","","","","","","","","","","","","","","fixation","",""
"","","","","","many-guess-6","96","569559","0.0-10.0-1.38-0.38","5dee72917309b950e5262f3a","640759fa512f630a2bdc333d","6408c17cc347c840b5e435e0","[2537.0999999046326]","","","[15,17,8,29,30,27,16,14,22,18,19,21,11,13,32,35,31,2,0,33,4,6,1,26,5,12,24,25,9,23,34,3,28,10,7,20]","[112,3,83,232,73,23,212,192,142,63,262,53,242,122,182,103,162,272,132,292,342,222,352,202,332,282,252,322,172,312,33,13,93,43,302,152]","112","195","203.3089191064908","[203.3089191064908]","[8.308919106490805]","[8]","[300,30,30,210,120,210,300,210,120]","0","36","0","149.06999999994878","21.952000190736726","16","[[[""img/mask37.png""],[""img/mask50.png""],[""img/mask11.png""],[""img/mask37.png""],[""img/mask61.png""],[""img/mask49.png""],[""img/mask7.png""],[""img/mask62.png""],[""img/mask75.png""],[""img/mask9.png""],[""img/mask75.png""],[""img/mask33.png""],[""img/mask59.png""],[""img/mask89.png""],[""img/mask47.png""],[""img/mask44.png""],[""img/mask42.png""],[""img/mask90.png""],[""img/mask95.png""],[""img/mask65.png""],[""img/mask96.png""],[""img/mask69.png""],[""img/mask98.png""],[""img/mask85.png""],[""img/mask100.png""],[""img/mask80.png""],[""img/mask1.png""],[""img/mask81.png""],[""img/mask69.png""],[""img/mask9.png""],[""img/mask93.png""],[""img/mask94.png""],[""img/mask32.png""],[""img/mask8.png""],[""img/mask96.png""],[""img/mask88.png""]]]","","[15,17,8,29,30,27,16,14,22,18,19,21,11,13,32,35,31,2,0,33,4,6,1,26,5,12,24,25,9,23,34,3,28,10,7,20]","main","195","many-guess-6"
"","","","","","html-keyboard-response","97","571759","0.0-10.0-0.39","5dee72917309b950e5262f3a","640759fa512f630a2bdc333d","6408c17cc347c840b5e435e0","2199.600000143051","Wow! You've completed 40 out of 180 trials! </p> <p>  </p><p> Take a quick break, then press any key when you're ready to continue."," ","","","","","","","","","","","","","","","","","","","fixation","",""
"","","","","","color-precision2","98","577643","0.0-10.0-1.39-0.39","5dee72917309b950e5262f3a","640759fa512f630a2bdc333d","6408c17cc347c840b5e435e0","[3322.899999856949]","","","[0]","[79]","79","156","227.6037532067068","[227.6037532067068]","[71.60375320670681]","[72]","0","0","1","0","148.6530000953935","995.413000190747","1000","[[[""img/mask98.png""]]]","","","main","156","color-precision2"
"","","","","","html-keyboard-response","99","578143","0.0-10.0-0.40","5dee72917309b950e5262f3a","640759fa512f630a2bdc333d","6408c17cc347c840b5e435e0","null","","null","","","","","","","","","","","","","","","","","","","fixation","",""
"","","","","","color-precision2","100","582770","0.0-10.0-1.40-0.40","5dee72917309b950e5262f3a","640759fa512f630a2bdc333d","6408c17cc347c840b5e435e0","[2100.600000143051]","","","[20]","[230]","230","148","28.25732107458284","[28.25732107458284]","[240.25732107458285]","[239]","0","0","1","0","148.3470000954112","995.0810000477359","1000","[[[""img/mask76.png""]]]","","","main","148","color-precision2"
"","","","","","html-keyboard-response","101","583272","0.0-10.0-0.41","5dee72917309b950e5262f3a","640759fa512f630a2bdc333d","6408c17cc347c840b5e435e0","null","","null","","","","","","","","","","","","","","","","","","","fixation","",""
"","","","","","many-guess-6","102","587879","0.0-10.0-1.41-0.41","5dee72917309b950e5262f3a","640759fa512f630a2bdc333d","6408c17cc347c840b5e435e0","[3077.5]","","","[19,22,20,30,31,9,8,35,25,29,12,4,0,17,3,34,27,1,7,14,33,2,13,10,16,15,21,23,26,5,18,11,24,6,32,28]","[52,161,171,22,131,341,221,191,101,12,2,72,181,291,241,351,211,121,301,271,331,261,42,281,151,231,32,321,201,251,62,111,81,91,311,141]","52","310","66.86603714839036","[66.86603714839036]","[116.86603714839038]","[115]","[120,120,30,30,120,120,210,210,120]","0","36","0","149.27000019070692","14.97200014302507","16","[[[""img/mask4.png""],[""img/mask2.png""],[""img/mask88.png""],[""img/mask75.png""],[""img/mask56.png""],[""img/mask100.png""],[""img/mask19.png""],[""img/mask76.png""],[""img/mask46.png""],[""img/mask43.png""],[""img/mask30.png""],[""img/mask85.png""],[""img/mask72.png""],[""img/mask63.png""],[""img/mask90.png""],[""img/mask12.png""],[""img/mask35.png""],[""img/mask48.png""],[""img/mask69.png""],[""img/mask40.png""],[""img/mask48.png""],[""img/mask65.png""],[""img/mask47.png""],[""img/mask50.png""],[""img/mask5.png""],[""img/mask79.png""],[""img/mask23.png""],[""img/mask84.png""],[""img/mask93.png""],[""img/mask12.png""],[""img/mask70.png""],[""img/mask22.png""],[""img/mask76.png""],[""img/mask55.png""],[""img/mask89.png""],[""img/mask82.png""]]]","","[19,22,20,30,31,9,8,35,25,29,12,4,0,17,3,34,27,1,7,14,33,2,13,10,16,15,21,23,26,5,18,11,24,6,32,28]","main","310","many-guess-6"
"","","","","","html-keyboard-response","103","588381","0.0-10.0-0.42","5dee72917309b950e5262f3a","640759fa512f630a2bdc333d","6408c17cc347c840b5e435e0","null","","null","","","","","","","","","","","","","","","","","","","fixation","",""
"","","","","","color-precision2","104","592773","0.0-10.0-1.42-0.42","5dee72917309b950e5262f3a","640759fa512f630a2bdc333d","6408c17cc347c840b5e435e0","[1889.3999998569489]","","","[8]","[75]","75","294","355.497362260934","[355.497362260934]","[61.49736226093398]","[61]","0","0","1","0","149.44700019073207","998.33400019072","1000","[[[""img/mask81.png""]]]","","","main","294","color-precision2"
"","","","","","html-keyboard-response","105","593275","0.0-10.0-0.43","5dee72917309b950e5262f3a","640759fa512f630a2bdc333d","6408c17cc347c840b5e435e0","null","","null","","","","","","","","","","","","","","","","","","","fixation","",""
"","","","","","color-precision2","106","598282","0.0-10.0-1.43-0.43","5dee72917309b950e5262f3a","640759fa512f630a2bdc333d","6408c17cc347c840b5e435e0","[2600.0999999046326]","","","[6]","[53]","53","304","347.97549137108956","[347.97549137108956]","[43.97549137108956]","[43]","0","0","1","0","149.2149999999674","996.3890001907712","1000","[[[""img/mask80.png""]]]","","","main","304","color-precision2"
"","","","","","html-keyboard-response","107","598783","0.0-10.0-0.44","5dee72917309b950e5262f3a","640759fa512f630a2bdc333d","6408c17cc347c840b5e435e0","null","","null","","","","","","","","","","","","","","","","","","","fixation","",""
"","","","","","color-precision2","108","604055","0.0-10.0-1.44-0.44","5dee72917309b950e5262f3a","640759fa512f630a2bdc333d","6408c17cc347c840b5e435e0","[2456.7999999523163]","","","[15]","[218]","218","214","72.68190252938066","[72.68190252938066]","[218.68190252938066]","[218]","0","0","1","0","149.28000014310237","1002.3550001907861","1000","[[[""img/mask2.png""]]]","","","main","214","color-precision2"
"","","","","","html-keyboard-response","109","604557","0.0-10.0-0.45","5dee72917309b950e5262f3a","640759fa512f630a2bdc333d","6408c17cc347c840b5e435e0","null","","null","","","","","","","","","","","","","","","","","","","fixation","",""
"","","","","","many-guess-6","110","609173","0.0-10.0-1.45-0.45","5dee72917309b950e5262f3a","640759fa512f630a2bdc333d","6408c17cc347c840b5e435e0","[3056.5]","","","[29,24,34,1,21,28,19,13,18,9,15,11,0,22,8,4,20,17,10,16,26,33,3,35,5,30,2,31,14,32,6,25,7,12,23,27]","[59,178,68,138,128,338,98,218,318,228,308,358,168,198,78,118,148,19,49,88,9,158,188,29,238,298,328,288,268,208,248,108,39,278,348,258]","59","147","152.6059680625825","[152.6059680625825]","[5.605968062582491]","[4]","[300,300,120,30,30,300,300,120,300]","0","36","0","148.9429999999702","14.874000143026933","16","[[[""img/mask68.png""],[""img/mask40.png""],[""img/mask5.png""],[""img/mask7.png""],[""img/mask99.png""],[""img/mask58.png""],[""img/mask75.png""],[""img/mask48.png""],[""img/mask62.png""],[""img/mask24.png""],[""img/mask47.png""],[""img/mask1.png""],[""img/mask34.png""],[""img/mask30.png""],[""img/mask46.png""],[""img/mask17.png""],[""img/mask4.png""],[""img/mask87.png""],[""img/mask31.png""],[""img/mask59.png""],[""img/mask25.png""],[""img/mask21.png""],[""img/mask86.png""],[""img/mask6.png""],[""img/mask19.png""],[""img/mask56.png""],[""img/mask81.png""],[""img/mask20.png""],[""img/mask45.png""],[""img/mask68.png""],[""img/mask78.png""],[""img/mask46.png""],[""img/mask86.png""],[""img/mask51.png""],[""img/mask71.png""],[""img/mask72.png""]]]","","[29,24,34,1,21,28,19,13,18,9,15,11,0,22,8,4,20,17,10,16,26,33,3,35,5,30,2,31,14,32,6,25,7,12,23,27]","main","147","many-guess-6"
"","","","","","html-keyboard-response","111","609675","0.0-10.0-0.46","5dee72917309b950e5262f3a","640759fa512f630a2bdc333d","6408c17cc347c840b5e435e0","null","","null","","","","","","","","","","","","","","","","","","","fixation","",""
"","","","","","many-guess-6","112","614619","0.0-10.0-1.46-0.46","5dee72917309b950e5262f3a","640759fa512f630a2bdc333d","6408c17cc347c840b5e435e0","[3323.100000143051]","","","[17,16,4,35,32,10,25,0,24,7,14,5,11,26,30,31,2,20,27,18,6,29,9,34,13,22,12,3,15,28,33,19,23,8,21,1]","[326,266,216,246,116,96,27,346,186,276,336,306,136,316,286,196,56,106,206,66,176,36,86,156,76,7,296,226,166,46,17,356,126,236,256,146]","326","12","238.23221267080416","[238.23221267080416]","[226.23221267080416]","[227]","[30,210,210,30,300,120,210,300,30]","0","36","0","149.35600000002887","10.320000143023208","16","[[[""img/mask44.png""],[""img/mask41.png""],[""img/mask67.png""],[""img/mask97.png""],[""img/mask89.png""],[""img/mask64.png""],[""img/mask77.png""],[""img/mask81.png""],[""img/mask37.png""],[""img/mask37.png""],[""img/mask9.png""],[""img/mask26.png""],[""img/mask71.png""],[""img/mask1.png""],[""img/mask41.png""],[""img/mask84.png""],[""img/mask81.png""],[""img/mask37.png""],[""img/mask56.png""],[""img/mask96.png""],[""img/mask49.png""],[""img/mask19.png""],[""img/mask50.png""],[""img/mask71.png""],[""img/mask27.png""],[""img/mask34.png""],[""img/mask73.png""],[""img/mask80.png""],[""img/mask1.png""],[""img/mask51.png""],[""img/mask91.png""],[""img/mask70.png""],[""img/mask59.png""],[""img/mask87.png""],[""img/mask73.png""],[""img/mask71.png""]]]","","[17,16,4,35,32,10,25,0,24,7,14,5,11,26,30,31,2,20,27,18,6,29,9,34,13,22,12,3,15,28,33,19,23,8,21,1]","main","12","many-guess-6"
"","","","","","html-keyboard-response","113","615121","0.0-10.0-0.47","5dee72917309b950e5262f3a","640759fa512f630a2bdc333d","6408c17cc347c840b5e435e0","null","","null","","","","","","","","","","","","","","","","","","","fixation","",""
"","","","","","color-precision2","114","619863","0.0-10.0-1.47-0.47","5dee72917309b950e5262f3a","640759fa512f630a2bdc333d","6408c17cc347c840b5e435e0","[2335.399999856949]","","","[13]","[264]","264","246","152.6696702508234","[152.6696702508234]","[266.6696702508234]","[265]","0","0","1","0","148.75900019076653","992.4309999999823","1000","[[[""img/mask35.png""]]]","","","main","246","color-precision2"
"","","","","","html-keyboard-response","115","620364","0.0-10.0-0.48","5dee72917309b950e5262f3a","640759fa512f630a2bdc333d","6408c17cc347c840b5e435e0","null","","null","","","","","","","","","","","","","","","","","","","fixation","",""
"","","","","","many-guess-6","116","624702","0.0-10.0-1.48-0.48","5dee72917309b950e5262f3a","640759fa512f630a2bdc333d","6408c17cc347c840b5e435e0","[2791.5]","","","[34,7,21,16,4,25,18,33,27,8,32,11,12,20,5,29,24,10,23,17,35,1,22,14,15,2,13,0,26,31,28,6,19,3,9,30]","[120,180,80,289,299,339,30,240,220,10,349,50,269,279,110,150,210,329,70,260,250,309,60,100,359,230,190,170,40,200,90,160,130,319,140,20]","120","178","34.51606807007113","[34.51606807007113]","[216.51606807007113]","[215]","[30,210,120,30,30,300,210,300,300]","0","36","0","149.15800004766788","8.05100004770793","16","[[[""img/mask94.png""],[""img/mask25.png""],[""img/mask64.png""],[""img/mask21.png""],[""img/mask29.png""],[""img/mask67.png""],[""img/mask47.png""],[""img/mask34.png""],[""img/mask21.png""],[""img/mask87.png""],[""img/mask6.png""],[""img/mask79.png""],[""img/mask64.png""],[""img/mask100.png""],[""img/mask66.png""],[""img/mask84.png""],[""img/mask33.png""],[""img/mask67.png""],[""img/mask92.png""],[""img/mask61.png""],[""img/mask18.png""],[""img/mask88.png""],[""img/mask31.png""],[""img/mask43.png""],[""img/mask38.png""],[""img/mask7.png""],[""img/mask3.png""],[""img/mask29.png""],[""img/mask83.png""],[""img/mask1.png""],[""img/mask46.png""],[""img/mask93.png""],[""img/mask17.png""],[""img/mask47.png""],[""img/mask10.png""],[""img/mask28.png""]]]","","[34,7,21,16,4,25,18,33,27,8,32,11,12,20,5,29,24,10,23,17,35,1,22,14,15,2,13,0,26,31,28,6,19,3,9,30]","main","178","many-guess-6"
"","","","","","html-keyboard-response","117","625203","0.0-10.0-0.49","5dee72917309b950e5262f3a","640759fa512f630a2bdc333d","6408c17cc347c840b5e435e0","null","","null","","","","","","","","","","","","","","","","","","","fixation","",""
"","","","","","many-guess-6","118","631651","0.0-10.0-1.49-0.49","5dee72917309b950e5262f3a","640759fa512f630a2bdc333d","6408c17cc347c840b5e435e0","[5040.700000047684]","","","[21,5,16,30,9,3,11,24,25,0,13,2,8,17,19,23,27,26,18,34,10,15,28,33,31,1,29,4,12,7,22,32,6,20,35,14]","[104,264,314,344,204,174,94,284,184,154,114,274,74,294,234,25,354,124,214,194,244,84,304,34,5,144,224,134,334,164,44,254,15,324,64,54]","104","65","322.67859749138523","[322.67859749138523]","[257.67859749138523]","[257]","[30,120,120,210,300,120,210,30,210]","0","36","0","148.50899999996182","22.359000095399097","16","[[[""img/mask98.png""],[""img/mask78.png""],[""img/mask41.png""],[""img/mask62.png""],[""img/mask100.png""],[""img/mask66.png""],[""img/mask55.png""],[""img/mask45.png""],[""img/mask16.png""],[""img/mask23.png""],[""img/mask29.png""],[""img/mask29.png""],[""img/mask2.png""],[""img/mask89.png""],[""img/mask82.png""],[""img/mask37.png""],[""img/mask8.png""],[""img/mask34.png""],[""img/mask89.png""],[""img/mask43.png""],[""img/mask16.png""],[""img/mask57.png""],[""img/mask8.png""],[""img/mask48.png""],[""img/mask78.png""],[""img/mask77.png""],[""img/mask49.png""],[""img/mask39.png""],[""img/mask17.png""],[""img/mask72.png""],[""img/mask62.png""],[""img/mask49.png""],[""img/mask4.png""],[""img/mask89.png""],[""img/mask94.png""],[""img/mask89.png""]]]","","[21,5,16,30,9,3,11,24,25,0,13,2,8,17,19,23,27,26,18,34,10,15,28,33,31,1,29,4,12,7,22,32,6,20,35,14]","main","65","many-guess-6"
"","","","","","html-keyboard-response","119","632154","0.0-10.0-0.50","5dee72917309b950e5262f3a","640759fa512f630a2bdc333d","6408c17cc347c840b5e435e0","null","","null","","","","","","","","","","","","","","","","","","","fixation","",""
"","","","","","many-guess-6","120","639297","0.0-10.0-1.50-0.50","5dee72917309b950e5262f3a","640759fa512f630a2bdc333d","6408c17cc347c840b5e435e0","[5721]","","","[22,35,18,4,17,0,1,16,24,34,11,10,9,31,2,32,27,19,33,30,15,23,12,5,6,26,7,13,25,28,3,20,14,8,21,29]","[321,151,281,191,221,141,201,341,52,101,161,311,111,351,91,12,171,181,71,22,2,251,121,62,271,301,261,241,211,42,81,231,331,131,32,291]","321","160","52.89138053089737","[52.89138053089737]","[252.89138053089738]","[251]","[210,300,120,30,30,120,120,30,210]","0","36","0","148.6590001907898","25.2839999999851","16","[[[""img/mask14.png""],[""img/mask66.png""],[""img/mask78.png""],[""img/mask29.png""],[""img/mask61.png""],[""img/mask47.png""],[""img/mask93.png""],[""img/mask75.png""],[""img/mask9.png""],[""img/mask81.png""],[""img/mask57.png""],[""img/mask95.png""],[""img/mask82.png""],[""img/mask88.png""],[""img/mask1.png""],[""img/mask51.png""],[""img/mask41.png""],[""img/mask43.png""],[""img/mask66.png""],[""img/mask98.png""],[""img/mask24.png""],[""img/mask100.png""],[""img/mask76.png""],[""img/mask23.png""],[""img/mask23.png""],[""img/mask26.png""],[""img/mask14.png""],[""img/mask28.png""],[""img/mask54.png""],[""img/mask99.png""],[""img/mask70.png""],[""img/mask38.png""],[""img/mask85.png""],[""img/mask2.png""],[""img/mask20.png""],[""img/mask81.png""]]]","","[22,35,18,4,17,0,1,16,24,34,11,10,9,31,2,32,27,19,33,30,15,23,12,5,6,26,7,13,25,28,3,20,14,8,21,29]","main","160","many-guess-6"
"","","","","","html-keyboard-response","121","639809","0.0-10.0-0.51","5dee72917309b950e5262f3a","640759fa512f630a2bdc333d","6408c17cc347c840b5e435e0","null","","null","","","","","","","","","","","","","","","","","","","fixation","",""
"","","","","","color-precision2","122","644445","0.0-10.0-1.51-0.51","5dee72917309b950e5262f3a","640759fa512f630a2bdc333d","6408c17cc347c840b5e435e0","[2238]","","","[15]","[295]","295","64","1.5817211785758458","[1.5817211785758458]","[297.58172117857583]","[297]","0","0","1","0","148.77400004770607","992.7110000953544","1000","[[[""img/mask66.png""]]]","","","main","64","color-precision2"
"","","","","","html-keyboard-response","123","644947","0.0-10.0-0.52","5dee72917309b950e5262f3a","640759fa512f630a2bdc333d","6408c17cc347c840b5e435e0","null","","null","","","","","","","","","","","","","","","","","","","fixation","",""
"","","","","","many-guess-6","124","649395","0.0-10.0-1.52-0.52","5dee72917309b950e5262f3a","640759fa512f630a2bdc333d","6408c17cc347c840b5e435e0","[3055.7000000476837]","","","[32,20,5,30,17,13,29,18,35,24,1,27,11,7,26,33,9,21,31,25,19,34,8,3,10,14,12,16,28,4,0,15,22,6,2,23]","[83,352,13,103,182,73,312,242,53,133,342,332,202,322,272,63,143,212,23,262,172,3,192,33,292,252,162,282,302,222,113,93,152,123,232,43]","83","330","309.33858910879303","[309.33858910879303]","[339.33858910879303]","[339]","[300,210,30,120,210,210,210,210,300]","0","36","0","149.0920001430204","17.606000047642738","16","[[[""img/mask38.png""],[""img/mask93.png""],[""img/mask56.png""],[""img/mask58.png""],[""img/mask23.png""],[""img/mask36.png""],[""img/mask66.png""],[""img/mask79.png""],[""img/mask75.png""],[""img/mask21.png""],[""img/mask16.png""],[""img/mask82.png""],[""img/mask78.png""],[""img/mask4.png""],[""img/mask13.png""],[""img/mask50.png""],[""img/mask20.png""],[""img/mask12.png""],[""img/mask1.png""],[""img/mask2.png""],[""img/mask40.png""],[""img/mask13.png""],[""img/mask15.png""],[""img/mask68.png""],[""img/mask43.png""],[""img/mask25.png""],[""img/mask81.png""],[""img/mask70.png""],[""img/mask64.png""],[""img/mask4.png""],[""img/mask84.png""],[""img/mask80.png""],[""img/mask27.png""],[""img/mask83.png""],[""img/mask78.png""],[""img/mask66.png""]]]","","[32,20,5,30,17,13,29,18,35,24,1,27,11,7,26,33,9,21,31,25,19,34,8,3,10,14,12,16,28,4,0,15,22,6,2,23]","main","330","many-guess-6"
"","","","","","html-keyboard-response","125","649897","0.0-10.0-0.53","5dee72917309b950e5262f3a","640759fa512f630a2bdc333d","6408c17cc347c840b5e435e0","null","","null","","","","","","","","","","","","","","","","","","","fixation","",""
"","","","","","many-guess-6","126","659487","0.0-10.0-1.53-0.53","5dee72917309b950e5262f3a","640759fa512f630a2bdc333d","6408c17cc347c840b5e435e0","[8264.300000190735]","","","[16,23,0,12,19,17,30,27,22,29,28,33,8,35,10,21,31,13,15,1,11,9,4,5,32,25,3,7,20,26,14,2,18,6,24,34]","[143,183,232,123,163,272,222,43,63,192,103,153,212,242,262,352,342,83,13,113,93,23,282,33,292,133,302,312,322,173,3,73,252,53,202,332]","143","202","345.4330195814286","[345.4330195814286]","[143.4330195814286]","[143]","[300,120,210,300,120,300,300,210,120]","0","36","0","148.79500009538606","13.044000047724694","16","[[[""img/mask3.png""],[""img/mask95.png""],[""img/mask67.png""],[""img/mask70.png""],[""img/mask14.png""],[""img/mask13.png""],[""img/mask78.png""],[""img/mask54.png""],[""img/mask10.png""],[""img/mask96.png""],[""img/mask22.png""],[""img/mask63.png""],[""img/mask62.png""],[""img/mask45.png""],[""img/mask53.png""],[""img/mask70.png""],[""img/mask49.png""],[""img/mask14.png""],[""img/mask6.png""],[""img/mask15.png""],[""img/mask57.png""],[""img/mask69.png""],[""img/mask90.png""],[""img/mask17.png""],[""img/mask37.png""],[""img/mask50.png""],[""img/mask100.png""],[""img/mask79.png""],[""img/mask8.png""],[""img/mask77.png""],[""img/mask93.png""],[""img/mask26.png""],[""img/mask10.png""],[""img/mask95.png""],[""img/mask87.png""],[""img/mask12.png""]]]","","[16,23,0,12,19,17,30,27,22,29,28,33,8,35,10,21,31,13,15,1,11,9,4,5,32,25,3,7,20,26,14,2,18,6,24,34]","main","202","many-guess-6"
"","","","","","html-keyboard-response","127","659988","0.0-10.0-0.54","5dee72917309b950e5262f3a","640759fa512f630a2bdc333d","6408c17cc347c840b5e435e0","null","","null","","","","","","","","","","","","","","","","","","","fixation","",""
"","","","","","color-precision2","128","663589","0.0-10.0-1.54-0.54","5dee72917309b950e5262f3a","640759fa512f630a2bdc333d","6408c17cc347c840b5e435e0","[1202.1000001430511]","","","[23]","[14]","14","291","285.3775187085198","[285.3775187085198]","[354.3775187085198]","[354]","0","0","1","0","148.30500009539537","1002.1300000953488","1000","[[[""img/mask27.png""]]]","","","main","291","color-precision2"
"","","","","","html-keyboard-response","129","664092","0.0-10.0-0.55","5dee72917309b950e5262f3a","640759fa512f630a2bdc333d","6408c17cc347c840b5e435e0","null","","null","","","","","","","","","","","","","","","","","","","fixation","",""
"","","","","","color-precision2","130","668474","0.0-10.0-1.55-0.55","5dee72917309b950e5262f3a","640759fa512f630a2bdc333d","6408c17cc347c840b5e435e0","[2104.2000000476837]","","","[22]","[79]","79","265","343.1522774124147","[343.1522774124147]","[78.15227741241472]","[79]","0","0","1","0","148.22600004763808","993.9800001430558","1000","[[[""img/mask84.png""]]]","","","main","265","color-precision2"
"","","","","","html-keyboard-response","131","668976","0.0-10.0-0.56","5dee72917309b950e5262f3a","640759fa512f630a2bdc333d","6408c17cc347c840b5e435e0","null","","null","","","","","","","","","","","","","","","","","","","fixation","",""
"","","","","","color-precision2","132","674377","0.0-10.0-1.56-0.56","5dee72917309b950e5262f3a","640759fa512f630a2bdc333d","6408c17cc347c840b5e435e0","[2958.100000143051]","","","[9]","[127]","127","325","117.50881314825662","[117.50881314825662]","[152.50881314825662]","[151]","0","0","1","0","148.83800009533297","1000.2060000953497","1000","[[[""img/mask90.png""]]]","","","main","325","color-precision2"
"","","","","","html-keyboard-response","133","674879","0.0-10.0-0.57","5dee72917309b950e5262f3a","640759fa512f630a2bdc333d","6408c17cc347c840b5e435e0","null","","null","","","","","","","","","","","","","","","","","","","fixation","",""
"","","","","","many-guess-6","134","679710","0.0-10.0-1.57-0.57","5dee72917309b950e5262f3a","640759fa512f630a2bdc333d","6408c17cc347c840b5e435e0","[3208.899999856949]","","","[0,14,5,4,21,33,11,23,27,10,30,25,13,32,9,8,35,17,6,28,2,24,7,20,19,16,22,29,26,34,18,3,1,31,12,15]","[294,214,164,65,264,144,45,314,105,194,25,15,124,184,324,115,244,284,154,75,134,35,224,95,354,334,234,254,85,55,304,174,5,204,274,344]","294","233","234.11520476739508","[234.11520476739508]","[1.1152047673950847]","[1]","[300,120,30,120,120,120,210,30,120]","0","36","0","147.82200000004377","12.020000190706924","16","[[[""img/mask14.png""],[""img/mask67.png""],[""img/mask3.png""],[""img/mask50.png""],[""img/mask98.png""],[""img/mask64.png""],[""img/mask62.png""],[""img/mask100.png""],[""img/mask9.png""],[""img/mask73.png""],[""img/mask91.png""],[""img/mask17.png""],[""img/mask51.png""],[""img/mask98.png""],[""img/mask63.png""],[""img/mask19.png""],[""img/mask14.png""],[""img/mask76.png""],[""img/mask75.png""],[""img/mask69.png""],[""img/mask31.png""],[""img/mask60.png""],[""img/mask8.png""],[""img/mask9.png""],[""img/mask7.png""],[""img/mask87.png""],[""img/mask87.png""],[""img/mask79.png""],[""img/mask31.png""],[""img/mask6.png""],[""img/mask31.png""],[""img/mask5.png""],[""img/mask7.png""],[""img/mask69.png""],[""img/mask82.png""],[""img/mask48.png""]]]","","[0,14,5,4,21,33,11,23,27,10,30,25,13,32,9,8,35,17,6,28,2,24,7,20,19,16,22,29,26,34,18,3,1,31,12,15]","main","233","many-guess-6"
"","","","","","html-keyboard-response","135","680212","0.0-10.0-0.58","5dee72917309b950e5262f3a","640759fa512f630a2bdc333d","6408c17cc347c840b5e435e0","null","","null","","","","","","","","","","","","","","","","","","","fixation","",""
"","","","","","color-precision2","136","684412","0.0-10.0-1.58-0.58","5dee72917309b950e5262f3a","640759fa512f630a2bdc333d","6408c17cc347c840b5e435e0","[1744.5]","","","[5]","[334]","334","176","140.92805858819833","[140.92805858819833]","[324.9280585881983]","[324]","0","0","1","0","148.86100014310796","992.2449999999953","1000","[[[""img/mask78.png""]]]","","","main","176","color-precision2"
"","","","","","html-keyboard-response","137","686124","0.0-10.0-0.59","5dee72917309b950e5262f3a","640759fa512f630a2bdc333d","6408c17cc347c840b5e435e0","1711.2000000476837","Wow! You've completed 60 out of 180 trials! </p> <p>  </p><p> Take a quick break, then press any key when you're ready to continue."," ","","","","","","","","","","","","","","","","","","","fixation","",""
"","","","","","color-precision2","138","690737","0.0-10.0-1.59-0.59","5dee72917309b950e5262f3a","640759fa512f630a2bdc333d","6408c17cc347c840b5e435e0","[1721.5]","","","[24]","[227]","227","290","172.01812073869232","[172.01812073869232]","[242.01812073869232]","[241]","0","0","1","0","148.49800009536557","1000.3690000954084","1000","[[[""img/mask36.png""]]]","","","main","290","color-precision2"
"","","","","","html-keyboard-response","139","691248","0.0-10.0-0.60","5dee72917309b950e5262f3a","640759fa512f630a2bdc333d","6408c17cc347c840b5e435e0","null","","null","","","","","","","","","","","","","","","","","","","fixation","",""
"","","","","","many-guess-6","140","695463","0.0-10.0-1.60-0.60","5dee72917309b950e5262f3a","640759fa512f630a2bdc333d","6408c17cc347c840b5e435e0","[2714.2999999523163]","","","[3,30,17,21,28,31,10,20,18,24,14,27,32,22,26,12,29,35,25,6,19,4,23,13,2,1,16,8,15,5,0,9,7,34,33,11]","[266,86,196,156,206,286,356,216,276,106,326,26,306,246,176,96,296,166,66,346,316,236,7,186,46,36,76,17,146,126,226,336,136,116,56,256]","266","61","48.550812439077795","[48.550812439077795]","[347.5508124390778]","[346]","[120,30,30,300,120,120,30,30,30]","0","36","0","148.8310000000056","12.844000190729275","16","[[[""img/mask50.png""],[""img/mask47.png""],[""img/mask42.png""],[""img/mask32.png""],[""img/mask82.png""],[""img/mask51.png""],[""img/mask71.png""],[""img/mask8.png""],[""img/mask81.png""],[""img/mask65.png""],[""img/mask22.png""],[""img/mask54.png""],[""img/mask2.png""],[""img/mask33.png""],[""img/mask97.png""],[""img/mask67.png""],[""img/mask5.png""],[""img/mask100.png""],[""img/mask51.png""],[""img/mask77.png""],[""img/mask37.png""],[""img/mask62.png""],[""img/mask62.png""],[""img/mask7.png""],[""img/mask49.png""],[""img/mask55.png""],[""img/mask72.png""],[""img/mask5.png""],[""img/mask62.png""],[""img/mask30.png""],[""img/mask2.png""],[""img/mask59.png""],[""img/mask87.png""],[""img/mask70.png""],[""img/mask7.png""],[""img/mask98.png""]]]","","[3,30,17,21,28,31,10,20,18,24,14,27,32,22,26,12,29,35,25,6,19,4,23,13,2,1,16,8,15,5,0,9,7,34,33,11]","main","61","many-guess-6"
"","","","","","html-keyboard-response","141","695964","0.0-10.0-0.61","5dee72917309b950e5262f3a","640759fa512f630a2bdc333d","6408c17cc347c840b5e435e0","null","","null","","","","","","","","","","","","","","","","","","","fixation","",""
"","","","","","many-guess-6","142","699805","0.0-10.0-1.61-0.61","5dee72917309b950e5262f3a","640759fa512f630a2bdc333d","6408c17cc347c840b5e435e0","[2308]","","","[15,35,10,30,29,6,19,14,2,33,23,20,24,8,25,4,3,17,18,13,22,27,5,1,32,21,12,7,9,0,16,28,26,11,34,31]","[283,173,303,193,54,203,133,213,103,333,73,34,4,93,293,183,113,24,163,313,223,323,243,83,233,44,153,64,273,14,343,143,353,123,263,253]","283","203","346.3980733712956","[346.3980733712956]","[143.3980733712956]","[143]","[210,300,30,210,300,30,210,30,30]","0","36","0","148.80400000000373","10.508000095374882","16","[[[""img/mask93.png""],[""img/mask37.png""],[""img/mask48.png""],[""img/mask56.png""],[""img/mask96.png""],[""img/mask50.png""],[""img/mask30.png""],[""img/mask67.png""],[""img/mask72.png""],[""img/mask13.png""],[""img/mask47.png""],[""img/mask70.png""],[""img/mask11.png""],[""img/mask34.png""],[""img/mask82.png""],[""img/mask56.png""],[""img/mask88.png""],[""img/mask41.png""],[""img/mask66.png""],[""img/mask86.png""],[""img/mask93.png""],[""img/mask98.png""],[""img/mask100.png""],[""img/mask50.png""],[""img/mask82.png""],[""img/mask97.png""],[""img/mask64.png""],[""img/mask81.png""],[""img/mask60.png""],[""img/mask4.png""],[""img/mask21.png""],[""img/mask11.png""],[""img/mask93.png""],[""img/mask65.png""],[""img/mask64.png""],[""img/mask34.png""]]]","","[15,35,10,30,29,6,19,14,2,33,23,20,24,8,25,4,3,17,18,13,22,27,5,1,32,21,12,7,9,0,16,28,26,11,34,31]","main","203","many-guess-6"
"","","","","","html-keyboard-response","143","700306","0.0-10.0-0.62","5dee72917309b950e5262f3a","640759fa512f630a2bdc333d","6408c17cc347c840b5e435e0","null","","null","","","","","","","","","","","","","","","","","","","fixation","",""
"","","","","","color-precision2","144","704843","0.0-10.0-1.62-0.62","5dee72917309b950e5262f3a","640759fa512f630a2bdc333d","6408c17cc347c840b5e435e0","[1797.1000001430511]","","","[35]","[334]","334","21","357.4448585663679","[357.4448585663679]","[336.4448585663679]","[336]","0","0","1","0","148.58100019069389","1006.4560001906939","1000","[[[""img/mask57.png""]]]","","","main","21","color-precision2"
"","","","","","html-keyboard-response","145","705358","0.0-10.0-0.63","5dee72917309b950e5262f3a","640759fa512f630a2bdc333d","6408c17cc347c840b5e435e0","null","","null","","","","","","","","","","","","","","","","","","","fixation","",""
"","","","","","many-guess-6","146","710623","0.0-10.0-1.63-0.63","5dee72917309b950e5262f3a","640759fa512f630a2bdc333d","6408c17cc347c840b5e435e0","[3661.7999999523163]","","","[0,27,22,18,21,10,11,25,30,1,17,5,34,14,33,3,4,32,12,2,23,9,19,35,20,15,13,24,8,26,31,7,16,29,28,6]","[179,349,139,20,209,259,329,359,69,30,89,219,269,10,50,169,189,119,279,289,149,60,249,309,109,299,229,339,199,319,159,239,129,99,40,79]","179","262","169.8226844431816","[169.8226844431816]","[267.82268444318163]","[267]","[120,30,210,300,30,210,300,210,30]","0","36","0","149.36700004769955","10.17400004772935","16","[[[""img/mask67.png""],[""img/mask53.png""],[""img/mask76.png""],[""img/mask61.png""],[""img/mask34.png""],[""img/mask32.png""],[""img/mask35.png""],[""img/mask61.png""],[""img/mask70.png""],[""img/mask4.png""],[""img/mask2.png""],[""img/mask90.png""],[""img/mask92.png""],[""img/mask84.png""],[""img/mask55.png""],[""img/mask3.png""],[""img/mask20.png""],[""img/mask63.png""],[""img/mask99.png""],[""img/mask24.png""],[""img/mask4.png""],[""img/mask56.png""],[""img/mask50.png""],[""img/mask69.png""],[""img/mask97.png""],[""img/mask62.png""],[""img/mask98.png""],[""img/mask41.png""],[""img/mask84.png""],[""img/mask23.png""],[""img/mask38.png""],[""img/mask99.png""],[""img/mask9.png""],[""img/mask45.png""],[""img/mask16.png""],[""img/mask15.png""]]]","","[0,27,22,18,21,10,11,25,30,1,17,5,34,14,33,3,4,32,12,2,23,9,19,35,20,15,13,24,8,26,31,7,16,29,28,6]","main","262","many-guess-6"
"","","","","","html-keyboard-response","147","711128","0.0-10.0-0.64","5dee72917309b950e5262f3a","640759fa512f630a2bdc333d","6408c17cc347c840b5e435e0","null","","null","","","","","","","","","","","","","","","","","","","fixation","",""
"","","","","","color-precision2","148","715573","0.0-10.0-1.64-0.64","5dee72917309b950e5262f3a","640759fa512f630a2bdc333d","6408c17cc347c840b5e435e0","[1896.7999999523163]","","","[18]","[229]","229","203","82.52399313449932","[82.52399313449932]","[239.52399313449934]","[238]","0","0","1","0","148.46699999994598","1001.8229999999749","1000","[[[""img/mask75.png""]]]","","","main","203","color-precision2"
"","","","","","html-keyboard-response","149","716075","0.0-10.0-0.65","5dee72917309b950e5262f3a","640759fa512f630a2bdc333d","6408c17cc347c840b5e435e0","null","","null","","","","","","","","","","","","","","","","","","","fixation","",""
"","","","","","many-guess-6","150","721195","0.0-10.0-1.65-0.65","5dee72917309b950e5262f3a","640759fa512f630a2bdc333d","6408c17cc347c840b5e435e0","[3636]","","","[4,20,16,7,18,6,1,9,11,13,22,27,3,10,17,15,14,0,35,21,33,8,34,26,30,28,29,19,12,32,2,5,23,24,25,31]","[272,322,212,152,112,72,102,352,302,232,292,22,222,32,3,42,342,192,12,162,262,172,242,332,52,82,282,92,132,202,182,62,312,142,252,122]","272","139","309.03640763759626","[309.03640763759626]","[170.03640763759626]","[170]","[30,210,300,30,210,210,210,30,120]","0","36","0","148.34800004772842","8.890999999945052","16","[[[""img/mask5.png""],[""img/mask15.png""],[""img/mask86.png""],[""img/mask20.png""],[""img/mask21.png""],[""img/mask13.png""],[""img/mask8.png""],[""img/mask40.png""],[""img/mask79.png""],[""img/mask6.png""],[""img/mask71.png""],[""img/mask65.png""],[""img/mask79.png""],[""img/mask2.png""],[""img/mask35.png""],[""img/mask63.png""],[""img/mask7.png""],[""img/mask15.png""],[""img/mask1.png""],[""img/mask33.png""],[""img/mask13.png""],[""img/mask61.png""],[""img/mask72.png""],[""img/mask100.png""],[""img/mask70.png""],[""img/mask62.png""],[""img/mask86.png""],[""img/mask88.png""],[""img/mask47.png""],[""img/mask36.png""],[""img/mask95.png""],[""img/mask40.png""],[""img/mask75.png""],[""img/mask64.png""],[""img/mask21.png""],[""img/mask53.png""]]]","","[4,20,16,7,18,6,1,9,11,13,22,27,3,10,17,15,14,0,35,21,33,8,34,26,30,28,29,19,12,32,2,5,23,24,25,31]","main","139","many-guess-6"
"","","","","","html-keyboard-response","151","721697","0.0-10.0-0.66","5dee72917309b950e5262f3a","640759fa512f630a2bdc333d","6408c17cc347c840b5e435e0","null","","null","","","","","","","","","","","","","","","","","","","fixation","",""
"","","","","","many-guess-6","152","727184","0.0-10.0-1.66-0.66","5dee72917309b950e5262f3a","640759fa512f630a2bdc333d","6408c17cc347c840b5e435e0","[3876]","","","[3,12,34,29,27,1,20,4,35,2,17,0,18,24,11,28,19,22,32,15,6,25,33,7,10,26,9,5,23,13,16,14,31,21,8,30]","[73,183,273,4,24,63,103,53,313,293,203,14,93,283,323,163,153,343,43,303,333,213,193,34,123,223,253,173,133,83,353,233,243,143,113,263]","73","12","122.52523684666885","[122.52523684666885]","[110.52523684666885]","[109]","[120,210,120,30,300,30,30,210,300]","0","36","0","149.30300019076094","10.029000047710724","16","[[[""img/mask59.png""],[""img/mask38.png""],[""img/mask49.png""],[""img/mask46.png""],[""img/mask2.png""],[""img/mask20.png""],[""img/mask17.png""],[""img/mask50.png""],[""img/mask41.png""],[""img/mask66.png""],[""img/mask39.png""],[""img/mask75.png""],[""img/mask37.png""],[""img/mask29.png""],[""img/mask99.png""],[""img/mask8.png""],[""img/mask16.png""],[""img/mask46.png""],[""img/mask32.png""],[""img/mask61.png""],[""img/mask96.png""],[""img/mask67.png""],[""img/mask67.png""],[""img/mask67.png""],[""img/mask70.png""],[""img/mask97.png""],[""img/mask21.png""],[""img/mask70.png""],[""img/mask98.png""],[""img/mask18.png""],[""img/mask67.png""],[""img/mask85.png""],[""img/mask24.png""],[""img/mask93.png""],[""img/mask82.png""],[""img/mask4.png""]]]","","[3,12,34,29,27,1,20,4,35,2,17,0,18,24,11,28,19,22,32,15,6,25,33,7,10,26,9,5,23,13,16,14,31,21,8,30]","main","12","many-guess-6"
"","","","","","html-keyboard-response","153","727688","0.0-10.0-0.67","5dee72917309b950e5262f3a","640759fa512f630a2bdc333d","6408c17cc347c840b5e435e0","null","","null","","","","","","","","","","","","","","","","","","","fixation","",""
"","","","","","many-guess-6","154","731775","0.0-10.0-1.67-0.67","5dee72917309b950e5262f3a","640759fa512f630a2bdc333d","6408c17cc347c840b5e435e0","[2767.5999999046326]","","","[30,25,15,5,4,21,3,6,32,28,23,34,13,0,1,18,8,19,27,24,11,17,14,33,10,35,12,2,26,22,7,9,29,20,16,31]","[159,259,179,279,199,229,70,60,319,189,10,30,239,109,289,40,359,169,139,80,249,219,89,309,209,329,119,129,349,339,269,149,99,20,299,50]","159","284","198.80198256226512","[198.80198256226512]","[274.80198256226515]","[274]","[120,300,210,120,210,30,30,300,210]","0","36","0","147.77000000001863","9.796000047703274","16","[[[""img/mask74.png""],[""img/mask19.png""],[""img/mask8.png""],[""img/mask36.png""],[""img/mask23.png""],[""img/mask98.png""],[""img/mask3.png""],[""img/mask31.png""],[""img/mask26.png""],[""img/mask58.png""],[""img/mask11.png""],[""img/mask53.png""],[""img/mask34.png""],[""img/mask14.png""],[""img/mask61.png""],[""img/mask6.png""],[""img/mask27.png""],[""img/mask8.png""],[""img/mask65.png""],[""img/mask63.png""],[""img/mask31.png""],[""img/mask98.png""],[""img/mask53.png""],[""img/mask29.png""],[""img/mask26.png""],[""img/mask57.png""],[""img/mask74.png""],[""img/mask80.png""],[""img/mask49.png""],[""img/mask41.png""],[""img/mask64.png""],[""img/mask71.png""],[""img/mask77.png""],[""img/mask70.png""],[""img/mask68.png""],[""img/mask65.png""]]]","","[30,25,15,5,4,21,3,6,32,28,23,34,13,0,1,18,8,19,27,24,11,17,14,33,10,35,12,2,26,22,7,9,29,20,16,31]","main","284","many-guess-6"
"","","","","","html-keyboard-response","155","732276","0.0-10.0-0.68","5dee72917309b950e5262f3a","640759fa512f630a2bdc333d","6408c17cc347c840b5e435e0","null","","null","","","","","","","","","","","","","","","","","","","fixation","",""
"","","","","","many-guess-6","156","736851","0.0-10.0-1.68-0.68","5dee72917309b950e5262f3a","640759fa512f630a2bdc333d","6408c17cc347c840b5e435e0","[3144.4000000953674]","","","[7,8,5,30,1,13,23,3,26,12,14,19,27,20,17,6,0,25,21,22,11,18,4,31,33,28,34,29,2,15,9,16,10,32,35,24]","[180,131,190,230,81,270,290,41,160,111,330,260,170,320,350,1,121,210,200,280,310,91,150,11,220,71,240,101,340,21,250,141,300,31,51,61]","180","175","219.4167610132373","[219.4167610132373]","[44.416761013237306]","[44]","[210,30,210,30,300,120,120,120,120]","0","36","0","147.6800000476651","19.10800014308188","16","[[[""img/mask57.png""],[""img/mask4.png""],[""img/mask16.png""],[""img/mask23.png""],[""img/mask61.png""],[""img/mask82.png""],[""img/mask3.png""],[""img/mask60.png""],[""img/mask35.png""],[""img/mask62.png""],[""img/mask62.png""],[""img/mask7.png""],[""img/mask57.png""],[""img/mask5.png""],[""img/mask41.png""],[""img/mask83.png""],[""img/mask50.png""],[""img/mask61.png""],[""img/mask78.png""],[""img/mask40.png""],[""img/mask3.png""],[""img/mask19.png""],[""img/mask5.png""],[""img/mask98.png""],[""img/mask75.png""],[""img/mask11.png""],[""img/mask91.png""],[""img/mask18.png""],[""img/mask60.png""],[""img/mask55.png""],[""img/mask1.png""],[""img/mask19.png""],[""img/mask22.png""],[""img/mask72.png""],[""img/mask85.png""],[""img/mask71.png""]]]","","[7,8,5,30,1,13,23,3,26,12,14,19,27,20,17,6,0,25,21,22,11,18,4,31,33,28,34,29,2,15,9,16,10,32,35,24]","main","175","many-guess-6"
"","","","","","html-keyboard-response","157","737354","0.0-10.0-0.69","5dee72917309b950e5262f3a","640759fa512f630a2bdc333d","6408c17cc347c840b5e435e0","null","","null","","","","","","","","","","","","","","","","","","","fixation","",""
"","","","","","color-precision2","158","745401","0.0-10.0-1.69-0.69","5dee72917309b950e5262f3a","640759fa512f630a2bdc333d","6408c17cc347c840b5e435e0","[5528.600000143051]","","","[32]","[26]","26","141","172.42605561428556","[172.42605561428556]","[31.42605561428556]","[30]","0","0","1","0","148.9810001431033","996.7170000954065","1000","[[[""img/mask13.png""]]]","","","main","141","color-precision2"
"","","","","","html-keyboard-response","159","745905","0.0-10.0-0.70","5dee72917309b950e5262f3a","640759fa512f630a2bdc333d","6408c17cc347c840b5e435e0","null","","null","","","","","","","","","","","","","","","","","","","fixation","",""
"","","","","","many-guess-6","160","750638","0.0-10.0-1.70-0.70","5dee72917309b950e5262f3a","640759fa512f630a2bdc333d","6408c17cc347c840b5e435e0","[3200.5]","","","[8,22,14,32,4,26,31,28,2,27,34,15,12,20,21,11,10,3,13,7,6,5,16,18,17,23,30,24,19,33,29,1,35,0,25,9]","[183,193,4,233,333,323,173,273,124,114,44,144,24,293,34,343,94,303,153,313,283,104,134,243,84,353,203,64,213,54,263,14,253,223,163,74]","183","88","341.4019713151668","[341.4019713151668]","[253.4019713151668]","[253]","[30,300,300,210,30,210,120,30,300]","0","36","0","148.51599999994505","21.626000047661364","16","[[[""img/mask93.png""],[""img/mask26.png""],[""img/mask32.png""],[""img/mask68.png""],[""img/mask42.png""],[""img/mask12.png""],[""img/mask72.png""],[""img/mask60.png""],[""img/mask56.png""],[""img/mask77.png""],[""img/mask72.png""],[""img/mask100.png""],[""img/mask2.png""],[""img/mask90.png""],[""img/mask44.png""],[""img/mask16.png""],[""img/mask83.png""],[""img/mask29.png""],[""img/mask96.png""],[""img/mask40.png""],[""img/mask18.png""],[""img/mask27.png""],[""img/mask15.png""],[""img/mask12.png""],[""img/mask95.png""],[""img/mask18.png""],[""img/mask61.png""],[""img/mask70.png""],[""img/mask79.png""],[""img/mask40.png""],[""img/mask75.png""],[""img/mask25.png""],[""img/mask89.png""],[""img/mask13.png""],[""img/mask92.png""],[""img/mask80.png""]]]","","[8,22,14,32,4,26,31,28,2,27,34,15,12,20,21,11,10,3,13,7,6,5,16,18,17,23,30,24,19,33,29,1,35,0,25,9]","main","88","many-guess-6"
"","","","","","html-keyboard-response","161","751139","0.0-10.0-0.71","5dee72917309b950e5262f3a","640759fa512f630a2bdc333d","6408c17cc347c840b5e435e0","null","","null","","","","","","","","","","","","","","","","","","","fixation","",""
"","","","","","color-precision2","162","754891","0.0-10.0-1.71-0.71","5dee72917309b950e5262f3a","640759fa512f630a2bdc333d","6408c17cc347c840b5e435e0","[1372.2999999523163]","","","[17]","[87]","87","311","37.95645469827045","[37.95645469827045]","[86.95645469827048]","[87]","0","0","1","0","149.45400004764087","1000.1530001430074","1000","[[[""img/mask89.png""]]]","","","main","311","color-precision2"
"","","","","","html-keyboard-response","163","755393","0.0-10.0-0.72","5dee72917309b950e5262f3a","640759fa512f630a2bdc333d","6408c17cc347c840b5e435e0","null","","null","","","","","","","","","","","","","","","","","","","fixation","",""
"","","","","","many-guess-6","164","760537","0.0-10.0-1.72-0.72","5dee72917309b950e5262f3a","640759fa512f630a2bdc333d","6408c17cc347c840b5e435e0","[3685.7999999523163]","","","[35,32,34,16,8,12,30,15,19,6,26,3,22,23,0,21,18,14,25,2,1,29,7,28,17,5,33,4,9,24,20,11,10,27,31,13]","[155,284,165,105,244,25,175,214,5,304,324,15,35,264,115,254,234,135,145,334,314,95,75,55,194,45,184,65,204,224,344,354,274,125,294,85]","155","144","349.0331882895075","[349.0331882895075]","[205.0331882895075]","[204]","[120,300,30,300,30,210,300,120,300]","0","36","0","148.83100009534974","19.42800014303066","16","[[[""img/mask18.png""],[""img/mask88.png""],[""img/mask34.png""],[""img/mask32.png""],[""img/mask38.png""],[""img/mask60.png""],[""img/mask25.png""],[""img/mask15.png""],[""img/mask53.png""],[""img/mask1.png""],[""img/mask92.png""],[""img/mask86.png""],[""img/mask100.png""],[""img/mask27.png""],[""img/mask14.png""],[""img/mask64.png""],[""img/mask94.png""],[""img/mask85.png""],[""img/mask10.png""],[""img/mask52.png""],[""img/mask39.png""],[""img/mask61.png""],[""img/mask59.png""],[""img/mask39.png""],[""img/mask84.png""],[""img/mask75.png""],[""img/mask97.png""],[""img/mask13.png""],[""img/mask75.png""],[""img/mask82.png""],[""img/mask1.png""],[""img/mask11.png""],[""img/mask98.png""],[""img/mask34.png""],[""img/mask15.png""],[""img/mask68.png""]]]","","[35,32,34,16,8,12,30,15,19,6,26,3,22,23,0,21,18,14,25,2,1,29,7,28,17,5,33,4,9,24,20,11,10,27,31,13]","main","144","many-guess-6"
"","","","","","html-keyboard-response","165","761039","0.0-10.0-0.73","5dee72917309b950e5262f3a","640759fa512f630a2bdc333d","6408c17cc347c840b5e435e0","null","","null","","","","","","","","","","","","","","","","","","","fixation","",""
"","","","","","color-precision2","166","766205","0.0-10.0-1.73-0.73","5dee72917309b950e5262f3a","640759fa512f630a2bdc333d","6408c17cc347c840b5e435e0","[2722.7000000476837]","","","[10]","[35]","35","149","180","[180]","[31]","[30]","0","0","1","0","149.2790000953246","991.9070000000065","1000","[[[""img/mask26.png""]]]","","","main","149","color-precision2"
"","","","","","html-keyboard-response","167","766706","0.0-10.0-0.74","5dee72917309b950e5262f3a","640759fa512f630a2bdc333d","6408c17cc347c840b5e435e0","null","","null","","","","","","","","","","","","","","","","","","","fixation","",""
"","","","","","many-guess-6","168","772360","0.0-10.0-1.74-0.74","5dee72917309b950e5262f3a","640759fa512f630a2bdc333d","6408c17cc347c840b5e435e0","[3893.7999999523163]","","","[5,2,22,7,32,35,34,16,11,12,23,9,30,4,26,24,21,29,25,17,0,6,19,20,10,28,1,15,33,27,13,31,8,18,14,3]","[24,113,293,123,313,83,233,14,303,253,133,353,103,153,273,183,173,163,243,93,263,333,73,193,223,343,143,4,283,34,323,44,54,63,203,213]","24","40","200.9381800446761","[200.9381800446761]","[160.9381800446761]","[161]","[120,120,300,30,30,120,210,30,120]","0","36","0","149.00600014301017","18.339999999967404","16","[[[""img/mask37.png""],[""img/mask50.png""],[""img/mask66.png""],[""img/mask30.png""],[""img/mask96.png""],[""img/mask37.png""],[""img/mask27.png""],[""img/mask79.png""],[""img/mask81.png""],[""img/mask50.png""],[""img/mask53.png""],[""img/mask50.png""],[""img/mask7.png""],[""img/mask50.png""],[""img/mask78.png""],[""img/mask2.png""],[""img/mask84.png""],[""img/mask71.png""],[""img/mask5.png""],[""img/mask79.png""],[""img/mask71.png""],[""img/mask15.png""],[""img/mask24.png""],[""img/mask7.png""],[""img/mask84.png""],[""img/mask3.png""],[""img/mask93.png""],[""img/mask22.png""],[""img/mask59.png""],[""img/mask16.png""],[""img/mask83.png""],[""img/mask66.png""],[""img/mask61.png""],[""img/mask92.png""],[""img/mask80.png""],[""img/mask89.png""]]]","","[5,2,22,7,32,35,34,16,11,12,23,9,30,4,26,24,21,29,25,17,0,6,19,20,10,28,1,15,33,27,13,31,8,18,14,3]","main","40","many-guess-6"
"","","","","","html-keyboard-response","169","772874","0.0-10.0-0.75","5dee72917309b950e5262f3a","640759fa512f630a2bdc333d","6408c17cc347c840b5e435e0","null","","null","","","","","","","","","","","","","","","","","","","fixation","",""
