"success","timeout","failed_images","failed_audio","failed_video","trial_type","trial_index","time_elapsed","internal_node_id","subject_id","study_id","session_id","rt","stimulus","response","position_of_items","colors_of_items","color_of_target","wheel_spin","response_angle","physical_response_angle","reported_color_angle","reported_color_discrete","locs","which_test","set_size","wheel_num_options","actual_mask_duration","actual_stim_duration","CMDispTime","maskArray","maskRotation","item_positions","task","randomSpinAmount","mainTask"
"true","false","[]","[]","[]","preload","0","20889","0.0-0.0","5df2f36b617219204de98060","640759fa512f630a2bdc333d","6408c1811806d9b9e8039b03","","","","","","","","","","","","","","","","","","","","","","","",""
"true","","","","","fullscreen","1","23790","0.0-1.0","5df2f36b617219204de98060","640759fa512f630a2bdc333d","6408c1811806d9b9e8039b03","","","","","","","","","","","","","","","","","","","","","","","",""
"","","","","","html-keyboard-response","2","28717","0.0-2.0","5df2f36b617219204de98060","640759fa512f630a2bdc333d","6408c1811806d9b9e8039b03","4923.399999999907","What a beautiful Wednesday to do some awesome science! </p> <p>  </p><p> </p>
    By completing this survey or questionnaire, you are consenting to be in this research study. </p>
    Your participation is voluntary and you can stop at any time.<p> [Press any key to continue] </p>"," ","","","","","","","","","","","","","","","","","","","","",""
"","","","","","html-keyboard-response","3","38732","0.0-3.0","5df2f36b617219204de98060","640759fa512f630a2bdc333d","6408c1811806d9b9e8039b03","null","
    <div style='width: 1000px;'>
    <div style='float: center;'><img src='img/TaskInstructions1.png'></img>
    </div>
    ","null","","","","","","","","","","","","","","","","","","","","",""
"","","","","","html-keyboard-response","4","44380","0.0-4.0","5df2f36b617219204de98060","640759fa512f630a2bdc333d","6408c1811806d9b9e8039b03","5647","
    <div style='width: 1000px;'>
    <div style='float: center;'><img src='img/TaskInstructions1.png'></img>
    </div>
    "," ","","","","","","","","","","","","","","","","","","","","",""
"","","","","","html-keyboard-response","5","54401","0.0-5.0","5df2f36b617219204de98060","640759fa512f630a2bdc333d","6408c1811806d9b9e8039b03","null","
    <div style='width: 1000px;'>
    <div style='float: center;'><img src='img/TaskInstructions2.png'></img>
    </div>
    ","null","","","","","","","","","","","","","","","","","","","","",""
"","","","","","html-keyboard-response","6","67069","0.0-6.0","5df2f36b617219204de98060","640759fa512f630a2bdc333d","6408c1811806d9b9e8039b03","12666.59999999986","
    <div style='width: 1000px;'>
    <div style='float: center;'><img src='img/TaskInstructions2.png'></img>
    </div>
    "," ","","","","","","","","","","","","","","","","","","","","",""
"","","","","","video-keyboard-response","7","92653","0.0-7.0","5df2f36b617219204de98060","640759fa512f630a2bdc333d","6408c1811806d9b9e8039b03","25573.700000000186","[""video/TaskInstructions3.mp4""]"," ","","","","","","","","","","","","","","","","","","","","",""
"","","","","","image-keyboard-response","8","99358","0.0-8.0-0.0","5df2f36b617219204de98060","640759fa512f630a2bdc333d","6408c1811806d9b9e8039b03","6650.5","img/training1.png"," ","","","","","","","","","","","","","","","","","","","","",""
"","","","","","color-precision2","9","107056","0.0-8.0-1.0-0.0","5df2f36b617219204de98060","640759fa512f630a2bdc333d","6408c1811806d9b9e8039b03","[2433.399999999907]","","","[34]","[119]","119","41","162.63788045286952","[162.63788045286952]","[121.63788045286952]","[120]","0","0","1","0","500.0669999999518","999.8340000001335","1000","","","0","training","",""
"","","","","","image-keyboard-response","10","114238","0.0-8.0-0.1","5df2f36b617219204de98060","640759fa512f630a2bdc333d","6408c1811806d9b9e8039b03","7178.600000000093","img/training2.png"," ","","","","","","","","","","","","","","","","","","","","",""
"","","","","","many-guess-6","11","121824","0.0-8.0-1.1-0.1","5df2f36b617219204de98060","640759fa512f630a2bdc333d","6408c1811806d9b9e8039b03","[2518]","","","[28,21,10]","[359,267,177]","359","180","158.50635360298216","[158.50635360298216]","[338.50635360298213]","[337]","[30,30,300,300,300,120,30,300,120,120,30,300,30,120,30,120,300,300,300,30,210,300,120,210,120,120,300,30,210,210,210,30,120,30,120,210]","0","3","0","999.6980000001495","1005.8740000000398","1000","[[[""img/mask62.png""],[""img/mask50.png""],[""img/mask51.png""]]]","","[28,21,10]","training","",""
"","","","","","image-keyboard-response","12","126313","0.0-8.0-0.2","5df2f36b617219204de98060","640759fa512f630a2bdc333d","6408c1811806d9b9e8039b03","4486.299999999814","img/training3.png"," ","","","","","","","","","","","","","","","","","","","","",""
"","","","","","[""many-guess-6""]","13","131521","0.0-8.0-1.2-0.2","5df2f36b617219204de98060","640759fa512f630a2bdc333d","6408c1811806d9b9e8039b03","[1734.6999999999534]","","","[24,4,21,12,17]","[273,178,236,112,52]","273","185","187.34795600009932","[187.34795600009932]","[2.347956000099316]","[1]","[300,210,30,300,30,300,210,30,300,210,30,120,120,300,210,120,30,30,30,30,300,210,210,30,120,30,120,120,120,210,120,30,300,120,300,210]","0","5","0","501.13200000009965","495.725999999966","500","[[[""img/mask95.png""],[""img/mask5.png""],[""img/mask13.png""],[""img/mask50.png""],[""img/mask96.png""]]]","","[24,4,21,12,17]","training","",""
"","","","","","image-keyboard-response","14","137954","0.0-8.0-0.3","5df2f36b617219204de98060","640759fa512f630a2bdc333d","6408c1811806d9b9e8039b03","6429.699999999953","img/training4.png"," ","","","","","","","","","","","","","","","","","","","","",""
"","","","","","[""many-guess-6""]","15","142178","0.0-8.0-1.3-0.3","5df2f36b617219204de98060","640759fa512f630a2bdc333d","6408c1811806d9b9e8039b03","[1603.1000000000931]","","","[15,29,10,2,27,28,11,9,16,3]","[19,64,276,294,33,258,327,344,50,244]","19","158","49.3830849138577","[49.3830849138577]","[251.38308491385772]","[250]","[30,210,300,30,120,210,210,120,30,210,120,120,30,210,120,120,120,210,210,30,30,30,300,30,120,210,300,210,210,120,120,210,120,30,120,300]","0","10","0","132.72999999995227","129.8440000001283","132","[[[""img/mask13.png""],[""img/mask73.png""],[""img/mask25.png""],[""img/mask72.png""],[""img/mask86.png""],[""img/mask100.png""],[""img/mask67.png""],[""img/mask5.png""],[""img/mask20.png""],[""img/mask33.png""]]]","","[15,29,10,2,27,28,11,9,16,3]","training","",""
"","","","","","image-keyboard-response","16","148082","0.0-8.0-0.4","5df2f36b617219204de98060","640759fa512f630a2bdc333d","6408c1811806d9b9e8039b03","5901.5","img/training5.png"," ","","","","","","","","","","","","","","","","","","","","",""
"","","","","","[""many-guess-6""]","17","152534","0.0-8.0-1.4-0.4","5df2f36b617219204de98060","640759fa512f630a2bdc333d","6408c1811806d9b9e8039b03","[1662.5]","","","[31,22,21,7,3,12,10,29,13,18,11,28,14,8,5,9,15,2,24,25,35,0,16,32,34,4,20,6,19,30,23,1,17,26,33,27]","[223,133,313,293,303,63,113,283,23,93,103,213,43,53,143,323,263,13,253,173,193,163,343,33,353,73,83,153,123,203,183,4,233,333,273,243]","223","176","151.56726998348785","[151.56726998348785]","[335.56726998348785]","[334]","[30,120,300,120,120,210,300,120,300,120,210,300,210,30,210,30,300,210,120,210,300,210,30,30,300,30,30,210,210,300,210,120,120,300,210,210]","0","36","0","100.51500000004307","27.57200000010198","16","[[[""img/mask45.png""],[""img/mask53.png""],[""img/mask67.png""],[""img/mask54.png""],[""img/mask37.png""],[""img/mask43.png""],[""img/mask15.png""],[""img/mask1.png""],[""img/mask34.png""],[""img/mask45.png""],[""img/mask32.png""],[""img/mask84.png""],[""img/mask90.png""],[""img/mask26.png""],[""img/mask80.png""],[""img/mask30.png""],[""img/mask30.png""],[""img/mask26.png""],[""img/mask93.png""],[""img/mask65.png""],[""img/mask33.png""],[""img/mask17.png""],[""img/mask83.png""],[""img/mask19.png""],[""img/mask14.png""],[""img/mask22.png""],[""img/mask1.png""],[""img/mask24.png""],[""img/mask39.png""],[""img/mask47.png""],[""img/mask41.png""],[""img/mask2.png""],[""img/mask76.png""],[""img/mask84.png""],[""img/mask52.png""],[""img/mask6.png""]]]","","[31,22,21,7,3,12,10,29,13,18,11,28,14,8,5,9,15,2,24,25,35,0,16,32,34,4,20,6,19,30,23,1,17,26,33,27]","training","",""
"","","","","","image-keyboard-response","18","155593","0.0-9.0","5df2f36b617219204de98060","640759fa512f630a2bdc333d","6408c1811806d9b9e8039b03","3052.4000000001397","[""img/endTraining.png""]"," ","","","","","","","","","","","","","","","","","","","","",""
"","","","","","many-guess-6","19","159014","0.0-10.0-0.0-0.0","5df2f36b617219204de98060","640759fa512f630a2bdc333d","6408c1811806d9b9e8039b03","[1476.8000000000466]","","","[18,31,24,6,26,23,2,22,30,7,10,11,21,5,13,33,4,29,3,17,1,35,28,0,19,25,9,14,27,20,12,32,34,8,15,16]","[7,107,276,356,146,346,126,176,186,97,136,37,226,286,216,256,296,236,316,306,336,206,196,47,266,57,116,156,246,166,326,87,77,67,17,27]","7","326","176.4660316181045","[176.4660316181045]","[210.4660316181045]","[210]","[300,30,300,30,30,30,210,210,120]","0","36","0","148.11100000009174","12.578000000037719","16","[[[""img/mask69.png""],[""img/mask94.png""],[""img/mask47.png""],[""img/mask30.png""],[""img/mask35.png""],[""img/mask7.png""],[""img/mask39.png""],[""img/mask24.png""],[""img/mask49.png""],[""img/mask91.png""],[""img/mask86.png""],[""img/mask53.png""],[""img/mask85.png""],[""img/mask49.png""],[""img/mask71.png""],[""img/mask46.png""],[""img/mask73.png""],[""img/mask46.png""],[""img/mask16.png""],[""img/mask17.png""],[""img/mask72.png""],[""img/mask30.png""],[""img/mask75.png""],[""img/mask42.png""],[""img/mask18.png""],[""img/mask72.png""],[""img/mask30.png""],[""img/mask50.png""],[""img/mask65.png""],[""img/mask46.png""],[""img/mask88.png""],[""img/mask6.png""],[""img/mask27.png""],[""img/mask37.png""],[""img/mask80.png""],[""img/mask86.png""]]]","","[18,31,24,6,26,23,2,22,30,7,10,11,21,5,13,33,4,29,3,17,1,35,28,0,19,25,9,14,27,20,12,32,34,8,15,16]","main","326","many-guess-6"
"","","","","","html-keyboard-response","20","159528","0.0-10.0-1.0","5df2f36b617219204de98060","640759fa512f630a2bdc333d","6408c1811806d9b9e8039b03","null","","null","","","","","","","","","","","","","","","","","","","fixation","",""
"","","","","","color-precision2","21","163810","0.0-10.0-0.1-0.1","5df2f36b617219204de98060","640759fa512f630a2bdc333d","6408c1811806d9b9e8039b03","[1427.6000000000931]","","","[7]","[262]","262","71","332.7446716250569","[332.7446716250569]","[261.7446716250569]","[262]","0","0","1","0","146.54800000000978","998.3189999999595","1000","[[[""img/mask84.png""]]]","","","main","71","color-precision2"
"","","","","","html-keyboard-response","22","164312","0.0-10.0-1.1","5df2f36b617219204de98060","640759fa512f630a2bdc333d","6408c1811806d9b9e8039b03","null","","null","","","","","","","","","","","","","","","","","","","fixation","",""
"","","","","","many-guess-6","23","167322","0.0-10.0-0.2-0.2","5df2f36b617219204de98060","640759fa512f630a2bdc333d","6408c1811806d9b9e8039b03","[1260.5]","","","[26,25,5,4,11,19,13,18,23,16,24,15,29,32,14,0,21,34,9,10,8,33,12,31,35,30,1,2,17,3,22,20,6,7,28,27]","[103,113,93,193,223,44,233,54,143,183,333,323,203,243,263,173,123,343,14,83,293,73,24,273,213,313,34,283,353,64,303,4,253,153,133,163]","103","65","44.30252061753617","[44.30252061753617]","[339.3025206175362]","[338]","[300,300,300,120,120,210,30,120,300]","0","36","0","149.22400000013295","23.01500000010128","16","[[[""img/mask89.png""],[""img/mask31.png""],[""img/mask58.png""],[""img/mask90.png""],[""img/mask34.png""],[""img/mask44.png""],[""img/mask21.png""],[""img/mask28.png""],[""img/mask16.png""],[""img/mask67.png""],[""img/mask63.png""],[""img/mask17.png""],[""img/mask36.png""],[""img/mask96.png""],[""img/mask100.png""],[""img/mask61.png""],[""img/mask9.png""],[""img/mask39.png""],[""img/mask20.png""],[""img/mask13.png""],[""img/mask15.png""],[""img/mask2.png""],[""img/mask61.png""],[""img/mask98.png""],[""img/mask44.png""],[""img/mask22.png""],[""img/mask49.png""],[""img/mask77.png""],[""img/mask67.png""],[""img/mask7.png""],[""img/mask58.png""],[""img/mask48.png""],[""img/mask2.png""],[""img/mask81.png""],[""img/mask85.png""],[""img/mask62.png""]]]","","[26,25,5,4,11,19,13,18,23,16,24,15,29,32,14,0,21,34,9,10,8,33,12,31,35,30,1,2,17,3,22,20,6,7,28,27]","main","65","many-guess-6"
"","","","","","html-keyboard-response","24","167824","0.0-10.0-1.2","5df2f36b617219204de98060","640759fa512f630a2bdc333d","6408c1811806d9b9e8039b03","null","","null","","","","","","","","","","","","","","","","","","","fixation","",""
"","","","","","color-precision2","25","170986","0.0-10.0-0.3-0.3","5df2f36b617219204de98060","640759fa512f630a2bdc333d","6408c1811806d9b9e8039b03","[714.2000000001863]","","","[29]","[224]","224","137","7.125016348901799","[7.125016348901799]","[230.1250163489018]","[229]","0","0","1","0","147.43900000010035","997.7129999999888","1000","[[[""img/mask35.png""]]]","","","main","137","color-precision2"
"","","","","","html-keyboard-response","26","171491","0.0-10.0-1.3","5df2f36b617219204de98060","640759fa512f630a2bdc333d","6408c1811806d9b9e8039b03","null","","null","","","","","","","","","","","","","","","","","","","fixation","",""
"","","","","","many-guess-6","27","174914","0.0-10.0-0.4-0.4","5df2f36b617219204de98060","640759fa512f630a2bdc333d","6408c1811806d9b9e8039b03","[1546.3000000000466]","","","[32,14,4,34,31,18,2,21,0,6,35,1,19,15,10,23,30,7,26,17,29,3,28,11,25,16,12,27,33,13,24,20,22,5,8,9]","[358,69,9,159,169,298,89,39,348,328,119,258,248,318,189,199,79,268,149,238,29,19,228,308,209,99,179,219,49,338,129,288,278,59,109,139]","358","94","131.58776680425615","[131.58776680425615]","[37.58776680425615]","[36]","[30,210,120,30,210,210,30,210,210]","0","36","0","144.5000000000873","9.08400000014808","16","[[[""img/mask57.png""],[""img/mask61.png""],[""img/mask33.png""],[""img/mask91.png""],[""img/mask70.png""],[""img/mask81.png""],[""img/mask100.png""],[""img/mask10.png""],[""img/mask1.png""],[""img/mask55.png""],[""img/mask95.png""],[""img/mask35.png""],[""img/mask50.png""],[""img/mask28.png""],[""img/mask95.png""],[""img/mask87.png""],[""img/mask75.png""],[""img/mask87.png""],[""img/mask96.png""],[""img/mask60.png""],[""img/mask68.png""],[""img/mask50.png""],[""img/mask13.png""],[""img/mask93.png""],[""img/mask39.png""],[""img/mask3.png""],[""img/mask31.png""],[""img/mask40.png""],[""img/mask18.png""],[""img/mask10.png""],[""img/mask12.png""],[""img/mask77.png""],[""img/mask7.png""],[""img/mask45.png""],[""img/mask59.png""],[""img/mask47.png""]]]","","[32,14,4,34,31,18,2,21,0,6,35,1,19,15,10,23,30,7,26,17,29,3,28,11,25,16,12,27,33,13,24,20,22,5,8,9]","main","94","many-guess-6"
"","","","","","html-keyboard-response","28","175415","0.0-10.0-1.4","5df2f36b617219204de98060","640759fa512f630a2bdc333d","6408c1811806d9b9e8039b03","null","","null","","","","","","","","","","","","","","","","","","","fixation","",""
"","","","","","many-guess-6","29","178778","0.0-10.0-0.5-0.5","5df2f36b617219204de98060","640759fa512f630a2bdc333d","6408c1811806d9b9e8039b03","[1481.8999999999069]","","","[4,1,0,6,14,15,33,12,32,24,20,27,2,3,5,16,18,21,34,11,13,7,31,23,35,22,30,19,9,8,10,28,26,29,17,25]","[209,189,39,308,298,89,348,239,109,99,69,49,338,159,169,318,229,9,289,139,358,269,199,19,79,149,219,59,279,129,259,328,249,119,29,179]","209","55","106.48445318953567","[106.48445318953567]","[51.48445318953567]","[50]","[30,30,30,120,30,210,30,210,30]","0","36","0","148.00399999995716","12.371000000130152","16","[[[""img/mask49.png""],[""img/mask39.png""],[""img/mask73.png""],[""img/mask42.png""],[""img/mask82.png""],[""img/mask17.png""],[""img/mask53.png""],[""img/mask5.png""],[""img/mask40.png""],[""img/mask46.png""],[""img/mask32.png""],[""img/mask35.png""],[""img/mask3.png""],[""img/mask51.png""],[""img/mask35.png""],[""img/mask91.png""],[""img/mask43.png""],[""img/mask100.png""],[""img/mask86.png""],[""img/mask24.png""],[""img/mask78.png""],[""img/mask46.png""],[""img/mask67.png""],[""img/mask89.png""],[""img/mask82.png""],[""img/mask23.png""],[""img/mask84.png""],[""img/mask31.png""],[""img/mask38.png""],[""img/mask80.png""],[""img/mask22.png""],[""img/mask74.png""],[""img/mask83.png""],[""img/mask72.png""],[""img/mask13.png""],[""img/mask46.png""]]]","","[4,1,0,6,14,15,33,12,32,24,20,27,2,3,5,16,18,21,34,11,13,7,31,23,35,22,30,19,9,8,10,28,26,29,17,25]","main","55","many-guess-6"
"","","","","","html-keyboard-response","30","179280","0.0-10.0-1.5","5df2f36b617219204de98060","640759fa512f630a2bdc333d","6408c1811806d9b9e8039b03","null","","null","","","","","","","","","","","","","","","","","","","fixation","",""
"","","","","","color-precision2","31","183298","0.0-10.0-0.6-0.6","5df2f36b617219204de98060","640759fa512f630a2bdc333d","6408c1811806d9b9e8039b03","[1237.6999999999534]","","","[24]","[44]","44","69","124.61597931237986","[124.61597931237986]","[55.615979312379864]","[54]","0","0","1","0","149.1130000000121","996.8129999999946","1000","[[[""img/mask31.png""]]]","","","main","69","color-precision2"
"","","","","","html-keyboard-response","32","183802","0.0-10.0-1.6","5df2f36b617219204de98060","640759fa512f630a2bdc333d","6408c1811806d9b9e8039b03","null","","null","","","","","","","","","","","","","","","","","","","fixation","",""
"","","","","","color-precision2","33","187487","0.0-10.0-0.7-0.7","5df2f36b617219204de98060","640759fa512f630a2bdc333d","6408c1811806d9b9e8039b03","[845.1000000000931]","","","[35]","[280]","280","295","212.31247862613","[212.31247862613]","[277.31247862613]","[277]","0","0","1","0","148.66099999996368","997.947000000102","1000","[[[""img/mask53.png""]]]","","","main","295","color-precision2"
"","","","","","html-keyboard-response","34","187991","0.0-10.0-1.7","5df2f36b617219204de98060","640759fa512f630a2bdc333d","6408c1811806d9b9e8039b03","null","","null","","","","","","","","","","","","","","","","","","","fixation","",""
"","","","","","many-guess-6","35","191490","0.0-10.0-0.8-0.8","5df2f36b617219204de98060","640759fa512f630a2bdc333d","6408c1811806d9b9e8039b03","[2038.2999999998137]","","","[0,12,20,2,17,26,23,14,10,31,28,4,30,34,11,13,24,8,18,9,32,1,21,25,6,35,5,16,33,29,27,15,22,3,19,7]","[49,19,328,69,358,318,39,199,259,129,139,189,89,288,169,109,219,59,298,159,9,179,269,348,229,99,249,308,119,338,209,79,279,149,29,239]","49","12","175.45351661728202","[175.45351661728202]","[163.45351661728202]","[162]","[120,120,300,210,210,300,300,300,120]","0","36","0","148.99499999996624","27.608000000094762","16","[[[""img/mask62.png""],[""img/mask70.png""],[""img/mask75.png""],[""img/mask29.png""],[""img/mask80.png""],[""img/mask64.png""],[""img/mask14.png""],[""img/mask49.png""],[""img/mask67.png""],[""img/mask68.png""],[""img/mask45.png""],[""img/mask8.png""],[""img/mask22.png""],[""img/mask76.png""],[""img/mask21.png""],[""img/mask92.png""],[""img/mask78.png""],[""img/mask74.png""],[""img/mask61.png""],[""img/mask36.png""],[""img/mask71.png""],[""img/mask11.png""],[""img/mask68.png""],[""img/mask46.png""],[""img/mask10.png""],[""img/mask67.png""],[""img/mask42.png""],[""img/mask17.png""],[""img/mask33.png""],[""img/mask46.png""],[""img/mask81.png""],[""img/mask57.png""],[""img/mask40.png""],[""img/mask63.png""],[""img/mask93.png""],[""img/mask1.png""]]]","","[0,12,20,2,17,26,23,14,10,31,28,4,30,34,11,13,24,8,18,9,32,1,21,25,6,35,5,16,33,29,27,15,22,3,19,7]","main","12","many-guess-6"
"","","","","","html-keyboard-response","36","191991","0.0-10.0-1.8","5df2f36b617219204de98060","640759fa512f630a2bdc333d","6408c1811806d9b9e8039b03","null","","null","","","","","","","","","","","","","","","","","","","fixation","",""
"","","","","","many-guess-6","37","195069","0.0-10.0-0.9-0.9","5df2f36b617219204de98060","640759fa512f630a2bdc333d","6408c1811806d9b9e8039b03","[1435.5]","","","[6,23,31,26,35,16,20,7,32,1,21,12,14,22,2,17,10,18,27,19,30,13,25,28,15,0,5,8,24,29,33,9,3,34,4,11]","[342,143,13,322,332,133,352,302,173,113,223,183,282,153,272,93,193,73,103,262,83,252,163,63,292,123,33,312,3,243,203,43,213,53,233,23]","342","319","334.5366549381284","[334.5366549381284]","[15.536654938128379]","[16]","[120,30,210,30,300,300,210,120,210]","0","36","0","148.39300000012736","8.619999999995343","16","[[[""img/mask76.png""],[""img/mask53.png""],[""img/mask25.png""],[""img/mask56.png""],[""img/mask6.png""],[""img/mask15.png""],[""img/mask10.png""],[""img/mask62.png""],[""img/mask45.png""],[""img/mask62.png""],[""img/mask21.png""],[""img/mask21.png""],[""img/mask15.png""],[""img/mask81.png""],[""img/mask65.png""],[""img/mask19.png""],[""img/mask12.png""],[""img/mask13.png""],[""img/mask14.png""],[""img/mask60.png""],[""img/mask12.png""],[""img/mask44.png""],[""img/mask100.png""],[""img/mask52.png""],[""img/mask33.png""],[""img/mask39.png""],[""img/mask65.png""],[""img/mask69.png""],[""img/mask12.png""],[""img/mask36.png""],[""img/mask4.png""],[""img/mask67.png""],[""img/mask94.png""],[""img/mask70.png""],[""img/mask80.png""],[""img/mask56.png""]]]","","[6,23,31,26,35,16,20,7,32,1,21,12,14,22,2,17,10,18,27,19,30,13,25,28,15,0,5,8,24,29,33,9,3,34,4,11]","main","319","many-guess-6"
"","","","","","html-keyboard-response","38","195575","0.0-10.0-1.9","5df2f36b617219204de98060","640759fa512f630a2bdc333d","6408c1811806d9b9e8039b03","null","","null","","","","","","","","","","","","","","","","","","","fixation","",""
"","","","","","many-guess-6","39","198900","0.0-10.0-0.10-0.10","5df2f36b617219204de98060","640759fa512f630a2bdc333d","6408c1811806d9b9e8039b03","[1656.1000000000931]","","","[16,24,34,29,33,31,22,25,7,32,20,15,11,0,3,6,17,9,8,10,27,12,1,35,30,4,19,23,18,2,5,28,26,14,21,13]","[44,293,273,153,123,303,173,193,323,74,64,223,163,113,54,353,143,283,253,34,14,103,313,83,203,183,4,93,243,343,233,213,333,24,133,263]","44","263","59.30801959892741","[59.30801959892741]","[156.30801959892742]","[155]","[120,210,120,30,30,210,210,30,300]","0","36","0","149.41399999996065","28.913000000000466","16","[[[""img/mask56.png""],[""img/mask52.png""],[""img/mask46.png""],[""img/mask18.png""],[""img/mask31.png""],[""img/mask81.png""],[""img/mask95.png""],[""img/mask87.png""],[""img/mask23.png""],[""img/mask15.png""],[""img/mask67.png""],[""img/mask98.png""],[""img/mask59.png""],[""img/mask86.png""],[""img/mask52.png""],[""img/mask93.png""],[""img/mask83.png""],[""img/mask99.png""],[""img/mask66.png""],[""img/mask27.png""],[""img/mask6.png""],[""img/mask96.png""],[""img/mask39.png""],[""img/mask70.png""],[""img/mask47.png""],[""img/mask100.png""],[""img/mask1.png""],[""img/mask84.png""],[""img/mask71.png""],[""img/mask37.png""],[""img/mask82.png""],[""img/mask10.png""],[""img/mask44.png""],[""img/mask45.png""],[""img/mask28.png""],[""img/mask86.png""]]]","","[16,24,34,29,33,31,22,25,7,32,20,15,11,0,3,6,17,9,8,10,27,12,1,35,30,4,19,23,18,2,5,28,26,14,21,13]","main","263","many-guess-6"
"","","","","","html-keyboard-response","40","199407","0.0-10.0-1.10","5df2f36b617219204de98060","640759fa512f630a2bdc333d","6408c1811806d9b9e8039b03","null","","null","","","","","","","","","","","","","","","","","","","fixation","",""
"","","","","","color-precision2","41","202997","0.0-10.0-0.11-0.11","5df2f36b617219204de98060","640759fa512f630a2bdc333d","6408c1811806d9b9e8039b03","[855.1999999999534]","","","[17]","[243]","243","309","192.91294075385105","[192.91294075385105]","[243.91294075385105]","[243]","0","0","1","0","149.60499999995227","997.0080000000016","1000","[[[""img/mask39.png""]]]","","","main","309","color-precision2"
"","","","","","html-keyboard-response","42","203504","0.0-10.0-1.11","5df2f36b617219204de98060","640759fa512f630a2bdc333d","6408c1811806d9b9e8039b03","null","","null","","","","","","","","","","","","","","","","","","","fixation","",""
"","","","","","many-guess-6","43","206435","0.0-10.0-0.12-0.12","5df2f36b617219204de98060","640759fa512f630a2bdc333d","6408c1811806d9b9e8039b03","[1537.2000000001863]","","","[29,32,1,14,34,31,26,8,33,7,21,3,16,9,20,13,23,11,24,27,2,15,19,5,18,28,30,22,12,25,35,10,0,4,6,17]","[52,282,202,262,322,152,92,222,212,351,2,72,302,312,102,252,162,62,242,192,132,272,142,332,112,42,172,22,122,82,232,32,341,292,12,182]","52","49","130.55589387834732","[130.55589387834732]","[81.55589387834732]","[80]","[210,30,210,300,210,300,300,120,30]","0","36","0","147.39400000000023","12.012000000133412","16","[[[""img/mask11.png""],[""img/mask85.png""],[""img/mask30.png""],[""img/mask62.png""],[""img/mask68.png""],[""img/mask91.png""],[""img/mask56.png""],[""img/mask33.png""],[""img/mask88.png""],[""img/mask90.png""],[""img/mask96.png""],[""img/mask56.png""],[""img/mask43.png""],[""img/mask99.png""],[""img/mask13.png""],[""img/mask26.png""],[""img/mask51.png""],[""img/mask76.png""],[""img/mask16.png""],[""img/mask46.png""],[""img/mask83.png""],[""img/mask76.png""],[""img/mask94.png""],[""img/mask79.png""],[""img/mask45.png""],[""img/mask93.png""],[""img/mask75.png""],[""img/mask26.png""],[""img/mask20.png""],[""img/mask17.png""],[""img/mask73.png""],[""img/mask81.png""],[""img/mask45.png""],[""img/mask34.png""],[""img/mask91.png""],[""img/mask68.png""]]]","","[29,32,1,14,34,31,26,8,33,7,21,3,16,9,20,13,23,11,24,27,2,15,19,5,18,28,30,22,12,25,35,10,0,4,6,17]","main","49","many-guess-6"
"","","","","","html-keyboard-response","44","206938","0.0-10.0-1.12","5df2f36b617219204de98060","640759fa512f630a2bdc333d","6408c1811806d9b9e8039b03","null","","null","","","","","","","","","","","","","","","","","","","fixation","",""
"","","","","","color-precision2","45","210115","0.0-10.0-0.13-0.13","5df2f36b617219204de98060","640759fa512f630a2bdc333d","6408c1811806d9b9e8039b03","[617.7999999998137]","","","[30]","[61]","61","334","36.52457317121488","[36.52457317121488]","[62.52457317121491]","[61]","0","0","1","0","149.53900000013527","997.1350000001257","1000","[[[""img/mask80.png""]]]","","","main","334","color-precision2"
"","","","","","html-keyboard-response","46","210624","0.0-10.0-1.13","5df2f36b617219204de98060","640759fa512f630a2bdc333d","6408c1811806d9b9e8039b03","null","","null","","","","","","","","","","","","","","","","","","","fixation","",""
"","","","","","many-guess-6","47","213596","0.0-10.0-0.14-0.14","5df2f36b617219204de98060","640759fa512f630a2bdc333d","6408c1811806d9b9e8039b03","[1456.6000000000931]","","","[3,8,4,31,17,7,30,1,11,0,14,22,27,28,33,32,35,13,25,6,20,23,18,19,15,9,29,5,24,16,12,2,34,10,26,21]","[37,97,267,357,117,227,87,157,297,287,217,147,77,67,257,237,247,18,207,337,127,57,47,347,27,277,167,197,8,187,307,107,137,317,327,177]","37","202","62.27501279139914","[62.27501279139914]","[220.27501279139915]","[219]","[300,300,210,30,30,30,120,120,300]","0","36","0","149.28599999996368","27.80200000005425","16","[[[""img/mask57.png""],[""img/mask5.png""],[""img/mask98.png""],[""img/mask4.png""],[""img/mask19.png""],[""img/mask81.png""],[""img/mask52.png""],[""img/mask1.png""],[""img/mask86.png""],[""img/mask47.png""],[""img/mask44.png""],[""img/mask10.png""],[""img/mask63.png""],[""img/mask33.png""],[""img/mask30.png""],[""img/mask73.png""],[""img/mask81.png""],[""img/mask5.png""],[""img/mask11.png""],[""img/mask63.png""],[""img/mask56.png""],[""img/mask87.png""],[""img/mask26.png""],[""img/mask73.png""],[""img/mask56.png""],[""img/mask50.png""],[""img/mask10.png""],[""img/mask11.png""],[""img/mask8.png""],[""img/mask50.png""],[""img/mask31.png""],[""img/mask90.png""],[""img/mask5.png""],[""img/mask14.png""],[""img/mask64.png""],[""img/mask60.png""]]]","","[3,8,4,31,17,7,30,1,11,0,14,22,27,28,33,32,35,13,25,6,20,23,18,19,15,9,29,5,24,16,12,2,34,10,26,21]","main","202","many-guess-6"
"","","","","","html-keyboard-response","48","214104","0.0-10.0-1.14","5df2f36b617219204de98060","640759fa512f630a2bdc333d","6408c1811806d9b9e8039b03","null","","null","","","","","","","","","","","","","","","","","","","fixation","",""
"","","","","","color-precision2","49","217619","0.0-10.0-0.15-0.15","5df2f36b617219204de98060","640759fa512f630a2bdc333d","6408c1811806d9b9e8039b03","[916.2000000001863]","","","[21]","[311]","311","175","136.26011004594173","[136.26011004594173]","[321.2601100459417]","[320]","0","0","1","0","147.17900000014924","998.4810000001453","1000","[[[""img/mask98.png""]]]","","","main","175","color-precision2"
"","","","","","html-keyboard-response","50","218126","0.0-10.0-1.15","5df2f36b617219204de98060","640759fa512f630a2bdc333d","6408c1811806d9b9e8039b03","null","","null","","","","","","","","","","","","","","","","","","","fixation","",""
"","","","","","many-guess-6","51","220870","0.0-10.0-0.16-0.16","5df2f36b617219204de98060","640759fa512f630a2bdc333d","6408c1811806d9b9e8039b03","[1337.3000000000466]","","","[15,20,17,1,11,4,27,25,0,22,2,32,30,23,6,26,18,5,35,9,12,31,34,10,8,24,29,16,21,14,28,19,3,33,7,13]","[146,186,355,36,46,196,315,16,66,216,295,156,116,136,76,176,335,246,86,236,276,56,305,166,325,226,286,26,206,126,256,345,266,6,106,96]","146","274","220.50954807888368","[220.50954807888368]","[306.50954807888365]","[307]","[300,300,210,300,120,30,120,120,300]","0","36","0","148.9649999999674","27.250999999960186","16","[[[""img/mask2.png""],[""img/mask97.png""],[""img/mask66.png""],[""img/mask97.png""],[""img/mask83.png""],[""img/mask81.png""],[""img/mask100.png""],[""img/mask19.png""],[""img/mask39.png""],[""img/mask26.png""],[""img/mask29.png""],[""img/mask71.png""],[""img/mask46.png""],[""img/mask56.png""],[""img/mask4.png""],[""img/mask90.png""],[""img/mask87.png""],[""img/mask3.png""],[""img/mask87.png""],[""img/mask24.png""],[""img/mask8.png""],[""img/mask12.png""],[""img/mask49.png""],[""img/mask67.png""],[""img/mask39.png""],[""img/mask84.png""],[""img/mask91.png""],[""img/mask53.png""],[""img/mask78.png""],[""img/mask18.png""],[""img/mask61.png""],[""img/mask92.png""],[""img/mask63.png""],[""img/mask21.png""],[""img/mask87.png""],[""img/mask58.png""]]]","","[15,20,17,1,11,4,27,25,0,22,2,32,30,23,6,26,18,5,35,9,12,31,34,10,8,24,29,16,21,14,28,19,3,33,7,13]","main","274","many-guess-6"
"","","","","","html-keyboard-response","52","221378","0.0-10.0-1.16","5df2f36b617219204de98060","640759fa512f630a2bdc333d","6408c1811806d9b9e8039b03","null","","null","","","","","","","","","","","","","","","","","","","fixation","",""
"","","","","","color-precision2","53","224653","0.0-10.0-0.17-0.17","5df2f36b617219204de98060","640759fa512f630a2bdc333d","6408c1811806d9b9e8039b03","[408.39999999990687]","","","[6]","[207]","207","225","64.62713140705497","[64.62713140705497]","[199.62713140705497]","[198]","0","0","1","0","147.9220000001369","999.0120000000461","1000","[[[""img/mask56.png""]]]","","","main","225","color-precision2"
"","","","","","html-keyboard-response","54","225160","0.0-10.0-1.17","5df2f36b617219204de98060","640759fa512f630a2bdc333d","6408c1811806d9b9e8039b03","null","","null","","","","","","","","","","","","","","","","","","","fixation","",""
"","","","","","many-guess-6","55","228222","0.0-10.0-0.18-0.18","5df2f36b617219204de98060","640759fa512f630a2bdc333d","6408c1811806d9b9e8039b03","[1384.1999999999534]","","","[32,2,18,23,8,24,10,6,25,33,13,22,16,35,9,20,11,3,14,15,17,26,21,30,1,34,12,31,28,29,0,5,7,4,27,19]","[318,8,248,148,348,228,288,158,138,98,68,118,338,278,78,168,238,258,28,198,208,178,328,218,48,298,188,268,108,128,88,58,308,358,38,18]","318","76","1.4392896278824165","[1.4392896278824165]","[285.43928962788243]","[285]","[210,120,30,30,30,30,210,120,30]","0","36","0","149.83400000000256","26.244000000035157","16","[[[""img/mask14.png""],[""img/mask16.png""],[""img/mask39.png""],[""img/mask85.png""],[""img/mask25.png""],[""img/mask66.png""],[""img/mask56.png""],[""img/mask3.png""],[""img/mask40.png""],[""img/mask39.png""],[""img/mask59.png""],[""img/mask55.png""],[""img/mask90.png""],[""img/mask100.png""],[""img/mask1.png""],[""img/mask2.png""],[""img/mask92.png""],[""img/mask85.png""],[""img/mask14.png""],[""img/mask45.png""],[""img/mask40.png""],[""img/mask96.png""],[""img/mask20.png""],[""img/mask24.png""],[""img/mask64.png""],[""img/mask31.png""],[""img/mask18.png""],[""img/mask65.png""],[""img/mask95.png""],[""img/mask22.png""],[""img/mask76.png""],[""img/mask74.png""],[""img/mask64.png""],[""img/mask46.png""],[""img/mask62.png""],[""img/mask64.png""]]]","","[32,2,18,23,8,24,10,6,25,33,13,22,16,35,9,20,11,3,14,15,17,26,21,30,1,34,12,31,28,29,0,5,7,4,27,19]","main","76","many-guess-6"
"","","","","","html-keyboard-response","56","228732","0.0-10.0-1.18","5df2f36b617219204de98060","640759fa512f630a2bdc333d","6408c1811806d9b9e8039b03","null","","null","","","","","","","","","","","","","","","","","","","fixation","",""
"","","","","","color-precision2","57","231918","0.0-10.0-0.19-0.19","5df2f36b617219204de98060","640759fa512f630a2bdc333d","6408c1811806d9b9e8039b03","[717]","","","[35]","[7]","7","219","214.33852735491803","[214.33852735491803]","[355.338527354918]","[355]","0","0","1","0","146.39499999998952","994.2119999999413","1000","[[[""img/mask12.png""]]]","","","main","219","color-precision2"
"","","","","","html-keyboard-response","58","238029","0.0-10.0-1.19","5df2f36b617219204de98060","640759fa512f630a2bdc333d","6408c1811806d9b9e8039b03","6108.899999999907","Wow! You've completed 20 out of 180 trials! </p> <p>  </p><p> Take a quick break, then press any key when you're ready to continue."," ","","","","","","","","","","","","","","","","","","","fixation","",""
"","","","","","many-guess-6","59","241917","0.0-10.0-0.20-0.20","5df2f36b617219204de98060","640759fa512f630a2bdc333d","6408c1811806d9b9e8039b03","[1503.6999999999534]","","","[21,14,26,32,20,19,30,29,15,22,6,24,28,31,9,17,33,35,27,16,3,18,11,1,23,12,34,7,13,5,2,8,0,10,4,25]","[40,120,229,60,50,279,189,319,80,309,269,10,130,249,259,339,219,169,209,179,100,329,20,90,70,199,30,159,349,359,139,289,299,110,149,239]","40","242","0.8425242607404145","[0.8425242607404145]","[118.84252426074042]","[118]","[30,30,300,210,120,300,210,300,120]","0","36","0","148.91299999994226","28.714999999967404","16","[[[""img/mask21.png""],[""img/mask70.png""],[""img/mask38.png""],[""img/mask90.png""],[""img/mask60.png""],[""img/mask79.png""],[""img/mask32.png""],[""img/mask53.png""],[""img/mask7.png""],[""img/mask86.png""],[""img/mask72.png""],[""img/mask100.png""],[""img/mask89.png""],[""img/mask65.png""],[""img/mask5.png""],[""img/mask43.png""],[""img/mask49.png""],[""img/mask60.png""],[""img/mask94.png""],[""img/mask96.png""],[""img/mask15.png""],[""img/mask29.png""],[""img/mask96.png""],[""img/mask48.png""],[""img/mask88.png""],[""img/mask87.png""],[""img/mask67.png""],[""img/mask97.png""],[""img/mask41.png""],[""img/mask70.png""],[""img/mask40.png""],[""img/mask80.png""],[""img/mask46.png""],[""img/mask40.png""],[""img/mask53.png""],[""img/mask99.png""]]]","","[21,14,26,32,20,19,30,29,15,22,6,24,28,31,9,17,33,35,27,16,3,18,11,1,23,12,34,7,13,5,2,8,0,10,4,25]","main","242","many-guess-6"
"","","","","","html-keyboard-response","60","242430","0.0-10.0-1.20","5df2f36b617219204de98060","640759fa512f630a2bdc333d","6408c1811806d9b9e8039b03","null","","null","","","","","","","","","","","","","","","","","","","fixation","",""
"","","","","","many-guess-6","61","244957","0.0-10.0-0.21-0.21","5df2f36b617219204de98060","640759fa512f630a2bdc333d","6408c1811806d9b9e8039b03","[1148.6999999999534]","","","[11,27,1,10,16,21,30,18,4,34,3,17,20,33,8,2,14,25,7,28,26,24,23,12,13,35,5,32,19,9,0,15,29,31,6,22]","[7,346,57,246,226,336,116,166,126,77,17,356,196,27,176,37,276,326,266,67,286,156,97,106,87,186,146,306,216,47,256,136,296,316,236,206]","7","230","178.51738142032966","[178.51738142032966]","[308.5173814203297]","[308]","[300,300,300,300,30,120,120,30,210]","0","36","0","149.2310000001453","20.60800000000745","16","[[[""img/mask64.png""],[""img/mask65.png""],[""img/mask83.png""],[""img/mask99.png""],[""img/mask18.png""],[""img/mask6.png""],[""img/mask10.png""],[""img/mask22.png""],[""img/mask60.png""],[""img/mask5.png""],[""img/mask91.png""],[""img/mask52.png""],[""img/mask3.png""],[""img/mask94.png""],[""img/mask90.png""],[""img/mask86.png""],[""img/mask64.png""],[""img/mask65.png""],[""img/mask95.png""],[""img/mask55.png""],[""img/mask54.png""],[""img/mask42.png""],[""img/mask20.png""],[""img/mask88.png""],[""img/mask40.png""],[""img/mask81.png""],[""img/mask26.png""],[""img/mask88.png""],[""img/mask28.png""],[""img/mask17.png""],[""img/mask91.png""],[""img/mask79.png""],[""img/mask23.png""],[""img/mask67.png""],[""img/mask43.png""],[""img/mask47.png""]]]","","[11,27,1,10,16,21,30,18,4,34,3,17,20,33,8,2,14,25,7,28,26,24,23,12,13,35,5,32,19,9,0,15,29,31,6,22]","main","230","many-guess-6"
"","","","","","html-keyboard-response","62","245466","0.0-10.0-1.21","5df2f36b617219204de98060","640759fa512f630a2bdc333d","6408c1811806d9b9e8039b03","null","","null","","","","","","","","","","","","","","","","","","","fixation","",""
"","","","","","color-precision2","63","248597","0.0-10.0-0.22-0.22","5df2f36b617219204de98060","640759fa512f630a2bdc333d","6408c1811806d9b9e8039b03","[711.3999999999069]","","","[0]","[313]","313","356","301.71920792992347","[301.71920792992347]","[305.71920792992347]","[306]","0","0","1","0","149.86699999999837","998.2889999999898","1000","[[[""img/mask86.png""]]]","","","main","356","color-precision2"
"","","","","","html-keyboard-response","64","249101","0.0-10.0-1.22","5df2f36b617219204de98060","640759fa512f630a2bdc333d","6408c1811806d9b9e8039b03","null","","null","","","","","","","","","","","","","","","","","","","fixation","",""
"","","","","","color-precision2","65","251844","0.0-10.0-0.23-0.23","5df2f36b617219204de98060","640759fa512f630a2bdc333d","6408c1811806d9b9e8039b03","[297.19999999995343]","","","[14]","[3]","3","195","190.85457588479838","[190.85457588479838]","[355.85457588479835]","[355]","0","0","1","0","147.83099999994738","998.8080000000191","1000","[[[""img/mask31.png""]]]","","","main","195","color-precision2"
"","","","","","html-keyboard-response","66","252352","0.0-10.0-1.23","5df2f36b617219204de98060","640759fa512f630a2bdc333d","6408c1811806d9b9e8039b03","null","","null","","","","","","","","","","","","","","","","","","","fixation","",""
"","","","","","color-precision2","67","255372","0.0-10.0-0.24-0.24","5df2f36b617219204de98060","640759fa512f630a2bdc333d","6408c1811806d9b9e8039b03","[582.9000000001397]","","","[14]","[226]","226","280","146.95882428457082","[146.95882428457082]","[226.95882428457082]","[226]","0","0","1","0","147.6050000000978","997.7050000000163","1000","[[[""img/mask70.png""]]]","","","main","280","color-precision2"
"","","","","","html-keyboard-response","68","255882","0.0-10.0-1.24","5df2f36b617219204de98060","640759fa512f630a2bdc333d","6408c1811806d9b9e8039b03","null","","null","","","","","","","","","","","","","","","","","","","fixation","",""
"","","","","","many-guess-6","69","258853","0.0-10.0-0.25-0.25","5df2f36b617219204de98060","640759fa512f630a2bdc333d","6408c1811806d9b9e8039b03","[1486.8999999999069]","","","[17,15,9,3,14,18,6,24,26,20,5,30,1,11,29,34,31,32,35,13,25,7,22,19,0,8,21,33,27,4,23,10,12,28,16,2]","[65,305,15,55,325,135,165,335,265,125,145,185,35,95,235,295,345,285,25,175,155,255,355,5,315,115,45,75,275,215,245,85,105,205,195,225]","65","322","354.66210369926887","[354.66210369926887]","[32.66210369926887]","[32]","[30,300,300,300,210,300,120,30,210]","0","36","0","147.7050000000163","12.31499999994412","16","[[[""img/mask4.png""],[""img/mask94.png""],[""img/mask96.png""],[""img/mask6.png""],[""img/mask83.png""],[""img/mask93.png""],[""img/mask9.png""],[""img/mask39.png""],[""img/mask3.png""],[""img/mask87.png""],[""img/mask33.png""],[""img/mask21.png""],[""img/mask43.png""],[""img/mask46.png""],[""img/mask13.png""],[""img/mask98.png""],[""img/mask94.png""],[""img/mask72.png""],[""img/mask98.png""],[""img/mask3.png""],[""img/mask24.png""],[""img/mask13.png""],[""img/mask44.png""],[""img/mask18.png""],[""img/mask17.png""],[""img/mask32.png""],[""img/mask35.png""],[""img/mask29.png""],[""img/mask36.png""],[""img/mask90.png""],[""img/mask55.png""],[""img/mask15.png""],[""img/mask62.png""],[""img/mask66.png""],[""img/mask47.png""],[""img/mask62.png""]]]","","[17,15,9,3,14,18,6,24,26,20,5,30,1,11,29,34,31,32,35,13,25,7,22,19,0,8,21,33,27,4,23,10,12,28,16,2]","main","322","many-guess-6"
"","","","","","html-keyboard-response","70","259362","0.0-10.0-1.25","5df2f36b617219204de98060","640759fa512f630a2bdc333d","6408c1811806d9b9e8039b03","null","","null","","","","","","","","","","","","","","","","","","","fixation","",""
"","","","","","color-precision2","71","262108","0.0-10.0-0.26-0.26","5df2f36b617219204de98060","640759fa512f630a2bdc333d","6408c1811806d9b9e8039b03","[312.60000000009313]","","","[28]","[190]","190","167","345.9984182214404","[345.9984182214404]","[178.99841822144037]","[178]","0","0","1","0","145.67000000015832","998.7000000000698","1000","[[[""img/mask69.png""]]]","","","main","167","color-precision2"
"","","","","","html-keyboard-response","72","262616","0.0-10.0-1.26","5df2f36b617219204de98060","640759fa512f630a2bdc333d","6408c1811806d9b9e8039b03","null","","null","","","","","","","","","","","","","","","","","","","fixation","",""
"","","","","","color-precision2","73","265564","0.0-10.0-0.27-0.27","5df2f36b617219204de98060","640759fa512f630a2bdc333d","6408c1811806d9b9e8039b03","[609.3000000000466]","","","[20]","[24]","24","187","196.76575892377082","[196.76575892377082]","[9.765758923770818]","[9]","0","0","1","0","146.30200000014156","998.0040000001318","1000","[[[""img/mask54.png""]]]","","","main","187","color-precision2"
"","","","","","html-keyboard-response","74","266085","0.0-10.0-1.27","5df2f36b617219204de98060","640759fa512f630a2bdc333d","6408c1811806d9b9e8039b03","null","","null","","","","","","","","","","","","","","","","","","","fixation","",""
"","","","","","color-precision2","75","269260","0.0-10.0-0.28-0.28","5df2f36b617219204de98060","640759fa512f630a2bdc333d","6408c1811806d9b9e8039b03","[844.6999999999534]","","","[21]","[317]","317","46","356.1670530387528","[356.1670530387528]","[310.1670530387528]","[309]","0","0","1","0","147.798000000068","997.6929999999702","1000","[[[""img/mask91.png""]]]","","","main","46","color-precision2"
"","","","","","html-keyboard-response","76","269763","0.0-10.0-1.28","5df2f36b617219204de98060","640759fa512f630a2bdc333d","6408c1811806d9b9e8039b03","null","","null","","","","","","","","","","","","","","","","","","","fixation","",""
"","","","","","color-precision2","77","272284","0.0-10.0-0.29-0.29","5df2f36b617219204de98060","640759fa512f630a2bdc333d","6408c1811806d9b9e8039b03","[307.89999999990687]","","","[10]","[276]","276","267","189.32761451066762","[189.32761451066762]","[282.3276145106676]","[281]","0","0","1","0","147.704000000027","998.2719999999972","1000","[[[""img/mask20.png""]]]","","","main","267","color-precision2"
"","","","","","html-keyboard-response","78","272786","0.0-10.0-1.29","5df2f36b617219204de98060","640759fa512f630a2bdc333d","6408c1811806d9b9e8039b03","null","","null","","","","","","","","","","","","","","","","","","","fixation","",""
"","","","","","color-precision2","79","275700","0.0-10.0-0.30-0.30","5df2f36b617219204de98060","640759fa512f630a2bdc333d","6408c1811806d9b9e8039b03","[662.8000000000466]","","","[23]","[127]","127","106","225","[225]","[119]","[119]","0","0","1","0","147.2500000000582","997.8890000001411","1000","[[[""img/mask82.png""]]]","","","main","106","color-precision2"
"","","","","","html-keyboard-response","80","276202","0.0-10.0-1.30","5df2f36b617219204de98060","640759fa512f630a2bdc333d","6408c1811806d9b9e8039b03","null","","null","","","","","","","","","","","","","","","","","","","fixation","",""
"","","","","","many-guess-6","81","280401","0.0-10.0-0.31-0.31","5df2f36b617219204de98060","640759fa512f630a2bdc333d","6408c1811806d9b9e8039b03","[2081.399999999907]","","","[1,13,4,0,23,10,11,35,9,33,8,21,31,28,34,17,14,12,29,19,27,32,15,30,7,20,25,16,5,24,26,3,2,22,6,18]","[282,322,213,163,342,233,113,183,103,63,252,262,123,242,302,53,83,292,93,203,73,223,3,13,312,272,153,43,23,332,33,143,193,133,352,173]","282","356","39.93137718136183","[39.93137718136183]","[43.931377181361825]","[43]","[120,210,120,30,210,300,300,300,30]","0","36","0","148.9780000000028","28.454000000085216","16","[[[""img/mask4.png""],[""img/mask42.png""],[""img/mask20.png""],[""img/mask12.png""],[""img/mask21.png""],[""img/mask23.png""],[""img/mask52.png""],[""img/mask9.png""],[""img/mask23.png""],[""img/mask89.png""],[""img/mask6.png""],[""img/mask18.png""],[""img/mask21.png""],[""img/mask68.png""],[""img/mask78.png""],[""img/mask72.png""],[""img/mask17.png""],[""img/mask18.png""],[""img/mask5.png""],[""img/mask11.png""],[""img/mask36.png""],[""img/mask34.png""],[""img/mask59.png""],[""img/mask83.png""],[""img/mask31.png""],[""img/mask98.png""],[""img/mask78.png""],[""img/mask97.png""],[""img/mask73.png""],[""img/mask45.png""],[""img/mask66.png""],[""img/mask52.png""],[""img/mask34.png""],[""img/mask66.png""],[""img/mask28.png""],[""img/mask78.png""]]]","","[1,13,4,0,23,10,11,35,9,33,8,21,31,28,34,17,14,12,29,19,27,32,15,30,7,20,25,16,5,24,26,3,2,22,6,18]","main","356","many-guess-6"
"","","","","","html-keyboard-response","82","280906","0.0-10.0-1.31","5df2f36b617219204de98060","640759fa512f630a2bdc333d","6408c1811806d9b9e8039b03","null","","null","","","","","","","","","","","","","","","","","","","fixation","",""
"","","","","","many-guess-6","83","283617","0.0-10.0-0.32-0.32","5df2f36b617219204de98060","640759fa512f630a2bdc333d","6408c1811806d9b9e8039b03","[1185]","","","[15,19,20,32,30,27,8,21,25,4,14,3,12,1,24,9,29,0,23,31,7,33,6,17,35,18,5,13,2,16,22,28,11,26,10,34]","[264,5,55,254,15,135,35,65,344,205,324,125,294,274,105,215,334,354,244,25,75,115,175,45,304,195,155,224,165,185,234,95,314,284,145,85]","264","293","72.1764158646803","[72.1764158646803]","[139.17641586468028]","[138]","[300,120,210,30,300,30,210,120,210]","0","36","0","149.47299999993993","27.002000000094995","16","[[[""img/mask93.png""],[""img/mask95.png""],[""img/mask17.png""],[""img/mask43.png""],[""img/mask85.png""],[""img/mask82.png""],[""img/mask91.png""],[""img/mask40.png""],[""img/mask38.png""],[""img/mask78.png""],[""img/mask33.png""],[""img/mask9.png""],[""img/mask81.png""],[""img/mask17.png""],[""img/mask11.png""],[""img/mask62.png""],[""img/mask1.png""],[""img/mask17.png""],[""img/mask50.png""],[""img/mask38.png""],[""img/mask79.png""],[""img/mask12.png""],[""img/mask55.png""],[""img/mask15.png""],[""img/mask7.png""],[""img/mask28.png""],[""img/mask41.png""],[""img/mask57.png""],[""img/mask9.png""],[""img/mask55.png""],[""img/mask67.png""],[""img/mask35.png""],[""img/mask36.png""],[""img/mask100.png""],[""img/mask78.png""],[""img/mask19.png""]]]","","[15,19,20,32,30,27,8,21,25,4,14,3,12,1,24,9,29,0,23,31,7,33,6,17,35,18,5,13,2,16,22,28,11,26,10,34]","main","293","many-guess-6"
"","","","","","html-keyboard-response","84","284119","0.0-10.0-1.32","5df2f36b617219204de98060","640759fa512f630a2bdc333d","6408c1811806d9b9e8039b03","null","","null","","","","","","","","","","","","","","","","","","","fixation","",""
"","","","","","color-precision2","85","287297","0.0-10.0-0.33-0.33","5df2f36b617219204de98060","640759fa512f630a2bdc333d","6408c1811806d9b9e8039b03","[451.60000000009313]","","","[11]","[106]","106","216","323.27227521251297","[323.27227521251297]","[107.27227521251297]","[107]","0","0","1","0","146.58400000014808","996.7970000000787","1000","[[[""img/mask36.png""]]]","","","main","216","color-precision2"
"","","","","","html-keyboard-response","86","287807","0.0-10.0-1.33","5df2f36b617219204de98060","640759fa512f630a2bdc333d","6408c1811806d9b9e8039b03","null","","null","","","","","","","","","","","","","","","","","","","fixation","",""
"","","","","","many-guess-6","87","290426","0.0-10.0-0.34-0.34","5df2f36b617219204de98060","640759fa512f630a2bdc333d","6408c1811806d9b9e8039b03","[1088.5]","","","[18,1,9,24,29,5,19,8,11,3,12,31,16,2,10,15,35,6,25,33,23,26,20,0,34,13,32,7,28,27,4,21,30,22,17,14]","[281,122,231,102,92,201,42,52,241,301,261,72,251,82,351,182,341,211,112,142,331,2,32,152,162,172,271,192,22,132,62,12,311,221,291,321]","281","91","238.14033310926902","[238.14033310926902]","[147.14033310926902]","[147]","[210,210,120,120,120,210,300,300,300]","0","36","0","149.20000000006985","28.613000000070315","16","[[[""img/mask13.png""],[""img/mask91.png""],[""img/mask91.png""],[""img/mask97.png""],[""img/mask86.png""],[""img/mask70.png""],[""img/mask87.png""],[""img/mask30.png""],[""img/mask36.png""],[""img/mask83.png""],[""img/mask16.png""],[""img/mask63.png""],[""img/mask36.png""],[""img/mask45.png""],[""img/mask69.png""],[""img/mask31.png""],[""img/mask29.png""],[""img/mask16.png""],[""img/mask71.png""],[""img/mask47.png""],[""img/mask45.png""],[""img/mask8.png""],[""img/mask90.png""],[""img/mask82.png""],[""img/mask76.png""],[""img/mask36.png""],[""img/mask75.png""],[""img/mask63.png""],[""img/mask55.png""],[""img/mask81.png""],[""img/mask27.png""],[""img/mask99.png""],[""img/mask62.png""],[""img/mask81.png""],[""img/mask90.png""],[""img/mask70.png""]]]","","[18,1,9,24,29,5,19,8,11,3,12,31,16,2,10,15,35,6,25,33,23,26,20,0,34,13,32,7,28,27,4,21,30,22,17,14]","main","91","many-guess-6"
"","","","","","html-keyboard-response","88","290935","0.0-10.0-1.34","5df2f36b617219204de98060","640759fa512f630a2bdc333d","6408c1811806d9b9e8039b03","null","","null","","","","","","","","","","","","","","","","","","","fixation","",""
"","","","","","many-guess-6","89","294640","0.0-10.0-0.35-0.35","5df2f36b617219204de98060","640759fa512f630a2bdc333d","6408c1811806d9b9e8039b03","[2060.3000000000466]","","","[32,6,17,12,35,30,10,11,31,8,7,3,33,29,2,23,25,16,19,26,5,22,15,24,9,28,0,21,27,18,1,20,14,4,34,13]","[85,245,235,334,294,165,344,75,155,314,115,135,125,15,45,5,265,225,145,205,255,284,65,55,25,175,105,354,304,195,324,274,95,185,215,35]","85","248","184.93416434056005","[184.93416434056005]","[296.9341643405601]","[296]","[300,30,120,210,30,120,210,30,120]","0","36","0","149.0339999999851","25.432000000029802","16","[[[""img/mask82.png""],[""img/mask20.png""],[""img/mask18.png""],[""img/mask93.png""],[""img/mask70.png""],[""img/mask90.png""],[""img/mask59.png""],[""img/mask28.png""],[""img/mask30.png""],[""img/mask60.png""],[""img/mask7.png""],[""img/mask56.png""],[""img/mask91.png""],[""img/mask48.png""],[""img/mask34.png""],[""img/mask44.png""],[""img/mask19.png""],[""img/mask10.png""],[""img/mask92.png""],[""img/mask55.png""],[""img/mask36.png""],[""img/mask46.png""],[""img/mask88.png""],[""img/mask34.png""],[""img/mask95.png""],[""img/mask16.png""],[""img/mask40.png""],[""img/mask16.png""],[""img/mask39.png""],[""img/mask94.png""],[""img/mask93.png""],[""img/mask55.png""],[""img/mask26.png""],[""img/mask48.png""],[""img/mask71.png""],[""img/mask20.png""]]]","","[32,6,17,12,35,30,10,11,31,8,7,3,33,29,2,23,25,16,19,26,5,22,15,24,9,28,0,21,27,18,1,20,14,4,34,13]","main","248","many-guess-6"
"","","","","","html-keyboard-response","90","295143","0.0-10.0-1.35","5df2f36b617219204de98060","640759fa512f630a2bdc333d","6408c1811806d9b9e8039b03","null","","null","","","","","","","","","","","","","","","","","","","fixation","",""
"","","","","","many-guess-6","91","298320","0.0-10.0-0.36-0.36","5df2f36b617219204de98060","640759fa512f630a2bdc333d","6408c1811806d9b9e8039b03","[1528]","","","[1,0,23,34,19,11,12,17,5,9,25,6,28,22,21,24,31,10,27,35,15,18,26,16,14,20,4,29,8,3,30,7,2,13,33,32]","[25,344,134,105,174,35,224,164,274,234,354,45,15,75,85,5,194,55,324,214,65,154,125,115,204,144,95,284,294,304,334,254,314,264,184,244]","25","295","52.76516601842534","[52.76516601842534]","[117.76516601842533]","[116]","[300,300,300,210,120,210,210,210,300]","0","36","0","149.35499999998137","27.99300000007497","16","[[[""img/mask86.png""],[""img/mask63.png""],[""img/mask40.png""],[""img/mask3.png""],[""img/mask79.png""],[""img/mask22.png""],[""img/mask33.png""],[""img/mask90.png""],[""img/mask51.png""],[""img/mask68.png""],[""img/mask40.png""],[""img/mask79.png""],[""img/mask28.png""],[""img/mask6.png""],[""img/mask50.png""],[""img/mask30.png""],[""img/mask61.png""],[""img/mask97.png""],[""img/mask99.png""],[""img/mask97.png""],[""img/mask73.png""],[""img/mask89.png""],[""img/mask88.png""],[""img/mask18.png""],[""img/mask26.png""],[""img/mask74.png""],[""img/mask79.png""],[""img/mask74.png""],[""img/mask75.png""],[""img/mask92.png""],[""img/mask98.png""],[""img/mask44.png""],[""img/mask46.png""],[""img/mask99.png""],[""img/mask7.png""],[""img/mask70.png""]]]","","[1,0,23,34,19,11,12,17,5,9,25,6,28,22,21,24,31,10,27,35,15,18,26,16,14,20,4,29,8,3,30,7,2,13,33,32]","main","295","many-guess-6"
"","","","","","html-keyboard-response","92","298823","0.0-10.0-1.36","5df2f36b617219204de98060","640759fa512f630a2bdc333d","6408c1811806d9b9e8039b03","null","","null","","","","","","","","","","","","","","","","","","","fixation","",""
"","","","","","color-precision2","93","301449","0.0-10.0-0.37-0.37","5df2f36b617219204de98060","640759fa512f630a2bdc333d","6408c1811806d9b9e8039b03","[292.5]","","","[35]","[26]","26","200","","[null]","[null]","[23]","0","0","1","0","147.86599999997998","998.7440000000643","1000","[[[""img/mask98.png""]]]","","","main","200","color-precision2"
"","","","","","html-keyboard-response","94","301951","0.0-10.0-1.37","5df2f36b617219204de98060","640759fa512f630a2bdc333d","6408c1811806d9b9e8039b03","null","","null","","","","","","","","","","","","","","","","","","","fixation","",""
"","","","","","color-precision2","95","304472","0.0-10.0-0.38-0.38","5df2f36b617219204de98060","640759fa512f630a2bdc333d","6408c1811806d9b9e8039b03","[223.9000000001397]","","","[15]","[219]","219","325","189.88922403772943","[189.88922403772943]","[224.88922403772943]","[224]","0","0","1","0","147.71400000009453","998.3049999999348","1000","[[[""img/mask64.png""]]]","","","main","325","color-precision2"
"","","","","","html-keyboard-response","96","304976","0.0-10.0-1.38","5df2f36b617219204de98060","640759fa512f630a2bdc333d","6408c1811806d9b9e8039b03","null","","null","","","","","","","","","","","","","","","","","","","fixation","",""
"","","","","","color-precision2","97","307944","0.0-10.0-0.39-0.39","5df2f36b617219204de98060","640759fa512f630a2bdc333d","6408c1811806d9b9e8039b03","[667.8999999999069]","","","[30]","[150]","150","307","86.7892117421175","[86.7892117421175]","[139.78921174211752]","[138]","0","0","1","0","146.1820000000298","998.454000000027","1000","[[[""img/mask32.png""]]]","","","main","307","color-precision2"
"","","","","","html-keyboard-response","98","309920","0.0-10.0-1.39","5df2f36b617219204de98060","640759fa512f630a2bdc333d","6408c1811806d9b9e8039b03","1973.8999999999069","Wow! You've completed 40 out of 180 trials! </p> <p>  </p><p> Take a quick break, then press any key when you're ready to continue."," ","","","","","","","","","","","","","","","","","","","fixation","",""
"","","","","","color-precision2","99","313040","0.0-10.0-0.40-0.40","5df2f36b617219204de98060","640759fa512f630a2bdc333d","6408c1811806d9b9e8039b03","[281.19999999995343]","","","[17]","[65]","65","156","227.0771747651628","[227.0771747651628]","[71.0771747651628]","[71]","0","0","1","0","147.6700000000419","998.4440000000759","1000","[[[""img/mask23.png""]]]","","","main","156","color-precision2"
"","","","","","html-keyboard-response","100","313543","0.0-10.0-1.40","5df2f36b617219204de98060","640759fa512f630a2bdc333d","6408c1811806d9b9e8039b03","null","","null","","","","","","","","","","","","","","","","","","","fixation","",""
"","","","","","many-guess-6","101","316240","0.0-10.0-0.41-0.41","5df2f36b617219204de98060","640759fa512f630a2bdc333d","6408c1811806d9b9e8039b03","[1172.6000000000931]","","","[20,27,26,16,10,12,8,6,25,29,21,17,2,0,35,30,13,19,5,7,32,34,15,9,23,22,28,31,24,4,18,14,1,33,11,3]","[240,300,250,280,330,220,110,320,200,60,70,180,160,120,150,11,130,21,350,230,1,260,140,270,310,100,340,80,190,31,50,90,210,290,41,170]","240","40","146.76047977580444","[146.76047977580444]","[106.76047977580444]","[106]","[210,300,30,300,120,30,30,120,30]","0","36","0","149.30600000009872","28.30100000015227","16","[[[""img/mask25.png""],[""img/mask34.png""],[""img/mask36.png""],[""img/mask57.png""],[""img/mask64.png""],[""img/mask98.png""],[""img/mask18.png""],[""img/mask3.png""],[""img/mask50.png""],[""img/mask17.png""],[""img/mask22.png""],[""img/mask17.png""],[""img/mask48.png""],[""img/mask83.png""],[""img/mask19.png""],[""img/mask39.png""],[""img/mask7.png""],[""img/mask97.png""],[""img/mask45.png""],[""img/mask6.png""],[""img/mask64.png""],[""img/mask70.png""],[""img/mask90.png""],[""img/mask29.png""],[""img/mask93.png""],[""img/mask92.png""],[""img/mask82.png""],[""img/mask90.png""],[""img/mask39.png""],[""img/mask1.png""],[""img/mask44.png""],[""img/mask63.png""],[""img/mask90.png""],[""img/mask87.png""],[""img/mask5.png""],[""img/mask41.png""]]]","","[20,27,26,16,10,12,8,6,25,29,21,17,2,0,35,30,13,19,5,7,32,34,15,9,23,22,28,31,24,4,18,14,1,33,11,3]","main","40","many-guess-6"
"","","","","","html-keyboard-response","102","316751","0.0-10.0-1.41","5df2f36b617219204de98060","640759fa512f630a2bdc333d","6408c1811806d9b9e8039b03","null","","null","","","","","","","","","","","","","","","","","","","fixation","",""
"","","","","","many-guess-6","103","319152","0.0-10.0-0.42-0.42","5df2f36b617219204de98060","640759fa512f630a2bdc333d","6408c1811806d9b9e8039b03","[1074.3000000000466]","","","[24,12,19,22,7,27,4,17,25,14,34,35,15,33,23,26,2,28,8,32,30,21,1,18,3,16,11,10,31,5,6,13,20,0,29,9]","[183,193,323,353,14,303,54,263,83,113,213,34,123,333,74,273,103,44,64,24,313,163,4,233,143,223,293,153,253,203,133,173,243,283,93,343]","183","349","42.9156316620983","[42.9156316620983]","[53.91563166209829]","[52]","[30,120,300,30,210,120,30,300,30]","0","36","0","155.25300000008428","13.932000000146218","16","[[[""img/mask91.png""],[""img/mask44.png""],[""img/mask25.png""],[""img/mask6.png""],[""img/mask5.png""],[""img/mask81.png""],[""img/mask35.png""],[""img/mask85.png""],[""img/mask61.png""],[""img/mask92.png""],[""img/mask22.png""],[""img/mask92.png""],[""img/mask57.png""],[""img/mask26.png""],[""img/mask70.png""],[""img/mask25.png""],[""img/mask96.png""],[""img/mask94.png""],[""img/mask84.png""],[""img/mask98.png""],[""img/mask1.png""],[""img/mask85.png""],[""img/mask92.png""],[""img/mask49.png""],[""img/mask6.png""],[""img/mask54.png""],[""img/mask1.png""],[""img/mask1.png""],[""img/mask33.png""],[""img/mask7.png""],[""img/mask76.png""],[""img/mask45.png""],[""img/mask72.png""],[""img/mask2.png""],[""img/mask37.png""],[""img/mask95.png""]]]","","[24,12,19,22,7,27,4,17,25,14,34,35,15,33,23,26,2,28,8,32,30,21,1,18,3,16,11,10,31,5,6,13,20,0,29,9]","main","349","many-guess-6"
"","","","","","html-keyboard-response","104","319655","0.0-10.0-1.42","5df2f36b617219204de98060","640759fa512f630a2bdc333d","6408c1811806d9b9e8039b03","null","","null","","","","","","","","","","","","","","","","","","","fixation","",""
"","","","","","many-guess-6","105","322400","0.0-10.0-0.43-0.43","5df2f36b617219204de98060","640759fa512f630a2bdc333d","6408c1811806d9b9e8039b03","[1331.2000000001863]","","","[1,31,18,10,9,28,22,32,26,0,27,6,15,16,5,11,17,7,30,2,21,29,25,35,20,3,33,14,8,13,24,23,4,19,12,34]","[80,50,170,190,320,350,290,90,200,300,110,280,60,150,70,11,210,100,230,270,260,120,140,41,130,340,220,330,21,240,160,1,310,180,250,31]","80","284","331.0963544916496","[331.0963544916496]","[47.096354491649606]","[47]","[300,30,210,30,30,300,120,120,210]","0","36","0","148.91399999993155","28.862000000022817","16","[[[""img/mask93.png""],[""img/mask65.png""],[""img/mask43.png""],[""img/mask91.png""],[""img/mask63.png""],[""img/mask6.png""],[""img/mask35.png""],[""img/mask11.png""],[""img/mask75.png""],[""img/mask59.png""],[""img/mask18.png""],[""img/mask10.png""],[""img/mask33.png""],[""img/mask80.png""],[""img/mask73.png""],[""img/mask57.png""],[""img/mask63.png""],[""img/mask43.png""],[""img/mask36.png""],[""img/mask81.png""],[""img/mask53.png""],[""img/mask29.png""],[""img/mask49.png""],[""img/mask46.png""],[""img/mask10.png""],[""img/mask65.png""],[""img/mask74.png""],[""img/mask97.png""],[""img/mask18.png""],[""img/mask33.png""],[""img/mask49.png""],[""img/mask98.png""],[""img/mask28.png""],[""img/mask69.png""],[""img/mask7.png""],[""img/mask85.png""]]]","","[1,31,18,10,9,28,22,32,26,0,27,6,15,16,5,11,17,7,30,2,21,29,25,35,20,3,33,14,8,13,24,23,4,19,12,34]","main","284","many-guess-6"
"","","","","","html-keyboard-response","106","322903","0.0-10.0-1.43","5df2f36b617219204de98060","640759fa512f630a2bdc333d","6408c1811806d9b9e8039b03","null","","null","","","","","","","","","","","","","","","","","","","fixation","",""
"","","","","","color-precision2","107","325760","0.0-10.0-0.44-0.44","5df2f36b617219204de98060","640759fa512f630a2bdc333d","6408c1811806d9b9e8039b03","[378.0999999998603]","","","[1]","[43]","43","90","138.97249594075066","[138.97249594075066]","[48.97249594075066]","[48]","0","0","1","0","146.43500000005588","998.9340000000084","1000","[[[""img/mask25.png""]]]","","","main","90","color-precision2"
"","","","","","html-keyboard-response","108","326263","0.0-10.0-1.44","5df2f36b617219204de98060","640759fa512f630a2bdc333d","6408c1811806d9b9e8039b03","null","","null","","","","","","","","","","","","","","","","","","","fixation","",""
"","","","","","color-precision2","109","329215","0.0-10.0-0.45-0.45","5df2f36b617219204de98060","640759fa512f630a2bdc333d","6408c1811806d9b9e8039b03","[557.6000000000931]","","","[10]","[100]","100","278","13.89717631501536","[13.89717631501536]","[95.89717631501537]","[95]","0","0","1","0","147.74200000002747","1002.8250000001281","1000","[[[""img/mask79.png""]]]","","","main","278","color-precision2"
"","","","","","html-keyboard-response","110","329720","0.0-10.0-1.45","5df2f36b617219204de98060","640759fa512f630a2bdc333d","6408c1811806d9b9e8039b03","null","","null","","","","","","","","","","","","","","","","","","","fixation","",""
"","","","","","color-precision2","111","333351","0.0-10.0-0.46-0.46","5df2f36b617219204de98060","640759fa512f630a2bdc333d","6408c1811806d9b9e8039b03","[847.1000000000931]","","","[34]","[281]","281","145","59.83499219425874","[59.83499219425874]","[274.83499219425875]","[273]","0","0","1","0","148.24599999998463","998.5280000000494","1000","[[[""img/mask88.png""]]]","","","main","145","color-precision2"
"","","","","","html-keyboard-response","112","333855","0.0-10.0-1.46","5df2f36b617219204de98060","640759fa512f630a2bdc333d","6408c1811806d9b9e8039b03","null","","null","","","","","","","","","","","","","","","","","","","fixation","",""
"","","","","","many-guess-6","113","336744","0.0-10.0-0.47-0.47","5df2f36b617219204de98060","640759fa512f630a2bdc333d","6408c1811806d9b9e8039b03","[1346.4000000001397]","","","[6,27,31,12,22,5,13,18,24,20,1,3,19,33,25,11,28,7,21,4,8,2,35,17,9,32,30,15,0,29,14,16,23,10,26,34]","[201,301,251,71,91,311,22,121,331,81,321,231,351,61,2,341,41,141,291,51,111,261,181,131,221,211,151,241,161,101,191,171,271,281,12,32]","201","277","201.415498531569","[201.415498531569]","[284.415498531569]","[284]","[120,210,300,300,30,30,30,210,30]","0","36","0","149.0360000000801","28.705000000132713","16","[[[""img/mask46.png""],[""img/mask18.png""],[""img/mask67.png""],[""img/mask3.png""],[""img/mask53.png""],[""img/mask77.png""],[""img/mask1.png""],[""img/mask75.png""],[""img/mask67.png""],[""img/mask71.png""],[""img/mask78.png""],[""img/mask2.png""],[""img/mask59.png""],[""img/mask79.png""],[""img/mask98.png""],[""img/mask87.png""],[""img/mask35.png""],[""img/mask20.png""],[""img/mask14.png""],[""img/mask20.png""],[""img/mask41.png""],[""img/mask70.png""],[""img/mask96.png""],[""img/mask92.png""],[""img/mask86.png""],[""img/mask84.png""],[""img/mask35.png""],[""img/mask65.png""],[""img/mask77.png""],[""img/mask37.png""],[""img/mask89.png""],[""img/mask27.png""],[""img/mask5.png""],[""img/mask74.png""],[""img/mask19.png""],[""img/mask64.png""]]]","","[6,27,31,12,22,5,13,18,24,20,1,3,19,33,25,11,28,7,21,4,8,2,35,17,9,32,30,15,0,29,14,16,23,10,26,34]","main","277","many-guess-6"
"","","","","","html-keyboard-response","114","337247","0.0-10.0-1.47","5df2f36b617219204de98060","640759fa512f630a2bdc333d","6408c1811806d9b9e8039b03","null","","null","","","","","","","","","","","","","","","","","","","fixation","",""
"","","","","","color-precision2","115","340373","0.0-10.0-0.48-0.48","5df2f36b617219204de98060","640759fa512f630a2bdc333d","6408c1811806d9b9e8039b03","[265.0999999998603]","","","[22]","[159]","159","183","335.0349735380697","[335.0349735380697]","[152.03497353806972]","[152]","0","0","1","0","146.56100000010338","995.5380000001169","1000","[[[""img/mask34.png""]]]","","","main","183","color-precision2"
"","","","","","html-keyboard-response","116","340890","0.0-10.0-1.48","5df2f36b617219204de98060","640759fa512f630a2bdc333d","6408c1811806d9b9e8039b03","null","","null","","","","","","","","","","","","","","","","","","","fixation","",""
"","","","","","color-precision2","117","343397","0.0-10.0-0.49-0.49","5df2f36b617219204de98060","640759fa512f630a2bdc333d","6408c1811806d9b9e8039b03","[127.9000000001397]","","","[15]","[27]","27","193","214.878765197787","[214.878765197787]","[21.878765197787004]","[21]","0","0","1","0","147.6370000001043","998.4400000000605","1000","[[[""img/mask14.png""]]]","","","main","193","color-precision2"
"","","","","","html-keyboard-response","118","343899","0.0-10.0-1.49","5df2f36b617219204de98060","640759fa512f630a2bdc333d","6408c1811806d9b9e8039b03","null","","null","","","","","","","","","","","","","","","","","","","fixation","",""
"","","","","","color-precision2","119","347037","0.0-10.0-0.50-0.50","5df2f36b617219204de98060","640759fa512f630a2bdc333d","6408c1811806d9b9e8039b03","[809.0999999998603]","","","[12]","[92]","92","356","81.51719210414106","[81.51719210414106]","[85.51719210414103]","[84]","0","0","1","0","149.63799999997718","997.3530000000028","1000","[[[""img/mask1.png""]]]","","","main","356","color-precision2"
"","","","","","html-keyboard-response","120","347541","0.0-10.0-1.50","5df2f36b617219204de98060","640759fa512f630a2bdc333d","6408c1811806d9b9e8039b03","null","","null","","","","","","","","","","","","","","","","","","","fixation","",""
"","","","","","color-precision2","121","350749","0.0-10.0-0.51-0.51","5df2f36b617219204de98060","640759fa512f630a2bdc333d","6408c1811806d9b9e8039b03","[726.6999999999534]","","","[31]","[215]","215","138","346.03221023846726","[346.03221023846726]","[208.03221023846726]","[207]","0","0","1","0","147.03800000005867","998.5190000000293","1000","[[[""img/mask44.png""]]]","","","main","138","color-precision2"
"","","","","","html-keyboard-response","122","351255","0.0-10.0-1.51","5df2f36b617219204de98060","640759fa512f630a2bdc333d","6408c1811806d9b9e8039b03","null","","null","","","","","","","","","","","","","","","","","","","fixation","",""
"","","","","","color-precision2","123","354149","0.0-10.0-0.52-0.52","5df2f36b617219204de98060","640759fa512f630a2bdc333d","6408c1811806d9b9e8039b03","[565]","","","[31]","[293]","293","121","48.88020566770486","[48.88020566770486]","[287.88020566770484]","[286]","0","0","1","0","146.7290000001085","998.471000000136","1000","[[[""img/mask13.png""]]]","","","main","121","color-precision2"
"","","","","","html-keyboard-response","124","354653","0.0-10.0-1.52","5df2f36b617219204de98060","640759fa512f630a2bdc333d","6408c1811806d9b9e8039b03","null","","null","","","","","","","","","","","","","","","","","","","fixation","",""
"","","","","","many-guess-6","125","357229","0.0-10.0-0.53-0.53","5df2f36b617219204de98060","640759fa512f630a2bdc333d","6408c1811806d9b9e8039b03","[1303]","","","[27,26,6,28,8,18,9,22,35,20,14,21,34,3,23,11,30,10,5,13,1,16,12,29,31,33,24,7,2,4,0,17,15,32,25,19]","[292,42,12,222,182,2,212,112,142,122,52,262,102,342,232,252,192,82,332,172,32,242,322,312,132,282,62,22,352,152,272,202,72,92,162,302]","292","115","148.75698111634384","[148.75698111634384]","[33.75698111634384]","[32]","[210,210,300,30,300,300,210,30,300]","0","36","0","148.910000000149","19.958999999973457","16","[[[""img/mask77.png""],[""img/mask7.png""],[""img/mask55.png""],[""img/mask87.png""],[""img/mask10.png""],[""img/mask1.png""],[""img/mask47.png""],[""img/mask40.png""],[""img/mask70.png""],[""img/mask67.png""],[""img/mask82.png""],[""img/mask80.png""],[""img/mask20.png""],[""img/mask61.png""],[""img/mask91.png""],[""img/mask48.png""],[""img/mask41.png""],[""img/mask30.png""],[""img/mask31.png""],[""img/mask59.png""],[""img/mask5.png""],[""img/mask82.png""],[""img/mask51.png""],[""img/mask28.png""],[""img/mask49.png""],[""img/mask90.png""],[""img/mask45.png""],[""img/mask18.png""],[""img/mask30.png""],[""img/mask79.png""],[""img/mask67.png""],[""img/mask24.png""],[""img/mask91.png""],[""img/mask32.png""],[""img/mask47.png""],[""img/mask47.png""]]]","","[27,26,6,28,8,18,9,22,35,20,14,21,34,3,23,11,30,10,5,13,1,16,12,29,31,33,24,7,2,4,0,17,15,32,25,19]","main","115","many-guess-6"
"","","","","","html-keyboard-response","126","357733","0.0-10.0-1.53","5df2f36b617219204de98060","640759fa512f630a2bdc333d","6408c1811806d9b9e8039b03","null","","null","","","","","","","","","","","","","","","","","","","fixation","",""
"","","","","","color-precision2","127","360795","0.0-10.0-0.54-0.54","5df2f36b617219204de98060","640759fa512f630a2bdc333d","6408c1811806d9b9e8039b03","[826.3000000000466]","","","[26]","[149]","149","345","122.0786889248824","[122.0786889248824]","[137.07868892488239]","[135]","0","0","1","0","147.84499999997206","997.2440000000643","1000","[[[""img/mask76.png""]]]","","","main","345","color-precision2"
"","","","","","html-keyboard-response","128","361301","0.0-10.0-1.54","5df2f36b617219204de98060","640759fa512f630a2bdc333d","6408c1811806d9b9e8039b03","null","","null","","","","","","","","","","","","","","","","","","","fixation","",""
"","","","","","color-precision2","129","364757","0.0-10.0-0.55-0.55","5df2f36b617219204de98060","640759fa512f630a2bdc333d","6408c1811806d9b9e8039b03","[1090.7000000001863]","","","[3]","[39]","39","288","313.47383051044363","[313.47383051044363]","[25.473830510443634]","[26]","0","0","1","0","148.56100000004517","997.7690000000293","1000","[[[""img/mask31.png""]]]","","","main","288","color-precision2"
"","","","","","html-keyboard-response","130","365261","0.0-10.0-1.55","5df2f36b617219204de98060","640759fa512f630a2bdc333d","6408c1811806d9b9e8039b03","null","","null","","","","","","","","","","","","","","","","","","","fixation","",""
"","","","","","color-precision2","131","368765","0.0-10.0-0.56-0.56","5df2f36b617219204de98060","640759fa512f630a2bdc333d","6408c1811806d9b9e8039b03","[1036.3000000000466]","","","[5]","[179]","179","20","181.9274958866719","[181.9274958866719]","[161.9274958866719]","[161]","0","0","1","0","147.28700000006938","993.5140000000247","1000","[[[""img/mask56.png""]]]","","","main","20","color-precision2"
"","","","","","html-keyboard-response","132","369269","0.0-10.0-1.56","5df2f36b617219204de98060","640759fa512f630a2bdc333d","6408c1811806d9b9e8039b03","null","","null","","","","","","","","","","","","","","","","","","","fixation","",""
"","","","","","color-precision2","133","373404","0.0-10.0-0.57-0.57","5df2f36b617219204de98060","640759fa512f630a2bdc333d","6408c1811806d9b9e8039b03","[1178.5]","","","[27]","[95]","95","92","198.47812573977757","[198.47812573977757]","[106.47812573977757]","[106]","0","0","1","0","148.5020000001532","997.5680000001448","1000","[[[""img/mask42.png""]]]","","","main","92","color-precision2"
"","","","","","html-keyboard-response","134","373909","0.0-10.0-1.57","5df2f36b617219204de98060","640759fa512f630a2bdc333d","6408c1811806d9b9e8039b03","null","","null","","","","","","","","","","","","","","","","","","","fixation","",""
"","","","","","color-precision2","135","377277","0.0-10.0-0.58-0.58","5df2f36b617219204de98060","640759fa512f630a2bdc333d","6408c1811806d9b9e8039b03","[570.8000000000466]","","","[25]","[35]","35","330","4.646830885158309","[4.646830885158309]","[34.646830885158295]","[35]","0","0","1","0","147.0679999999702","997.6620000000112","1000","[[[""img/mask43.png""]]]","","","main","330","color-precision2"
"","","","","","html-keyboard-response","136","377780","0.0-10.0-1.58","5df2f36b617219204de98060","640759fa512f630a2bdc333d","6408c1811806d9b9e8039b03","null","","null","","","","","","","","","","","","","","","","","","","fixation","",""
"","","","","","color-precision2","137","380766","0.0-10.0-0.59-0.59","5df2f36b617219204de98060","640759fa512f630a2bdc333d","6408c1811806d9b9e8039b03","[632.8999999999069]","","","[11]","[230]","230","310","191.39014116569294","[191.39014116569294]","[241.39014116569294]","[241]","0","0","1","0","147.545999999973","998.3470000001253","1000","[[[""img/mask81.png""]]]","","","main","310","color-precision2"
"","","","","","html-keyboard-response","138","383213","0.0-10.0-1.59","5df2f36b617219204de98060","640759fa512f630a2bdc333d","6408c1811806d9b9e8039b03","2444","Wow! You've completed 60 out of 180 trials! </p> <p>  </p><p> Take a quick break, then press any key when you're ready to continue."," ","","","","","","","","","","","","","","","","","","","fixation","",""
"","","","","","color-precision2","139","386548","0.0-10.0-0.60-0.60","5df2f36b617219204de98060","640759fa512f630a2bdc333d","6408c1811806d9b9e8039b03","[345.4000000001397]","","","[33]","[16]","16","329","344.82007256547377","[344.82007256547377]","[15.820072565473765]","[16]","0","0","1","0","148.1809999999823","998.1900000001187","1000","[[[""img/mask76.png""]]]","","","main","329","color-precision2"
"","","","","","html-keyboard-response","140","387053","0.0-10.0-1.60","5df2f36b617219204de98060","640759fa512f630a2bdc333d","6408c1811806d9b9e8039b03","null","","null","","","","","","","","","","","","","","","","","","","fixation","",""
"","","","","","many-guess-6","141","389548","0.0-10.0-0.61-0.61","5df2f36b617219204de98060","640759fa512f630a2bdc333d","6408c1811806d9b9e8039b03","[1204]","","","[2,15,18,14,31,3,28,6,1,35,12,20,13,22,33,23,25,26,5,8,30,9,29,0,17,32,34,10,4,11,21,24,27,19,16,7]","[352,292,3,93,302,332,272,172,182,63,212,202,192,133,103,152,143,123,43,342,73,33,312,53,262,252,322,282,13,83,222,113,242,232,23,162]","352","130","79.36347069119678","[79.36347069119678]","[309.36347069119677]","[308]","[120,120,300,300,300,300,210,210,210]","0","36","0","149.5900000000256","25.01699999993434","16","[[[""img/mask9.png""],[""img/mask40.png""],[""img/mask98.png""],[""img/mask82.png""],[""img/mask26.png""],[""img/mask95.png""],[""img/mask68.png""],[""img/mask22.png""],[""img/mask52.png""],[""img/mask24.png""],[""img/mask73.png""],[""img/mask98.png""],[""img/mask36.png""],[""img/mask24.png""],[""img/mask95.png""],[""img/mask43.png""],[""img/mask20.png""],[""img/mask17.png""],[""img/mask7.png""],[""img/mask19.png""],[""img/mask36.png""],[""img/mask15.png""],[""img/mask99.png""],[""img/mask53.png""],[""img/mask40.png""],[""img/mask91.png""],[""img/mask100.png""],[""img/mask53.png""],[""img/mask30.png""],[""img/mask20.png""],[""img/mask92.png""],[""img/mask85.png""],[""img/mask17.png""],[""img/mask1.png""],[""img/mask83.png""],[""img/mask71.png""]]]","","[2,15,18,14,31,3,28,6,1,35,12,20,13,22,33,23,25,26,5,8,30,9,29,0,17,32,34,10,4,11,21,24,27,19,16,7]","main","130","many-guess-6"
"","","","","","html-keyboard-response","142","390053","0.0-10.0-1.61","5df2f36b617219204de98060","640759fa512f630a2bdc333d","6408c1811806d9b9e8039b03","null","","null","","","","","","","","","","","","","","","","","","","fixation","",""
"","","","","","color-precision2","143","393748","0.0-10.0-0.62-0.62","5df2f36b617219204de98060","640759fa512f630a2bdc333d","6408c1811806d9b9e8039b03","[606.8000000000466]","","","[5]","[107]","107","281","24.279514700308876","[24.279514700308876]","[103.27951470030888]","[102]","0","0","1","0","148.2829999999958","998.3670000000275","1000","[[[""img/mask68.png""]]]","","","main","281","color-precision2"
"","","","","","html-keyboard-response","144","394253","0.0-10.0-1.62","5df2f36b617219204de98060","640759fa512f630a2bdc333d","6408c1811806d9b9e8039b03","null","","null","","","","","","","","","","","","","","","","","","","fixation","",""
"","","","","","color-precision2","145","397132","0.0-10.0-0.63-0.63","5df2f36b617219204de98060","640759fa512f630a2bdc333d","6408c1811806d9b9e8039b03","[480.5]","","","[11]","[25]","25","31","48.190886812029774","[48.190886812029774]","[17.190886812029774]","[15]","0","0","1","0","146.18100000015693","996.9720000001253","1000","[[[""img/mask15.png""]]]","","","main","31","color-precision2"
"","","","","","html-keyboard-response","146","397637","0.0-10.0-1.63","5df2f36b617219204de98060","640759fa512f630a2bdc333d","6408c1811806d9b9e8039b03","null","","null","","","","","","","","","","","","","","","","","","","fixation","",""
"","","","","","many-guess-6","147","400501","0.0-10.0-0.64-0.64","5df2f36b617219204de98060","640759fa512f630a2bdc333d","6408c1811806d9b9e8039b03","[1338.8999999999069]","","","[4,22,28,12,35,24,2,11,3,31,14,21,25,6,19,15,1,13,32,23,16,30,8,26,9,17,29,27,10,5,0,34,33,7,18,20]","[152,262,232,222,112,82,62,322,242,252,102,12,42,122,272,2,342,72,162,172,302,22,52,142,92,292,192,212,352,182,132,312,332,32,282,202]","152","4","160.56757215259606","[160.56757215259606]","[156.56757215259606]","[155]","[120,300,210,300,210,210,120,210,30]","0","36","0","148.49900000012713","25.403000000107568","16","[[[""img/mask20.png""],[""img/mask13.png""],[""img/mask90.png""],[""img/mask42.png""],[""img/mask31.png""],[""img/mask90.png""],[""img/mask74.png""],[""img/mask67.png""],[""img/mask98.png""],[""img/mask83.png""],[""img/mask55.png""],[""img/mask17.png""],[""img/mask78.png""],[""img/mask55.png""],[""img/mask56.png""],[""img/mask87.png""],[""img/mask37.png""],[""img/mask57.png""],[""img/mask3.png""],[""img/mask39.png""],[""img/mask49.png""],[""img/mask1.png""],[""img/mask37.png""],[""img/mask28.png""],[""img/mask21.png""],[""img/mask19.png""],[""img/mask70.png""],[""img/mask95.png""],[""img/mask82.png""],[""img/mask19.png""],[""img/mask51.png""],[""img/mask67.png""],[""img/mask66.png""],[""img/mask99.png""],[""img/mask68.png""],[""img/mask8.png""]]]","","[4,22,28,12,35,24,2,11,3,31,14,21,25,6,19,15,1,13,32,23,16,30,8,26,9,17,29,27,10,5,0,34,33,7,18,20]","main","4","many-guess-6"
"","","","","","html-keyboard-response","148","401006","0.0-10.0-1.64","5df2f36b617219204de98060","640759fa512f630a2bdc333d","6408c1811806d9b9e8039b03","null","","null","","","","","","","","","","","","","","","","","","","fixation","",""
"","","","","","many-guess-6","149","403685","0.0-10.0-0.65-0.65","5df2f36b617219204de98060","640759fa512f630a2bdc333d","6408c1811806d9b9e8039b03","[1247.8000000000466]","","","[26,32,18,2,7,13,27,35,0,33,20,24,1,10,25,9,21,22,19,3,5,16,15,34,23,8,17,4,29,11,31,28,6,14,12,30]","[315,205,146,16,185,285,345,255,305,126,106,36,156,335,136,26,265,56,96,215,116,245,355,295,235,275,225,195,76,325,166,46,175,66,6,86]","315","49","296.3732133464675","[296.3732133464675]","[247.37321334646748]","[248]","[120,210,300,120,30,210,300,210,120]","0","36","0","149.16699999995762","27.966999999945983","16","[[[""img/mask80.png""],[""img/mask37.png""],[""img/mask56.png""],[""img/mask52.png""],[""img/mask45.png""],[""img/mask70.png""],[""img/mask79.png""],[""img/mask56.png""],[""img/mask52.png""],[""img/mask27.png""],[""img/mask47.png""],[""img/mask56.png""],[""img/mask94.png""],[""img/mask20.png""],[""img/mask41.png""],[""img/mask43.png""],[""img/mask86.png""],[""img/mask38.png""],[""img/mask36.png""],[""img/mask14.png""],[""img/mask67.png""],[""img/mask53.png""],[""img/mask4.png""],[""img/mask38.png""],[""img/mask66.png""],[""img/mask42.png""],[""img/mask65.png""],[""img/mask92.png""],[""img/mask40.png""],[""img/mask72.png""],[""img/mask74.png""],[""img/mask95.png""],[""img/mask60.png""],[""img/mask63.png""],[""img/mask30.png""],[""img/mask23.png""]]]","","[26,32,18,2,7,13,27,35,0,33,20,24,1,10,25,9,21,22,19,3,5,16,15,34,23,8,17,4,29,11,31,28,6,14,12,30]","main","49","many-guess-6"
"","","","","","html-keyboard-response","150","404187","0.0-10.0-1.65","5df2f36b617219204de98060","640759fa512f630a2bdc333d","6408c1811806d9b9e8039b03","null","","null","","","","","","","","","","","","","","","","","","","fixation","",""
"","","","","","color-precision2","151","407413","0.0-10.0-0.66-0.66","5df2f36b617219204de98060","640759fa512f630a2bdc333d","6408c1811806d9b9e8039b03","[613.0999999998603]","","","[16]","[67]","67","217","283.4516129472213","[283.4516129472213]","[66.45161294722129]","[67]","0","0","1","0","147.78599999996368","1004.6629999999423","1000","[[[""img/mask1.png""]]]","","","main","217","color-precision2"
"","","","","","html-keyboard-response","152","407916","0.0-10.0-1.66","5df2f36b617219204de98060","640759fa512f630a2bdc333d","6408c1811806d9b9e8039b03","null","","null","","","","","","","","","","","","","","","","","","","fixation","",""
"","","","","","color-precision2","153","411172","0.0-10.0-0.67-0.67","5df2f36b617219204de98060","640759fa512f630a2bdc333d","6408c1811806d9b9e8039b03","[342.5999999998603]","","","[2]","[296]","296","98","24.408753609637817","[24.408753609637817]","[286.4087536096378]","[285]","0","0","1","0","147.75700000015786","999.6509999999544","1000","[[[""img/mask34.png""]]]","","","main","98","color-precision2"
"","","","","","html-keyboard-response","154","411678","0.0-10.0-1.67","5df2f36b617219204de98060","640759fa512f630a2bdc333d","6408c1811806d9b9e8039b03","null","","null","","","","","","","","","","","","","","","","","","","fixation","",""
"","","","","","color-precision2","155","414852","0.0-10.0-0.68-0.68","5df2f36b617219204de98060","640759fa512f630a2bdc333d","6408c1811806d9b9e8039b03","[813.4000000001397]","","","[3]","[195]","195","262","84.44506307986454","[84.44506307986454]","[182.44506307986455]","[181]","0","0","1","0","146.5700000001234","998.7399999999325","1000","[[[""img/mask64.png""]]]","","","main","262","color-precision2"
"","","","","","html-keyboard-response","156","415356","0.0-10.0-1.68","5df2f36b617219204de98060","640759fa512f630a2bdc333d","6408c1811806d9b9e8039b03","null","","null","","","","","","","","","","","","","","","","","","","fixation","",""
"","","","","","many-guess-6","157","418509","0.0-10.0-0.69-0.69","5df2f36b617219204de98060","640759fa512f630a2bdc333d","6408c1811806d9b9e8039b03","[1539.5000000002328]","","","[7,6,3,19,29,33,10,24,9,20,30,22,16,28,31,0,5,13,11,21,12,27,26,2,8,17,1,34,15,23,25,14,35,4,32,18]","[45,304,174,104,184,344,234,25,134,94,334,164,204,154,144,64,55,84,224,274,214,5,194,254,354,264,114,124,314,35,294,74,15,324,284,244]","45","301","137.13546344237665","[137.13546344237665]","[196.13546344237665]","[194]","[210,120,210,300,210,300,300,300,210]","0","36","0","149.26199999992969","18.621000000159256","16","[[[""img/mask17.png""],[""img/mask1.png""],[""img/mask2.png""],[""img/mask49.png""],[""img/mask9.png""],[""img/mask11.png""],[""img/mask28.png""],[""img/mask13.png""],[""img/mask6.png""],[""img/mask61.png""],[""img/mask22.png""],[""img/mask84.png""],[""img/mask30.png""],[""img/mask97.png""],[""img/mask69.png""],[""img/mask46.png""],[""img/mask70.png""],[""img/mask70.png""],[""img/mask80.png""],[""img/mask72.png""],[""img/mask66.png""],[""img/mask83.png""],[""img/mask48.png""],[""img/mask20.png""],[""img/mask70.png""],[""img/mask76.png""],[""img/mask24.png""],[""img/mask55.png""],[""img/mask86.png""],[""img/mask100.png""],[""img/mask85.png""],[""img/mask8.png""],[""img/mask24.png""],[""img/mask11.png""],[""img/mask7.png""],[""img/mask56.png""]]]","","[7,6,3,19,29,33,10,24,9,20,30,22,16,28,31,0,5,13,11,21,12,27,26,2,8,17,1,34,15,23,25,14,35,4,32,18]","main","301","many-guess-6"
"","","","","","html-keyboard-response","158","419015","0.0-10.0-1.69","5df2f36b617219204de98060","640759fa512f630a2bdc333d","6408c1811806d9b9e8039b03","null","","null","","","","","","","","","","","","","","","","","","","fixation","",""
"","","","","","many-guess-6","159","421684","0.0-10.0-0.70-0.70","5df2f36b617219204de98060","640759fa512f630a2bdc333d","6408c1811806d9b9e8039b03","[1239.3000000002794]","","","[31,19,13,22,12,27,25,24,28,14,26,9,3,2,30,35,21,15,32,0,17,6,29,33,18,8,11,23,1,34,10,4,5,7,16,20]","[25,145,275,75,5,195,15,125,335,115,135,185,305,354,35,205,295,155,95,215,345,55,225,255,85,65,265,285,315,175,325,165,245,105,235,45]","25","294","220.70371293647872","[220.70371293647872]","[286.7037129364787]","[287]","[120,30,210,210,300,300,30,210,210]","0","36","0","149.41600000014296","27.8629999999539","16","[[[""img/mask43.png""],[""img/mask90.png""],[""img/mask68.png""],[""img/mask52.png""],[""img/mask99.png""],[""img/mask31.png""],[""img/mask30.png""],[""img/mask3.png""],[""img/mask77.png""],[""img/mask19.png""],[""img/mask8.png""],[""img/mask76.png""],[""img/mask78.png""],[""img/mask45.png""],[""img/mask85.png""],[""img/mask29.png""],[""img/mask4.png""],[""img/mask76.png""],[""img/mask45.png""],[""img/mask86.png""],[""img/mask30.png""],[""img/mask32.png""],[""img/mask1.png""],[""img/mask56.png""],[""img/mask83.png""],[""img/mask12.png""],[""img/mask25.png""],[""img/mask44.png""],[""img/mask55.png""],[""img/mask57.png""],[""img/mask75.png""],[""img/mask98.png""],[""img/mask49.png""],[""img/mask39.png""],[""img/mask70.png""],[""img/mask9.png""]]]","","[31,19,13,22,12,27,25,24,28,14,26,9,3,2,30,35,21,15,32,0,17,6,29,33,18,8,11,23,1,34,10,4,5,7,16,20]","main","294","many-guess-6"
"","","","","","html-keyboard-response","160","422189","0.0-10.0-1.70","5df2f36b617219204de98060","640759fa512f630a2bdc333d","6408c1811806d9b9e8039b03","null","","null","","","","","","","","","","","","","","","","","","","fixation","",""
"","","","","","many-guess-6","161","425021","0.0-10.0-0.71-0.71","5df2f36b617219204de98060","640759fa512f630a2bdc333d","6408c1811806d9b9e8039b03","[1351.1000000000931]","","","[2,29,19,30,5,33,20,31,10,25,14,12,32,3,27,8,0,22,7,11,16,15,4,6,21,13,18,1,9,17,28,35,34,23,26,24]","[173,213,23,183,203,83,153,193,303,13,123,113,163,243,332,3,63,223,133,253,73,283,103,352,143,322,293,273,342,233,43,263,53,33,313,93]","173","302","283.3280915539084","[283.3280915539084]","[341.3280915539084]","[342]","[300,120,300,210,210,30,300,210,210]","0","36","0","149.63500000012573","28.33400000014808","16","[[[""img/mask53.png""],[""img/mask98.png""],[""img/mask58.png""],[""img/mask18.png""],[""img/mask28.png""],[""img/mask24.png""],[""img/mask99.png""],[""img/mask15.png""],[""img/mask48.png""],[""img/mask13.png""],[""img/mask11.png""],[""img/mask34.png""],[""img/mask68.png""],[""img/mask30.png""],[""img/mask86.png""],[""img/mask46.png""],[""img/mask65.png""],[""img/mask46.png""],[""img/mask35.png""],[""img/mask88.png""],[""img/mask74.png""],[""img/mask15.png""],[""img/mask43.png""],[""img/mask61.png""],[""img/mask14.png""],[""img/mask9.png""],[""img/mask37.png""],[""img/mask67.png""],[""img/mask82.png""],[""img/mask27.png""],[""img/mask3.png""],[""img/mask34.png""],[""img/mask57.png""],[""img/mask11.png""],[""img/mask44.png""],[""img/mask26.png""]]]","","[2,29,19,30,5,33,20,31,10,25,14,12,32,3,27,8,0,22,7,11,16,15,4,6,21,13,18,1,9,17,28,35,34,23,26,24]","main","302","many-guess-6"
"","","","","","html-keyboard-response","162","425526","0.0-10.0-1.71","5df2f36b617219204de98060","640759fa512f630a2bdc333d","6408c1811806d9b9e8039b03","null","","null","","","","","","","","","","","","","","","","","","","fixation","",""
"","","","","","many-guess-6","163","428948","0.0-10.0-0.72-0.72","5df2f36b617219204de98060","640759fa512f630a2bdc333d","6408c1811806d9b9e8039b03","[2002.3999999999069]","","","[14,5,26,20,34,18,11,2,4,0,12,1,15,30,35,27,24,8,3,31,10,6,17,9,29,13,7,28,33,22,32,16,21,23,25,19]","[21,41,160,330,31,81,1,200,350,120,250,110,320,270,260,290,340,130,230,61,210,220,91,150,310,140,190,300,71,280,240,170,101,51,180,11]","21","231","75.68895873739359","[75.68895873739359]","[204.6889587373936]","[203]","[120,210,300,300,30,30,300,30,30]","0","36","0","149.19699999986915","27.74900000024354","16","[[[""img/mask20.png""],[""img/mask57.png""],[""img/mask64.png""],[""img/mask78.png""],[""img/mask53.png""],[""img/mask1.png""],[""img/mask40.png""],[""img/mask22.png""],[""img/mask31.png""],[""img/mask56.png""],[""img/mask58.png""],[""img/mask46.png""],[""img/mask54.png""],[""img/mask56.png""],[""img/mask87.png""],[""img/mask93.png""],[""img/mask94.png""],[""img/mask33.png""],[""img/mask60.png""],[""img/mask61.png""],[""img/mask55.png""],[""img/mask38.png""],[""img/mask2.png""],[""img/mask87.png""],[""img/mask57.png""],[""img/mask53.png""],[""img/mask41.png""],[""img/mask98.png""],[""img/mask40.png""],[""img/mask62.png""],[""img/mask81.png""],[""img/mask27.png""],[""img/mask19.png""],[""img/mask61.png""],[""img/mask17.png""],[""img/mask92.png""]]]","","[14,5,26,20,34,18,11,2,4,0,12,1,15,30,35,27,24,8,3,31,10,6,17,9,29,13,7,28,33,22,32,16,21,23,25,19]","main","231","many-guess-6"
"","","","","","html-keyboard-response","164","429450","0.0-10.0-1.72","5df2f36b617219204de98060","640759fa512f630a2bdc333d","6408c1811806d9b9e8039b03","null","","null","","","","","","","","","","","","","","","","","","","fixation","",""
"","","","","","color-precision2","165","432092","0.0-10.0-0.73-0.73","5df2f36b617219204de98060","640759fa512f630a2bdc333d","6408c1811806d9b9e8039b03","[312.5]","","","[25]","[289]","289","38","324.4790022015902","[324.4790022015902]","[286.4790022015902]","[286]","0","0","1","0","145.74399999983143","997.726000000257","1000","[[[""img/mask29.png""]]]","","","main","38","color-precision2"
"","","","","","html-keyboard-response","166","432598","0.0-10.0-1.73","5df2f36b617219204de98060","640759fa512f630a2bdc333d","6408c1811806d9b9e8039b03","null","","null","","","","","","","","","","","","","","","","","","","fixation","",""
"","","","","","color-precision2","167","435932","0.0-10.0-0.74-0.74","5df2f36b617219204de98060","640759fa512f630a2bdc333d","6408c1811806d9b9e8039b03","[927.1000000000931]","","","[30]","[88]","88","304","45.50170153370043","[45.50170153370043]","[101.50170153370044]","[100]","0","0","1","0","148.28900000004796","997.3009999998612","1000","[[[""img/mask97.png""]]]","","","main","304","color-precision2"
"","","","","","html-keyboard-response","168","436439","0.0-10.0-1.74","5df2f36b617219204de98060","640759fa512f630a2bdc333d","6408c1811806d9b9e8039b03","null","","null","","","","","","","","","","","","","","","","","","","fixation","",""
"","","","","","many-guess-6","169","439324","0.0-10.0-0.75-0.75","5df2f36b617219204de98060","640759fa512f630a2bdc333d","6408c1811806d9b9e8039b03","[1458.0999999996275]","","","[10,0,7,21,30,18,3,13,19,29,24,1,16,14,32,17,23,12,8,22,20,4,26,5,27,34,9,6,35,2,15,31,25,11,33,28]","[205,95,324,274,145,125,304,85,175,45,25,235,155,115,254,135,55,264,334,195,165,284,105,354,314,15,294,75,185,225,65,344,5,215,35,244]","205","121","163.31399722163223","[163.31399722163223]","[42.313997221632235]","[41]","[300,300,210,300,30,30,30,30,300]","0","36","0","149.41700000024866","27.134000000252854","16","[[[""img/mask32.png""],[""img/mask87.png""],[""img/mask25.png""],[""img/mask29.png""],[""img/mask41.png""],[""img/mask2.png""],[""img/mask35.png""],[""img/mask12.png""],[""img/mask25.png""],[""img/mask94.png""],[""img/mask46.png""],[""img/mask85.png""],[""img/mask1.png""],[""img/mask60.png""],[""img/mask40.png""],[""img/mask100.png""],[""img/mask7.png""],[""img/mask57.png""],[""img/mask99.png""],[""img/mask92.png""],[""img/mask2.png""],[""img/mask62.png""],[""img/mask61.png""],[""img/mask29.png""],[""img/mask44.png""],[""img/mask86.png""],[""img/mask100.png""],[""img/mask22.png""],[""img/mask17.png""],[""img/mask13.png""],[""img/mask87.png""],[""img/mask46.png""],[""img/mask99.png""],[""img/mask48.png""],[""img/mask79.png""],[""img/mask27.png""]]]","","[10,0,7,21,30,18,3,13,19,29,24,1,16,14,32,17,23,12,8,22,20,4,26,5,27,34,9,6,35,2,15,31,25,11,33,28]","main","121","many-guess-6"
"","","","","","html-keyboard-response","170","439830","0.0-10.0-1.75","5df2f36b617219204de98060","640759fa512f630a2bdc333d","6408c1811806d9b9e8039b03","null","","null","","","","","","","","","","","","","","","","","","","fixation","",""
"","","","","","color-precision2","171","443164","0.0-10.0-0.76-0.76","5df2f36b617219204de98060","640759fa512f630a2bdc333d","6408c1811806d9b9e8039b03","[685.6000000000931]","","","[3]","[342]","342","140","131.74917142885076","[131.74917142885076]","[351.7491714288508]","[350]","0","0","1","0","148.54899999988265","998.0580000002519","1000","[[[""img/mask52.png""]]]","","","main","140","color-precision2"
"","","","","","html-keyboard-response","172","443669","0.0-10.0-1.76","5df2f36b617219204de98060","640759fa512f630a2bdc333d","6408c1811806d9b9e8039b03","null","","null","","","","","","","","","","","","","","","","","","","fixation","",""
"","","","","","many-guess-6","173","446636","0.0-10.0-0.77-0.77","5df2f36b617219204de98060","640759fa512f630a2bdc333d","6408c1811806d9b9e8039b03","[1349.3000000002794]","","","[35,31,24,17,18,13,0,21,19,33,28,29,15,32,4,12,30,10,5,9,7,2,26,27,14,16,11,8,1,3,20,6,34,23,25,22]","[300,60,250,310,220,130,100,180,1,350,240,120,290,70,150,160,21,90,340,110,41,280,230,50,330,270,80,140,190,210,31,260,11,320,170,200]","300","179","22.356891329294292","[22.356891329294292]","[203.35689132929429]","[202]","[120,30,210,210,210,300,30,120,210]","0","36","0","149.6239999998361","24.331999999878462","16","[[[""img/mask12.png""],[""img/mask100.png""],[""img/mask43.png""],[""img/mask27.png""],[""img/mask53.png""],[""img/mask87.png""],[""img/mask21.png""],[""img/mask12.png""],[""img/mask34.png""],[""img/mask63.png""],[""img/mask38.png""],[""img/mask27.png""],[""img/mask23.png""],[""img/mask95.png""],[""img/mask10.png""],[""img/mask1.png""],[""img/mask81.png""],[""img/mask14.png""],[""img/mask93.png""],[""img/mask42.png""],[""img/mask76.png""],[""img/mask46.png""],[""img/mask96.png""],[""img/mask9.png""],[""img/mask97.png""],[""img/mask57.png""],[""img/mask16.png""],[""img/mask94.png""],[""img/mask96.png""],[""img/mask62.png""],[""img/mask90.png""],[""img/mask16.png""],[""img/mask47.png""],[""img/mask10.png""],[""img/mask16.png""],[""img/mask28.png""]]]","","[35,31,24,17,18,13,0,21,19,33,28,29,15,32,4,12,30,10,5,9,7,2,26,27,14,16,11,8,1,3,20,6,34,23,25,22]","main","179","many-guess-6"
"","","","","","html-keyboard-response","174","447138","0.0-10.0-1.77","5df2f36b617219204de98060","640759fa512f630a2bdc333d","6408c1811806d9b9e8039b03","null","","null","","","","","","","","","","","","","","","","","","","fixation","",""
"","","","","","many-guess-6","175","449700","0.0-10.0-0.78-0.78","5df2f36b617219204de98060","640759fa512f630a2bdc333d","6408c1811806d9b9e8039b03","[1002.5]","","","[5,13,21,4,33,23,0,3,15,18,8,34,25,6,10,17,16,35,11,1,31,22,27,2,30,32,19,26,29,9,14,7,28,12,24,20]","[267,357,317,307,107,68,147,28,347,127,157,117,297,217,237,247,137,177,197,257,18,87,38,8,337,167,78,187,277,287,207,327,58,227,48,97]","267","162","68.17239217093211","[68.17239217093211]","[266.1723921709321]","[264]","[300,30,30,210,120,300,300,300,300]","0","36","0","149.43500000005588","25.134000000020023","16","[[[""img/mask30.png""],[""img/mask93.png""],[""img/mask69.png""],[""img/mask66.png""],[""img/mask86.png""],[""img/mask76.png""],[""img/mask92.png""],[""img/mask32.png""],[""img/mask17.png""],[""img/mask55.png""],[""img/mask61.png""],[""img/mask53.png""],[""img/mask93.png""],[""img/mask84.png""],[""img/mask54.png""],[""img/mask19.png""],[""img/mask29.png""],[""img/mask93.png""],[""img/mask55.png""],[""img/mask79.png""],[""img/mask31.png""],[""img/mask48.png""],[""img/mask10.png""],[""img/mask81.png""],[""img/mask61.png""],[""img/mask59.png""],[""img/mask30.png""],[""img/mask63.png""],[""img/mask55.png""],[""img/mask69.png""],[""img/mask41.png""],[""img/mask91.png""],[""img/mask19.png""],[""img/mask53.png""],[""img/mask98.png""],[""img/mask4.png""]]]","","[5,13,21,4,33,23,0,3,15,18,8,34,25,6,10,17,16,35,11,1,31,22,27,2,30,32,19,26,29,9,14,7,28,12,24,20]","main","162","many-guess-6"
"","","","","","html-keyboard-response","176","450206","0.0-10.0-1.78","5df2f36b617219204de98060","640759fa512f630a2bdc333d","6408c1811806d9b9e8039b03","null","","null","","","","","","","","","","","","","","","","","","","fixation","",""
"","","","","","color-precision2","177","452875","0.0-10.0-0.79-0.79","5df2f36b617219204de98060","640759fa512f630a2bdc333d","6408c1811806d9b9e8039b03","[366.20000000018626]","","","[21]","[302]","302","294","238.56390643947785","[238.56390643947785]","[304.5639064394778]","[304]","0","0","1","0","148.13199999992503","998.4200000002165","1000","[[[""img/mask30.png""]]]","","","main","294","color-precision2"
"","","","","","html-keyboard-response","178","454694","0.0-10.0-1.79","5df2f36b617219204de98060","640759fa512f630a2bdc333d","6408c1811806d9b9e8039b03","1816.2999999998137","Wow! You've completed 80 out of 180 trials! </p> <p>  </p><p> Take a quick break, then press any key when you're ready to continue."," ","","","","","","","","","","","","","","","","","","","fixation","",""
"","","","","","color-precision2","179","457803","0.0-10.0-0.80-0.80","5df2f36b617219204de98060","640759fa512f630a2bdc333d","6408c1811806d9b9e8039b03","[311.6999999997206]","","","[2]","[150]","150","322","119.17607906797853","[119.17607906797853]","[157.17607906797855]","[155]","0","0","1","0","148.15500000026077","993.2620000001625","1000","[[[""img/mask23.png""]]]","","","main","322","color-precision2"
"","","","","","html-keyboard-response","180","458307","0.0-10.0-1.80","5df2f36b617219204de98060","640759fa512f630a2bdc333d","6408c1811806d9b9e8039b03","null","","null","","","","","","","","","","","","","","","","","","","fixation","",""
"","","","","","color-precision2","181","461505","0.0-10.0-0.81-0.81","5df2f36b617219204de98060","640759fa512f630a2bdc333d","6408c1811806d9b9e8039b03","[621.2000000001863]","","","[0]","[114]","114","15","114.420616378647","[114.420616378647]","[99.420616378647]","[98]","0","0","1","0","148.4120000001276","998.5929999998771","1000","[[[""img/mask85.png""]]]","","","main","15","color-precision2"
"","","","","","html-keyboard-response","182","462012","0.0-10.0-1.81","5df2f36b617219204de98060","640759fa512f630a2bdc333d","6408c1811806d9b9e8039b03","null","","null","","","","","","","","","","","","","","","","","","","fixation","",""
"","","","","","color-precision2","183","464777","0.0-10.0-0.82-0.82","5df2f36b617219204de98060","640759fa512f630a2bdc333d","6408c1811806d9b9e8039b03","[383.89999999990687]","","","[19]","[64]","64","93","154.66692622556175","[154.66692622556175]","[61.66692622556175]","[60]","0","0","1","0","147.56500000023516","998.9739999999292","1000","[[[""img/mask58.png""]]]","","","main","93","color-precision2"
"","","","","","html-keyboard-response","184","465283","0.0-10.0-1.82","5df2f36b617219204de98060","640759fa512f630a2bdc333d","6408c1811806d9b9e8039b03","null","","null","","","","","","","","","","","","","","","","","","","fixation","",""
