"success","timeout","failed_images","failed_audio","failed_video","trial_type","trial_index","time_elapsed","internal_node_id","subject_id","study_id","session_id","rt","stimulus","response","position_of_items","colors_of_items","color_of_target","wheel_spin","response_angle","physical_response_angle","reported_color_angle","reported_color_discrete","locs","which_test","set_size","wheel_num_options","actual_mask_duration","actual_stim_duration","CMDispTime","maskArray","maskRotation","item_positions","task","randomSpinAmount","mainTask"
"true","false","[]","[]","[]","preload","0","4945","0.0-0.0","5e402dcd7b260d000a7b69fe","640759fa512f630a2bdc333d","6408c17ccaaf0e0469ab9a4a","","","","","","","","","","","","","","","","","","","","","","","",""
"true","","","","","fullscreen","1","8073","0.0-1.0","5e402dcd7b260d000a7b69fe","640759fa512f630a2bdc333d","6408c17ccaaf0e0469ab9a4a","","","","","","","","","","","","","","","","","","","","","","","",""
"","","","","","html-keyboard-response","2","11035","0.0-2.0","5e402dcd7b260d000a7b69fe","640759fa512f630a2bdc333d","6408c17ccaaf0e0469ab9a4a","2960.0999999940395","What a beautiful Wednesday to do some awesome science! </p> <p>  </p><p> </p>
    By completing this survey or questionnaire, you are consenting to be in this research study. </p>
    Your participation is voluntary and you can stop at any time.<p> [Press any key to continue] </p>","enter","","","","","","","","","","","","","","","","","","","","",""
"","","","","","html-keyboard-response","3","21040","0.0-3.0","5e402dcd7b260d000a7b69fe","640759fa512f630a2bdc333d","6408c17ccaaf0e0469ab9a4a","6534.39999999851","
    <div style='width: 1000px;'>
    <div style='float: center;'><img src='img/TaskInstructions1.png'></img>
    </div>
    ","enter","","","","","","","","","","","","","","","","","","","","",""
"","","","","","html-keyboard-response","4","23348","0.0-4.0","5e402dcd7b260d000a7b69fe","640759fa512f630a2bdc333d","6408c17ccaaf0e0469ab9a4a","2307.7000000029802","
    <div style='width: 1000px;'>
    <div style='float: center;'><img src='img/TaskInstructions1.png'></img>
    </div>
    ","arrowup","","","","","","","","","","","","","","","","","","","","",""
"","","","","","html-keyboard-response","5","33361","0.0-5.0","5e402dcd7b260d000a7b69fe","640759fa512f630a2bdc333d","6408c17ccaaf0e0469ab9a4a","null","
    <div style='width: 1000px;'>
    <div style='float: center;'><img src='img/TaskInstructions2.png'></img>
    </div>
    ","null","","","","","","","","","","","","","","","","","","","","",""
"","","","","","html-keyboard-response","6","38885","0.0-6.0","5e402dcd7b260d000a7b69fe","640759fa512f630a2bdc333d","6408c17ccaaf0e0469ab9a4a","5521.70000000298","
    <div style='width: 1000px;'>
    <div style='float: center;'><img src='img/TaskInstructions2.png'></img>
    </div>
    ","arrowup","","","","","","","","","","","","","","","","","","","","",""
"","","","","","video-keyboard-response","7","47076","0.0-7.0","5e402dcd7b260d000a7b69fe","640759fa512f630a2bdc333d","6408c17ccaaf0e0469ab9a4a","8185.79999999702","[""video/TaskInstructions3.mp4""]","arrowup","","","","","","","","","","","","","","","","","","","","",""
"","","","","","image-keyboard-response","8","50062","0.0-8.0-0.0","5e402dcd7b260d000a7b69fe","640759fa512f630a2bdc333d","6408c17ccaaf0e0469ab9a4a","2967.7000000029802","img/training1.png","arrowup","","","","","","","","","","","","","","","","","","","","",""
"","","","","","color-precision2","9","58027","0.0-8.0-1.0-0.0","5e402dcd7b260d000a7b69fe","640759fa512f630a2bdc333d","6408c17ccaaf0e0469ab9a4a","[2444.60000000149]","","","[7]","[36]","36","236","269.55788455509247","[269.55788455509247]","[33.55788455509247]","[36]","0","0","1","0","500.22000000000116","1003.0849999940401","1000","","","0","training","",""
"","","","","","image-keyboard-response","10","64964","0.0-8.0-0.1","5e402dcd7b260d000a7b69fe","640759fa512f630a2bdc333d","6408c17ccaaf0e0469ab9a4a","6936.60000000149","img/training2.png","arrowdown","","","","","","","","","","","","","","","","","","","","",""
"","","","","","many-guess-6","11","71747","0.0-8.0-1.1-0.1","5e402dcd7b260d000a7b69fe","640759fa512f630a2bdc333d","6408c17ccaaf0e0469ab9a4a","[1614.2000000029802]","","","[12,9,33]","[50,313,3]","50","297","336.49342576958804","[336.49342576958804]","[39.49342576958804]","[39]","[210,210,210,30,300,120,120,120,300,120,300,210,210,210,300,120,30,300,120,210,120,30,30,30,210,120,30,300,30,30,300,210,210,300,210,210]","0","3","0","1000.0889999940409","995.4219999970228","1000","[[[""img/mask38.png""],[""img/mask98.png""],[""img/mask29.png""]]]","","[12,9,33]","training","",""
"","","","","","image-keyboard-response","12","77386","0.0-8.0-0.2","5e402dcd7b260d000a7b69fe","640759fa512f630a2bdc333d","6408c17ccaaf0e0469ab9a4a","5638.30000000447","img/training3.png","arrowdown","","","","","","","","","","","","","","","","","","","","",""
"","","","","","[""many-guess-6""]","13","84275","0.0-8.0-1.2-0.2","5e402dcd7b260d000a7b69fe","640759fa512f630a2bdc333d","6408c17ccaaf0e0469ab9a4a","[2862.7999999970198]","","","[19,21,1,8,14]","[115,219,273,172,193]","115","166","321.2828242762061","[321.2828242762061]","[155.2828242762061]","[155]","[300,210,30,120,30,30,210,210,30,30,210,210,30,30,30,120,210,120,120,300,210,30,210,30,30,300,30,210,30,210,120,120,210,120,210,210]","0","5","0","499.7349999940343","508.1829999970214","500","[[[""img/mask9.png""],[""img/mask44.png""],[""img/mask100.png""],[""img/mask99.png""],[""img/mask29.png""]]]","","[19,21,1,8,14]","training","",""
"","","","","","image-keyboard-response","14","87339","0.0-8.0-0.3","5e402dcd7b260d000a7b69fe","640759fa512f630a2bdc333d","6408c17ccaaf0e0469ab9a4a","3062.89999999851","img/training4.png","arrowdown","","","","","","","","","","","","","","","","","","","","",""
"","","","","","[""many-guess-6""]","15","93459","0.0-8.0-1.3-0.3","5e402dcd7b260d000a7b69fe","640759fa512f630a2bdc333d","6408c17ccaaf0e0469ab9a4a","[2202.10000000149]","","","[2,15,8,5,20,21,18,0,19,26]","[190,263,285,156,138,116,239,213,296,330]","190","171","314.8867091076805","[314.8867091076805]","[143.88670910768047]","[144]","[30,300,120,30,300,210,210,300,300,30,300,120,300,300,210,120,30,30,210,210,210,210,120,120,300,120,300,120,30,300,300,300,210,210,300,300]","0","10","0","132.72499999850697","125.54699999850709","132","[[[""img/mask46.png""],[""img/mask80.png""],[""img/mask59.png""],[""img/mask62.png""],[""img/mask92.png""],[""img/mask31.png""],[""img/mask97.png""],[""img/mask97.png""],[""img/mask17.png""],[""img/mask67.png""]]]","","[2,15,8,5,20,21,18,0,19,26]","training","",""
"","","","","","image-keyboard-response","16","98035","0.0-8.0-0.4","5e402dcd7b260d000a7b69fe","640759fa512f630a2bdc333d","6408c17ccaaf0e0469ab9a4a","4574.89999999851","img/training5.png","arrowdown","","","","","","","","","","","","","","","","","","","","",""
"","","","","","[""many-guess-6""]","17","102355","0.0-8.0-1.4-0.4","5e402dcd7b260d000a7b69fe","640759fa512f630a2bdc333d","6408c17ccaaf0e0469ab9a4a","[1670.7000000029802]","","","[30,4,18,31,6,22,3,10,8,13,32,5,28,20,14,15,23,17,11,0,27,29,34,1,12,2,24,26,7,25,33,16,21,19,9,35]","[34,253,14,323,24,104,74,263,44,84,193,94,203,273,293,114,184,64,134,303,313,54,154,124,223,353,164,333,144,243,233,4,174,283,343,213]","34","48","46.220478929203374","[46.220478929203374]","[358.22047892920335]","[356]","[210,300,210,300,210,300,300,300,120,120,30,210,300,30,210,300,210,210,210,300,120,210,30,30,210,300,300,30,210,300,300,120,120,120,30,300]","0","36","0","131.29799999999523","26.723999994035694","16","[[[""img/mask47.png""],[""img/mask15.png""],[""img/mask8.png""],[""img/mask64.png""],[""img/mask23.png""],[""img/mask87.png""],[""img/mask96.png""],[""img/mask12.png""],[""img/mask46.png""],[""img/mask43.png""],[""img/mask75.png""],[""img/mask85.png""],[""img/mask84.png""],[""img/mask100.png""],[""img/mask76.png""],[""img/mask96.png""],[""img/mask8.png""],[""img/mask70.png""],[""img/mask54.png""],[""img/mask10.png""],[""img/mask33.png""],[""img/mask60.png""],[""img/mask97.png""],[""img/mask72.png""],[""img/mask2.png""],[""img/mask44.png""],[""img/mask26.png""],[""img/mask79.png""],[""img/mask48.png""],[""img/mask11.png""],[""img/mask79.png""],[""img/mask78.png""],[""img/mask13.png""],[""img/mask50.png""],[""img/mask72.png""],[""img/mask94.png""]]]","","[30,4,18,31,6,22,3,10,8,13,32,5,28,20,14,15,23,17,11,0,27,29,34,1,12,2,24,26,7,25,33,16,21,19,9,35]","training","",""
"","","","","","image-keyboard-response","18","104675","0.0-9.0","5e402dcd7b260d000a7b69fe","640759fa512f630a2bdc333d","6408c17ccaaf0e0469ab9a4a","2319","[""img/endTraining.png""]","arrowdown","","","","","","","","","","","","","","","","","","","","",""
"","","","","","color-precision2","19","109523","0.0-10.0-0.0-0.0","5e402dcd7b260d000a7b69fe","640759fa512f630a2bdc333d","6408c17ccaaf0e0469ab9a4a","[1462.5]","","","[20]","[109]","109","238","339.7682602132054","[339.7682602132054]","[101.7682602132054]","[101]","0","0","1","0","148.35099999552767","993.0319999985077","1000","[[[""img/mask70.png""]]]","","","main","238","color-precision2"
"","","","","","html-keyboard-response","20","110028","0.0-10.0-1.0","5e402dcd7b260d000a7b69fe","640759fa512f630a2bdc333d","6408c17ccaaf0e0469ab9a4a","null","","null","","","","","","","","","","","","","","","","","","","fixation","",""
"","","","","","color-precision2","21","113811","0.0-10.0-0.1-0.1","5e402dcd7b260d000a7b69fe","640759fa512f630a2bdc333d","6408c17ccaaf0e0469ab9a4a","[761.1999999955297]","","","[24]","[0]","0","211","215.7023814290801","[215.7023814290801]","[4.702381429080106]","[4]","0","0","1","0","148.3189999955357","997.9759999955277","1000","[[[""img/mask97.png""]]]","","","main","211","color-precision2"
"","","","","","html-keyboard-response","22","114312","0.0-10.0-1.1","5e402dcd7b260d000a7b69fe","640759fa512f630a2bdc333d","6408c17ccaaf0e0469ab9a4a","null","","null","","","","","","","","","","","","","","","","","","","fixation","",""
"","","","","","color-precision2","23","117251","0.0-10.0-0.2-0.2","5e402dcd7b260d000a7b69fe","640759fa512f630a2bdc333d","6408c17ccaaf0e0469ab9a4a","[463.79999999701977]","","","[18]","[304]","304","261","219.86319951319993","[219.86319951319993]","[318.8631995131999]","[319]","0","0","1","0","148.5579999970214","1004.4180000000051","1000","[[[""img/mask57.png""]]]","","","main","261","color-precision2"
"","","","","","html-keyboard-response","24","117752","0.0-10.0-1.2","5e402dcd7b260d000a7b69fe","640759fa512f630a2bdc333d","6408c17ccaaf0e0469ab9a4a","null","","null","","","","","","","","","","","","","","","","","","","fixation","",""
"","","","","","color-precision2","25","121052","0.0-10.0-0.3-0.3","5e402dcd7b260d000a7b69fe","640759fa512f630a2bdc333d","6408c17ccaaf0e0469ab9a4a","[793.3000000044703]","","","[11]","[213]","213","349","209.3632093550319","[209.3632093550319]","[220.3632093550319]","[220]","0","0","1","0","148.5309999940364","1006.2419999955309","1000","[[[""img/mask59.png""]]]","","","main","349","color-precision2"
"","","","","","html-keyboard-response","26","121560","0.0-10.0-1.3","5e402dcd7b260d000a7b69fe","640759fa512f630a2bdc333d","6408c17ccaaf0e0469ab9a4a","null","","null","","","","","","","","","","","","","","","","","","","fixation","",""
"","","","","","many-guess-6","27","125459","0.0-10.0-0.4-0.4","5e402dcd7b260d000a7b69fe","640759fa512f630a2bdc333d","6408c17ccaaf0e0469ab9a4a","[2265.2999999970198]","","","[28,29,31,24,17,11,27,5,26,34,12,32,18,25,4,8,9,21,13,14,35,7,2,15,10,1,19,23,30,6,16,22,3,20,33,0]","[87,37,107,357,167,277,57,287,337,247,297,307,257,267,177,197,27,317,147,157,227,207,47,137,237,67,17,97,187,347,117,327,217,77,127,7]","87","198","248.5841271248019","[248.5841271248019]","[50.58412712480191]","[51]","[300,30,120,30,210,300,120,300,120]","0","36","0","149.2449999940436","16.21299999850453","16","[[[""img/mask73.png""],[""img/mask41.png""],[""img/mask18.png""],[""img/mask54.png""],[""img/mask18.png""],[""img/mask22.png""],[""img/mask48.png""],[""img/mask91.png""],[""img/mask66.png""],[""img/mask21.png""],[""img/mask84.png""],[""img/mask85.png""],[""img/mask10.png""],[""img/mask82.png""],[""img/mask59.png""],[""img/mask90.png""],[""img/mask88.png""],[""img/mask42.png""],[""img/mask1.png""],[""img/mask49.png""],[""img/mask83.png""],[""img/mask31.png""],[""img/mask87.png""],[""img/mask99.png""],[""img/mask49.png""],[""img/mask77.png""],[""img/mask49.png""],[""img/mask41.png""],[""img/mask43.png""],[""img/mask82.png""],[""img/mask30.png""],[""img/mask19.png""],[""img/mask9.png""],[""img/mask46.png""],[""img/mask62.png""],[""img/mask4.png""]]]","","[28,29,31,24,17,11,27,5,26,34,12,32,18,25,4,8,9,21,13,14,35,7,2,15,10,1,19,23,30,6,16,22,3,20,33,0]","main","198","many-guess-6"
"","","","","","html-keyboard-response","28","125960","0.0-10.0-1.4","5e402dcd7b260d000a7b69fe","640759fa512f630a2bdc333d","6408c17ccaaf0e0469ab9a4a","null","","null","","","","","","","","","","","","","","","","","","","fixation","",""
"","","","","","many-guess-6","29","129395","0.0-10.0-0.5-0.5","5e402dcd7b260d000a7b69fe","640759fa512f630a2bdc333d","6408c17ccaaf0e0469ab9a4a","[1896.2999999970198]","","","[27,29,3,18,26,15,12,25,1,2,6,8,11,22,16,0,13,28,20,35,10,4,19,24,14,34,23,33,9,5,7,31,32,30,21,17]","[62,272,3,32,152,102,42,132,222,252,192,202,182,232,162,212,22,12,282,172,82,112,352,262,72,242,52,92,292,302,312,142,322,342,122,332]","62","333","203.7070907942426","[203.7070907942426]","[230.7070907942426]","[230]","[210,30,210,210,30,30,210,120,210]","0","36","0","148.80699999553326","23.823999994041515","16","[[[""img/mask2.png""],[""img/mask51.png""],[""img/mask37.png""],[""img/mask83.png""],[""img/mask69.png""],[""img/mask29.png""],[""img/mask33.png""],[""img/mask2.png""],[""img/mask24.png""],[""img/mask50.png""],[""img/mask85.png""],[""img/mask91.png""],[""img/mask87.png""],[""img/mask20.png""],[""img/mask54.png""],[""img/mask26.png""],[""img/mask16.png""],[""img/mask58.png""],[""img/mask38.png""],[""img/mask86.png""],[""img/mask67.png""],[""img/mask44.png""],[""img/mask70.png""],[""img/mask23.png""],[""img/mask24.png""],[""img/mask4.png""],[""img/mask84.png""],[""img/mask78.png""],[""img/mask67.png""],[""img/mask57.png""],[""img/mask20.png""],[""img/mask65.png""],[""img/mask41.png""],[""img/mask70.png""],[""img/mask75.png""],[""img/mask88.png""]]]","","[27,29,3,18,26,15,12,25,1,2,6,8,11,22,16,0,13,28,20,35,10,4,19,24,14,34,23,33,9,5,7,31,32,30,21,17]","main","333","many-guess-6"
"","","","","","html-keyboard-response","30","129905","0.0-10.0-1.5","5e402dcd7b260d000a7b69fe","640759fa512f630a2bdc333d","6408c17ccaaf0e0469ab9a4a","null","","null","","","","","","","","","","","","","","","","","","","fixation","",""
"","","","","","many-guess-6","31","134555","0.0-10.0-0.6-0.6","5e402dcd7b260d000a7b69fe","640759fa512f630a2bdc333d","6408c17ccaaf0e0469ab9a4a","[3135.2999999970198]","","","[14,26,24,1,3,20,11,27,18,6,2,34,5,16,19,17,8,28,13,10,31,29,7,4,25,33,9,23,21,15,0,30,32,22,12,35]","[332,252,193,183,83,322,242,292,113,282,272,73,93,133,143,232,213,23,53,222,33,342,43,203,13,173,123,3,163,153,262,302,63,103,352,312]","332","45","177.9356383032986","[177.9356383032986]","[132.9356383032986]","[132]","[300,120,120,30,300,30,30,300,30]","0","36","0","149.22099999850616","22.88199999849894","16","[[[""img/mask34.png""],[""img/mask23.png""],[""img/mask33.png""],[""img/mask11.png""],[""img/mask63.png""],[""img/mask56.png""],[""img/mask61.png""],[""img/mask53.png""],[""img/mask37.png""],[""img/mask53.png""],[""img/mask21.png""],[""img/mask47.png""],[""img/mask31.png""],[""img/mask87.png""],[""img/mask24.png""],[""img/mask35.png""],[""img/mask38.png""],[""img/mask7.png""],[""img/mask7.png""],[""img/mask40.png""],[""img/mask35.png""],[""img/mask49.png""],[""img/mask5.png""],[""img/mask96.png""],[""img/mask69.png""],[""img/mask15.png""],[""img/mask55.png""],[""img/mask25.png""],[""img/mask28.png""],[""img/mask34.png""],[""img/mask87.png""],[""img/mask34.png""],[""img/mask83.png""],[""img/mask17.png""],[""img/mask62.png""],[""img/mask32.png""]]]","","[14,26,24,1,3,20,11,27,18,6,2,34,5,16,19,17,8,28,13,10,31,29,7,4,25,33,9,23,21,15,0,30,32,22,12,35]","main","45","many-guess-6"
"","","","","","html-keyboard-response","32","135056","0.0-10.0-1.6","5e402dcd7b260d000a7b69fe","640759fa512f630a2bdc333d","6408c17ccaaf0e0469ab9a4a","null","","null","","","","","","","","","","","","","","","","","","","fixation","",""
"","","","","","many-guess-6","33","138491","0.0-10.0-0.7-0.7","5e402dcd7b260d000a7b69fe","640759fa512f630a2bdc333d","6408c17ccaaf0e0469ab9a4a","[2015.6000000014901]","","","[29,12,17,3,26,1,7,6,16,32,18,19,11,0,13,10,4,33,27,8,23,31,24,9,20,35,5,2,15,14,25,28,21,34,30,22]","[22,321,152,182,122,42,142,52,262,12,351,252,292,2,162,62,102,242,222,272,312,341,302,82,212,112,192,232,72,132,92,202,172,282,32,331]","22","265","314.68478621887095","[314.68478621887095]","[49.684786218870954]","[49]","[300,30,30,30,120,120,210,120,120]","0","36","0","149.1609999940265","21.106999997020466","16","[[[""img/mask28.png""],[""img/mask64.png""],[""img/mask24.png""],[""img/mask53.png""],[""img/mask58.png""],[""img/mask78.png""],[""img/mask78.png""],[""img/mask87.png""],[""img/mask50.png""],[""img/mask28.png""],[""img/mask40.png""],[""img/mask17.png""],[""img/mask15.png""],[""img/mask16.png""],[""img/mask90.png""],[""img/mask29.png""],[""img/mask32.png""],[""img/mask77.png""],[""img/mask14.png""],[""img/mask34.png""],[""img/mask82.png""],[""img/mask60.png""],[""img/mask37.png""],[""img/mask52.png""],[""img/mask28.png""],[""img/mask78.png""],[""img/mask27.png""],[""img/mask12.png""],[""img/mask50.png""],[""img/mask78.png""],[""img/mask51.png""],[""img/mask74.png""],[""img/mask75.png""],[""img/mask33.png""],[""img/mask83.png""],[""img/mask61.png""]]]","","[29,12,17,3,26,1,7,6,16,32,18,19,11,0,13,10,4,33,27,8,23,31,24,9,20,35,5,2,15,14,25,28,21,34,30,22]","main","265","many-guess-6"
"","","","","","html-keyboard-response","34","138992","0.0-10.0-1.7","5e402dcd7b260d000a7b69fe","640759fa512f630a2bdc333d","6408c17ccaaf0e0469ab9a4a","null","","null","","","","","","","","","","","","","","","","","","","fixation","",""
"","","","","","many-guess-6","35","143315","0.0-10.0-0.8-0.8","5e402dcd7b260d000a7b69fe","640759fa512f630a2bdc333d","6408c17ccaaf0e0469ab9a4a","[3051.6999999955297]","","","[32,12,4,23,5,10,21,18,20,2,6,30,17,31,3,26,1,22,29,13,33,0,15,28,19,11,14,27,16,7,25,8,35,9,24,34]","[195,155,295,5,105,324,344,85,275,305,135,354,25,35,255,265,245,314,55,285,75,175,225,185,125,165,215,205,45,95,15,334,115,145,65,235]","195","106","154.60986078872642","[154.60986078872642]","[48.60986078872642]","[47]","[210,210,30,300,30,30,120,30,30]","0","36","0","149.21099999849685","16.653999995527556","16","[[[""img/mask3.png""],[""img/mask74.png""],[""img/mask100.png""],[""img/mask78.png""],[""img/mask77.png""],[""img/mask38.png""],[""img/mask44.png""],[""img/mask79.png""],[""img/mask83.png""],[""img/mask17.png""],[""img/mask71.png""],[""img/mask48.png""],[""img/mask84.png""],[""img/mask85.png""],[""img/mask72.png""],[""img/mask36.png""],[""img/mask57.png""],[""img/mask61.png""],[""img/mask8.png""],[""img/mask65.png""],[""img/mask33.png""],[""img/mask53.png""],[""img/mask98.png""],[""img/mask1.png""],[""img/mask14.png""],[""img/mask24.png""],[""img/mask25.png""],[""img/mask50.png""],[""img/mask24.png""],[""img/mask18.png""],[""img/mask35.png""],[""img/mask47.png""],[""img/mask70.png""],[""img/mask49.png""],[""img/mask27.png""],[""img/mask54.png""]]]","","[32,12,4,23,5,10,21,18,20,2,6,30,17,31,3,26,1,22,29,13,33,0,15,28,19,11,14,27,16,7,25,8,35,9,24,34]","main","106","many-guess-6"
"","","","","","html-keyboard-response","36","143818","0.0-10.0-1.8","5e402dcd7b260d000a7b69fe","640759fa512f630a2bdc333d","6408c17ccaaf0e0469ab9a4a","null","","null","","","","","","","","","","","","","","","","","","","fixation","",""
"","","","","","color-precision2","37","147395","0.0-10.0-0.9-0.9","5e402dcd7b260d000a7b69fe","640759fa512f630a2bdc333d","6408c17ccaaf0e0469ab9a4a","[1240.7000000029802]","","","[8]","[40]","40","1","41.92721984699653","[41.92721984699653]","[40.92721984699653]","[40]","0","0","1","0","148.26799999701325","1003.4769999985001","1000","[[[""img/mask22.png""]]]","","","main","1","color-precision2"
"","","","","","html-keyboard-response","38","147896","0.0-10.0-1.9","5e402dcd7b260d000a7b69fe","640759fa512f630a2bdc333d","6408c17ccaaf0e0469ab9a4a","null","","null","","","","","","","","","","","","","","","","","","","fixation","",""
"","","","","","many-guess-6","39","151459","0.0-10.0-0.10-0.10","5e402dcd7b260d000a7b69fe","640759fa512f630a2bdc333d","6408c17ccaaf0e0469ab9a4a","[2218.7999999970198]","","","[27,35,16,4,17,10,6,7,3,23,22,34,14,24,29,12,32,0,2,30,5,31,8,26,25,20,11,13,21,18,15,1,9,19,28,33]","[359,120,250,260,150,40,30,90,200,340,310,300,80,240,220,110,349,190,10,320,130,330,180,290,70,280,140,100,270,170,50,20,160,230,60,210]","359","122","312.07776219194034","[312.07776219194034]","[190.07776219194034]","[190]","[30,210,30,120,300,300,120,120,30]","0","36","0","149.15299999702256","17.312999997026054","16","[[[""img/mask60.png""],[""img/mask12.png""],[""img/mask59.png""],[""img/mask78.png""],[""img/mask34.png""],[""img/mask24.png""],[""img/mask50.png""],[""img/mask3.png""],[""img/mask49.png""],[""img/mask87.png""],[""img/mask14.png""],[""img/mask57.png""],[""img/mask66.png""],[""img/mask3.png""],[""img/mask81.png""],[""img/mask7.png""],[""img/mask57.png""],[""img/mask65.png""],[""img/mask99.png""],[""img/mask6.png""],[""img/mask1.png""],[""img/mask59.png""],[""img/mask53.png""],[""img/mask36.png""],[""img/mask45.png""],[""img/mask15.png""],[""img/mask18.png""],[""img/mask33.png""],[""img/mask73.png""],[""img/mask21.png""],[""img/mask99.png""],[""img/mask30.png""],[""img/mask16.png""],[""img/mask4.png""],[""img/mask18.png""],[""img/mask97.png""]]]","","[27,35,16,4,17,10,6,7,3,23,22,34,14,24,29,12,32,0,2,30,5,31,8,26,25,20,11,13,21,18,15,1,9,19,28,33]","main","122","many-guess-6"
"","","","","","html-keyboard-response","40","151964","0.0-10.0-1.10","5e402dcd7b260d000a7b69fe","640759fa512f630a2bdc333d","6408c17ccaaf0e0469ab9a4a","null","","null","","","","","","","","","","","","","","","","","","","fixation","",""
"","","","","","color-precision2","41","155587","0.0-10.0-0.11-0.11","5e402dcd7b260d000a7b69fe","640759fa512f630a2bdc333d","6408c17ccaaf0e0469ab9a4a","[740.3999999985099]","","","[4]","[28]","28","258","269.70085935706925","[269.70085935706925]","[11.700859357069248]","[12]","0","0","1","0","149.71199999851524","1004.1989999970247","1000","[[[""img/mask87.png""]]]","","","main","258","color-precision2"
"","","","","","html-keyboard-response","42","156088","0.0-10.0-1.11","5e402dcd7b260d000a7b69fe","640759fa512f630a2bdc333d","6408c17ccaaf0e0469ab9a4a","null","","null","","","","","","","","","","","","","","","","","","","fixation","",""
"","","","","","many-guess-6","43","160035","0.0-10.0-0.12-0.12","5e402dcd7b260d000a7b69fe","640759fa512f630a2bdc333d","6408c17ccaaf0e0469ab9a4a","[1867.7000000029802]","","","[21,31,32,30,1,18,4,34,5,0,14,15,19,11,35,20,29,2,23,9,10,33,6,27,13,22,12,25,17,8,24,7,3,26,16,28]","[336,246,216,166,156,186,176,226,27,206,37,87,116,7,356,96,57,256,17,346,77,276,196,296,286,67,236,266,136,47,326,316,306,146,106,126]","336","318","341.1037836700096","[341.1037836700096]","[23.10378367000959]","[23]","[30,210,120,30,210,210,30,300,210]","0","36","0","149.30499999999302","16.349999998521525","16","[[[""img/mask79.png""],[""img/mask72.png""],[""img/mask35.png""],[""img/mask54.png""],[""img/mask87.png""],[""img/mask20.png""],[""img/mask36.png""],[""img/mask12.png""],[""img/mask12.png""],[""img/mask2.png""],[""img/mask71.png""],[""img/mask95.png""],[""img/mask37.png""],[""img/mask88.png""],[""img/mask8.png""],[""img/mask14.png""],[""img/mask74.png""],[""img/mask66.png""],[""img/mask80.png""],[""img/mask18.png""],[""img/mask61.png""],[""img/mask78.png""],[""img/mask80.png""],[""img/mask13.png""],[""img/mask13.png""],[""img/mask93.png""],[""img/mask81.png""],[""img/mask64.png""],[""img/mask55.png""],[""img/mask89.png""],[""img/mask97.png""],[""img/mask36.png""],[""img/mask13.png""],[""img/mask25.png""],[""img/mask3.png""],[""img/mask12.png""]]]","","[21,31,32,30,1,18,4,34,5,0,14,15,19,11,35,20,29,2,23,9,10,33,6,27,13,22,12,25,17,8,24,7,3,26,16,28]","main","318","many-guess-6"
"","","","","","html-keyboard-response","44","160536","0.0-10.0-1.12","5e402dcd7b260d000a7b69fe","640759fa512f630a2bdc333d","6408c17ccaaf0e0469ab9a4a","null","","null","","","","","","","","","","","","","","","","","","","fixation","",""
"","","","","","color-precision2","45","163331","0.0-10.0-0.13-0.13","5e402dcd7b260d000a7b69fe","640759fa512f630a2bdc333d","6408c17ccaaf0e0469ab9a4a","[524]","","","[1]","[321]","321","237","195.73235425207713","[195.73235425207713]","[318.73235425207713]","[318]","0","0","1","0","149.64299999552895","997.4139999985055","1000","[[[""img/mask56.png""]]]","","","main","237","color-precision2"
"","","","","","html-keyboard-response","46","163833","0.0-10.0-1.13","5e402dcd7b260d000a7b69fe","640759fa512f630a2bdc333d","6408c17ccaaf0e0469ab9a4a","null","","null","","","","","","","","","","","","","","","","","","","fixation","",""
"","","","","","many-guess-6","47","167187","0.0-10.0-0.14-0.14","5e402dcd7b260d000a7b69fe","640759fa512f630a2bdc333d","6408c17ccaaf0e0469ab9a4a","[1794.8999999985099]","","","[0,34,26,12,27,29,25,10,2,3,31,28,22,7,14,4,30,20,23,18,1,32,8,15,5,19,35,6,33,16,17,13,11,24,9,21]","[40,330,90,240,250,110,11,350,50,180,340,30,60,150,160,260,130,210,230,140,80,310,300,270,320,190,170,200,100,70,280,120,220,1,290,21]","40","87","315.08747926115416","[315.08747926115416]","[228.08747926115416]","[228]","[210,120,210,300,300,30,300,300,300]","0","36","0","149.20999999999185","22.588999995525228","16","[[[""img/mask62.png""],[""img/mask53.png""],[""img/mask97.png""],[""img/mask53.png""],[""img/mask13.png""],[""img/mask50.png""],[""img/mask20.png""],[""img/mask12.png""],[""img/mask36.png""],[""img/mask99.png""],[""img/mask3.png""],[""img/mask7.png""],[""img/mask22.png""],[""img/mask27.png""],[""img/mask21.png""],[""img/mask8.png""],[""img/mask46.png""],[""img/mask67.png""],[""img/mask72.png""],[""img/mask79.png""],[""img/mask14.png""],[""img/mask42.png""],[""img/mask67.png""],[""img/mask53.png""],[""img/mask17.png""],[""img/mask24.png""],[""img/mask78.png""],[""img/mask82.png""],[""img/mask64.png""],[""img/mask59.png""],[""img/mask84.png""],[""img/mask66.png""],[""img/mask98.png""],[""img/mask7.png""],[""img/mask100.png""],[""img/mask14.png""]]]","","[0,34,26,12,27,29,25,10,2,3,31,28,22,7,14,4,30,20,23,18,1,32,8,15,5,19,35,6,33,16,17,13,11,24,9,21]","main","87","many-guess-6"
"","","","","","html-keyboard-response","48","167688","0.0-10.0-1.14","5e402dcd7b260d000a7b69fe","640759fa512f630a2bdc333d","6408c17ccaaf0e0469ab9a4a","null","","null","","","","","","","","","","","","","","","","","","","fixation","",""
"","","","","","many-guess-6","49","171371","0.0-10.0-0.15-0.15","5e402dcd7b260d000a7b69fe","640759fa512f630a2bdc333d","6408c17ccaaf0e0469ab9a4a","[1957.3999999985099]","","","[14,5,4,3,33,20,6,18,31,32,16,9,2,23,1,0,19,28,12,7,8,17,30,25,22,11,21,29,26,15,24,27,13,35,34,10]","[139,309,189,79,49,129,299,99,349,239,149,339,89,358,269,9,29,229,329,119,259,219,59,199,109,39,209,289,319,249,179,69,169,19,279,159]","139","293","336.1442123799645","[336.1442123799645]","[43.14421237996447]","[43]","[120,30,300,30,210,120,30,120,210]","0","36","0","149.3089999955264","22.6479999985022","16","[[[""img/mask43.png""],[""img/mask61.png""],[""img/mask45.png""],[""img/mask92.png""],[""img/mask29.png""],[""img/mask7.png""],[""img/mask31.png""],[""img/mask37.png""],[""img/mask86.png""],[""img/mask61.png""],[""img/mask36.png""],[""img/mask9.png""],[""img/mask40.png""],[""img/mask47.png""],[""img/mask75.png""],[""img/mask65.png""],[""img/mask79.png""],[""img/mask33.png""],[""img/mask67.png""],[""img/mask51.png""],[""img/mask9.png""],[""img/mask9.png""],[""img/mask33.png""],[""img/mask56.png""],[""img/mask71.png""],[""img/mask76.png""],[""img/mask82.png""],[""img/mask7.png""],[""img/mask68.png""],[""img/mask12.png""],[""img/mask22.png""],[""img/mask6.png""],[""img/mask76.png""],[""img/mask17.png""],[""img/mask3.png""],[""img/mask93.png""]]]","","[14,5,4,3,33,20,6,18,31,32,16,9,2,23,1,0,19,28,12,7,8,17,30,25,22,11,21,29,26,15,24,27,13,35,34,10]","main","293","many-guess-6"
"","","","","","html-keyboard-response","50","171873","0.0-10.0-1.15","5e402dcd7b260d000a7b69fe","640759fa512f630a2bdc333d","6408c17ccaaf0e0469ab9a4a","null","","null","","","","","","","","","","","","","","","","","","","fixation","",""
"","","","","","many-guess-6","51","174931","0.0-10.0-0.16-0.16","5e402dcd7b260d000a7b69fe","640759fa512f630a2bdc333d","6408c17ccaaf0e0469ab9a4a","[1462.6000000014901]","","","[15,30,26,9,20,24,11,23,17,22,7,28,18,21,8,12,33,32,13,3,34,14,2,4,16,1,0,27,35,25,10,5,6,29,31,19]","[86,226,305,256,355,176,166,266,216,296,36,276,76,46,206,96,106,146,186,156,286,325,246,136,196,16,236,315,56,6,26,66,116,126,335,345]","86","306","51.85824797035692","[51.85824797035692]","[105.85824797035693]","[104]","[120,210,300,30,210,210,300,300,300]","0","36","0","149.27799999999115","19.835999998496845","16","[[[""img/mask46.png""],[""img/mask61.png""],[""img/mask14.png""],[""img/mask39.png""],[""img/mask45.png""],[""img/mask84.png""],[""img/mask73.png""],[""img/mask100.png""],[""img/mask30.png""],[""img/mask9.png""],[""img/mask87.png""],[""img/mask86.png""],[""img/mask93.png""],[""img/mask60.png""],[""img/mask81.png""],[""img/mask72.png""],[""img/mask68.png""],[""img/mask83.png""],[""img/mask51.png""],[""img/mask41.png""],[""img/mask35.png""],[""img/mask5.png""],[""img/mask83.png""],[""img/mask68.png""],[""img/mask58.png""],[""img/mask86.png""],[""img/mask49.png""],[""img/mask1.png""],[""img/mask59.png""],[""img/mask51.png""],[""img/mask34.png""],[""img/mask38.png""],[""img/mask96.png""],[""img/mask56.png""],[""img/mask31.png""],[""img/mask79.png""]]]","","[15,30,26,9,20,24,11,23,17,22,7,28,18,21,8,12,33,32,13,3,34,14,2,4,16,1,0,27,35,25,10,5,6,29,31,19]","main","306","many-guess-6"
"","","","","","html-keyboard-response","52","175432","0.0-10.0-1.16","5e402dcd7b260d000a7b69fe","640759fa512f630a2bdc333d","6408c17ccaaf0e0469ab9a4a","null","","null","","","","","","","","","","","","","","","","","","","fixation","",""
"","","","","","color-precision2","53","179530","0.0-10.0-0.17-0.17","5e402dcd7b260d000a7b69fe","640759fa512f630a2bdc333d","6408c17ccaaf0e0469ab9a4a","[1457.3999999985099]","","","[31]","[126]","126","303","57.5986080497359","[57.5986080497359]","[114.5986080497359]","[113]","0","0","1","0","148.49199999851407","995.6069999985048","1000","[[[""img/mask28.png""]]]","","","main","303","color-precision2"
"","","","","","html-keyboard-response","54","180032","0.0-10.0-1.17","5e402dcd7b260d000a7b69fe","640759fa512f630a2bdc333d","6408c17ccaaf0e0469ab9a4a","null","","null","","","","","","","","","","","","","","","","","","","fixation","",""
"","","","","","many-guess-6","55","183298","0.0-10.0-0.18-0.18","5e402dcd7b260d000a7b69fe","640759fa512f630a2bdc333d","6408c17ccaaf0e0469ab9a4a","[1604.6000000014901]","","","[16,5,30,12,32,19,25,10,35,14,2,0,22,26,29,24,31,9,3,15,17,34,11,1,20,8,18,13,21,28,23,4,7,6,27,33]","[248,189,159,199,308,219,358,89,129,229,39,119,258,9,179,318,169,99,348,139,149,29,109,49,19,268,239,328,79,278,59,338,288,298,209,69]","248","106","146.92385756273043","[146.92385756273043]","[40.92385756273043]","[39]","[30,210,30,210,120,210,210,300,210]","0","36","0","149.3289999985136","21.184999994031386","16","[[[""img/mask20.png""],[""img/mask80.png""],[""img/mask26.png""],[""img/mask5.png""],[""img/mask77.png""],[""img/mask5.png""],[""img/mask12.png""],[""img/mask31.png""],[""img/mask51.png""],[""img/mask19.png""],[""img/mask8.png""],[""img/mask12.png""],[""img/mask9.png""],[""img/mask13.png""],[""img/mask9.png""],[""img/mask80.png""],[""img/mask13.png""],[""img/mask58.png""],[""img/mask57.png""],[""img/mask80.png""],[""img/mask44.png""],[""img/mask56.png""],[""img/mask16.png""],[""img/mask45.png""],[""img/mask23.png""],[""img/mask83.png""],[""img/mask85.png""],[""img/mask50.png""],[""img/mask29.png""],[""img/mask93.png""],[""img/mask31.png""],[""img/mask46.png""],[""img/mask35.png""],[""img/mask4.png""],[""img/mask48.png""],[""img/mask20.png""]]]","","[16,5,30,12,32,19,25,10,35,14,2,0,22,26,29,24,31,9,3,15,17,34,11,1,20,8,18,13,21,28,23,4,7,6,27,33]","main","106","many-guess-6"
"","","","","","html-keyboard-response","56","183813","0.0-10.0-1.18","5e402dcd7b260d000a7b69fe","640759fa512f630a2bdc333d","6408c17ccaaf0e0469ab9a4a","null","","null","","","","","","","","","","","","","","","","","","","fixation","",""
"","","","","","many-guess-6","57","187746","0.0-10.0-0.19-0.19","5e402dcd7b260d000a7b69fe","640759fa512f630a2bdc333d","6408c17ccaaf0e0469ab9a4a","[1530.6000000014901]","","","[16,17,35,5,7,30,4,13,24,28,29,26,8,10,14,9,12,1,31,6,3,32,2,18,20,25,33,11,27,19,34,15,23,0,22,21]","[293,54,44,74,203,4,174,253,263,24,134,283,64,273,313,124,223,343,154,104,14,144,333,213,114,164,34,303,233,194,94,84,323,243,184,353]","293","195","224.39146523980446","[224.39146523980446]","[29.39146523980446]","[29]","[120,30,300,300,120,210,30,210,300]","0","36","0","149.30499999999302","22.8979999985022","16","[[[""img/mask82.png""],[""img/mask97.png""],[""img/mask40.png""],[""img/mask87.png""],[""img/mask15.png""],[""img/mask67.png""],[""img/mask79.png""],[""img/mask90.png""],[""img/mask41.png""],[""img/mask30.png""],[""img/mask51.png""],[""img/mask21.png""],[""img/mask59.png""],[""img/mask23.png""],[""img/mask16.png""],[""img/mask24.png""],[""img/mask95.png""],[""img/mask99.png""],[""img/mask28.png""],[""img/mask34.png""],[""img/mask73.png""],[""img/mask23.png""],[""img/mask2.png""],[""img/mask59.png""],[""img/mask42.png""],[""img/mask37.png""],[""img/mask34.png""],[""img/mask27.png""],[""img/mask91.png""],[""img/mask44.png""],[""img/mask87.png""],[""img/mask13.png""],[""img/mask61.png""],[""img/mask99.png""],[""img/mask36.png""],[""img/mask79.png""]]]","","[16,17,35,5,7,30,4,13,24,28,29,26,8,10,14,9,12,1,31,6,3,32,2,18,20,25,33,11,27,19,34,15,23,0,22,21]","main","195","many-guess-6"
"","","","","","html-keyboard-response","58","192786","0.0-10.0-1.19","5e402dcd7b260d000a7b69fe","640759fa512f630a2bdc333d","6408c17ccaaf0e0469ab9a4a","5038.70000000298","Wow! You've completed 20 out of 180 trials! </p> <p>  </p><p> Take a quick break, then press any key when you're ready to continue.","enter","","","","","","","","","","","","","","","","","","","fixation","",""
"","","","","","many-guess-6","59","197490","0.0-10.0-0.20-0.20","5e402dcd7b260d000a7b69fe","640759fa512f630a2bdc333d","6408c17ccaaf0e0469ab9a4a","[1179.7000000029802]","","","[10,13,14,25,24,15,35,33,31,0,28,5,18,26,22,2,9,21,4,30,8,3,19,1,34,11,32,7,27,29,23,20,6,17,12,16]","[336,57,136,236,286,116,346,226,166,97,306,266,146,356,87,176,7,296,246,27,196,106,276,256,17,126,326,216,206,77,156,186,316,47,37,67]","336","299","259.93993858146473","[259.93993858146473]","[320.93993858146473]","[321]","[300,30,210,120,210,120,210,300,300]","0","36","0","149.3769999940414","11.665999997028848","16","[[[""img/mask14.png""],[""img/mask40.png""],[""img/mask44.png""],[""img/mask71.png""],[""img/mask91.png""],[""img/mask74.png""],[""img/mask11.png""],[""img/mask44.png""],[""img/mask84.png""],[""img/mask87.png""],[""img/mask43.png""],[""img/mask11.png""],[""img/mask57.png""],[""img/mask19.png""],[""img/mask66.png""],[""img/mask54.png""],[""img/mask64.png""],[""img/mask41.png""],[""img/mask97.png""],[""img/mask98.png""],[""img/mask38.png""],[""img/mask59.png""],[""img/mask71.png""],[""img/mask39.png""],[""img/mask21.png""],[""img/mask38.png""],[""img/mask15.png""],[""img/mask100.png""],[""img/mask62.png""],[""img/mask65.png""],[""img/mask23.png""],[""img/mask92.png""],[""img/mask55.png""],[""img/mask21.png""],[""img/mask55.png""],[""img/mask62.png""]]]","","[10,13,14,25,24,15,35,33,31,0,28,5,18,26,22,2,9,21,4,30,8,3,19,1,34,11,32,7,27,29,23,20,6,17,12,16]","main","299","many-guess-6"
"","","","","","html-keyboard-response","60","197996","0.0-10.0-1.20","5e402dcd7b260d000a7b69fe","640759fa512f630a2bdc333d","6408c17ccaaf0e0469ab9a4a","null","","null","","","","","","","","","","","","","","","","","","","fixation","",""
"","","","","","many-guess-6","61","202162","0.0-10.0-0.21-0.21","5e402dcd7b260d000a7b69fe","640759fa512f630a2bdc333d","6408c17ccaaf0e0469ab9a4a","[2397.6999999955297]","","","[12,6,14,7,30,8,4,15,28,19,23,17,11,2,35,16,9,25,21,0,3,26,33,31,27,1,10,24,13,20,32,18,34,5,22,29]","[123,133,223,323,193,273,353,313,153,253,143,4,113,293,343,283,333,63,163,233,24,93,53,83,103,213,263,243,173,44,183,73,303,203,14,34]","123","175","214.06292633155152","[214.06292633155152]","[39.06292633155152]","[39]","[210,210,120,120,300,210,120,30,210]","0","36","0","149.22000000000116","11.980999994033482","16","[[[""img/mask45.png""],[""img/mask19.png""],[""img/mask28.png""],[""img/mask12.png""],[""img/mask47.png""],[""img/mask32.png""],[""img/mask100.png""],[""img/mask6.png""],[""img/mask44.png""],[""img/mask75.png""],[""img/mask7.png""],[""img/mask81.png""],[""img/mask26.png""],[""img/mask58.png""],[""img/mask22.png""],[""img/mask33.png""],[""img/mask11.png""],[""img/mask10.png""],[""img/mask81.png""],[""img/mask30.png""],[""img/mask96.png""],[""img/mask29.png""],[""img/mask47.png""],[""img/mask91.png""],[""img/mask88.png""],[""img/mask75.png""],[""img/mask69.png""],[""img/mask16.png""],[""img/mask46.png""],[""img/mask88.png""],[""img/mask50.png""],[""img/mask26.png""],[""img/mask83.png""],[""img/mask76.png""],[""img/mask68.png""],[""img/mask67.png""]]]","","[12,6,14,7,30,8,4,15,28,19,23,17,11,2,35,16,9,25,21,0,3,26,33,31,27,1,10,24,13,20,32,18,34,5,22,29]","main","175","many-guess-6"
"","","","","","html-keyboard-response","62","202663","0.0-10.0-1.21","5e402dcd7b260d000a7b69fe","640759fa512f630a2bdc333d","6408c17ccaaf0e0469ab9a4a","null","","null","","","","","","","","","","","","","","","","","","","fixation","",""
"","","","","","color-precision2","63","205403","0.0-10.0-0.22-0.22","5e402dcd7b260d000a7b69fe","640759fa512f630a2bdc333d","6408c17ccaaf0e0469ab9a4a","[581.1000000014901]","","","[6]","[90]","90","356","91.55268742348781","[91.55268742348781]","[95.55268742348778]","[94]","0","0","1","0","148.66599999403115","1003.2479999999923","1000","[[[""img/mask99.png""]]]","","","main","356","color-precision2"
"","","","","","html-keyboard-response","64","205903","0.0-10.0-1.22","5e402dcd7b260d000a7b69fe","640759fa512f630a2bdc333d","6408c17ccaaf0e0469ab9a4a","null","","null","","","","","","","","","","","","","","","","","","","fixation","",""
"","","","","","many-guess-6","65","209306","0.0-10.0-0.23-0.23","5e402dcd7b260d000a7b69fe","640759fa512f630a2bdc333d","6408c17ccaaf0e0469ab9a4a","[1799.3999999985099]","","","[25,26,4,30,28,8,17,14,19,7,0,34,22,10,2,27,32,20,31,1,9,15,24,3,23,21,18,29,13,5,16,35,6,12,33,11]","[170,61,51,71,320,350,280,260,160,300,310,11,330,31,150,130,121,21,340,210,41,230,180,190,140,220,81,91,1,290,101,250,240,270,200,111]","170","214","0.14151991168667086","[0.14151991168667086]","[146.14151991168666]","[145]","[30,120,300,30,210,30,120,210,120]","0","36","0","150.0240000000049","12.67799999404815","16","[[[""img/mask22.png""],[""img/mask22.png""],[""img/mask24.png""],[""img/mask16.png""],[""img/mask58.png""],[""img/mask63.png""],[""img/mask4.png""],[""img/mask56.png""],[""img/mask93.png""],[""img/mask4.png""],[""img/mask96.png""],[""img/mask81.png""],[""img/mask93.png""],[""img/mask60.png""],[""img/mask93.png""],[""img/mask72.png""],[""img/mask29.png""],[""img/mask35.png""],[""img/mask39.png""],[""img/mask58.png""],[""img/mask42.png""],[""img/mask76.png""],[""img/mask38.png""],[""img/mask20.png""],[""img/mask26.png""],[""img/mask46.png""],[""img/mask84.png""],[""img/mask39.png""],[""img/mask92.png""],[""img/mask23.png""],[""img/mask22.png""],[""img/mask2.png""],[""img/mask91.png""],[""img/mask76.png""],[""img/mask25.png""],[""img/mask55.png""]]]","","[25,26,4,30,28,8,17,14,19,7,0,34,22,10,2,27,32,20,31,1,9,15,24,3,23,21,18,29,13,5,16,35,6,12,33,11]","main","214","many-guess-6"
"","","","","","html-keyboard-response","66","209807","0.0-10.0-1.23","5e402dcd7b260d000a7b69fe","640759fa512f630a2bdc333d","6408c17ccaaf0e0469ab9a4a","null","","null","","","","","","","","","","","","","","","","","","","fixation","",""
"","","","","","color-precision2","67","213010","0.0-10.0-0.24-0.24","5e402dcd7b260d000a7b69fe","640759fa512f630a2bdc333d","6408c17ccaaf0e0469ab9a4a","[1014.6000000014901]","","","[3]","[94]","94","280","27.899219558994115","[27.899219558994115]","[107.8992195589941]","[107]","0","0","1","0","148.61099999403814","1001.6719999999914","1000","[[[""img/mask97.png""]]]","","","main","280","color-precision2"
"","","","","","html-keyboard-response","68","213513","0.0-10.0-1.24","5e402dcd7b260d000a7b69fe","640759fa512f630a2bdc333d","6408c17ccaaf0e0469ab9a4a","null","","null","","","","","","","","","","","","","","","","","","","fixation","",""
"","","","","","many-guess-6","69","217098","0.0-10.0-0.25-0.25","5e402dcd7b260d000a7b69fe","640759fa512f630a2bdc333d","6408c17ccaaf0e0469ab9a4a","[2266.5]","","","[8,24,30,27,18,0,9,14,19,23,31,3,20,15,6,35,22,29,25,1,33,34,16,11,28,2,21,10,26,17,4,7,32,5,13,12]","[253,34,203,213,64,193,44,123,353,173,163,283,233,84,24,113,323,313,333,273,93,143,74,293,54,153,133,243,223,343,103,14,303,4,183,263]","253","58","172.2436765526001","[172.2436765526001]","[114.2436765526001]","[113]","[30,120,210,300,120,210,30,300,30]","0","36","0","149.33599999552825","14.366999994032085","16","[[[""img/mask60.png""],[""img/mask25.png""],[""img/mask93.png""],[""img/mask34.png""],[""img/mask99.png""],[""img/mask47.png""],[""img/mask93.png""],[""img/mask28.png""],[""img/mask11.png""],[""img/mask27.png""],[""img/mask36.png""],[""img/mask37.png""],[""img/mask99.png""],[""img/mask53.png""],[""img/mask100.png""],[""img/mask68.png""],[""img/mask48.png""],[""img/mask50.png""],[""img/mask27.png""],[""img/mask95.png""],[""img/mask34.png""],[""img/mask37.png""],[""img/mask65.png""],[""img/mask16.png""],[""img/mask27.png""],[""img/mask58.png""],[""img/mask3.png""],[""img/mask67.png""],[""img/mask13.png""],[""img/mask53.png""],[""img/mask39.png""],[""img/mask43.png""],[""img/mask70.png""],[""img/mask96.png""],[""img/mask37.png""],[""img/mask63.png""]]]","","[8,24,30,27,18,0,9,14,19,23,31,3,20,15,6,35,22,29,25,1,33,34,16,11,28,2,21,10,26,17,4,7,32,5,13,12]","main","58","many-guess-6"
"","","","","","html-keyboard-response","70","217599","0.0-10.0-1.25","5e402dcd7b260d000a7b69fe","640759fa512f630a2bdc333d","6408c17ccaaf0e0469ab9a4a","null","","null","","","","","","","","","","","","","","","","","","","fixation","",""
"","","","","","color-precision2","71","221058","0.0-10.0-0.26-0.26","5e402dcd7b260d000a7b69fe","640759fa512f630a2bdc333d","6408c17ccaaf0e0469ab9a4a","[936.1000000014901]","","","[25]","[197]","197","155","350.90657956051774","[350.90657956051774]","[195.90657956051774]","[197]","0","0","1","0","148.08499999999185","997.2000000000116","1000","[[[""img/mask76.png""]]]","","","main","155","color-precision2"
"","","","","","html-keyboard-response","72","221559","0.0-10.0-1.26","5e402dcd7b260d000a7b69fe","640759fa512f630a2bdc333d","6408c17ccaaf0e0469ab9a4a","null","","null","","","","","","","","","","","","","","","","","","","fixation","",""
"","","","","","color-precision2","73","224074","0.0-10.0-0.27-0.27","5e402dcd7b260d000a7b69fe","640759fa512f630a2bdc333d","6408c17ccaaf0e0469ab9a4a","[214.79999999701977]","","","[21]","[223]","223","70","304.2702061753435","[304.2702061753435]","[234.2702061753435]","[235]","0","0","1","0","149.46899999701418","996.6679999970074","1000","[[[""img/mask18.png""]]]","","","main","70","color-precision2"
"","","","","","html-keyboard-response","74","224575","0.0-10.0-1.27","5e402dcd7b260d000a7b69fe","640759fa512f630a2bdc333d","6408c17ccaaf0e0469ab9a4a","null","","null","","","","","","","","","","","","","","","","","","","fixation","",""
"","","","","","color-precision2","75","227970","0.0-10.0-0.28-0.28","5e402dcd7b260d000a7b69fe","640759fa512f630a2bdc333d","6408c17ccaaf0e0469ab9a4a","[723.2999999970198]","","","[5]","[241]","241","7","258.96978467030954","[258.96978467030954]","[251.96978467030954]","[252]","0","0","1","0","148.2619999970193","1001.500999998505","1000","[[[""img/mask63.png""]]]","","","main","7","color-precision2"
"","","","","","html-keyboard-response","76","228472","0.0-10.0-1.28","5e402dcd7b260d000a7b69fe","640759fa512f630a2bdc333d","6408c17ccaaf0e0469ab9a4a","null","","null","","","","","","","","","","","","","","","","","","","fixation","",""
"","","","","","color-precision2","77","231882","0.0-10.0-0.29-0.29","5e402dcd7b260d000a7b69fe","640759fa512f630a2bdc333d","6408c17ccaaf0e0469ab9a4a","[897.6000000014901]","","","[26]","[88]","88","128","214.39311994825079","[214.39311994825079]","[86.39311994825079]","[88]","0","0","1","0","149.19299999403302","1006.871999995521","1000","[[[""img/mask67.png""]]]","","","main","128","color-precision2"
"","","","","","html-keyboard-response","78","232391","0.0-10.0-1.29","5e402dcd7b260d000a7b69fe","640759fa512f630a2bdc333d","6408c17ccaaf0e0469ab9a4a","null","","null","","","","","","","","","","","","","","","","","","","fixation","",""
"","","","","","many-guess-6","79","237139","0.0-10.0-0.30-0.30","5e402dcd7b260d000a7b69fe","640759fa512f630a2bdc333d","6408c17ccaaf0e0469ab9a4a","[2884.10000000149]","","","[28,34,33,23,27,2,7,9,31,35,0,8,10,29,5,30,11,15,22,26,13,25,3,24,21,17,12,20,18,6,16,14,32,4,1,19]","[224,354,35,274,294,194,334,65,15,175,25,314,284,135,55,344,234,45,155,214,244,145,75,204,264,105,254,5,185,125,115,165,95,304,85,324]","224","77","225.77615917965915","[225.77615917965915]","[148.77615917965915]","[149]","[300,120,30,30,30,210,120,120,120]","0","36","0","149.10899999403046","15.229999994044192","16","[[[""img/mask75.png""],[""img/mask91.png""],[""img/mask12.png""],[""img/mask39.png""],[""img/mask23.png""],[""img/mask70.png""],[""img/mask17.png""],[""img/mask31.png""],[""img/mask36.png""],[""img/mask92.png""],[""img/mask55.png""],[""img/mask6.png""],[""img/mask6.png""],[""img/mask58.png""],[""img/mask72.png""],[""img/mask65.png""],[""img/mask28.png""],[""img/mask98.png""],[""img/mask97.png""],[""img/mask56.png""],[""img/mask8.png""],[""img/mask41.png""],[""img/mask82.png""],[""img/mask35.png""],[""img/mask90.png""],[""img/mask82.png""],[""img/mask100.png""],[""img/mask73.png""],[""img/mask57.png""],[""img/mask96.png""],[""img/mask91.png""],[""img/mask1.png""],[""img/mask34.png""],[""img/mask83.png""],[""img/mask6.png""],[""img/mask35.png""]]]","","[28,34,33,23,27,2,7,9,31,35,0,8,10,29,5,30,11,15,22,26,13,25,3,24,21,17,12,20,18,6,16,14,32,4,1,19]","main","77","many-guess-6"
"","","","","","html-keyboard-response","80","237640","0.0-10.0-1.30","5e402dcd7b260d000a7b69fe","640759fa512f630a2bdc333d","6408c17ccaaf0e0469ab9a4a","null","","null","","","","","","","","","","","","","","","","","","","fixation","",""
"","","","","","many-guess-6","81","240819","0.0-10.0-0.31-0.31","5e402dcd7b260d000a7b69fe","640759fa512f630a2bdc333d","6408c17ccaaf0e0469ab9a4a","[1725.1000000014901]","","","[19,27,10,16,31,12,3,30,21,11,8,4,34,14,5,25,33,15,2,23,32,18,35,17,29,7,0,24,13,6,9,28,26,22,1,20]","[60,239,359,249,279,289,80,259,70,190,339,180,329,110,50,319,140,40,269,199,170,30,309,120,160,349,229,10,299,150,20,219,90,130,100,209]","60","202","43.722971424786905","[43.722971424786905]","[201.72297142478692]","[200]","[210,210,300,30,210,120,300,120,30]","0","36","0","149.30199999702745","22.379999997006962","16","[[[""img/mask27.png""],[""img/mask43.png""],[""img/mask50.png""],[""img/mask28.png""],[""img/mask65.png""],[""img/mask20.png""],[""img/mask78.png""],[""img/mask67.png""],[""img/mask34.png""],[""img/mask45.png""],[""img/mask33.png""],[""img/mask5.png""],[""img/mask8.png""],[""img/mask52.png""],[""img/mask32.png""],[""img/mask49.png""],[""img/mask5.png""],[""img/mask30.png""],[""img/mask17.png""],[""img/mask15.png""],[""img/mask35.png""],[""img/mask74.png""],[""img/mask44.png""],[""img/mask4.png""],[""img/mask96.png""],[""img/mask20.png""],[""img/mask11.png""],[""img/mask26.png""],[""img/mask71.png""],[""img/mask58.png""],[""img/mask11.png""],[""img/mask67.png""],[""img/mask7.png""],[""img/mask23.png""],[""img/mask41.png""],[""img/mask61.png""]]]","","[19,27,10,16,31,12,3,30,21,11,8,4,34,14,5,25,33,15,2,23,32,18,35,17,29,7,0,24,13,6,9,28,26,22,1,20]","main","202","many-guess-6"
"","","","","","html-keyboard-response","82","241319","0.0-10.0-1.31","5e402dcd7b260d000a7b69fe","640759fa512f630a2bdc333d","6408c17ccaaf0e0469ab9a4a","null","","null","","","","","","","","","","","","","","","","","","","fixation","",""
"","","","","","many-guess-6","83","244675","0.0-10.0-0.32-0.32","5e402dcd7b260d000a7b69fe","640759fa512f630a2bdc333d","6408c17ccaaf0e0469ab9a4a","[1710.1000000014901]","","","[32,20,34,4,15,26,10,31,30,33,7,29,23,28,1,16,13,25,17,5,14,24,3,27,2,8,0,12,18,6,19,9,22,35,11,21]","[314,155,205,354,55,15,324,274,254,224,35,294,165,145,215,244,304,115,344,175,334,234,5,25,105,45,264,85,95,135,284,195,75,65,185,125]","314","213","271.66495310141187","[271.66495310141187]","[58.66495310141187]","[59]","[210,120,210,120,210,300,30,300,300]","0","36","0","149.2049999955343","21.94799999552197","16","[[[""img/mask58.png""],[""img/mask56.png""],[""img/mask85.png""],[""img/mask49.png""],[""img/mask17.png""],[""img/mask96.png""],[""img/mask67.png""],[""img/mask91.png""],[""img/mask67.png""],[""img/mask54.png""],[""img/mask8.png""],[""img/mask54.png""],[""img/mask83.png""],[""img/mask30.png""],[""img/mask58.png""],[""img/mask36.png""],[""img/mask82.png""],[""img/mask13.png""],[""img/mask16.png""],[""img/mask90.png""],[""img/mask71.png""],[""img/mask41.png""],[""img/mask58.png""],[""img/mask80.png""],[""img/mask23.png""],[""img/mask97.png""],[""img/mask97.png""],[""img/mask67.png""],[""img/mask24.png""],[""img/mask16.png""],[""img/mask92.png""],[""img/mask15.png""],[""img/mask5.png""],[""img/mask49.png""],[""img/mask100.png""],[""img/mask89.png""]]]","","[32,20,34,4,15,26,10,31,30,33,7,29,23,28,1,16,13,25,17,5,14,24,3,27,2,8,0,12,18,6,19,9,22,35,11,21]","main","213","many-guess-6"
"","","","","","html-keyboard-response","84","245185","0.0-10.0-1.32","5e402dcd7b260d000a7b69fe","640759fa512f630a2bdc333d","6408c17ccaaf0e0469ab9a4a","null","","null","","","","","","","","","","","","","","","","","","","fixation","",""
"","","","","","color-precision2","85","249059","0.0-10.0-0.33-0.33","5e402dcd7b260d000a7b69fe","640759fa512f630a2bdc333d","6408c17ccaaf0e0469ab9a4a","[1004.6000000014901]","","","[20]","[62]","62","90","143.44955487289448","[143.44955487289448]","[53.44955487289448]","[52]","0","0","1","0","148.56399999701534","996.5519999940298","1000","[[[""img/mask16.png""]]]","","","main","90","color-precision2"
"","","","","","html-keyboard-response","86","249559","0.0-10.0-1.33","5e402dcd7b260d000a7b69fe","640759fa512f630a2bdc333d","6408c17ccaaf0e0469ab9a4a","null","","null","","","","","","","","","","","","","","","","","","","fixation","",""
"","","","","","many-guess-6","87","253779","0.0-10.0-0.34-0.34","5e402dcd7b260d000a7b69fe","640759fa512f630a2bdc333d","6408c17ccaaf0e0469ab9a4a","[1853.7000000029802]","","","[32,14,13,8,19,33,10,24,12,21,17,25,27,9,34,16,18,30,26,5,22,11,1,0,4,6,7,29,31,2,20,28,3,23,35,15]","[138,178,18,68,327,98,248,347,128,238,38,357,118,78,307,268,58,8,198,287,188,148,258,317,297,218,208,228,88,337,108,28,158,168,48,278]","138","103","265.1366302873155","[265.1366302873155]","[162.13663028731548]","[162]","[120,300,300,210,30,120,300,30,30]","0","36","0","149.5579999955371","10.718999995529884","16","[[[""img/mask79.png""],[""img/mask30.png""],[""img/mask10.png""],[""img/mask73.png""],[""img/mask92.png""],[""img/mask61.png""],[""img/mask27.png""],[""img/mask14.png""],[""img/mask85.png""],[""img/mask21.png""],[""img/mask26.png""],[""img/mask47.png""],[""img/mask49.png""],[""img/mask6.png""],[""img/mask95.png""],[""img/mask77.png""],[""img/mask88.png""],[""img/mask31.png""],[""img/mask1.png""],[""img/mask74.png""],[""img/mask26.png""],[""img/mask44.png""],[""img/mask11.png""],[""img/mask50.png""],[""img/mask20.png""],[""img/mask56.png""],[""img/mask75.png""],[""img/mask80.png""],[""img/mask91.png""],[""img/mask15.png""],[""img/mask9.png""],[""img/mask43.png""],[""img/mask93.png""],[""img/mask28.png""],[""img/mask23.png""],[""img/mask7.png""]]]","","[32,14,13,8,19,33,10,24,12,21,17,25,27,9,34,16,18,30,26,5,22,11,1,0,4,6,7,29,31,2,20,28,3,23,35,15]","main","103","many-guess-6"
"","","","","","html-keyboard-response","88","254280","0.0-10.0-1.34","5e402dcd7b260d000a7b69fe","640759fa512f630a2bdc333d","6408c17ccaaf0e0469ab9a4a","null","","null","","","","","","","","","","","","","","","","","","","fixation","",""
"","","","","","color-precision2","89","257043","0.0-10.0-0.35-0.35","5e402dcd7b260d000a7b69fe","640759fa512f630a2bdc333d","6408c17ccaaf0e0469ab9a4a","[228.5]","","","[17]","[164]","164","125","312.26845503989483","[312.26845503989483]","[187.26845503989483]","[187]","0","0","1","0","148.77499999850988","997.4249999985041","1000","[[[""img/mask33.png""]]]","","","main","125","color-precision2"
"","","","","","html-keyboard-response","90","257543","0.0-10.0-1.35","5e402dcd7b260d000a7b69fe","640759fa512f630a2bdc333d","6408c17ccaaf0e0469ab9a4a","null","","null","","","","","","","","","","","","","","","","","","","fixation","",""
"","","","","","many-guess-6","91","260843","0.0-10.0-0.36-0.36","5e402dcd7b260d000a7b69fe","640759fa512f630a2bdc333d","6408c17ccaaf0e0469ab9a4a","[1642.3999999985099]","","","[18,25,6,15,7,17,9,4,31,21,8,5,20,35,12,2,32,27,29,1,19,3,14,0,16,10,11,26,33,34,13,23,24,28,30,22]","[142,12,222,52,212,242,102,321,262,182,42,292,162,152,72,112,282,252,331,132,311,192,202,301,232,2,62,351,341,22,32,122,82,92,272,172]","142","299","208.2082613522459","[208.2082613522459]","[269.2082613522459]","[269]","[210,210,120,120,210,120,210,300,120]","0","36","0","149.13999999553198","18.53899999850546","16","[[[""img/mask19.png""],[""img/mask90.png""],[""img/mask36.png""],[""img/mask37.png""],[""img/mask44.png""],[""img/mask85.png""],[""img/mask46.png""],[""img/mask10.png""],[""img/mask8.png""],[""img/mask32.png""],[""img/mask36.png""],[""img/mask93.png""],[""img/mask60.png""],[""img/mask2.png""],[""img/mask42.png""],[""img/mask44.png""],[""img/mask3.png""],[""img/mask100.png""],[""img/mask21.png""],[""img/mask52.png""],[""img/mask78.png""],[""img/mask82.png""],[""img/mask69.png""],[""img/mask14.png""],[""img/mask38.png""],[""img/mask6.png""],[""img/mask35.png""],[""img/mask49.png""],[""img/mask49.png""],[""img/mask31.png""],[""img/mask75.png""],[""img/mask24.png""],[""img/mask35.png""],[""img/mask90.png""],[""img/mask64.png""],[""img/mask91.png""]]]","","[18,25,6,15,7,17,9,4,31,21,8,5,20,35,12,2,32,27,29,1,19,3,14,0,16,10,11,26,33,34,13,23,24,28,30,22]","main","299","many-guess-6"
"","","","","","html-keyboard-response","92","261344","0.0-10.0-1.36","5e402dcd7b260d000a7b69fe","640759fa512f630a2bdc333d","6408c17ccaaf0e0469ab9a4a","null","","null","","","","","","","","","","","","","","","","","","","fixation","",""
"","","","","","many-guess-6","93","264387","0.0-10.0-0.37-0.37","5e402dcd7b260d000a7b69fe","640759fa512f630a2bdc333d","6408c17ccaaf0e0469ab9a4a","[1882.7000000029802]","","","[23,31,33,16,15,18,22,12,27,17,26,24,29,1,3,13,14,6,28,35,21,5,32,4,7,10,30,0,25,19,9,2,20,34,8,11]","[305,345,126,225,205,175,16,76,185,335,285,136,235,106,96,325,116,145,66,195,155,165,6,265,355,295,315,215,245,255,46,36,86,56,26,275]","305","177","240.9824621723445","[240.9824621723445]","[63.9824621723445]","[64]","[120,30,210,120,210,30,300,120,120]","0","36","0","149.46099999552825","9.347000000008848","16","[[[""img/mask100.png""],[""img/mask48.png""],[""img/mask47.png""],[""img/mask41.png""],[""img/mask69.png""],[""img/mask38.png""],[""img/mask5.png""],[""img/mask78.png""],[""img/mask55.png""],[""img/mask51.png""],[""img/mask10.png""],[""img/mask47.png""],[""img/mask6.png""],[""img/mask99.png""],[""img/mask32.png""],[""img/mask93.png""],[""img/mask75.png""],[""img/mask74.png""],[""img/mask44.png""],[""img/mask31.png""],[""img/mask68.png""],[""img/mask1.png""],[""img/mask89.png""],[""img/mask14.png""],[""img/mask25.png""],[""img/mask51.png""],[""img/mask79.png""],[""img/mask87.png""],[""img/mask7.png""],[""img/mask70.png""],[""img/mask67.png""],[""img/mask8.png""],[""img/mask70.png""],[""img/mask20.png""],[""img/mask86.png""],[""img/mask17.png""]]]","","[23,31,33,16,15,18,22,12,27,17,26,24,29,1,3,13,14,6,28,35,21,5,32,4,7,10,30,0,25,19,9,2,20,34,8,11]","main","177","many-guess-6"
"","","","","","html-keyboard-response","94","264887","0.0-10.0-1.37","5e402dcd7b260d000a7b69fe","640759fa512f630a2bdc333d","6408c17ccaaf0e0469ab9a4a","null","","null","","","","","","","","","","","","","","","","","","","fixation","",""
"","","","","","color-precision2","95","267603","0.0-10.0-0.38-0.38","5e402dcd7b260d000a7b69fe","640759fa512f630a2bdc333d","6408c17ccaaf0e0469ab9a4a","[327]","","","[6]","[187]","187","293","113.3961022869801","[113.3961022869801]","[180.3961022869801]","[179]","0","0","1","0","148.2959999985178","1005.5800000000163","1000","[[[""img/mask22.png""]]]","","","main","293","color-precision2"
"","","","","","html-keyboard-response","96","268104","0.0-10.0-1.38","5e402dcd7b260d000a7b69fe","640759fa512f630a2bdc333d","6408c17ccaaf0e0469ab9a4a","null","","null","","","","","","","","","","","","","","","","","","","fixation","",""
"","","","","","many-guess-6","97","271379","0.0-10.0-0.39-0.39","5e402dcd7b260d000a7b69fe","640759fa512f630a2bdc333d","6408c17ccaaf0e0469ab9a4a","[1232.7000000029802]","","","[35,18,6,25,11,24,32,8,27,14,0,1,17,23,5,2,30,19,9,4,16,13,15,21,12,3,20,31,22,28,10,7,34,33,26,29]","[37,326,266,146,166,137,186,77,246,67,17,236,27,127,296,97,57,47,156,256,107,7,87,336,226,346,276,316,206,286,356,216,176,196,306,117]","37","211","68.42283190435727","[68.42283190435727]","[217.42283190435728]","[216]","[120,30,30,120,120,120,30,120,30]","0","36","0","149.30399999849033","21.362999997043516","16","[[[""img/mask65.png""],[""img/mask34.png""],[""img/mask15.png""],[""img/mask61.png""],[""img/mask78.png""],[""img/mask74.png""],[""img/mask85.png""],[""img/mask28.png""],[""img/mask57.png""],[""img/mask90.png""],[""img/mask27.png""],[""img/mask55.png""],[""img/mask2.png""],[""img/mask99.png""],[""img/mask22.png""],[""img/mask78.png""],[""img/mask85.png""],[""img/mask10.png""],[""img/mask43.png""],[""img/mask77.png""],[""img/mask53.png""],[""img/mask11.png""],[""img/mask57.png""],[""img/mask41.png""],[""img/mask60.png""],[""img/mask38.png""],[""img/mask88.png""],[""img/mask46.png""],[""img/mask31.png""],[""img/mask78.png""],[""img/mask32.png""],[""img/mask33.png""],[""img/mask46.png""],[""img/mask48.png""],[""img/mask18.png""],[""img/mask90.png""]]]","","[35,18,6,25,11,24,32,8,27,14,0,1,17,23,5,2,30,19,9,4,16,13,15,21,12,3,20,31,22,28,10,7,34,33,26,29]","main","211","many-guess-6"
"","","","","","html-keyboard-response","98","272874","0.0-10.0-1.39","5e402dcd7b260d000a7b69fe","640759fa512f630a2bdc333d","6408c17ccaaf0e0469ab9a4a","1494.6000000014901","Wow! You've completed 40 out of 180 trials! </p> <p>  </p><p> Take a quick break, then press any key when you're ready to continue.","enter","","","","","","","","","","","","","","","","","","","fixation","",""
"","","","","","many-guess-6","99","280371","0.0-10.0-0.40-0.40","5e402dcd7b260d000a7b69fe","640759fa512f630a2bdc333d","6408c17ccaaf0e0469ab9a4a","[1531.1000000014901]","","","[23,15,33,9,24,7,28,27,2,34,21,29,12,19,3,11,10,14,26,18,17,25,5,4,31,8,16,13,32,6,20,30,1,0,22,35]","[301,351,231,281,241,261,72,62,171,91,131,291,341,32,22,2,211,251,331,101,12,271,191,52,42,321,201,141,161,111,151,181,121,221,82,311]","301","267","294.3429295346623","[294.3429295346623]","[27.34292953466229]","[28]","[300,120,210,300,120,300,210,120,30]","0","36","0","149.2849999940372","10.244999998481944","16","[[[""img/mask68.png""],[""img/mask10.png""],[""img/mask38.png""],[""img/mask24.png""],[""img/mask37.png""],[""img/mask66.png""],[""img/mask71.png""],[""img/mask5.png""],[""img/mask18.png""],[""img/mask85.png""],[""img/mask85.png""],[""img/mask68.png""],[""img/mask51.png""],[""img/mask2.png""],[""img/mask97.png""],[""img/mask15.png""],[""img/mask42.png""],[""img/mask17.png""],[""img/mask62.png""],[""img/mask14.png""],[""img/mask9.png""],[""img/mask30.png""],[""img/mask16.png""],[""img/mask28.png""],[""img/mask52.png""],[""img/mask36.png""],[""img/mask33.png""],[""img/mask14.png""],[""img/mask60.png""],[""img/mask7.png""],[""img/mask16.png""],[""img/mask50.png""],[""img/mask69.png""],[""img/mask85.png""],[""img/mask73.png""],[""img/mask90.png""]]]","","[23,15,33,9,24,7,28,27,2,34,21,29,12,19,3,11,10,14,26,18,17,25,5,4,31,8,16,13,32,6,20,30,1,0,22,35]","main","267","many-guess-6"
"","","","","","html-keyboard-response","100","280872","0.0-10.0-1.40","5e402dcd7b260d000a7b69fe","640759fa512f630a2bdc333d","6408c17ccaaf0e0469ab9a4a","null","","null","","","","","","","","","","","","","","","","","","","fixation","",""
"","","","","","color-precision2","101","283531","0.0-10.0-0.41-0.41","5e402dcd7b260d000a7b69fe","640759fa512f630a2bdc333d","6408c17ccaaf0e0469ab9a4a","[236]","","","[11]","[273]","273","190","100.98663254035755","[100.98663254035755]","[270.98663254035756]","[269]","0","0","1","0","149.07699999550823","998.1569999940111","1000","[[[""img/mask65.png""]]]","","","main","190","color-precision2"
"","","","","","html-keyboard-response","102","284032","0.0-10.0-1.41","5e402dcd7b260d000a7b69fe","640759fa512f630a2bdc333d","6408c17ccaaf0e0469ab9a4a","null","","null","","","","","","","","","","","","","","","","","","","fixation","",""
"","","","","","color-precision2","103","287267","0.0-10.0-0.42-0.42","5e402dcd7b260d000a7b69fe","640759fa512f630a2bdc333d","6408c17ccaaf0e0469ab9a4a","[400]","","","[24]","[277]","277","181","87.62504861579043","[87.62504861579043]","[266.62504861579043]","[265]","0","0","1","0","148.1819999999716","998.1449999969918","1000","[[[""img/mask81.png""]]]","","","main","181","color-precision2"
"","","","","","html-keyboard-response","104","287773","0.0-10.0-1.42","5e402dcd7b260d000a7b69fe","640759fa512f630a2bdc333d","6408c17ccaaf0e0469ab9a4a","null","","null","","","","","","","","","","","","","","","","","","","fixation","",""
"","","","","","color-precision2","105","290547","0.0-10.0-0.43-0.43","5e402dcd7b260d000a7b69fe","640759fa512f630a2bdc333d","6408c17ccaaf0e0469ab9a4a","[210.5]","","","[35]","[135]","135","126","252.53233773623708","[252.53233773623708]","[126.53233773623708]","[127]","0","0","1","0","147.60499999701278","993.209999995539","1000","[[[""img/mask15.png""]]]","","","main","126","color-precision2"
"","","","","","html-keyboard-response","106","291047","0.0-10.0-1.43","5e402dcd7b260d000a7b69fe","640759fa512f630a2bdc333d","6408c17ccaaf0e0469ab9a4a","null","","null","","","","","","","","","","","","","","","","","","","fixation","",""
"","","","","","color-precision2","107","293963","0.0-10.0-0.44-0.44","5e402dcd7b260d000a7b69fe","640759fa512f630a2bdc333d","6408c17ccaaf0e0469ab9a4a","[206]","","","[13]","[209]","209","139","1.1939008056750462","[1.1939008056750462]","[222.19390080567504]","[221]","0","0","1","0","149.25399999704678","1004.9939999984927","1000","[[[""img/mask96.png""]]]","","","main","139","color-precision2"
"","","","","","html-keyboard-response","108","294464","0.0-10.0-1.44","5e402dcd7b260d000a7b69fe","640759fa512f630a2bdc333d","6408c17ccaaf0e0469ab9a4a","null","","null","","","","","","","","","","","","","","","","","","","fixation","",""
"","","","","","color-precision2","109","296923","0.0-10.0-0.45-0.45","5e402dcd7b260d000a7b69fe","640759fa512f630a2bdc333d","6408c17ccaaf0e0469ab9a4a","[78.39999999850988]","","","[28]","[294]","294","246","","[null]","[null]","[294]","0","0","1","0","148.24599999852944","998.4679999999935","1000","[[[""img/mask17.png""]]]","","","main","246","color-precision2"
"","","","","","html-keyboard-response","110","297427","0.0-10.0-1.45","5e402dcd7b260d000a7b69fe","640759fa512f630a2bdc333d","6408c17ccaaf0e0469ab9a4a","null","","null","","","","","","","","","","","","","","","","","","","fixation","",""
"","","","","","color-precision2","111","300546","0.0-10.0-0.46-0.46","5e402dcd7b260d000a7b69fe","640759fa512f630a2bdc333d","6408c17ccaaf0e0469ab9a4a","[732.0999999940395]","","","[19]","[318]","318","89","68.2682541838007","[68.2682541838007]","[339.2682541838007]","[338]","0","0","1","0","149.35599999851547","991.6849999940605","1000","[[[""img/mask92.png""]]]","","","main","89","color-precision2"
"","","","","","html-keyboard-response","112","301052","0.0-10.0-1.46","5e402dcd7b260d000a7b69fe","640759fa512f630a2bdc333d","6408c17ccaaf0e0469ab9a4a","null","","null","","","","","","","","","","","","","","","","","","","fixation","",""
"","","","","","many-guess-6","113","303963","0.0-10.0-0.47-0.47","5e402dcd7b260d000a7b69fe","640759fa512f630a2bdc333d","6408c17ccaaf0e0469ab9a4a","[1696.3999999985099]","","","[1,9,15,34,10,11,0,23,24,3,6,19,21,28,30,7,29,2,8,20,17,35,14,27,5,26,16,31,32,18,22,33,13,25,12,4]","[153,123,233,14,54,323,44,303,24,243,64,173,113,283,203,313,4,73,353,293,343,103,273,183,213,263,93,143,163,253,83,133,223,34,193,333]","153","126","135.20818160058766","[135.20818160058766]","[9.208181600587665]","[7]","[120,300,120,120,300,300,210,120,120]","0","36","0","149.26899999997113","19.441999999980908","16","[[[""img/mask70.png""],[""img/mask24.png""],[""img/mask52.png""],[""img/mask9.png""],[""img/mask36.png""],[""img/mask49.png""],[""img/mask60.png""],[""img/mask18.png""],[""img/mask56.png""],[""img/mask11.png""],[""img/mask18.png""],[""img/mask79.png""],[""img/mask6.png""],[""img/mask38.png""],[""img/mask12.png""],[""img/mask6.png""],[""img/mask75.png""],[""img/mask70.png""],[""img/mask74.png""],[""img/mask3.png""],[""img/mask33.png""],[""img/mask29.png""],[""img/mask30.png""],[""img/mask9.png""],[""img/mask77.png""],[""img/mask72.png""],[""img/mask20.png""],[""img/mask90.png""],[""img/mask84.png""],[""img/mask68.png""],[""img/mask50.png""],[""img/mask14.png""],[""img/mask99.png""],[""img/mask23.png""],[""img/mask54.png""],[""img/mask18.png""]]]","","[1,9,15,34,10,11,0,23,24,3,6,19,21,28,30,7,29,2,8,20,17,35,14,27,5,26,16,31,32,18,22,33,13,25,12,4]","main","126","many-guess-6"
"","","","","","html-keyboard-response","114","304463","0.0-10.0-1.47","5e402dcd7b260d000a7b69fe","640759fa512f630a2bdc333d","6408c17ccaaf0e0469ab9a4a","null","","null","","","","","","","","","","","","","","","","","","","fixation","",""
"","","","","","many-guess-6","115","307491","0.0-10.0-0.48-0.48","5e402dcd7b260d000a7b69fe","640759fa512f630a2bdc333d","6408c17ccaaf0e0469ab9a4a","[1503.2999999970198]","","","[12,23,7,34,28,30,31,5,10,4,18,35,8,1,20,27,19,32,16,15,17,33,0,29,11,13,21,6,2,25,3,24,9,14,26,22]","[92,82,142,242,162,291,212,182,251,261,222,351,62,331,311,52,232,12,341,202,72,281,112,2,102,301,172,32,192,122,132,22,271,321,152,42]","92","86","182.7967513136237","[182.7967513136237]","[96.7967513136237]","[96]","[210,210,300,210,120,210,30,300,30]","0","36","0","149.29299999406794","9.209999998507556","16","[[[""img/mask65.png""],[""img/mask27.png""],[""img/mask4.png""],[""img/mask28.png""],[""img/mask62.png""],[""img/mask65.png""],[""img/mask6.png""],[""img/mask66.png""],[""img/mask1.png""],[""img/mask20.png""],[""img/mask86.png""],[""img/mask57.png""],[""img/mask94.png""],[""img/mask47.png""],[""img/mask28.png""],[""img/mask99.png""],[""img/mask45.png""],[""img/mask72.png""],[""img/mask87.png""],[""img/mask98.png""],[""img/mask54.png""],[""img/mask79.png""],[""img/mask31.png""],[""img/mask49.png""],[""img/mask9.png""],[""img/mask61.png""],[""img/mask2.png""],[""img/mask72.png""],[""img/mask28.png""],[""img/mask51.png""],[""img/mask82.png""],[""img/mask72.png""],[""img/mask8.png""],[""img/mask86.png""],[""img/mask1.png""],[""img/mask79.png""]]]","","[12,23,7,34,28,30,31,5,10,4,18,35,8,1,20,27,19,32,16,15,17,33,0,29,11,13,21,6,2,25,3,24,9,14,26,22]","main","86","many-guess-6"
"","","","","","html-keyboard-response","116","307991","0.0-10.0-1.48","5e402dcd7b260d000a7b69fe","640759fa512f630a2bdc333d","6408c17ccaaf0e0469ab9a4a","null","","null","","","","","","","","","","","","","","","","","","","fixation","",""
"","","","","","many-guess-6","117","311163","0.0-10.0-0.49-0.49","5e402dcd7b260d000a7b69fe","640759fa512f630a2bdc333d","6408c17ccaaf0e0469ab9a4a","[1354.2999999970198]","","","[11,28,16,17,19,21,8,31,30,3,12,14,18,7,33,34,4,27,26,2,22,32,35,6,13,9,15,25,29,23,0,5,20,1,10,24]","[128,168,98,88,267,227,138,277,8,357,257,297,28,18,178,78,118,217,198,247,317,48,347,68,327,38,158,237,188,58,287,337,307,208,148,108]","128","3","269.4868711673746","[269.4868711673746]","[266.4868711673746]","[267]","[300,210,210,120,30,210,120,30,30]","0","36","0","149.30900000000838","23.9660000000149","16","[[[""img/mask43.png""],[""img/mask75.png""],[""img/mask31.png""],[""img/mask30.png""],[""img/mask91.png""],[""img/mask18.png""],[""img/mask87.png""],[""img/mask79.png""],[""img/mask83.png""],[""img/mask86.png""],[""img/mask2.png""],[""img/mask57.png""],[""img/mask81.png""],[""img/mask37.png""],[""img/mask81.png""],[""img/mask78.png""],[""img/mask49.png""],[""img/mask17.png""],[""img/mask94.png""],[""img/mask84.png""],[""img/mask71.png""],[""img/mask41.png""],[""img/mask27.png""],[""img/mask45.png""],[""img/mask33.png""],[""img/mask82.png""],[""img/mask8.png""],[""img/mask50.png""],[""img/mask91.png""],[""img/mask42.png""],[""img/mask50.png""],[""img/mask54.png""],[""img/mask42.png""],[""img/mask5.png""],[""img/mask13.png""],[""img/mask8.png""]]]","","[11,28,16,17,19,21,8,31,30,3,12,14,18,7,33,34,4,27,26,2,22,32,35,6,13,9,15,25,29,23,0,5,20,1,10,24]","main","3","many-guess-6"
"","","","","","html-keyboard-response","118","311663","0.0-10.0-1.49","5e402dcd7b260d000a7b69fe","640759fa512f630a2bdc333d","6408c17ccaaf0e0469ab9a4a","null","","null","","","","","","","","","","","","","","","","","","","fixation","",""
"","","","","","many-guess-6","119","314875","0.0-10.0-0.50-0.50","5e402dcd7b260d000a7b69fe","640759fa512f630a2bdc333d","6408c17ccaaf0e0469ab9a4a","[1745.7999999970198]","","","[6,4,3,16,5,35,22,27,33,31,20,12,14,29,10,9,21,11,19,28,7,32,30,25,13,23,17,34,26,8,2,1,18,15,0,24]","[169,249,339,119,59,159,109,49,289,319,189,209,29,89,129,359,10,199,309,99,349,139,279,149,229,219,69,329,179,79,299,269,239,20,39,259]","169","140","190.8163417463537","[190.8163417463537]","[50.816341746353686]","[50]","[120,120,300,300,210,300,210,210,210]","0","36","0","149.14999999850988","20.56099999404978","16","[[[""img/mask33.png""],[""img/mask83.png""],[""img/mask61.png""],[""img/mask5.png""],[""img/mask90.png""],[""img/mask99.png""],[""img/mask62.png""],[""img/mask80.png""],[""img/mask41.png""],[""img/mask25.png""],[""img/mask21.png""],[""img/mask66.png""],[""img/mask87.png""],[""img/mask100.png""],[""img/mask9.png""],[""img/mask9.png""],[""img/mask84.png""],[""img/mask6.png""],[""img/mask47.png""],[""img/mask17.png""],[""img/mask40.png""],[""img/mask21.png""],[""img/mask81.png""],[""img/mask28.png""],[""img/mask45.png""],[""img/mask22.png""],[""img/mask53.png""],[""img/mask72.png""],[""img/mask29.png""],[""img/mask40.png""],[""img/mask69.png""],[""img/mask22.png""],[""img/mask19.png""],[""img/mask61.png""],[""img/mask40.png""],[""img/mask39.png""]]]","","[6,4,3,16,5,35,22,27,33,31,20,12,14,29,10,9,21,11,19,28,7,32,30,25,13,23,17,34,26,8,2,1,18,15,0,24]","main","140","many-guess-6"
"","","","","","html-keyboard-response","120","315378","0.0-10.0-1.50","5e402dcd7b260d000a7b69fe","640759fa512f630a2bdc333d","6408c17ccaaf0e0469ab9a4a","null","","null","","","","","","","","","","","","","","","","","","","fixation","",""
"","","","","","color-precision2","121","317939","0.0-10.0-0.51-0.51","5e402dcd7b260d000a7b69fe","640759fa512f630a2bdc333d","6408c17ccaaf0e0469ab9a4a","[286.8999999985099]","","","[24]","[43]","43","326","14.521689295153966","[14.521689295153966]","[48.521689295153976]","[47]","0","0","1","0","148.2969999940251","999.3989999940386","1000","[[[""img/mask35.png""]]]","","","main","326","color-precision2"
"","","","","","html-keyboard-response","122","318441","0.0-10.0-1.51","5e402dcd7b260d000a7b69fe","640759fa512f630a2bdc333d","6408c17ccaaf0e0469ab9a4a","null","","null","","","","","","","","","","","","","","","","","","","fixation","",""
"","","","","","many-guess-6","123","321755","0.0-10.0-0.52-0.52","5e402dcd7b260d000a7b69fe","640759fa512f630a2bdc333d","6408c17ccaaf0e0469ab9a4a","[1283.8999999985099]","","","[25,8,4,28,7,22,29,17,11,5,26,34,35,16,27,24,31,3,30,9,10,13,12,19,15,0,2,21,33,18,23,1,6,20,32,14]","[249,279,349,120,50,150,179,40,140,229,259,309,199,219,100,169,110,159,189,30,329,299,319,209,359,289,130,70,239,80,10,60,90,20,339,269]","249","188","279.8734862240827","[279.8734862240827]","[91.87348622408268]","[92]","[300,210,300,300,30,300,30,120,210]","0","36","0","149.29299999552313","10.804999994055834","16","[[[""img/mask21.png""],[""img/mask19.png""],[""img/mask5.png""],[""img/mask63.png""],[""img/mask98.png""],[""img/mask56.png""],[""img/mask57.png""],[""img/mask69.png""],[""img/mask51.png""],[""img/mask63.png""],[""img/mask36.png""],[""img/mask98.png""],[""img/mask74.png""],[""img/mask44.png""],[""img/mask74.png""],[""img/mask32.png""],[""img/mask80.png""],[""img/mask25.png""],[""img/mask20.png""],[""img/mask37.png""],[""img/mask37.png""],[""img/mask81.png""],[""img/mask29.png""],[""img/mask36.png""],[""img/mask30.png""],[""img/mask93.png""],[""img/mask48.png""],[""img/mask90.png""],[""img/mask50.png""],[""img/mask42.png""],[""img/mask47.png""],[""img/mask30.png""],[""img/mask58.png""],[""img/mask93.png""],[""img/mask80.png""],[""img/mask30.png""]]]","","[25,8,4,28,7,22,29,17,11,5,26,34,35,16,27,24,31,3,30,9,10,13,12,19,15,0,2,21,33,18,23,1,6,20,32,14]","main","188","many-guess-6"
"","","","","","html-keyboard-response","124","322256","0.0-10.0-1.52","5e402dcd7b260d000a7b69fe","640759fa512f630a2bdc333d","6408c17ccaaf0e0469ab9a4a","null","","null","","","","","","","","","","","","","","","","","","","fixation","",""
"","","","","","many-guess-6","125","325555","0.0-10.0-0.53-0.53","5e402dcd7b260d000a7b69fe","640759fa512f630a2bdc333d","6408c17ccaaf0e0469ab9a4a","[1713.3999999985099]","","","[12,33,22,6,7,35,4,20,13,14,9,24,18,25,29,2,17,19,1,15,23,27,28,3,21,26,34,16,0,10,32,11,8,5,30,31]","[302,202,183,33,222,242,163,43,322,3,272,133,352,153,342,73,193,13,93,262,173,232,53,123,143,83,63,252,212,113,282,332,292,103,312,23]","302","326","92.49714045664415","[92.49714045664415]","[126.49714045664416]","[125]","[300,120,120,300,300,30,30,120,300]","0","36","0","149.24699999403674","23.59299999702489","16","[[[""img/mask7.png""],[""img/mask77.png""],[""img/mask43.png""],[""img/mask67.png""],[""img/mask14.png""],[""img/mask35.png""],[""img/mask54.png""],[""img/mask66.png""],[""img/mask89.png""],[""img/mask61.png""],[""img/mask28.png""],[""img/mask55.png""],[""img/mask42.png""],[""img/mask34.png""],[""img/mask5.png""],[""img/mask30.png""],[""img/mask13.png""],[""img/mask88.png""],[""img/mask46.png""],[""img/mask81.png""],[""img/mask13.png""],[""img/mask41.png""],[""img/mask26.png""],[""img/mask9.png""],[""img/mask67.png""],[""img/mask72.png""],[""img/mask73.png""],[""img/mask47.png""],[""img/mask7.png""],[""img/mask79.png""],[""img/mask83.png""],[""img/mask37.png""],[""img/mask93.png""],[""img/mask46.png""],[""img/mask35.png""],[""img/mask44.png""]]]","","[12,33,22,6,7,35,4,20,13,14,9,24,18,25,29,2,17,19,1,15,23,27,28,3,21,26,34,16,0,10,32,11,8,5,30,31]","main","326","many-guess-6"
"","","","","","html-keyboard-response","126","326058","0.0-10.0-1.53","5e402dcd7b260d000a7b69fe","640759fa512f630a2bdc333d","6408c17ccaaf0e0469ab9a4a","null","","null","","","","","","","","","","","","","","","","","","","fixation","",""
"","","","","","color-precision2","127","329155","0.0-10.0-0.54-0.54","5e402dcd7b260d000a7b69fe","640759fa512f630a2bdc333d","6408c17ccaaf0e0469ab9a4a","[775.2000000029802]","","","[27]","[104]","104","74","185.6411746881902","[185.6411746881902]","[111.6411746881902]","[111]","0","0","1","0","149.40299999550916","1001.6779999970458","1000","[[[""img/mask88.png""]]]","","","main","74","color-precision2"
"","","","","","html-keyboard-response","128","329667","0.0-10.0-1.54","5e402dcd7b260d000a7b69fe","640759fa512f630a2bdc333d","6408c17ccaaf0e0469ab9a4a","null","","null","","","","","","","","","","","","","","","","","","","fixation","",""
"","","","","","many-guess-6","129","334179","0.0-10.0-0.55-0.55","5e402dcd7b260d000a7b69fe","640759fa512f630a2bdc333d","6408c17ccaaf0e0469ab9a4a","[2845.39999999851]","","","[18,12,35,24,31,33,34,22,19,29,32,23,17,16,11,0,10,21,28,25,1,26,2,3,9,13,27,20,30,5,4,7,8,6,15,14]","[104,214,45,124,134,294,25,354,204,314,264,164,194,284,35,55,5,154,234,224,254,184,334,324,244,274,94,84,74,15,144,344,304,64,174,114]","104","172","276.4139665435171","[276.4139665435171]","[104.41396654351712]","[105]","[210,30,210,300,300,30,120,30,300]","0","36","0","149.17799999401905","20.070999997027684","16","[[[""img/mask37.png""],[""img/mask6.png""],[""img/mask40.png""],[""img/mask65.png""],[""img/mask64.png""],[""img/mask95.png""],[""img/mask64.png""],[""img/mask24.png""],[""img/mask88.png""],[""img/mask36.png""],[""img/mask15.png""],[""img/mask35.png""],[""img/mask48.png""],[""img/mask78.png""],[""img/mask92.png""],[""img/mask53.png""],[""img/mask26.png""],[""img/mask17.png""],[""img/mask30.png""],[""img/mask51.png""],[""img/mask17.png""],[""img/mask36.png""],[""img/mask31.png""],[""img/mask11.png""],[""img/mask92.png""],[""img/mask5.png""],[""img/mask96.png""],[""img/mask57.png""],[""img/mask89.png""],[""img/mask48.png""],[""img/mask29.png""],[""img/mask96.png""],[""img/mask39.png""],[""img/mask2.png""],[""img/mask10.png""],[""img/mask39.png""]]]","","[18,12,35,24,31,33,34,22,19,29,32,23,17,16,11,0,10,21,28,25,1,26,2,3,9,13,27,20,30,5,4,7,8,6,15,14]","main","172","many-guess-6"
"","","","","","html-keyboard-response","130","334693","0.0-10.0-1.55","5e402dcd7b260d000a7b69fe","640759fa512f630a2bdc333d","6408c17ccaaf0e0469ab9a4a","null","","null","","","","","","","","","","","","","","","","","","","fixation","",""
"","","","","","color-precision2","131","337051","0.0-10.0-0.56-0.56","5e402dcd7b260d000a7b69fe","640759fa512f630a2bdc333d","6408c17ccaaf0e0469ab9a4a","[44.400000005960464]","","","[8]","[278]","278","356","","[null]","[null]","[272]","0","0","1","0","149.3279999999795","993.0849999940256","1000","[[[""img/mask4.png""]]]","","","main","356","color-precision2"
"","","","","","html-keyboard-response","132","337555","0.0-10.0-1.56","5e402dcd7b260d000a7b69fe","640759fa512f630a2bdc333d","6408c17ccaaf0e0469ab9a4a","null","","null","","","","","","","","","","","","","","","","","","","fixation","",""
"","","","","","color-precision2","133","339939","0.0-10.0-0.57-0.57","5e402dcd7b260d000a7b69fe","640759fa512f630a2bdc333d","6408c17ccaaf0e0469ab9a4a","[162.39999999850988]","","","[31]","[216]","216","175","42.695097892708986","[42.695097892708986]","[227.695097892709]","[226]","0","0","1","0","149.9669999970356","1007.8090000000084","1000","[[[""img/mask73.png""]]]","","","main","175","color-precision2"
"","","","","","html-keyboard-response","134","340439","0.0-10.0-1.57","5e402dcd7b260d000a7b69fe","640759fa512f630a2bdc333d","6408c17ccaaf0e0469ab9a4a","null","","null","","","","","","","","","","","","","","","","","","","fixation","",""
"","","","","","color-precision2","135","344283","0.0-10.0-0.58-0.58","5e402dcd7b260d000a7b69fe","640759fa512f630a2bdc333d","6408c17ccaaf0e0469ab9a4a","[1069.1000000014901]","","","[32]","[84]","84","349","71.73919351114918","[71.73919351114918]","[82.73919351114921]","[81]","0","0","1","0","149.38999999850057","1000.1419999999925","1000","[[[""img/mask23.png""]]]","","","main","349","color-precision2"
"","","","","","html-keyboard-response","136","344783","0.0-10.0-1.58","5e402dcd7b260d000a7b69fe","640759fa512f630a2bdc333d","6408c17ccaaf0e0469ab9a4a","null","","null","","","","","","","","","","","","","","","","","","","fixation","",""
"","","","","","many-guess-6","137","347515","0.0-10.0-0.59-0.59","5e402dcd7b260d000a7b69fe","640759fa512f630a2bdc333d","6408c17ccaaf0e0469ab9a4a","[1281]","","","[25,24,16,5,21,27,31,32,1,26,8,20,11,12,4,22,14,7,18,33,3,6,30,23,0,13,19,28,10,9,15,29,35,2,34,17]","[225,294,324,155,185,95,284,314,304,165,265,25,354,115,255,175,5,334,195,344,135,15,205,65,105,85,45,245,145,125,35,215,75,235,275,55]","225","304","181.98369860606644","[181.98369860606644]","[237.98369860606644]","[237]","[120,210,210,300,300,120,210,210,30]","0","36","0","149.26299999404","22.57799999701092","16","[[[""img/mask64.png""],[""img/mask10.png""],[""img/mask100.png""],[""img/mask23.png""],[""img/mask19.png""],[""img/mask56.png""],[""img/mask77.png""],[""img/mask36.png""],[""img/mask61.png""],[""img/mask41.png""],[""img/mask78.png""],[""img/mask86.png""],[""img/mask73.png""],[""img/mask26.png""],[""img/mask46.png""],[""img/mask8.png""],[""img/mask61.png""],[""img/mask13.png""],[""img/mask36.png""],[""img/mask92.png""],[""img/mask76.png""],[""img/mask88.png""],[""img/mask97.png""],[""img/mask46.png""],[""img/mask22.png""],[""img/mask65.png""],[""img/mask42.png""],[""img/mask84.png""],[""img/mask65.png""],[""img/mask37.png""],[""img/mask17.png""],[""img/mask49.png""],[""img/mask85.png""],[""img/mask24.png""],[""img/mask87.png""],[""img/mask87.png""]]]","","[25,24,16,5,21,27,31,32,1,26,8,20,11,12,4,22,14,7,18,33,3,6,30,23,0,13,19,28,10,9,15,29,35,2,34,17]","main","304","many-guess-6"
"","","","","","html-keyboard-response","138","361489","0.0-10.0-1.59","5e402dcd7b260d000a7b69fe","640759fa512f630a2bdc333d","6408c17ccaaf0e0469ab9a4a","13974.60000000149","Wow! You've completed 60 out of 180 trials! </p> <p>  </p><p> Take a quick break, then press any key when you're ready to continue.","enter","","","","","","","","","","","","","","","","","","","fixation","",""
"","","","","","color-precision2","139","364626","0.0-10.0-0.60-0.60","5e402dcd7b260d000a7b69fe","640759fa512f630a2bdc333d","6408c17ccaaf0e0469ab9a4a","[471.29999999701977]","","","[22]","[328]","328","165","153.3220686378183","[153.3220686378183]","[348.3220686378183]","[347]","0","0","1","0","148.6589999985299","999.0819999955129","1000","[[[""img/mask88.png""]]]","","","main","165","color-precision2"
"","","","","","html-keyboard-response","140","365128","0.0-10.0-1.60","5e402dcd7b260d000a7b69fe","640759fa512f630a2bdc333d","6408c17ccaaf0e0469ab9a4a","null","","null","","","","","","","","","","","","","","","","","","","fixation","",""
"","","","","","color-precision2","141","367826","0.0-10.0-0.61-0.61","5e402dcd7b260d000a7b69fe","640759fa512f630a2bdc333d","6408c17ccaaf0e0469ab9a4a","[233.69999999552965]","","","[8]","[14]","14","221","230.4000035750391","[230.4000035750391]","[9.400003575039108]","[9]","0","0","1","0","148.82499999552965","1001.0269999970333","1000","[[[""img/mask13.png""]]]","","","main","221","color-precision2"
"","","","","","html-keyboard-response","142","368327","0.0-10.0-1.61","5e402dcd7b260d000a7b69fe","640759fa512f630a2bdc333d","6408c17ccaaf0e0469ab9a4a","null","","null","","","","","","","","","","","","","","","","","","","fixation","",""
"","","","","","many-guess-6","143","371066","0.0-10.0-0.62-0.62","5e402dcd7b260d000a7b69fe","640759fa512f630a2bdc333d","6408c17ccaaf0e0469ab9a4a","[1539.2000000029802]","","","[27,16,13,26,10,12,34,14,32,17,21,5,2,30,0,11,3,6,28,25,23,22,31,20,7,24,29,9,19,18,35,4,1,15,33,8]","[51,341,12,141,291,81,2,161,21,171,351,91,181,151,101,221,201,31,231,301,241,251,211,191,71,311,261,281,61,121,111,331,271,41,131,321]","51","275","239.06690484708184","[239.06690484708184]","[324.06690484708184]","[324]","[30,300,30,210,300,210,120,30,300]","0","36","0","149.03199999849312","11.871999994036742","16","[[[""img/mask43.png""],[""img/mask59.png""],[""img/mask76.png""],[""img/mask9.png""],[""img/mask8.png""],[""img/mask95.png""],[""img/mask40.png""],[""img/mask29.png""],[""img/mask34.png""],[""img/mask86.png""],[""img/mask64.png""],[""img/mask16.png""],[""img/mask20.png""],[""img/mask39.png""],[""img/mask1.png""],[""img/mask19.png""],[""img/mask46.png""],[""img/mask20.png""],[""img/mask25.png""],[""img/mask35.png""],[""img/mask1.png""],[""img/mask56.png""],[""img/mask86.png""],[""img/mask91.png""],[""img/mask54.png""],[""img/mask66.png""],[""img/mask34.png""],[""img/mask87.png""],[""img/mask14.png""],[""img/mask61.png""],[""img/mask88.png""],[""img/mask89.png""],[""img/mask89.png""],[""img/mask88.png""],[""img/mask80.png""],[""img/mask65.png""]]]","","[27,16,13,26,10,12,34,14,32,17,21,5,2,30,0,11,3,6,28,25,23,22,31,20,7,24,29,9,19,18,35,4,1,15,33,8]","main","275","many-guess-6"
"","","","","","html-keyboard-response","144","371568","0.0-10.0-1.62","5e402dcd7b260d000a7b69fe","640759fa512f630a2bdc333d","6408c17ccaaf0e0469ab9a4a","null","","null","","","","","","","","","","","","","","","","","","","fixation","",""
"","","","","","many-guess-6","145","374530","0.0-10.0-0.63-0.63","5e402dcd7b260d000a7b69fe","640759fa512f630a2bdc333d","6408c17ccaaf0e0469ab9a4a","[1265.7999999970198]","","","[12,26,25,10,31,21,14,4,9,23,11,33,22,2,17,0,32,8,5,6,29,27,13,20,24,28,16,19,1,3,18,30,35,7,34,15]","[86,245,56,335,126,205,26,176,255,106,325,235,195,36,295,285,225,16,215,315,6,146,46,136,166,345,156,305,96,66,116,265,355,185,76,275]","86","174","344.1764805099295","[344.1764805099295]","[170.1764805099295]","[170]","[120,210,300,300,30,300,120,30,300]","0","36","0","149.06399999704445","23.45000000001164","16","[[[""img/mask12.png""],[""img/mask24.png""],[""img/mask96.png""],[""img/mask95.png""],[""img/mask24.png""],[""img/mask40.png""],[""img/mask42.png""],[""img/mask97.png""],[""img/mask12.png""],[""img/mask70.png""],[""img/mask72.png""],[""img/mask3.png""],[""img/mask56.png""],[""img/mask1.png""],[""img/mask13.png""],[""img/mask79.png""],[""img/mask77.png""],[""img/mask83.png""],[""img/mask48.png""],[""img/mask99.png""],[""img/mask94.png""],[""img/mask45.png""],[""img/mask21.png""],[""img/mask88.png""],[""img/mask2.png""],[""img/mask21.png""],[""img/mask92.png""],[""img/mask61.png""],[""img/mask100.png""],[""img/mask6.png""],[""img/mask29.png""],[""img/mask56.png""],[""img/mask23.png""],[""img/mask99.png""],[""img/mask22.png""],[""img/mask40.png""]]]","","[12,26,25,10,31,21,14,4,9,23,11,33,22,2,17,0,32,8,5,6,29,27,13,20,24,28,16,19,1,3,18,30,35,7,34,15]","main","174","many-guess-6"
"","","","","","html-keyboard-response","146","375044","0.0-10.0-1.63","5e402dcd7b260d000a7b69fe","640759fa512f630a2bdc333d","6408c17ccaaf0e0469ab9a4a","null","","null","","","","","","","","","","","","","","","","","","","fixation","",""
"","","","","","color-precision2","147","378338","0.0-10.0-0.64-0.64","5e402dcd7b260d000a7b69fe","640759fa512f630a2bdc333d","6408c17ccaaf0e0469ab9a4a","[67.79999999701977]","","","[6]","[210]","210","85","","[null]","[null]","[220]","0","0","1","0","149.28799999551848","1008.189000000013","1000","[[[""img/mask75.png""]]]","","","main","85","color-precision2"
"","","","","","html-keyboard-response","148","378839","0.0-10.0-1.64","5e402dcd7b260d000a7b69fe","640759fa512f630a2bdc333d","6408c17ccaaf0e0469ab9a4a","null","","null","","","","","","","","","","","","","","","","","","","fixation","",""
"","","","","","many-guess-6","149","382146","0.0-10.0-0.65-0.65","5e402dcd7b260d000a7b69fe","640759fa512f630a2bdc333d","6408c17ccaaf0e0469ab9a4a","[2040.5]","","","[13,23,25,14,33,5,26,18,6,16,10,0,12,3,32,8,28,4,1,9,29,27,24,35,15,2,7,34,11,22,19,20,21,30,17,31]","[129,298,29,288,228,49,328,89,59,318,188,278,258,218,109,39,238,139,178,348,119,338,308,208,149,69,99,158,19,79,358,168,9,248,198,268]","129","208","236.27497073473268","[236.27497073473268]","[28.274970734732676]","[28]","[300,30,210,210,300,300,210,120,210]","0","36","0","149.5229999999865","31.24799999402603","16","[[[""img/mask46.png""],[""img/mask37.png""],[""img/mask34.png""],[""img/mask32.png""],[""img/mask16.png""],[""img/mask74.png""],[""img/mask83.png""],[""img/mask42.png""],[""img/mask64.png""],[""img/mask31.png""],[""img/mask21.png""],[""img/mask73.png""],[""img/mask81.png""],[""img/mask15.png""],[""img/mask40.png""],[""img/mask58.png""],[""img/mask17.png""],[""img/mask27.png""],[""img/mask7.png""],[""img/mask13.png""],[""img/mask14.png""],[""img/mask11.png""],[""img/mask53.png""],[""img/mask31.png""],[""img/mask74.png""],[""img/mask20.png""],[""img/mask75.png""],[""img/mask76.png""],[""img/mask90.png""],[""img/mask21.png""],[""img/mask62.png""],[""img/mask54.png""],[""img/mask57.png""],[""img/mask70.png""],[""img/mask17.png""],[""img/mask9.png""]]]","","[13,23,25,14,33,5,26,18,6,16,10,0,12,3,32,8,28,4,1,9,29,27,24,35,15,2,7,34,11,22,19,20,21,30,17,31]","main","208","many-guess-6"
"","","","","","html-keyboard-response","150","382652","0.0-10.0-1.65","5e402dcd7b260d000a7b69fe","640759fa512f630a2bdc333d","6408c17ccaaf0e0469ab9a4a","null","","null","","","","","","","","","","","","","","","","","","","fixation","",""
"","","","","","color-precision2","151","386074","0.0-10.0-0.66-0.66","5e402dcd7b260d000a7b69fe","640759fa512f630a2bdc333d","6408c17ccaaf0e0469ab9a4a","[594.5]","","","[24]","[320]","320","217","176.82122448563797","[176.82122448563797]","[319.82122448563797]","[320]","0","0","1","0","148.1939999969909","995.442999998515","1000","[[[""img/mask32.png""]]]","","","main","217","color-precision2"
"","","","","","html-keyboard-response","152","386575","0.0-10.0-1.66","5e402dcd7b260d000a7b69fe","640759fa512f630a2bdc333d","6408c17ccaaf0e0469ab9a4a","null","","null","","","","","","","","","","","","","","","","","","","fixation","",""
"","","","","","color-precision2","153","389082","0.0-10.0-0.67-0.67","5e402dcd7b260d000a7b69fe","640759fa512f630a2bdc333d","6408c17ccaaf0e0469ab9a4a","[132.89999999850988]","","","[14]","[295]","295","306","233.46779024861968","[233.46779024861968]","[287.4677902486197]","[288]","0","0","1","0","148.34699999704026","998.0919999984908","1000","[[[""img/mask75.png""]]]","","","main","306","color-precision2"
"","","","","","html-keyboard-response","154","389583","0.0-10.0-1.67","5e402dcd7b260d000a7b69fe","640759fa512f630a2bdc333d","6408c17ccaaf0e0469ab9a4a","null","","null","","","","","","","","","","","","","","","","","","","fixation","",""
"","","","","","color-precision2","155","392090","0.0-10.0-0.68-0.68","5e402dcd7b260d000a7b69fe","640759fa512f630a2bdc333d","6408c17ccaaf0e0469ab9a4a","[4.100000001490116]","","","[6]","[94]","94","162","","[null]","[null]","[99]","0","0","1","0","149.09499999403488","1006.9569999970263","1000","[[[""img/mask15.png""]]]","","","main","162","color-precision2"
"","","","","","html-keyboard-response","156","392591","0.0-10.0-1.68","5e402dcd7b260d000a7b69fe","640759fa512f630a2bdc333d","6408c17ccaaf0e0469ab9a4a","null","","null","","","","","","","","","","","","","","","","","","","fixation","",""
"","","","","","color-precision2","157","395610","0.0-10.0-0.69-0.69","5e402dcd7b260d000a7b69fe","640759fa512f630a2bdc333d","6408c17ccaaf0e0469ab9a4a","[637.3999999985099]","","","[28]","[149]","149","88","247.2212769682479","[247.2212769682479]","[159.2212769682479]","[160]","0","0","1","0","149.5119999985327","999.1169999985141","1000","[[[""img/mask65.png""]]]","","","main","88","color-precision2"
"","","","","","html-keyboard-response","158","396111","0.0-10.0-1.69","5e402dcd7b260d000a7b69fe","640759fa512f630a2bdc333d","6408c17ccaaf0e0469ab9a4a","null","","null","","","","","","","","","","","","","","","","","","","fixation","",""
"","","","","","color-precision2","159","398778","0.0-10.0-0.70-0.70","5e402dcd7b260d000a7b69fe","640759fa512f630a2bdc333d","6408c17ccaaf0e0469ab9a4a","[17.600000001490116]","","","[20]","[318]","318","29","","[null]","[null]","[324]","0","0","1","0","149.35899999999674","999.5659999940544","1000","[[[""img/mask66.png""]]]","","","main","29","color-precision2"
"","","","","","html-keyboard-response","160","399279","0.0-10.0-1.70","5e402dcd7b260d000a7b69fe","640759fa512f630a2bdc333d","6408c17ccaaf0e0469ab9a4a","null","","null","","","","","","","","","","","","","","","","","","","fixation","",""
"","","","","","many-guess-6","161","402762","0.0-10.0-0.71-0.71","5e402dcd7b260d000a7b69fe","640759fa512f630a2bdc333d","6408c17ccaaf0e0469ab9a4a","[1882.7000000029802]","","","[22,25,26,14,10,9,18,31,30,11,2,23,3,12,24,28,4,35,15,13,27,1,16,17,0,19,29,7,34,32,21,33,6,20,5,8]","[166,186,7,336,47,17,67,136,286,326,246,176,206,236,156,196,226,57,87,27,276,316,216,356,256,146,306,126,266,77,107,97,37,346,296,117]","166","268","124.89097597600397","[124.89097597600397]","[216.89097597600397]","[216]","[120,120,210,120,120,120,210,30,30]","0","36","0","149.2949999970151","22.51399999851128","16","[[[""img/mask81.png""],[""img/mask39.png""],[""img/mask31.png""],[""img/mask62.png""],[""img/mask37.png""],[""img/mask15.png""],[""img/mask94.png""],[""img/mask22.png""],[""img/mask64.png""],[""img/mask14.png""],[""img/mask47.png""],[""img/mask54.png""],[""img/mask15.png""],[""img/mask82.png""],[""img/mask51.png""],[""img/mask34.png""],[""img/mask54.png""],[""img/mask57.png""],[""img/mask21.png""],[""img/mask68.png""],[""img/mask69.png""],[""img/mask21.png""],[""img/mask57.png""],[""img/mask33.png""],[""img/mask25.png""],[""img/mask65.png""],[""img/mask18.png""],[""img/mask31.png""],[""img/mask49.png""],[""img/mask89.png""],[""img/mask41.png""],[""img/mask34.png""],[""img/mask52.png""],[""img/mask65.png""],[""img/mask1.png""],[""img/mask68.png""]]]","","[22,25,26,14,10,9,18,31,30,11,2,23,3,12,24,28,4,35,15,13,27,1,16,17,0,19,29,7,34,32,21,33,6,20,5,8]","main","268","many-guess-6"
"","","","","","html-keyboard-response","162","403263","0.0-10.0-1.71","5e402dcd7b260d000a7b69fe","640759fa512f630a2bdc333d","6408c17ccaaf0e0469ab9a4a","null","","null","","","","","","","","","","","","","","","","","","","fixation","",""
"","","","","","color-precision2","163","406394","0.0-10.0-0.72-0.72","5e402dcd7b260d000a7b69fe","640759fa512f630a2bdc333d","6408c17ccaaf0e0469ab9a4a","[358]","","","[31]","[141]","141","215","14.287404150894945","[14.287404150894945]","[159.28740415089496]","[158]","0","0","1","0","148.67599999700906","993.4569999984815","1000","[[[""img/mask38.png""]]]","","","main","215","color-precision2"
"","","","","","html-keyboard-response","164","406895","0.0-10.0-1.72","5e402dcd7b260d000a7b69fe","640759fa512f630a2bdc333d","6408c17ccaaf0e0469ab9a4a","null","","null","","","","","","","","","","","","","","","","","","","fixation","",""
"","","","","","color-precision2","165","409338","0.0-10.0-0.73-0.73","5e402dcd7b260d000a7b69fe","640759fa512f630a2bdc333d","6408c17ccaaf0e0469ab9a4a","[315]","","","[22]","[28]","28","313","320.36338806911715","[320.36338806911715]","[7.36338806911715]","[7]","0","0","1","0","148.6699999999837","994.8369999999995","1000","[[[""img/mask33.png""]]]","","","main","313","color-precision2"
"","","","","","html-keyboard-response","166","409847","0.0-10.0-1.73","5e402dcd7b260d000a7b69fe","640759fa512f630a2bdc333d","6408c17ccaaf0e0469ab9a4a","null","","null","","","","","","","","","","","","","","","","","","","fixation","",""
"","","","","","color-precision2","167","413770","0.0-10.0-0.74-0.74","5e402dcd7b260d000a7b69fe","640759fa512f630a2bdc333d","6408c17ccaaf0e0469ab9a4a","[908.8999999985099]","","","[25]","[37]","37","19","63.91440022171857","[63.91440022171857]","[44.91440022171857]","[44]","0","0","1","0","148.99599999404745","999.9119999984978","1000","[[[""img/mask15.png""]]]","","","main","19","color-precision2"
"","","","","","html-keyboard-response","168","414271","0.0-10.0-1.74","5e402dcd7b260d000a7b69fe","640759fa512f630a2bdc333d","6408c17ccaaf0e0469ab9a4a","null","","null","","","","","","","","","","","","","","","","","","","fixation","",""
"","","","","","color-precision2","169","416898","0.0-10.0-0.75-0.75","5e402dcd7b260d000a7b69fe","640759fa512f630a2bdc333d","6408c17ccaaf0e0469ab9a4a","[382.70000000298023]","","","[2]","[259]","259","307","210.53053280590274","[210.53053280590274]","[263.53053280590274]","[264]","0","0","1","0","148.83599999552825","998.3849999940139","1000","[[[""img/mask15.png""]]]","","","main","307","color-precision2"
"","","","","","html-keyboard-response","170","417399","0.0-10.0-1.75","5e402dcd7b260d000a7b69fe","640759fa512f630a2bdc333d","6408c17ccaaf0e0469ab9a4a","null","","null","","","","","","","","","","","","","","","","","","","fixation","",""
"","","","","","many-guess-6","171","421027","0.0-10.0-0.76-0.76","5e402dcd7b260d000a7b69fe","640759fa512f630a2bdc333d","6408c17ccaaf0e0469ab9a4a","[1842.3000000044703]","","","[26,29,27,24,33,1,20,2,32,16,0,15,30,9,18,23,4,17,11,31,14,8,3,12,28,6,21,34,13,19,7,5,25,22,10,35]","[322,272,123,222,232,242,192,163,23,73,113,302,312,153,202,83,332,43,282,212,133,3,182,143,252,103,172,93,292,342,352,63,33,262,13,53]","322","305","265.9097785480908","[265.9097785480908]","[320.9097785480908]","[322]","[30,300,30,120,30,120,300,210,120]","0","36","0","149.28099999850383","17.47099999850616","16","[[[""img/mask34.png""],[""img/mask68.png""],[""img/mask15.png""],[""img/mask37.png""],[""img/mask11.png""],[""img/mask54.png""],[""img/mask64.png""],[""img/mask16.png""],[""img/mask87.png""],[""img/mask27.png""],[""img/mask43.png""],[""img/mask89.png""],[""img/mask11.png""],[""img/mask49.png""],[""img/mask93.png""],[""img/mask94.png""],[""img/mask43.png""],[""img/mask93.png""],[""img/mask88.png""],[""img/mask31.png""],[""img/mask47.png""],[""img/mask43.png""],[""img/mask94.png""],[""img/mask45.png""],[""img/mask4.png""],[""img/mask74.png""],[""img/mask42.png""],[""img/mask90.png""],[""img/mask18.png""],[""img/mask42.png""],[""img/mask53.png""],[""img/mask2.png""],[""img/mask93.png""],[""img/mask99.png""],[""img/mask52.png""],[""img/mask67.png""]]]","","[26,29,27,24,33,1,20,2,32,16,0,15,30,9,18,23,4,17,11,31,14,8,3,12,28,6,21,34,13,19,7,5,25,22,10,35]","main","305","many-guess-6"
"","","","","","html-keyboard-response","172","421528","0.0-10.0-1.76","5e402dcd7b260d000a7b69fe","640759fa512f630a2bdc333d","6408c17ccaaf0e0469ab9a4a","null","","null","","","","","","","","","","","","","","","","","","","fixation","",""
"","","","","","color-precision2","173","424187","0.0-10.0-0.77-0.77","5e402dcd7b260d000a7b69fe","640759fa512f630a2bdc333d","6408c17ccaaf0e0469ab9a4a","[113.10000000149012]","","","[31]","[62]","62","171","","[null]","[null]","[79]","0","0","1","0","148.37699999997858","1000.9329999985057","1000","[[[""img/mask92.png""]]]","","","main","171","color-precision2"
"","","","","","html-keyboard-response","174","424688","0.0-10.0-1.77","5e402dcd7b260d000a7b69fe","640759fa512f630a2bdc333d","6408c17ccaaf0e0469ab9a4a","null","","null","","","","","","","","","","","","","","","","","","","fixation","",""
