"success","timeout","failed_images","failed_audio","failed_video","trial_type","trial_index","time_elapsed","internal_node_id","subject_id","study_id","session_id","rt","stimulus","response","position_of_items","colors_of_items","color_of_target","wheel_spin","response_angle","physical_response_angle","reported_color_angle","reported_color_discrete","locs","which_test","set_size","wheel_num_options","actual_mask_duration","actual_stim_duration","CMDispTime","maskArray","maskRotation","item_positions","task","randomSpinAmount","mainTask"
"true","false","[]","[]","[]","preload","0","16414","0.0-0.0","5e742af79064483aedad296c","640759fa512f630a2bdc333d","6408c180774b08823a318737","","","","","","","","","","","","","","","","","","","","","","","",""
"true","","","","","fullscreen","1","140091","0.0-1.0","5e742af79064483aedad296c","640759fa512f630a2bdc333d","6408c180774b08823a318737","","","","","","","","","","","","","","","","","","","","","","","",""
"","","","","","html-keyboard-response","2","154291","0.0-2.0","5e742af79064483aedad296c","640759fa512f630a2bdc333d","6408c180774b08823a318737","14198","What a beautiful Wednesday to do some awesome science! </p> <p>  </p><p> </p>
    By completing this survey or questionnaire, you are consenting to be in this research study. </p>
    Your participation is voluntary and you can stop at any time.<p> [Press any key to continue] </p>"," ","","","","","","","","","","","","","","","","","","","","",""
"","","","","","html-keyboard-response","3","164295","0.0-3.0","5e742af79064483aedad296c","640759fa512f630a2bdc333d","6408c180774b08823a318737","null","
    <div style='width: 1000px;'>
    <div style='float: center;'><img src='img/TaskInstructions1.png'></img>
    </div>
    ","null","","","","","","","","","","","","","","","","","","","","",""
"","","","","","html-keyboard-response","4","166618","0.0-4.0","5e742af79064483aedad296c","640759fa512f630a2bdc333d","6408c180774b08823a318737","2322","
    <div style='width: 1000px;'>
    <div style='float: center;'><img src='img/TaskInstructions1.png'></img>
    </div>
    "," ","","","","","","","","","","","","","","","","","","","","",""
"","","","","","html-keyboard-response","5","176622","0.0-5.0","5e742af79064483aedad296c","640759fa512f630a2bdc333d","6408c180774b08823a318737","null","
    <div style='width: 1000px;'>
    <div style='float: center;'><img src='img/TaskInstructions2.png'></img>
    </div>
    ","null","","","","","","","","","","","","","","","","","","","","",""
"","","","","","html-keyboard-response","6","211058","0.0-6.0","5e742af79064483aedad296c","640759fa512f630a2bdc333d","6408c180774b08823a318737","34436","
    <div style='width: 1000px;'>
    <div style='float: center;'><img src='img/TaskInstructions2.png'></img>
    </div>
    "," ","","","","","","","","","","","","","","","","","","","","",""
"","","","","","video-keyboard-response","7","235398","0.0-7.0","5e742af79064483aedad296c","640759fa512f630a2bdc333d","6408c180774b08823a318737","24335","[""video/TaskInstructions3.mp4""]"," ","","","","","","","","","","","","","","","","","","","","",""
"","","","","","image-keyboard-response","8","240649","0.0-8.0-0.0","5e742af79064483aedad296c","640759fa512f630a2bdc333d","6408c180774b08823a318737","5248","img/training1.png"," ","","","","","","","","","","","","","","","","","","","","",""
"","","","","","color-precision2","9","256485","0.0-8.0-1.0-0.0","5e742af79064483aedad296c","640759fa512f630a2bdc333d","6408c180774b08823a318737","[8609]","","","[13]","[157]","157","232","43.71482100544013","[43.71482100544013]","[171.71482100544011]","[170]","0","0","1","0","500","1006","1000","","","0","training","",""
"","","","","","image-keyboard-response","10","267197","0.0-8.0-0.1","5e742af79064483aedad296c","640759fa512f630a2bdc333d","6408c180774b08823a318737","8588","img/training2.png"," ","","","","","","","","","","","","","","","","","","","","",""
"","","","","","many-guess-6","11","276537","0.0-8.0-1.1-0.1","5e742af79064483aedad296c","640759fa512f630a2bdc333d","6408c180774b08823a318737","[4096]","","","[27,35,5]","[268,24,6]","268","42","295.96611388378193","[295.96611388378193]","[253.96611388378193]","[254]","[210,210,210,120,120,300,120,30,120,120,210,300,210,300,30,300,210,30,210,210,210,120,30,30,300,30,210,30,120,120,210,30,300,210,210,120]","0","3","0","1000","1008","1000","[[[""img/mask87.png""],[""img/mask48.png""],[""img/mask70.png""]]]","","[27,35,5]","training","",""
"","","","","","image-keyboard-response","12","281165","0.0-8.0-0.2","5e742af79064483aedad296c","640759fa512f630a2bdc333d","6408c180774b08823a318737","4627","img/training3.png"," ","","","","","","","","","","","","","","","","","","","","",""
"","","","","","[""many-guess-6""]","13","290632","0.0-8.0-1.2-0.2","5e742af79064483aedad296c","640759fa512f630a2bdc333d","6408c180774b08823a318737","[3946]","","","[30,15,32,20,28]","[191,156,229,73,135]","191","208","281.6503281258332","[281.6503281258332]","[73.6503281258332]","[74]","[30,120,210,120,120,30,210,210,300,210,120,30,210,300,30,300,120,210,210,300,210,210,210,210,210,210,210,300,300,120,210,210,300,300,300,120]","0","5","0","500","494","500","[[[""img/mask40.png""],[""img/mask43.png""],[""img/mask24.png""],[""img/mask62.png""],[""img/mask69.png""]]]","","[30,15,32,20,28]","training","",""
"","","","","","image-keyboard-response","14","293765","0.0-8.0-0.3","5e742af79064483aedad296c","640759fa512f630a2bdc333d","6408c180774b08823a318737","3132","img/training4.png"," ","","","","","","","","","","","","","","","","","","","","",""
"","","","","","[""many-guess-6""]","15","300104","0.0-8.0-1.3-0.3","5e742af79064483aedad296c","640759fa512f630a2bdc333d","6408c180774b08823a318737","[3056]","","","[12,10,18,2,27,1,11,9,23,33]","[91,139,169,204,239,121,270,51,81,286]","91","226","15.393391224058467","[15.393391224058467]","[149.39339122405846]","[148]","[210,300,120,30,210,210,30,300,300,210,210,30,210,30,300,120,300,210,120,120,300,210,120,30,300,210,120,30,30,120,210,210,300,300,120,210]","0","10","0","134","137","132","[[[""img/mask17.png""],[""img/mask57.png""],[""img/mask33.png""],[""img/mask13.png""],[""img/mask48.png""],[""img/mask19.png""],[""img/mask18.png""],[""img/mask35.png""],[""img/mask2.png""],[""img/mask77.png""]]]","","[12,10,18,2,27,1,11,9,23,33]","training","",""
"","","","","","image-keyboard-response","16","304918","0.0-8.0-0.4","5e742af79064483aedad296c","640759fa512f630a2bdc333d","6408c180774b08823a318737","4813","img/training5.png"," ","","","","","","","","","","","","","","","","","","","","",""
"","","","","","[""many-guess-6""]","17","312592","0.0-8.0-1.4-0.4","5e742af79064483aedad296c","640759fa512f630a2bdc333d","6408c180774b08823a318737","[3749]","","","[19,16,20,22,24,13,32,30,34,11,35,2,9,17,21,27,3,4,15,18,8,14,1,5,10,12,29,0,23,25,26,7,33,6,31,28]","[11,141,281,271,1,311,251,351,241,231,181,91,191,81,301,151,21,341,221,111,61,161,71,31,261,171,101,321,201,131,41,51,331,121,291,211]","11","189","183.89043481712292","[183.89043481712292]","[354.8904348171229]","[354]","[30,30,30,300,120,120,300,120,210,30,300,30,30,210,30,300,210,30,210,210,210,30,30,30,120,30,210,30,210,120,210,30,210,120,30,210]","0","36","0","133","20","16","[[[""img/mask25.png""],[""img/mask41.png""],[""img/mask29.png""],[""img/mask43.png""],[""img/mask8.png""],[""img/mask53.png""],[""img/mask34.png""],[""img/mask74.png""],[""img/mask5.png""],[""img/mask9.png""],[""img/mask83.png""],[""img/mask41.png""],[""img/mask75.png""],[""img/mask54.png""],[""img/mask28.png""],[""img/mask60.png""],[""img/mask85.png""],[""img/mask82.png""],[""img/mask76.png""],[""img/mask66.png""],[""img/mask23.png""],[""img/mask20.png""],[""img/mask1.png""],[""img/mask59.png""],[""img/mask17.png""],[""img/mask89.png""],[""img/mask57.png""],[""img/mask65.png""],[""img/mask10.png""],[""img/mask75.png""],[""img/mask63.png""],[""img/mask96.png""],[""img/mask96.png""],[""img/mask64.png""],[""img/mask25.png""],[""img/mask79.png""]]]","","[19,16,20,22,24,13,32,30,34,11,35,2,9,17,21,27,3,4,15,18,8,14,1,5,10,12,29,0,23,25,26,7,33,6,31,28]","training","",""
"","","","","","image-keyboard-response","18","318541","0.0-9.0","5e742af79064483aedad296c","640759fa512f630a2bdc333d","6408c180774b08823a318737","5949","[""img/endTraining.png""]"," ","","","","","","","","","","","","","","","","","","","","",""
"","","","","","color-precision2","19","328180","0.0-10.0-0.0-0.0","5e742af79064483aedad296c","640759fa512f630a2bdc333d","6408c180774b08823a318737","[5145]","","","[31]","[14]","14","253","245.1081359739104","[245.1081359739104]","[352.1081359739104]","[352]","0","0","1","0","149","996","1000","[[[""img/mask82.png""]]]","","","main","253","color-precision2"
"","","","","","html-keyboard-response","20","328680","0.0-10.0-1.0","5e742af79064483aedad296c","640759fa512f630a2bdc333d","6408c180774b08823a318737","null","","null","","","","","","","","","","","","","","","","","","","fixation","",""
"","","","","","color-precision2","21","333732","0.0-10.0-0.1-0.1","5e742af79064483aedad296c","640759fa512f630a2bdc333d","6408c180774b08823a318737","[1521]","","","[16]","[230]","230","342","218.22130027415628","[218.22130027415628]","[236.22130027415628]","[236]","0","0","1","0","149","994","1000","[[[""img/mask62.png""]]]","","","main","342","color-precision2"
"","","","","","html-keyboard-response","22","334240","0.0-10.0-1.1","5e742af79064483aedad296c","640759fa512f630a2bdc333d","6408c180774b08823a318737","null","","null","","","","","","","","","","","","","","","","","","","fixation","",""
"","","","","","color-precision2","23","341283","0.0-10.0-0.2-0.2","5e742af79064483aedad296c","640759fa512f630a2bdc333d","6408c180774b08823a318737","[3183]","","","[9]","[137]","137","294","66.18659050581087","[66.18659050581087]","[132.18659050581087]","[130]","0","0","1","0","148","992","1000","[[[""img/mask63.png""]]]","","","main","294","color-precision2"
"","","","","","html-keyboard-response","24","341788","0.0-10.0-1.2","5e742af79064483aedad296c","640759fa512f630a2bdc333d","6408c180774b08823a318737","null","","null","","","","","","","","","","","","","","","","","","","fixation","",""
"","","","","","many-guess-6","25","346827","0.0-10.0-0.3-0.3","5e742af79064483aedad296c","640759fa512f630a2bdc333d","6408c180774b08823a318737","[2689]","","","[22,13,10,31,33,7,28,9,4,21,19,20,23,8,16,35,3,26,15,27,18,5,14,17,25,11,2,0,1,30,29,6,34,12,24,32]","[31,310,11,210,330,300,21,190,1,170,280,110,340,80,140,51,100,71,260,41,350,250,90,290,160,320,240,200,61,180,220,120,230,150,270,130]","31","260","240.84494164955757","[240.84494164955757]","[340.84494164955754]","[341]","[120,120,30,210,30,120,30,120,300]","0","36","0","150","12","16","[[[""img/mask21.png""],[""img/mask56.png""],[""img/mask22.png""],[""img/mask77.png""],[""img/mask27.png""],[""img/mask13.png""],[""img/mask10.png""],[""img/mask79.png""],[""img/mask24.png""],[""img/mask75.png""],[""img/mask17.png""],[""img/mask80.png""],[""img/mask98.png""],[""img/mask68.png""],[""img/mask8.png""],[""img/mask11.png""],[""img/mask36.png""],[""img/mask20.png""],[""img/mask6.png""],[""img/mask58.png""],[""img/mask55.png""],[""img/mask16.png""],[""img/mask15.png""],[""img/mask72.png""],[""img/mask68.png""],[""img/mask68.png""],[""img/mask49.png""],[""img/mask76.png""],[""img/mask12.png""],[""img/mask93.png""],[""img/mask4.png""],[""img/mask2.png""],[""img/mask24.png""],[""img/mask56.png""],[""img/mask19.png""],[""img/mask57.png""]]]","","[22,13,10,31,33,7,28,9,4,21,19,20,23,8,16,35,3,26,15,27,18,5,14,17,25,11,2,0,1,30,29,6,34,12,24,32]","main","260","many-guess-6"
"","","","","","html-keyboard-response","26","347328","0.0-10.0-1.3","5e742af79064483aedad296c","640759fa512f630a2bdc333d","6408c180774b08823a318737","null","","null","","","","","","","","","","","","","","","","","","","fixation","",""
"","","","","","many-guess-6","27","352596","0.0-10.0-0.4-0.4","5e742af79064483aedad296c","640759fa512f630a2bdc333d","6408c180774b08823a318737","[3118]","","","[7,20,23,11,22,33,24,18,10,21,2,1,17,29,19,14,8,30,35,32,0,16,3,28,4,15,27,6,25,34,5,31,9,26,12,13]","[161,231,261,241,131,321,92,102,12,82,62,211,122,112,52,351,271,181,171,281,341,251,42,2,331,151,22,32,221,141,311,201,72,301,291,191]","161","225","32.65573678932729","[32.65573678932729]","[167.6557367893273]","[166]","[30,300,30,300,30,120,120,120,30]","0","36","0","149","10","16","[[[""img/mask95.png""],[""img/mask23.png""],[""img/mask71.png""],[""img/mask42.png""],[""img/mask94.png""],[""img/mask61.png""],[""img/mask95.png""],[""img/mask15.png""],[""img/mask98.png""],[""img/mask32.png""],[""img/mask67.png""],[""img/mask87.png""],[""img/mask64.png""],[""img/mask21.png""],[""img/mask56.png""],[""img/mask14.png""],[""img/mask18.png""],[""img/mask83.png""],[""img/mask38.png""],[""img/mask92.png""],[""img/mask9.png""],[""img/mask59.png""],[""img/mask92.png""],[""img/mask99.png""],[""img/mask84.png""],[""img/mask35.png""],[""img/mask46.png""],[""img/mask69.png""],[""img/mask14.png""],[""img/mask16.png""],[""img/mask43.png""],[""img/mask32.png""],[""img/mask33.png""],[""img/mask98.png""],[""img/mask71.png""],[""img/mask9.png""]]]","","[7,20,23,11,22,33,24,18,10,21,2,1,17,29,19,14,8,30,35,32,0,16,3,28,4,15,27,6,25,34,5,31,9,26,12,13]","main","225","many-guess-6"
"","","","","","html-keyboard-response","28","353097","0.0-10.0-1.4","5e742af79064483aedad296c","640759fa512f630a2bdc333d","6408c180774b08823a318737","null","","null","","","","","","","","","","","","","","","","","","","fixation","",""
"","","","","","color-precision2","29","358500","0.0-10.0-0.5-0.5","5e742af79064483aedad296c","640759fa512f630a2bdc333d","6408c180774b08823a318737","[1765]","","","[25]","[217]","217","165","26.70248082513034","[26.70248082513034]","[221.70248082513035]","[220]","0","0","1","0","149","992","1000","[[[""img/mask18.png""]]]","","","main","165","color-precision2"
"","","","","","html-keyboard-response","30","359002","0.0-10.0-1.5","5e742af79064483aedad296c","640759fa512f630a2bdc333d","6408c180774b08823a318737","null","","null","","","","","","","","","","","","","","","","","","","fixation","",""
"","","","","","color-precision2","31","363307","0.0-10.0-0.6-0.6","5e742af79064483aedad296c","640759fa512f630a2bdc333d","6408c180774b08823a318737","[1367]","","","[13]","[213]","213","169","10.385642539352604","[10.385642539352604]","[201.3856425393526]","[200]","0","0","1","0","149","995","1000","[[[""img/mask42.png""]]]","","","main","169","color-precision2"
"","","","","","html-keyboard-response","32","363809","0.0-10.0-1.6","5e742af79064483aedad296c","640759fa512f630a2bdc333d","6408c180774b08823a318737","null","","null","","","","","","","","","","","","","","","","","","","fixation","",""
"","","","","","many-guess-6","33","367595","0.0-10.0-0.7-0.7","5e742af79064483aedad296c","640759fa512f630a2bdc333d","6408c180774b08823a318737","[2252]","","","[16,34,31,11,29,13,14,9,8,15,4,33,17,30,22,10,19,2,25,1,24,27,23,12,18,32,35,21,26,28,7,6,5,0,20,3]","[1,210,240,160,91,100,120,51,71,41,300,200,340,150,190,170,320,31,220,260,11,61,230,110,270,21,250,350,81,280,330,130,310,180,290,140]","1","200","247.9008404964565","[247.9008404964565]","[47.90084049645651]","[48]","[30,30,300,300,210,30,120,30,300]","0","36","0","149","18","16","[[[""img/mask51.png""],[""img/mask12.png""],[""img/mask96.png""],[""img/mask12.png""],[""img/mask57.png""],[""img/mask43.png""],[""img/mask45.png""],[""img/mask88.png""],[""img/mask99.png""],[""img/mask61.png""],[""img/mask27.png""],[""img/mask59.png""],[""img/mask42.png""],[""img/mask20.png""],[""img/mask87.png""],[""img/mask42.png""],[""img/mask88.png""],[""img/mask37.png""],[""img/mask97.png""],[""img/mask24.png""],[""img/mask75.png""],[""img/mask17.png""],[""img/mask12.png""],[""img/mask53.png""],[""img/mask71.png""],[""img/mask44.png""],[""img/mask6.png""],[""img/mask12.png""],[""img/mask72.png""],[""img/mask60.png""],[""img/mask72.png""],[""img/mask67.png""],[""img/mask85.png""],[""img/mask43.png""],[""img/mask61.png""],[""img/mask26.png""]]]","","[16,34,31,11,29,13,14,9,8,15,4,33,17,30,22,10,19,2,25,1,24,27,23,12,18,32,35,21,26,28,7,6,5,0,20,3]","main","200","many-guess-6"
"","","","","","html-keyboard-response","34","368096","0.0-10.0-1.7","5e742af79064483aedad296c","640759fa512f630a2bdc333d","6408c180774b08823a318737","null","","null","","","","","","","","","","","","","","","","","","","fixation","",""
"","","","","","color-precision2","35","372092","0.0-10.0-0.8-0.8","5e742af79064483aedad296c","640759fa512f630a2bdc333d","6408c180774b08823a318737","[743]","","","[31]","[250]","250","47","297.62141644286015","[297.62141644286015]","[250.62141644286015]","[251]","0","0","1","0","149","999","1000","[[[""img/mask22.png""]]]","","","main","47","color-precision2"
"","","","","","html-keyboard-response","36","372594","0.0-10.0-1.8","5e742af79064483aedad296c","640759fa512f630a2bdc333d","6408c180774b08823a318737","null","","null","","","","","","","","","","","","","","","","","","","fixation","",""
"","","","","","many-guess-6","37","376531","0.0-10.0-0.9-0.9","5e742af79064483aedad296c","640759fa512f630a2bdc333d","6408c180774b08823a318737","[2430]","","","[18,27,6,9,19,3,0,31,33,21,13,29,26,12,15,30,1,2,20,4,24,17,14,16,5,35,10,25,22,23,7,32,8,28,34,11]","[311,221,111,42,141,2,241,91,261,201,151,251,131,291,12,161,181,341,351,271,211,101,191,281,121,22,301,231,71,331,61,321,81,32,52,171]","311","24","12.770194114404847","[12.770194114404847]","[348.77019411440483]","[348]","[30,300,210,210,120,30,30,300,30]","0","36","0","150","10","16","[[[""img/mask30.png""],[""img/mask33.png""],[""img/mask25.png""],[""img/mask66.png""],[""img/mask97.png""],[""img/mask7.png""],[""img/mask34.png""],[""img/mask43.png""],[""img/mask86.png""],[""img/mask28.png""],[""img/mask70.png""],[""img/mask38.png""],[""img/mask9.png""],[""img/mask73.png""],[""img/mask36.png""],[""img/mask85.png""],[""img/mask8.png""],[""img/mask76.png""],[""img/mask10.png""],[""img/mask84.png""],[""img/mask84.png""],[""img/mask51.png""],[""img/mask46.png""],[""img/mask97.png""],[""img/mask41.png""],[""img/mask28.png""],[""img/mask96.png""],[""img/mask13.png""],[""img/mask62.png""],[""img/mask33.png""],[""img/mask66.png""],[""img/mask78.png""],[""img/mask98.png""],[""img/mask4.png""],[""img/mask80.png""],[""img/mask34.png""]]]","","[18,27,6,9,19,3,0,31,33,21,13,29,26,12,15,30,1,2,20,4,24,17,14,16,5,35,10,25,22,23,7,32,8,28,34,11]","main","24","many-guess-6"
"","","","","","html-keyboard-response","38","377032","0.0-10.0-1.9","5e742af79064483aedad296c","640759fa512f630a2bdc333d","6408c180774b08823a318737","null","","null","","","","","","","","","","","","","","","","","","","fixation","",""
"","","","","","many-guess-6","39","382220","0.0-10.0-0.10-0.10","5e742af79064483aedad296c","640759fa512f630a2bdc333d","6408c180774b08823a318737","[2846]","","","[3,22,28,19,15,23,18,14,12,27,6,7,0,16,1,10,24,31,17,32,35,25,8,2,29,11,30,34,33,4,20,13,21,9,26,5]","[90,11,1,230,290,260,40,130,20,60,350,220,240,320,310,210,300,110,330,170,340,120,100,140,280,50,150,180,190,70,160,30,270,80,200,250]","90","97","315.8335893756459","[315.8335893756459]","[218.8335893756459]","[219]","[30,210,210,300,300,30,30,300,210]","0","36","0","149","12","16","[[[""img/mask86.png""],[""img/mask21.png""],[""img/mask14.png""],[""img/mask32.png""],[""img/mask81.png""],[""img/mask23.png""],[""img/mask59.png""],[""img/mask91.png""],[""img/mask60.png""],[""img/mask6.png""],[""img/mask53.png""],[""img/mask71.png""],[""img/mask96.png""],[""img/mask79.png""],[""img/mask1.png""],[""img/mask66.png""],[""img/mask57.png""],[""img/mask95.png""],[""img/mask21.png""],[""img/mask25.png""],[""img/mask59.png""],[""img/mask50.png""],[""img/mask98.png""],[""img/mask4.png""],[""img/mask35.png""],[""img/mask29.png""],[""img/mask27.png""],[""img/mask70.png""],[""img/mask70.png""],[""img/mask65.png""],[""img/mask82.png""],[""img/mask94.png""],[""img/mask3.png""],[""img/mask94.png""],[""img/mask88.png""],[""img/mask97.png""]]]","","[3,22,28,19,15,23,18,14,12,27,6,7,0,16,1,10,24,31,17,32,35,25,8,2,29,11,30,34,33,4,20,13,21,9,26,5]","main","97","many-guess-6"
"","","","","","html-keyboard-response","40","382721","0.0-10.0-1.10","5e742af79064483aedad296c","640759fa512f630a2bdc333d","6408c180774b08823a318737","null","","null","","","","","","","","","","","","","","","","","","","fixation","",""
"","","","","","color-precision2","41","387220","0.0-10.0-0.11-0.11","5e742af79064483aedad296c","640759fa512f630a2bdc333d","6408c180774b08823a318737","[889]","","","[12]","[98]","98","208","297.885972773961","[297.885972773961]","[89.88597277396099]","[90]","0","0","1","0","149","996","1000","[[[""img/mask84.png""]]]","","","main","208","color-precision2"
"","","","","","html-keyboard-response","42","387723","0.0-10.0-1.11","5e742af79064483aedad296c","640759fa512f630a2bdc333d","6408c180774b08823a318737","null","","null","","","","","","","","","","","","","","","","","","","fixation","",""
"","","","","","many-guess-6","43","392836","0.0-10.0-0.12-0.12","5e742af79064483aedad296c","640759fa512f630a2bdc333d","6408c180774b08823a318737","[3151]","","","[27,10,4,23,12,21,19,8,34,22,28,18,25,17,20,3,14,9,13,2,26,15,29,6,0,33,30,16,7,31,24,32,5,11,1,35]","[134,303,74,323,124,114,144,343,293,283,263,174,233,193,4,203,24,154,54,213,223,64,253,94,313,104,184,273,34,333,243,353,164,14,44,84]","134","34","346.1761321052012","[346.1761321052012]","[312.1761321052012]","[312]","[300,210,30,30,210,30,120,120,300]","0","36","0","149","11","16","[[[""img/mask1.png""],[""img/mask24.png""],[""img/mask70.png""],[""img/mask87.png""],[""img/mask36.png""],[""img/mask40.png""],[""img/mask82.png""],[""img/mask2.png""],[""img/mask89.png""],[""img/mask15.png""],[""img/mask75.png""],[""img/mask99.png""],[""img/mask83.png""],[""img/mask12.png""],[""img/mask47.png""],[""img/mask95.png""],[""img/mask70.png""],[""img/mask30.png""],[""img/mask74.png""],[""img/mask1.png""],[""img/mask50.png""],[""img/mask10.png""],[""img/mask99.png""],[""img/mask20.png""],[""img/mask14.png""],[""img/mask56.png""],[""img/mask49.png""],[""img/mask24.png""],[""img/mask12.png""],[""img/mask14.png""],[""img/mask57.png""],[""img/mask15.png""],[""img/mask90.png""],[""img/mask34.png""],[""img/mask67.png""],[""img/mask90.png""]]]","","[27,10,4,23,12,21,19,8,34,22,28,18,25,17,20,3,14,9,13,2,26,15,29,6,0,33,30,16,7,31,24,32,5,11,1,35]","main","34","many-guess-6"
"","","","","","html-keyboard-response","44","393337","0.0-10.0-1.12","5e742af79064483aedad296c","640759fa512f630a2bdc333d","6408c180774b08823a318737","null","","null","","","","","","","","","","","","","","","","","","","fixation","",""
"","","","","","many-guess-6","45","398396","0.0-10.0-0.13-0.13","5e742af79064483aedad296c","640759fa512f630a2bdc333d","6408c180774b08823a318737","[3007]","","","[0,25,15,14,21,31,19,16,22,18,34,27,2,26,17,8,12,3,11,10,5,30,28,29,24,7,13,35,4,6,1,9,23,33,32,20]","[58,118,208,168,218,158,237,18,257,267,148,198,227,78,188,317,88,108,327,68,128,307,247,98,8,28,347,178,48,297,337,277,38,287,138,357]","58","103","105.35361692491543","[105.35361692491543]","[2.3536169249154284]","[0]","[120,120,300,210,30,120,120,300,210]","0","36","0","150","11","16","[[[""img/mask23.png""],[""img/mask2.png""],[""img/mask91.png""],[""img/mask68.png""],[""img/mask52.png""],[""img/mask6.png""],[""img/mask69.png""],[""img/mask1.png""],[""img/mask76.png""],[""img/mask70.png""],[""img/mask77.png""],[""img/mask1.png""],[""img/mask76.png""],[""img/mask45.png""],[""img/mask22.png""],[""img/mask89.png""],[""img/mask12.png""],[""img/mask62.png""],[""img/mask19.png""],[""img/mask52.png""],[""img/mask73.png""],[""img/mask22.png""],[""img/mask89.png""],[""img/mask23.png""],[""img/mask4.png""],[""img/mask2.png""],[""img/mask88.png""],[""img/mask57.png""],[""img/mask1.png""],[""img/mask50.png""],[""img/mask28.png""],[""img/mask91.png""],[""img/mask91.png""],[""img/mask66.png""],[""img/mask57.png""],[""img/mask49.png""]]]","","[0,25,15,14,21,31,19,16,22,18,34,27,2,26,17,8,12,3,11,10,5,30,28,29,24,7,13,35,4,6,1,9,23,33,32,20]","main","103","many-guess-6"
"","","","","","html-keyboard-response","46","398898","0.0-10.0-1.13","5e742af79064483aedad296c","640759fa512f630a2bdc333d","6408c180774b08823a318737","null","","null","","","","","","","","","","","","","","","","","","","fixation","",""
"","","","","","color-precision2","47","403691","0.0-10.0-0.14-0.14","5e742af79064483aedad296c","640759fa512f630a2bdc333d","6408c180774b08823a318737","[1594]","","","[18]","[159]","159","129","292.77354025307363","[292.77354025307363]","[163.77354025307363]","[164]","0","0","1","0","148","1008","1000","[[[""img/mask14.png""]]]","","","main","129","color-precision2"
"","","","","","html-keyboard-response","48","404191","0.0-10.0-1.14","5e742af79064483aedad296c","640759fa512f630a2bdc333d","6408c180774b08823a318737","null","","null","","","","","","","","","","","","","","","","","","","fixation","",""
"","","","","","many-guess-6","49","409939","0.0-10.0-0.15-0.15","5e742af79064483aedad296c","640759fa512f630a2bdc333d","6408c180774b08823a318737","[3873]","","","[15,28,12,31,1,32,29,10,21,5,34,23,27,9,25,7,2,14,11,16,4,20,33,19,35,18,24,22,17,8,6,30,26,3,13,0]","[332,153,272,312,103,53,183,193,233,252,302,13,213,322,3,223,133,83,352,63,93,23,173,163,143,242,73,123,342,292,113,203,43,262,33,282]","332","125","99.49469873211282","[99.49469873211282]","[334.49469873211285]","[333]","[210,120,300,120,30,120,120,30,120]","0","36","0","149","11","16","[[[""img/mask68.png""],[""img/mask69.png""],[""img/mask64.png""],[""img/mask58.png""],[""img/mask19.png""],[""img/mask18.png""],[""img/mask3.png""],[""img/mask54.png""],[""img/mask98.png""],[""img/mask90.png""],[""img/mask41.png""],[""img/mask93.png""],[""img/mask8.png""],[""img/mask25.png""],[""img/mask91.png""],[""img/mask56.png""],[""img/mask74.png""],[""img/mask6.png""],[""img/mask97.png""],[""img/mask94.png""],[""img/mask52.png""],[""img/mask42.png""],[""img/mask45.png""],[""img/mask56.png""],[""img/mask64.png""],[""img/mask93.png""],[""img/mask84.png""],[""img/mask82.png""],[""img/mask87.png""],[""img/mask78.png""],[""img/mask49.png""],[""img/mask99.png""],[""img/mask82.png""],[""img/mask37.png""],[""img/mask53.png""],[""img/mask13.png""]]]","","[15,28,12,31,1,32,29,10,21,5,34,23,27,9,25,7,2,14,11,16,4,20,33,19,35,18,24,22,17,8,6,30,26,3,13,0]","main","125","many-guess-6"
"","","","","","html-keyboard-response","50","410441","0.0-10.0-1.15","5e742af79064483aedad296c","640759fa512f630a2bdc333d","6408c180774b08823a318737","null","","null","","","","","","","","","","","","","","","","","","","fixation","",""
"","","","","","color-precision2","51","414963","0.0-10.0-0.16-0.16","5e742af79064483aedad296c","640759fa512f630a2bdc333d","6408c180774b08823a318737","[1772]","","","[22]","[301]","301","270","226.45390322634162","[226.45390322634162]","[316.4539032263416]","[316]","0","0","1","0","149","996","1000","[[[""img/mask76.png""]]]","","","main","270","color-precision2"
"","","","","","html-keyboard-response","52","415464","0.0-10.0-1.16","5e742af79064483aedad296c","640759fa512f630a2bdc333d","6408c180774b08823a318737","null","","null","","","","","","","","","","","","","","","","","","","fixation","",""
"","","","","","many-guess-6","53","419515","0.0-10.0-0.17-0.17","5e742af79064483aedad296c","640759fa512f630a2bdc333d","6408c180774b08823a318737","[2304]","","","[26,31,11,33,10,29,16,18,28,8,30,0,6,19,24,4,7,5,17,3,25,2,34,21,20,1,13,27,9,22,32,14,15,12,35,23]","[206,96,256,6,166,246,86,305,46,76,176,146,196,325,216,56,156,26,275,285,345,226,116,265,236,295,16,136,66,315,186,335,126,36,355,106]","206","131","334.3248913942655","[334.3248913942655]","[203.32489139426548]","[203]","[300,120,210,300,30,210,30,300,300]","0","36","0","149","19","16","[[[""img/mask54.png""],[""img/mask73.png""],[""img/mask63.png""],[""img/mask84.png""],[""img/mask15.png""],[""img/mask87.png""],[""img/mask95.png""],[""img/mask63.png""],[""img/mask26.png""],[""img/mask67.png""],[""img/mask83.png""],[""img/mask90.png""],[""img/mask49.png""],[""img/mask62.png""],[""img/mask73.png""],[""img/mask38.png""],[""img/mask99.png""],[""img/mask54.png""],[""img/mask86.png""],[""img/mask28.png""],[""img/mask81.png""],[""img/mask93.png""],[""img/mask1.png""],[""img/mask65.png""],[""img/mask15.png""],[""img/mask86.png""],[""img/mask19.png""],[""img/mask53.png""],[""img/mask1.png""],[""img/mask9.png""],[""img/mask7.png""],[""img/mask21.png""],[""img/mask90.png""],[""img/mask30.png""],[""img/mask36.png""],[""img/mask18.png""]]]","","[26,31,11,33,10,29,16,18,28,8,30,0,6,19,24,4,7,5,17,3,25,2,34,21,20,1,13,27,9,22,32,14,15,12,35,23]","main","131","many-guess-6"
"","","","","","html-keyboard-response","54","420016","0.0-10.0-1.17","5e742af79064483aedad296c","640759fa512f630a2bdc333d","6408c180774b08823a318737","null","","null","","","","","","","","","","","","","","","","","","","fixation","",""
"","","","","","many-guess-6","55","426196","0.0-10.0-0.18-0.18","5e742af79064483aedad296c","640759fa512f630a2bdc333d","6408c180774b08823a318737","[4529]","","","[28,2,15,17,4,9,30,31,7,16,18,35,3,34,19,13,26,10,14,22,24,5,0,27,25,8,33,29,6,23,21,32,12,20,1,11]","[68,347,28,327,158,288,317,178,198,228,108,18,258,48,148,248,168,78,357,58,308,218,268,88,278,98,337,238,208,298,38,128,188,118,138,8]","68","50","133.59978881813421","[133.59978881813421]","[83.59978881813421]","[82]","[210,30,120,210,120,120,120,210,210]","0","36","0","149","12","16","[[[""img/mask31.png""],[""img/mask29.png""],[""img/mask17.png""],[""img/mask46.png""],[""img/mask94.png""],[""img/mask35.png""],[""img/mask60.png""],[""img/mask100.png""],[""img/mask66.png""],[""img/mask96.png""],[""img/mask39.png""],[""img/mask72.png""],[""img/mask65.png""],[""img/mask55.png""],[""img/mask9.png""],[""img/mask79.png""],[""img/mask48.png""],[""img/mask89.png""],[""img/mask68.png""],[""img/mask77.png""],[""img/mask13.png""],[""img/mask89.png""],[""img/mask90.png""],[""img/mask15.png""],[""img/mask64.png""],[""img/mask69.png""],[""img/mask11.png""],[""img/mask52.png""],[""img/mask56.png""],[""img/mask2.png""],[""img/mask58.png""],[""img/mask28.png""],[""img/mask41.png""],[""img/mask60.png""],[""img/mask47.png""],[""img/mask67.png""]]]","","[28,2,15,17,4,9,30,31,7,16,18,35,3,34,19,13,26,10,14,22,24,5,0,27,25,8,33,29,6,23,21,32,12,20,1,11]","main","50","many-guess-6"
"","","","","","html-keyboard-response","56","426697","0.0-10.0-1.18","5e742af79064483aedad296c","640759fa512f630a2bdc333d","6408c180774b08823a318737","null","","null","","","","","","","","","","","","","","","","","","","fixation","",""
"","","","","","color-precision2","57","431099","0.0-10.0-0.19-0.19","5e742af79064483aedad296c","640759fa512f630a2bdc333d","6408c180774b08823a318737","[758]","","","[15]","[102]","102","179","274.3994494850202","[274.3994494850202]","[95.39944948502023]","[96]","0","0","1","0","149","995","1000","[[[""img/mask71.png""]]]","","","main","179","color-precision2"
"","","","","","html-keyboard-response","58","466985","0.0-10.0-1.19","5e742af79064483aedad296c","640759fa512f630a2bdc333d","6408c180774b08823a318737","35884","Wow! You've completed 20 out of 180 trials! </p> <p>  </p><p> Take a quick break, then press any key when you're ready to continue."," ","","","","","","","","","","","","","","","","","","","fixation","",""
"","","","","","many-guess-6","59","472620","0.0-10.0-0.20-0.20","5e742af79064483aedad296c","640759fa512f630a2bdc333d","6408c180774b08823a318737","[2238]","","","[8,4,7,0,10,34,5,11,29,15,14,3,12,28,2,21,6,17,24,23,20,9,33,22,30,1,25,13,27,19,18,31,32,35,16,26]","[100,269,60,120,289,199,20,140,279,50,160,209,70,309,249,90,30,10,179,349,339,130,239,80,319,259,110,169,359,219,189,150,329,299,40,229]","100","94","101.24558676264704","[101.24558676264704]","[7.2455867626470365]","[5]","[120,210,30,120,300,300,300,300,300]","0","36","0","149","16","16","[[[""img/mask79.png""],[""img/mask45.png""],[""img/mask34.png""],[""img/mask11.png""],[""img/mask28.png""],[""img/mask98.png""],[""img/mask48.png""],[""img/mask26.png""],[""img/mask39.png""],[""img/mask37.png""],[""img/mask98.png""],[""img/mask15.png""],[""img/mask4.png""],[""img/mask66.png""],[""img/mask72.png""],[""img/mask50.png""],[""img/mask65.png""],[""img/mask99.png""],[""img/mask1.png""],[""img/mask27.png""],[""img/mask13.png""],[""img/mask51.png""],[""img/mask31.png""],[""img/mask98.png""],[""img/mask45.png""],[""img/mask85.png""],[""img/mask42.png""],[""img/mask27.png""],[""img/mask89.png""],[""img/mask10.png""],[""img/mask60.png""],[""img/mask46.png""],[""img/mask2.png""],[""img/mask4.png""],[""img/mask74.png""],[""img/mask67.png""]]]","","[8,4,7,0,10,34,5,11,29,15,14,3,12,28,2,21,6,17,24,23,20,9,33,22,30,1,25,13,27,19,18,31,32,35,16,26]","main","94","many-guess-6"
"","","","","","html-keyboard-response","60","473121","0.0-10.0-1.20","5e742af79064483aedad296c","640759fa512f630a2bdc333d","6408c180774b08823a318737","null","","null","","","","","","","","","","","","","","","","","","","fixation","",""
"","","","","","many-guess-6","61","477093","0.0-10.0-0.21-0.21","5e742af79064483aedad296c","640759fa512f630a2bdc333d","6408c180774b08823a318737","[2340]","","","[3,11,12,18,13,24,0,25,34,23,29,22,31,30,35,26,2,14,4,16,15,20,27,21,5,28,9,10,8,17,19,33,1,32,6,7]","[194,114,204,134,74,24,284,144,294,44,154,304,34,254,84,324,64,54,234,214,344,244,264,184,224,274,104,164,124,5,354,314,174,94,334,14]","194","101","327.7706574124219","[327.7706574124219]","[226.77065741242188]","[227]","[30,300,300,30,300,210,30,300,210]","0","36","0","149","9","16","[[[""img/mask75.png""],[""img/mask9.png""],[""img/mask49.png""],[""img/mask86.png""],[""img/mask73.png""],[""img/mask27.png""],[""img/mask19.png""],[""img/mask27.png""],[""img/mask64.png""],[""img/mask49.png""],[""img/mask86.png""],[""img/mask41.png""],[""img/mask27.png""],[""img/mask85.png""],[""img/mask21.png""],[""img/mask100.png""],[""img/mask88.png""],[""img/mask17.png""],[""img/mask3.png""],[""img/mask38.png""],[""img/mask32.png""],[""img/mask89.png""],[""img/mask94.png""],[""img/mask3.png""],[""img/mask72.png""],[""img/mask92.png""],[""img/mask82.png""],[""img/mask20.png""],[""img/mask27.png""],[""img/mask99.png""],[""img/mask14.png""],[""img/mask41.png""],[""img/mask58.png""],[""img/mask64.png""],[""img/mask47.png""],[""img/mask92.png""]]]","","[3,11,12,18,13,24,0,25,34,23,29,22,31,30,35,26,2,14,4,16,15,20,27,21,5,28,9,10,8,17,19,33,1,32,6,7]","main","101","many-guess-6"
"","","","","","html-keyboard-response","62","477594","0.0-10.0-1.21","5e742af79064483aedad296c","640759fa512f630a2bdc333d","6408c180774b08823a318737","null","","null","","","","","","","","","","","","","","","","","","","fixation","",""
"","","","","","color-precision2","63","480660","0.0-10.0-0.22-0.22","5e742af79064483aedad296c","640759fa512f630a2bdc333d","6408c180774b08823a318737","[635]","","","[25]","[296]","296","19","306.43291313104856","[306.43291313104856]","[287.43291313104856]","[287]","0","0","1","0","148","993","1000","[[[""img/mask23.png""]]]","","","main","19","color-precision2"
"","","","","","html-keyboard-response","64","481160","0.0-10.0-1.22","5e742af79064483aedad296c","640759fa512f630a2bdc333d","6408c180774b08823a318737","null","","null","","","","","","","","","","","","","","","","","","","fixation","",""
"","","","","","many-guess-6","65","485076","0.0-10.0-0.23-0.23","5e742af79064483aedad296c","640759fa512f630a2bdc333d","6408c180774b08823a318737","[2533]","","","[7,8,0,15,6,16,28,11,32,18,4,29,1,9,35,12,13,34,26,5,27,20,33,3,21,24,22,14,23,2,17,30,10,25,31,19]","[329,359,70,139,159,30,40,119,249,279,219,149,349,319,229,60,20,339,169,259,80,129,309,50,10,299,199,99,109,209,239,89,179,189,289,269]","329","165","119.04908271992879","[119.04908271992879]","[314.0490827199288]","[312]","[30,210,210,210,120,300,300,30,300]","0","36","0","149","12","16","[[[""img/mask97.png""],[""img/mask34.png""],[""img/mask13.png""],[""img/mask58.png""],[""img/mask84.png""],[""img/mask82.png""],[""img/mask54.png""],[""img/mask42.png""],[""img/mask77.png""],[""img/mask14.png""],[""img/mask11.png""],[""img/mask10.png""],[""img/mask34.png""],[""img/mask25.png""],[""img/mask26.png""],[""img/mask75.png""],[""img/mask19.png""],[""img/mask86.png""],[""img/mask94.png""],[""img/mask23.png""],[""img/mask86.png""],[""img/mask2.png""],[""img/mask2.png""],[""img/mask21.png""],[""img/mask43.png""],[""img/mask60.png""],[""img/mask11.png""],[""img/mask3.png""],[""img/mask67.png""],[""img/mask52.png""],[""img/mask32.png""],[""img/mask35.png""],[""img/mask79.png""],[""img/mask96.png""],[""img/mask61.png""],[""img/mask43.png""]]]","","[7,8,0,15,6,16,28,11,32,18,4,29,1,9,35,12,13,34,26,5,27,20,33,3,21,24,22,14,23,2,17,30,10,25,31,19]","main","165","many-guess-6"
"","","","","","html-keyboard-response","66","485577","0.0-10.0-1.23","5e742af79064483aedad296c","640759fa512f630a2bdc333d","6408c180774b08823a318737","null","","null","","","","","","","","","","","","","","","","","","","fixation","",""
"","","","","","color-precision2","67","490316","0.0-10.0-0.24-0.24","5e742af79064483aedad296c","640759fa512f630a2bdc333d","6408c180774b08823a318737","[2034]","","","[30]","[92]","92","6","99.85032907939352","[99.85032907939352]","[93.85032907939352]","[92]","0","0","1","0","149","995","1000","[[[""img/mask88.png""]]]","","","main","6","color-precision2"
"","","","","","html-keyboard-response","68","490818","0.0-10.0-1.24","5e742af79064483aedad296c","640759fa512f630a2bdc333d","6408c180774b08823a318737","null","","null","","","","","","","","","","","","","","","","","","","fixation","",""
"","","","","","many-guess-6","69","496581","0.0-10.0-0.25-0.25","5e742af79064483aedad296c","640759fa512f630a2bdc333d","6408c180774b08823a318737","[3893]","","","[28,8,20,2,12,7,26,33,29,22,5,30,32,14,0,6,4,1,31,21,16,17,23,27,9,35,11,25,13,10,18,24,19,34,3,15]","[295,75,305,334,215,55,185,275,85,325,255,135,25,265,344,155,205,165,235,354,15,315,285,115,65,145,125,35,95,225,5,245,195,175,45,105]","295","315","284.41069835253074","[284.41069835253074]","[329.41069835253074]","[330]","[300,120,210,210,300,30,120,300,30]","0","36","0","150","13","16","[[[""img/mask1.png""],[""img/mask22.png""],[""img/mask71.png""],[""img/mask11.png""],[""img/mask97.png""],[""img/mask51.png""],[""img/mask88.png""],[""img/mask50.png""],[""img/mask31.png""],[""img/mask37.png""],[""img/mask17.png""],[""img/mask67.png""],[""img/mask76.png""],[""img/mask89.png""],[""img/mask49.png""],[""img/mask40.png""],[""img/mask25.png""],[""img/mask54.png""],[""img/mask91.png""],[""img/mask18.png""],[""img/mask75.png""],[""img/mask51.png""],[""img/mask25.png""],[""img/mask79.png""],[""img/mask17.png""],[""img/mask11.png""],[""img/mask6.png""],[""img/mask14.png""],[""img/mask23.png""],[""img/mask76.png""],[""img/mask50.png""],[""img/mask95.png""],[""img/mask32.png""],[""img/mask64.png""],[""img/mask10.png""],[""img/mask65.png""]]]","","[28,8,20,2,12,7,26,33,29,22,5,30,32,14,0,6,4,1,31,21,16,17,23,27,9,35,11,25,13,10,18,24,19,34,3,15]","main","315","many-guess-6"
"","","","","","html-keyboard-response","70","497081","0.0-10.0-1.25","5e742af79064483aedad296c","640759fa512f630a2bdc333d","6408c180774b08823a318737","null","","null","","","","","","","","","","","","","","","","","","","fixation","",""
"","","","","","color-precision2","71","500724","0.0-10.0-0.26-0.26","5e742af79064483aedad296c","640759fa512f630a2bdc333d","6408c180774b08823a318737","[963]","","","[1]","[295]","295","328","270.3984874681473","[270.3984874681473]","[302.3984874681473]","[303]","0","0","1","0","148","998","1000","[[[""img/mask44.png""]]]","","","main","328","color-precision2"
"","","","","","html-keyboard-response","72","501225","0.0-10.0-1.26","5e742af79064483aedad296c","640759fa512f630a2bdc333d","6408c180774b08823a318737","null","","null","","","","","","","","","","","","","","","","","","","fixation","",""
"","","","","","color-precision2","73","505221","0.0-10.0-0.27-0.27","5e742af79064483aedad296c","640759fa512f630a2bdc333d","6408c180774b08823a318737","[1140]","","","[35]","[120]","120","255","5.951969752134005","[5.951969752134005]","[110.951969752134]","[110]","0","0","1","0","149","996","1000","[[[""img/mask66.png""]]]","","","main","255","color-precision2"
"","","","","","html-keyboard-response","74","505722","0.0-10.0-1.27","5e742af79064483aedad296c","640759fa512f630a2bdc333d","6408c180774b08823a318737","null","","null","","","","","","","","","","","","","","","","","","","fixation","",""
"","","","","","color-precision2","75","513348","0.0-10.0-0.28-0.28","5e742af79064483aedad296c","640759fa512f630a2bdc333d","6408c180774b08823a318737","[1993]","","","[33]","[190]","190","206","34.52775259250424","[34.52775259250424]","[188.52775259250424]","[187]","0","0","1","0","149","996","1000","[[[""img/mask96.png""]]]","","","main","206","color-precision2"
"","","","","","html-keyboard-response","76","513851","0.0-10.0-1.28","5e742af79064483aedad296c","640759fa512f630a2bdc333d","6408c180774b08823a318737","null","","null","","","","","","","","","","","","","","","","","","","fixation","",""
"","","","","","many-guess-6","77","525139","0.0-10.0-0.29-0.29","5e742af79064483aedad296c","640759fa512f630a2bdc333d","6408c180774b08823a318737","[4008]","","","[28,18,23,0,11,8,22,35,30,10,21,33,26,34,5,27,25,4,16,31,6,32,20,12,2,1,17,19,7,3,9,14,24,15,13,29]","[42,152,172,252,32,242,162,262,112,202,292,12,341,2,272,52,192,182,92,312,62,321,351,142,302,122,102,132,282,212,331,82,232,222,72,22]","42","336","148.66231277691287","[148.66231277691287]","[172.66231277691287]","[171]","[120,210,120,210,300,30,300,300,210]","0","36","0","149","12","16","[[[""img/mask1.png""],[""img/mask5.png""],[""img/mask15.png""],[""img/mask36.png""],[""img/mask94.png""],[""img/mask68.png""],[""img/mask2.png""],[""img/mask76.png""],[""img/mask46.png""],[""img/mask7.png""],[""img/mask3.png""],[""img/mask70.png""],[""img/mask80.png""],[""img/mask13.png""],[""img/mask50.png""],[""img/mask78.png""],[""img/mask15.png""],[""img/mask73.png""],[""img/mask19.png""],[""img/mask13.png""],[""img/mask67.png""],[""img/mask59.png""],[""img/mask4.png""],[""img/mask49.png""],[""img/mask2.png""],[""img/mask55.png""],[""img/mask20.png""],[""img/mask46.png""],[""img/mask91.png""],[""img/mask22.png""],[""img/mask77.png""],[""img/mask9.png""],[""img/mask23.png""],[""img/mask21.png""],[""img/mask52.png""],[""img/mask39.png""]]]","","[28,18,23,0,11,8,22,35,30,10,21,33,26,34,5,27,25,4,16,31,6,32,20,12,2,1,17,19,7,3,9,14,24,15,13,29]","main","336","many-guess-6"
"","","","","","html-keyboard-response","78","525654","0.0-10.0-1.29","5e742af79064483aedad296c","640759fa512f630a2bdc333d","6408c180774b08823a318737","null","","null","","","","","","","","","","","","","","","","","","","fixation","",""
"","","","","","color-precision2","79","531755","0.0-10.0-0.30-0.30","5e742af79064483aedad296c","640759fa512f630a2bdc333d","6408c180774b08823a318737","[1497]","","","[9]","[129]","129","82","211.39949305941673","[211.39949305941673]","[129.39949305941673]","[129]","0","0","1","0","148","996","1000","[[[""img/mask17.png""]]]","","","main","82","color-precision2"
"","","","","","html-keyboard-response","80","532256","0.0-10.0-1.30","5e742af79064483aedad296c","640759fa512f630a2bdc333d","6408c180774b08823a318737","null","","null","","","","","","","","","","","","","","","","","","","fixation","",""
"","","","","","color-precision2","81","536252","0.0-10.0-0.31-0.31","5e742af79064483aedad296c","640759fa512f630a2bdc333d","6408c180774b08823a318737","[1573]","","","[9]","[307]","307","45","11.089549153244166","[11.089549153244166]","[326.08954915324415]","[325]","0","0","1","0","149","998","1000","[[[""img/mask17.png""]]]","","","main","45","color-precision2"
"","","","","","html-keyboard-response","82","536753","0.0-10.0-1.31","5e742af79064483aedad296c","640759fa512f630a2bdc333d","6408c180774b08823a318737","null","","null","","","","","","","","","","","","","","","","","","","fixation","",""
"","","","","","color-precision2","83","540499","0.0-10.0-0.32-0.32","5e742af79064483aedad296c","640759fa512f630a2bdc333d","6408c180774b08823a318737","[983]","","","[10]","[344]","344","285","281.39942050771907","[281.39942050771907]","[356.39942050771907]","[357]","0","0","1","0","149","996","1000","[[[""img/mask99.png""]]]","","","main","285","color-precision2"
"","","","","","html-keyboard-response","84","541001","0.0-10.0-1.32","5e742af79064483aedad296c","640759fa512f630a2bdc333d","6408c180774b08823a318737","null","","null","","","","","","","","","","","","","","","","","","","fixation","",""
"","","","","","color-precision2","85","544836","0.0-10.0-0.33-0.33","5e742af79064483aedad296c","640759fa512f630a2bdc333d","6408c180774b08823a318737","[964]","","","[2]","[24]","24","39","57.57891010495984","[57.57891010495984]","[18.57891010495984]","[17]","0","0","1","0","149","993","1000","[[[""img/mask75.png""]]]","","","main","39","color-precision2"
"","","","","","html-keyboard-response","86","545336","0.0-10.0-1.33","5e742af79064483aedad296c","640759fa512f630a2bdc333d","6408c180774b08823a318737","null","","null","","","","","","","","","","","","","","","","","","","fixation","",""
"","","","","","many-guess-6","87","550123","0.0-10.0-0.34-0.34","5e742af79064483aedad296c","640759fa512f630a2bdc333d","6408c180774b08823a318737","[3182]","","","[20,9,13,16,25,29,26,30,3,27,31,21,15,35,24,17,28,10,1,8,22,34,18,11,12,32,2,19,0,7,23,33,14,4,6,5]","[293,113,163,133,123,303,223,93,83,213,243,63,263,352,312,23,33,332,283,173,143,253,342,3,53,193,153,73,273,233,183,203,103,322,43,13]","293","73","78.24064613479636","[78.24064613479636]","[5.240646134796364]","[3]","[120,120,30,210,120,210,30,120,30]","0","36","0","150","12","16","[[[""img/mask80.png""],[""img/mask49.png""],[""img/mask57.png""],[""img/mask90.png""],[""img/mask6.png""],[""img/mask52.png""],[""img/mask37.png""],[""img/mask96.png""],[""img/mask52.png""],[""img/mask84.png""],[""img/mask72.png""],[""img/mask84.png""],[""img/mask33.png""],[""img/mask13.png""],[""img/mask31.png""],[""img/mask88.png""],[""img/mask23.png""],[""img/mask11.png""],[""img/mask12.png""],[""img/mask17.png""],[""img/mask67.png""],[""img/mask85.png""],[""img/mask97.png""],[""img/mask50.png""],[""img/mask38.png""],[""img/mask27.png""],[""img/mask77.png""],[""img/mask100.png""],[""img/mask40.png""],[""img/mask95.png""],[""img/mask29.png""],[""img/mask74.png""],[""img/mask6.png""],[""img/mask8.png""],[""img/mask17.png""],[""img/mask7.png""]]]","","[20,9,13,16,25,29,26,30,3,27,31,21,15,35,24,17,28,10,1,8,22,34,18,11,12,32,2,19,0,7,23,33,14,4,6,5]","main","73","many-guess-6"
"","","","","","html-keyboard-response","88","550624","0.0-10.0-1.34","5e742af79064483aedad296c","640759fa512f630a2bdc333d","6408c180774b08823a318737","null","","null","","","","","","","","","","","","","","","","","","","fixation","",""
"","","","","","color-precision2","89","555475","0.0-10.0-0.35-0.35","5e742af79064483aedad296c","640759fa512f630a2bdc333d","6408c180774b08823a318737","[2012]","","","[35]","[188]","188","291","115.58946438593595","[115.58946438593595]","[184.58946438593597]","[183]","0","0","1","0","149","996","1000","[[[""img/mask30.png""]]]","","","main","291","color-precision2"
"","","","","","html-keyboard-response","90","555977","0.0-10.0-1.35","5e742af79064483aedad296c","640759fa512f630a2bdc333d","6408c180774b08823a318737","null","","null","","","","","","","","","","","","","","","","","","","fixation","",""
"","","","","","color-precision2","91","559339","0.0-10.0-0.36-0.36","5e742af79064483aedad296c","640759fa512f630a2bdc333d","6408c180774b08823a318737","[854]","","","[15]","[284]","284","19","297.68094967565344","[297.68094967565344]","[278.68094967565344]","[279]","0","0","1","0","148","995","1000","[[[""img/mask88.png""]]]","","","main","19","color-precision2"
"","","","","","html-keyboard-response","92","559839","0.0-10.0-1.36","5e742af79064483aedad296c","640759fa512f630a2bdc333d","6408c180774b08823a318737","null","","null","","","","","","","","","","","","","","","","","","","fixation","",""
"","","","","","color-precision2","93","563939","0.0-10.0-0.37-0.37","5e742af79064483aedad296c","640759fa512f630a2bdc333d","6408c180774b08823a318737","[1666]","","","[15]","[263]","263","169","67.77045916950286","[67.77045916950286]","[258.77045916950283]","[257]","0","0","1","0","150","997","1000","[[[""img/mask94.png""]]]","","","main","169","color-precision2"
"","","","","","html-keyboard-response","94","564440","0.0-10.0-1.37","5e742af79064483aedad296c","640759fa512f630a2bdc333d","6408c180774b08823a318737","null","","null","","","","","","","","","","","","","","","","","","","fixation","",""
"","","","","","many-guess-6","95","568075","0.0-10.0-0.38-0.38","5e742af79064483aedad296c","640759fa512f630a2bdc333d","6408c180774b08823a318737","[2049]","","","[35,4,9,0,5,10,20,1,28,30,6,29,25,24,3,17,7,19,22,12,8,18,13,31,33,16,32,15,21,27,14,2,23,11,34,26]","[121,251,171,261,21,101,91,221,231,191,340,300,151,71,51,320,141,31,1,61,270,111,181,81,201,330,131,280,310,350,211,290,241,11,161,41]","121","160","13.442770696440274","[13.442770696440274]","[213.44277069644028]","[212]","[210,210,120,120,120,300,210,30,210]","0","36","0","149","11","16","[[[""img/mask94.png""],[""img/mask51.png""],[""img/mask30.png""],[""img/mask68.png""],[""img/mask14.png""],[""img/mask33.png""],[""img/mask98.png""],[""img/mask1.png""],[""img/mask88.png""],[""img/mask64.png""],[""img/mask16.png""],[""img/mask7.png""],[""img/mask78.png""],[""img/mask54.png""],[""img/mask24.png""],[""img/mask58.png""],[""img/mask12.png""],[""img/mask2.png""],[""img/mask99.png""],[""img/mask71.png""],[""img/mask38.png""],[""img/mask91.png""],[""img/mask13.png""],[""img/mask46.png""],[""img/mask1.png""],[""img/mask34.png""],[""img/mask34.png""],[""img/mask100.png""],[""img/mask9.png""],[""img/mask85.png""],[""img/mask54.png""],[""img/mask65.png""],[""img/mask20.png""],[""img/mask7.png""],[""img/mask43.png""],[""img/mask5.png""]]]","","[35,4,9,0,5,10,20,1,28,30,6,29,25,24,3,17,7,19,22,12,8,18,13,31,33,16,32,15,21,27,14,2,23,11,34,26]","main","160","many-guess-6"
"","","","","","html-keyboard-response","96","568575","0.0-10.0-1.38","5e742af79064483aedad296c","640759fa512f630a2bdc333d","6408c180774b08823a318737","null","","null","","","","","","","","","","","","","","","","","","","fixation","",""
"","","","","","many-guess-6","97","572978","0.0-10.0-0.39-0.39","5e742af79064483aedad296c","640759fa512f630a2bdc333d","6408c180774b08823a318737","[2448]","","","[5,23,4,3,35,30,8,25,17,28,18,6,14,16,29,33,0,7,22,32,31,13,27,12,9,21,20,15,11,26,24,1,2,10,19,34]","[183,343,14,44,173,193,113,163,103,283,94,133,293,143,323,333,353,54,233,64,84,213,253,34,24,74,303,273,243,263,203,313,123,223,4,153]","183","140","127.44683494945146","[127.44683494945146]","[347.44683494945144]","[346]","[300,30,120,300,300,210,210,30,210]","0","36","0","149","11","16","[[[""img/mask91.png""],[""img/mask52.png""],[""img/mask13.png""],[""img/mask3.png""],[""img/mask92.png""],[""img/mask51.png""],[""img/mask87.png""],[""img/mask100.png""],[""img/mask23.png""],[""img/mask55.png""],[""img/mask10.png""],[""img/mask30.png""],[""img/mask3.png""],[""img/mask47.png""],[""img/mask62.png""],[""img/mask62.png""],[""img/mask57.png""],[""img/mask45.png""],[""img/mask61.png""],[""img/mask16.png""],[""img/mask90.png""],[""img/mask96.png""],[""img/mask92.png""],[""img/mask63.png""],[""img/mask94.png""],[""img/mask90.png""],[""img/mask79.png""],[""img/mask5.png""],[""img/mask20.png""],[""img/mask58.png""],[""img/mask93.png""],[""img/mask91.png""],[""img/mask28.png""],[""img/mask89.png""],[""img/mask72.png""],[""img/mask66.png""]]]","","[5,23,4,3,35,30,8,25,17,28,18,6,14,16,29,33,0,7,22,32,31,13,27,12,9,21,20,15,11,26,24,1,2,10,19,34]","main","140","many-guess-6"
"","","","","","html-keyboard-response","98","574432","0.0-10.0-1.39","5e742af79064483aedad296c","640759fa512f630a2bdc333d","6408c180774b08823a318737","1453","Wow! You've completed 40 out of 180 trials! </p> <p>  </p><p> Take a quick break, then press any key when you're ready to continue."," ","","","","","","","","","","","","","","","","","","","fixation","",""
"","","","","","color-precision2","99","578603","0.0-10.0-0.40-0.40","5e742af79064483aedad296c","640759fa512f630a2bdc333d","6408c180774b08823a318737","[765]","","","[15]","[25]","25","159","180","[180]","[21]","[20]","0","0","1","0","148","994","1000","[[[""img/mask22.png""]]]","","","main","159","color-precision2"
"","","","","","html-keyboard-response","100","579106","0.0-10.0-1.40","5e742af79064483aedad296c","640759fa512f630a2bdc333d","6408c180774b08823a318737","null","","null","","","","","","","","","","","","","","","","","","","fixation","",""
"","","","","","many-guess-6","101","582747","0.0-10.0-0.41-0.41","5e742af79064483aedad296c","640759fa512f630a2bdc333d","6408c180774b08823a318737","[1956]","","","[23,35,0,29,30,15,24,16,9,7,14,20,25,18,32,1,4,2,34,33,5,12,10,27,26,21,17,19,11,28,31,6,3,8,22,13]","[270,350,170,71,140,31,330,81,180,110,51,130,220,150,340,100,21,61,41,300,210,200,190,290,240,320,160,11,280,260,1,230,91,250,310,120]","270","293","186.7543184235794","[186.7543184235794]","[253.7543184235794]","[253]","[300,120,300,210,210,120,30,30,30]","0","36","0","149","11","16","[[[""img/mask26.png""],[""img/mask49.png""],[""img/mask34.png""],[""img/mask88.png""],[""img/mask6.png""],[""img/mask3.png""],[""img/mask73.png""],[""img/mask49.png""],[""img/mask12.png""],[""img/mask49.png""],[""img/mask82.png""],[""img/mask31.png""],[""img/mask6.png""],[""img/mask91.png""],[""img/mask18.png""],[""img/mask66.png""],[""img/mask39.png""],[""img/mask73.png""],[""img/mask34.png""],[""img/mask9.png""],[""img/mask14.png""],[""img/mask8.png""],[""img/mask33.png""],[""img/mask41.png""],[""img/mask32.png""],[""img/mask94.png""],[""img/mask51.png""],[""img/mask63.png""],[""img/mask100.png""],[""img/mask54.png""],[""img/mask85.png""],[""img/mask61.png""],[""img/mask70.png""],[""img/mask35.png""],[""img/mask10.png""],[""img/mask33.png""]]]","","[23,35,0,29,30,15,24,16,9,7,14,20,25,18,32,1,4,2,34,33,5,12,10,27,26,21,17,19,11,28,31,6,3,8,22,13]","main","293","many-guess-6"
"","","","","","html-keyboard-response","102","583248","0.0-10.0-1.41","5e742af79064483aedad296c","640759fa512f630a2bdc333d","6408c180774b08823a318737","null","","null","","","","","","","","","","","","","","","","","","","fixation","",""
"","","","","","color-precision2","103","587556","0.0-10.0-0.42-0.42","5e742af79064483aedad296c","640759fa512f630a2bdc333d","6408c180774b08823a318737","[1876]","","","[2]","[295]","295","208","145.51730343310436","[145.51730343310436]","[297.51730343310436]","[296]","0","0","1","0","149","995","1000","[[[""img/mask23.png""]]]","","","main","208","color-precision2"
"","","","","","html-keyboard-response","104","588056","0.0-10.0-1.42","5e742af79064483aedad296c","640759fa512f630a2bdc333d","6408c180774b08823a318737","null","","null","","","","","","","","","","","","","","","","","","","fixation","",""
"","","","","","color-precision2","105","591292","0.0-10.0-0.43-0.43","5e742af79064483aedad296c","640759fa512f630a2bdc333d","6408c180774b08823a318737","[473]","","","[17]","[179]","179","225","46.11490975225702","[46.11490975225702]","[181.114909752257]","[179]","0","0","1","0","149","996","1000","[[[""img/mask5.png""]]]","","","main","225","color-precision2"
"","","","","","html-keyboard-response","106","591795","0.0-10.0-1.43","5e742af79064483aedad296c","640759fa512f630a2bdc333d","6408c180774b08823a318737","null","","null","","","","","","","","","","","","","","","","","","","fixation","",""
"","","","","","color-precision2","107","595371","0.0-10.0-0.44-0.44","5e742af79064483aedad296c","640759fa512f630a2bdc333d","6408c180774b08823a318737","[1000]","","","[6]","[149]","149","245","34.29342792746521","[34.29342792746521]","[149.29342792746522]","[149]","0","0","1","0","149","994","1000","[[[""img/mask79.png""]]]","","","main","245","color-precision2"
"","","","","","html-keyboard-response","108","595872","0.0-10.0-1.44","5e742af79064483aedad296c","640759fa512f630a2bdc333d","6408c180774b08823a318737","null","","null","","","","","","","","","","","","","","","","","","","fixation","",""
"","","","","","color-precision2","109","599348","0.0-10.0-0.45-0.45","5e742af79064483aedad296c","640759fa512f630a2bdc333d","6408c180774b08823a318737","[640]","","","[35]","[256]","256","106","355.7199245825634","[355.7199245825634]","[249.7199245825634]","[249]","0","0","1","0","149","995","1000","[[[""img/mask34.png""]]]","","","main","106","color-precision2"
"","","","","","html-keyboard-response","110","599848","0.0-10.0-1.45","5e742af79064483aedad296c","640759fa512f630a2bdc333d","6408c180774b08823a318737","null","","null","","","","","","","","","","","","","","","","","","","fixation","",""
"","","","","","many-guess-6","111","604260","0.0-10.0-0.46-0.46","5e742af79064483aedad296c","640759fa512f630a2bdc333d","6408c180774b08823a318737","[2531]","","","[32,5,21,23,1,22,2,9,35,18,33,20,0,19,15,31,29,28,8,30,6,27,13,3,4,12,34,11,10,7,25,16,14,24,26,17]","[14,223,353,34,233,193,63,293,133,44,93,83,24,323,123,283,153,143,4,243,173,203,263,73,103,213,303,53,313,333,113,273,343,253,183,163]","14","52","244.15594252071082","[244.15594252071082]","[192.15594252071082]","[192]","[210,120,120,210,210,30,120,210,210]","0","36","0","149","11","16","[[[""img/mask22.png""],[""img/mask82.png""],[""img/mask76.png""],[""img/mask73.png""],[""img/mask83.png""],[""img/mask75.png""],[""img/mask56.png""],[""img/mask24.png""],[""img/mask78.png""],[""img/mask33.png""],[""img/mask38.png""],[""img/mask68.png""],[""img/mask17.png""],[""img/mask57.png""],[""img/mask62.png""],[""img/mask73.png""],[""img/mask26.png""],[""img/mask71.png""],[""img/mask72.png""],[""img/mask31.png""],[""img/mask29.png""],[""img/mask25.png""],[""img/mask69.png""],[""img/mask86.png""],[""img/mask21.png""],[""img/mask49.png""],[""img/mask21.png""],[""img/mask94.png""],[""img/mask2.png""],[""img/mask58.png""],[""img/mask93.png""],[""img/mask98.png""],[""img/mask53.png""],[""img/mask8.png""],[""img/mask12.png""],[""img/mask41.png""]]]","","[32,5,21,23,1,22,2,9,35,18,33,20,0,19,15,31,29,28,8,30,6,27,13,3,4,12,34,11,10,7,25,16,14,24,26,17]","main","52","many-guess-6"
"","","","","","html-keyboard-response","112","604761","0.0-10.0-1.46","5e742af79064483aedad296c","640759fa512f630a2bdc333d","6408c180774b08823a318737","null","","null","","","","","","","","","","","","","","","","","","","fixation","",""
"","","","","","many-guess-6","113","609564","0.0-10.0-0.47-0.47","5e742af79064483aedad296c","640759fa512f630a2bdc333d","6408c180774b08823a318737","[2896]","","","[28,14,26,31,6,8,17,32,23,11,34,16,22,3,13,7,18,15,5,25,4,24,20,12,2,0,33,29,35,21,30,19,1,27,10,9]","[27,167,77,346,287,57,47,307,356,147,277,257,247,197,87,337,157,117,137,317,297,67,187,7,127,107,37,267,217,327,17,97,177,207,227,237]","27","134","120.88416246994841","[120.88416246994841]","[346.8841624699484]","[345]","[120,300,300,300,30,120,300,30,300]","0","36","0","150","12","16","[[[""img/mask77.png""],[""img/mask51.png""],[""img/mask39.png""],[""img/mask10.png""],[""img/mask58.png""],[""img/mask65.png""],[""img/mask54.png""],[""img/mask84.png""],[""img/mask12.png""],[""img/mask66.png""],[""img/mask6.png""],[""img/mask8.png""],[""img/mask72.png""],[""img/mask24.png""],[""img/mask6.png""],[""img/mask38.png""],[""img/mask57.png""],[""img/mask31.png""],[""img/mask63.png""],[""img/mask1.png""],[""img/mask12.png""],[""img/mask16.png""],[""img/mask59.png""],[""img/mask37.png""],[""img/mask17.png""],[""img/mask29.png""],[""img/mask71.png""],[""img/mask49.png""],[""img/mask19.png""],[""img/mask50.png""],[""img/mask70.png""],[""img/mask100.png""],[""img/mask55.png""],[""img/mask47.png""],[""img/mask8.png""],[""img/mask62.png""]]]","","[28,14,26,31,6,8,17,32,23,11,34,16,22,3,13,7,18,15,5,25,4,24,20,12,2,0,33,29,35,21,30,19,1,27,10,9]","main","134","many-guess-6"
"","","","","","html-keyboard-response","114","610066","0.0-10.0-1.47","5e742af79064483aedad296c","640759fa512f630a2bdc333d","6408c180774b08823a318737","null","","null","","","","","","","","","","","","","","","","","","","fixation","",""
"","","","","","color-precision2","115","615252","0.0-10.0-0.48-0.48","5e742af79064483aedad296c","640759fa512f630a2bdc333d","6408c180774b08823a318737","[1646]","","","[18]","[244]","244","245","133.52595268508085","[133.52595268508085]","[248.52595268508085]","[247]","0","0","1","0","149","995","1000","[[[""img/mask68.png""]]]","","","main","245","color-precision2"
"","","","","","html-keyboard-response","116","615754","0.0-10.0-1.48","5e742af79064483aedad296c","640759fa512f630a2bdc333d","6408c180774b08823a318737","null","","null","","","","","","","","","","","","","","","","","","","fixation","",""
"","","","","","many-guess-6","117","619683","0.0-10.0-0.49-0.49","5e742af79064483aedad296c","640759fa512f630a2bdc333d","6408c180774b08823a318737","[2089]","","","[5,35,21,29,26,18,33,8,31,20,27,19,22,0,4,3,13,12,16,2,9,25,28,30,23,34,6,11,17,24,14,15,10,32,1,7]","[133,312,282,13,252,192,242,272,3,332,202,73,352,152,23,93,113,222,172,43,83,212,262,232,143,342,103,292,322,182,63,33,123,302,162,53]","133","169","192.27248485901856","[192.27248485901856]","[23.27248485901856]","[23]","[300,30,30,120,300,300,210,120,30]","0","36","0","149","12","16","[[[""img/mask89.png""],[""img/mask3.png""],[""img/mask48.png""],[""img/mask51.png""],[""img/mask96.png""],[""img/mask97.png""],[""img/mask30.png""],[""img/mask30.png""],[""img/mask75.png""],[""img/mask52.png""],[""img/mask17.png""],[""img/mask6.png""],[""img/mask85.png""],[""img/mask99.png""],[""img/mask56.png""],[""img/mask17.png""],[""img/mask25.png""],[""img/mask50.png""],[""img/mask48.png""],[""img/mask78.png""],[""img/mask21.png""],[""img/mask65.png""],[""img/mask60.png""],[""img/mask39.png""],[""img/mask41.png""],[""img/mask9.png""],[""img/mask52.png""],[""img/mask1.png""],[""img/mask22.png""],[""img/mask15.png""],[""img/mask7.png""],[""img/mask43.png""],[""img/mask63.png""],[""img/mask19.png""],[""img/mask43.png""],[""img/mask62.png""]]]","","[5,35,21,29,26,18,33,8,31,20,27,19,22,0,4,3,13,12,16,2,9,25,28,30,23,34,6,11,17,24,14,15,10,32,1,7]","main","169","many-guess-6"
"","","","","","html-keyboard-response","118","620184","0.0-10.0-1.49","5e742af79064483aedad296c","640759fa512f630a2bdc333d","6408c180774b08823a318737","null","","null","","","","","","","","","","","","","","","","","","","fixation","",""
"","","","","","color-precision2","119","623732","0.0-10.0-0.50-0.50","5e742af79064483aedad296c","640759fa512f630a2bdc333d","6408c180774b08823a318737","[482]","","","[1]","[256]","256","103","352.9249047678515","[352.9249047678515]","[249.9249047678515]","[249]","0","0","1","0","149","995","1000","[[[""img/mask27.png""]]]","","","main","103","color-precision2"
"","","","","","html-keyboard-response","120","624233","0.0-10.0-1.50","5e742af79064483aedad296c","640759fa512f630a2bdc333d","6408c180774b08823a318737","null","","null","","","","","","","","","","","","","","","","","","","fixation","",""
"","","","","","many-guess-6","121","628004","0.0-10.0-0.51-0.51","5e742af79064483aedad296c","640759fa512f630a2bdc333d","6408c180774b08823a318737","[1935]","","","[17,35,14,9,24,0,4,27,15,23,32,5,31,12,6,18,34,7,20,19,28,26,10,8,25,30,3,2,22,13,21,16,1,29,11,33]","[260,190,110,160,329,279,50,240,359,299,309,170,20,250,90,100,210,349,130,140,80,230,70,319,40,289,270,10,30,180,339,150,220,120,60,200]","260","39","26.86443929178431","[26.86443929178431]","[347.8644392917843]","[347]","[30,210,210,120,210,210,120,210,300]","0","36","0","148","13","16","[[[""img/mask23.png""],[""img/mask11.png""],[""img/mask40.png""],[""img/mask21.png""],[""img/mask90.png""],[""img/mask60.png""],[""img/mask71.png""],[""img/mask55.png""],[""img/mask41.png""],[""img/mask25.png""],[""img/mask19.png""],[""img/mask12.png""],[""img/mask15.png""],[""img/mask19.png""],[""img/mask98.png""],[""img/mask73.png""],[""img/mask89.png""],[""img/mask41.png""],[""img/mask70.png""],[""img/mask4.png""],[""img/mask56.png""],[""img/mask11.png""],[""img/mask26.png""],[""img/mask33.png""],[""img/mask27.png""],[""img/mask16.png""],[""img/mask1.png""],[""img/mask15.png""],[""img/mask44.png""],[""img/mask73.png""],[""img/mask31.png""],[""img/mask86.png""],[""img/mask73.png""],[""img/mask50.png""],[""img/mask16.png""],[""img/mask78.png""]]]","","[17,35,14,9,24,0,4,27,15,23,32,5,31,12,6,18,34,7,20,19,28,26,10,8,25,30,3,2,22,13,21,16,1,29,11,33]","main","39","many-guess-6"
"","","","","","html-keyboard-response","122","628506","0.0-10.0-1.51","5e742af79064483aedad296c","640759fa512f630a2bdc333d","6408c180774b08823a318737","null","","null","","","","","","","","","","","","","","","","","","","fixation","",""
"","","","","","many-guess-6","123","632884","0.0-10.0-0.52-0.52","5e742af79064483aedad296c","640759fa512f630a2bdc333d","6408c180774b08823a318737","[2310]","","","[2,20,11,0,22,18,12,27,29,28,14,10,13,33,17,24,31,5,23,3,19,32,15,25,16,9,7,6,30,26,4,8,21,34,1,35]","[218,198,188,48,228,58,138,78,327,168,307,98,278,128,357,8,347,118,108,38,68,88,258,238,298,288,268,248,158,337,317,178,28,208,18,148]","218","242","239.13910319174855","[239.13910319174855]","[357.1391031917485]","[357]","[300,30,300,300,30,210,30,300,210]","0","36","0","149","11","16","[[[""img/mask46.png""],[""img/mask11.png""],[""img/mask36.png""],[""img/mask71.png""],[""img/mask73.png""],[""img/mask45.png""],[""img/mask89.png""],[""img/mask97.png""],[""img/mask83.png""],[""img/mask85.png""],[""img/mask7.png""],[""img/mask19.png""],[""img/mask52.png""],[""img/mask23.png""],[""img/mask14.png""],[""img/mask4.png""],[""img/mask65.png""],[""img/mask91.png""],[""img/mask55.png""],[""img/mask58.png""],[""img/mask42.png""],[""img/mask71.png""],[""img/mask42.png""],[""img/mask6.png""],[""img/mask61.png""],[""img/mask34.png""],[""img/mask76.png""],[""img/mask14.png""],[""img/mask44.png""],[""img/mask2.png""],[""img/mask95.png""],[""img/mask74.png""],[""img/mask41.png""],[""img/mask39.png""],[""img/mask40.png""],[""img/mask86.png""]]]","","[2,20,11,0,22,18,12,27,29,28,14,10,13,33,17,24,31,5,23,3,19,32,15,25,16,9,7,6,30,26,4,8,21,34,1,35]","main","242","many-guess-6"
"","","","","","html-keyboard-response","124","633386","0.0-10.0-1.52","5e742af79064483aedad296c","640759fa512f630a2bdc333d","6408c180774b08823a318737","null","","null","","","","","","","","","","","","","","","","","","","fixation","",""
"","","","","","color-precision2","125","636380","0.0-10.0-0.53-0.53","5e742af79064483aedad296c","640759fa512f630a2bdc333d","6408c180774b08823a318737","[482]","","","[1]","[249]","249","245","136.28723444190766","[136.28723444190766]","[251.28723444190766]","[249]","0","0","1","0","150","1000","1000","[[[""img/mask31.png""]]]","","","main","245","color-precision2"
"","","","","","html-keyboard-response","126","636881","0.0-10.0-1.53","5e742af79064483aedad296c","640759fa512f630a2bdc333d","6408c180774b08823a318737","null","","null","","","","","","","","","","","","","","","","","","","fixation","",""
"","","","","","many-guess-6","127","640531","0.0-10.0-0.54-0.54","5e742af79064483aedad296c","640759fa512f630a2bdc333d","6408c180774b08823a318737","[2149]","","","[2,24,29,14,20,5,11,25,30,15,27,0,34,4,12,31,19,9,16,21,7,26,13,1,8,3,23,6,32,28,35,33,17,18,22,10]","[157,327,217,68,8,58,177,277,207,18,287,78,137,127,88,307,337,187,167,237,357,257,147,227,98,48,347,267,247,108,317,28,117,297,38,197]","157","302","312.94318929762966","[312.94318929762966]","[10.943189297629658]","[11]","[120,120,300,300,210,120,210,300,300]","0","36","0","150","10","16","[[[""img/mask90.png""],[""img/mask35.png""],[""img/mask51.png""],[""img/mask27.png""],[""img/mask55.png""],[""img/mask58.png""],[""img/mask53.png""],[""img/mask10.png""],[""img/mask10.png""],[""img/mask17.png""],[""img/mask85.png""],[""img/mask83.png""],[""img/mask67.png""],[""img/mask42.png""],[""img/mask36.png""],[""img/mask42.png""],[""img/mask50.png""],[""img/mask26.png""],[""img/mask34.png""],[""img/mask7.png""],[""img/mask69.png""],[""img/mask97.png""],[""img/mask88.png""],[""img/mask92.png""],[""img/mask55.png""],[""img/mask39.png""],[""img/mask80.png""],[""img/mask60.png""],[""img/mask88.png""],[""img/mask9.png""],[""img/mask38.png""],[""img/mask40.png""],[""img/mask98.png""],[""img/mask85.png""],[""img/mask55.png""],[""img/mask90.png""]]]","","[2,24,29,14,20,5,11,25,30,15,27,0,34,4,12,31,19,9,16,21,7,26,13,1,8,3,23,6,32,28,35,33,17,18,22,10]","main","302","many-guess-6"
"","","","","","html-keyboard-response","128","641043","0.0-10.0-1.54","5e742af79064483aedad296c","640759fa512f630a2bdc333d","6408c180774b08823a318737","null","","null","","","","","","","","","","","","","","","","","","","fixation","",""
"","","","","","color-precision2","129","644397","0.0-10.0-0.55-0.55","5e742af79064483aedad296c","640759fa512f630a2bdc333d","6408c180774b08823a318737","[525]","","","[9]","[214]","214","342","193.0003175369259","[193.0003175369259]","[211.0003175369259]","[210]","0","0","1","0","150","996","1000","[[[""img/mask82.png""]]]","","","main","342","color-precision2"
"","","","","","html-keyboard-response","130","644897","0.0-10.0-1.55","5e742af79064483aedad296c","640759fa512f630a2bdc333d","6408c180774b08823a318737","null","","null","","","","","","","","","","","","","","","","","","","fixation","",""
"","","","","","color-precision2","131","647836","0.0-10.0-0.56-0.56","5e742af79064483aedad296c","640759fa512f630a2bdc333d","6408c180774b08823a318737","[512]","","","[22]","[181]","181","297","117.26998141834814","[117.26998141834814]","[180.26998141834815]","[178]","0","0","1","0","149","1006","1000","[[[""img/mask99.png""]]]","","","main","297","color-precision2"
"","","","","","html-keyboard-response","132","648352","0.0-10.0-1.56","5e742af79064483aedad296c","640759fa512f630a2bdc333d","6408c180774b08823a318737","null","","null","","","","","","","","","","","","","","","","","","","fixation","",""
"","","","","","color-precision2","133","651573","0.0-10.0-0.57-0.57","5e742af79064483aedad296c","640759fa512f630a2bdc333d","6408c180774b08823a318737","[678]","","","[25]","[343]","343","178","167.06108705431765","[167.06108705431765]","[349.0610870543177]","[348]","0","0","1","0","149","999","1000","[[[""img/mask25.png""]]]","","","main","178","color-precision2"
"","","","","","html-keyboard-response","134","652075","0.0-10.0-1.57","5e742af79064483aedad296c","640759fa512f630a2bdc333d","6408c180774b08823a318737","null","","null","","","","","","","","","","","","","","","","","","","fixation","",""
"","","","","","many-guess-6","135","655588","0.0-10.0-0.58-0.58","5e742af79064483aedad296c","640759fa512f630a2bdc333d","6408c180774b08823a318737","[2041]","","","[24,5,18,28,31,15,7,16,33,1,20,2,22,35,12,3,10,13,26,32,34,4,6,17,25,27,21,9,8,29,14,30,23,0,11,19]","[153,23,83,33,183,292,352,13,53,3,133,103,113,143,93,252,242,193,213,342,43,322,232,123,203,173,73,163,222,312,63,262,332,272,302,282]","153","160","31.709963611888785","[31.709963611888785]","[231.70996361188878]","[231]","[120,120,120,300,120,210,30,120,120]","0","36","0","149","13","16","[[[""img/mask70.png""],[""img/mask16.png""],[""img/mask30.png""],[""img/mask67.png""],[""img/mask38.png""],[""img/mask79.png""],[""img/mask69.png""],[""img/mask81.png""],[""img/mask53.png""],[""img/mask59.png""],[""img/mask83.png""],[""img/mask35.png""],[""img/mask32.png""],[""img/mask33.png""],[""img/mask93.png""],[""img/mask37.png""],[""img/mask87.png""],[""img/mask35.png""],[""img/mask96.png""],[""img/mask70.png""],[""img/mask1.png""],[""img/mask39.png""],[""img/mask41.png""],[""img/mask2.png""],[""img/mask32.png""],[""img/mask89.png""],[""img/mask57.png""],[""img/mask56.png""],[""img/mask100.png""],[""img/mask9.png""],[""img/mask34.png""],[""img/mask86.png""],[""img/mask10.png""],[""img/mask12.png""],[""img/mask4.png""],[""img/mask100.png""]]]","","[24,5,18,28,31,15,7,16,33,1,20,2,22,35,12,3,10,13,26,32,34,4,6,17,25,27,21,9,8,29,14,30,23,0,11,19]","main","160","many-guess-6"
"","","","","","html-keyboard-response","136","656089","0.0-10.0-1.58","5e742af79064483aedad296c","640759fa512f630a2bdc333d","6408c180774b08823a318737","null","","null","","","","","","","","","","","","","","","","","","","fixation","",""
"","","","","","many-guess-6","137","660020","0.0-10.0-0.59-0.59","5e742af79064483aedad296c","640759fa512f630a2bdc333d","6408c180774b08823a318737","[1751]","","","[9,29,6,32,21,13,11,24,25,26,0,19,34,31,12,4,35,10,27,5,7,30,2,15,16,22,8,14,33,28,17,20,18,3,1,23]","[69,318,108,148,298,168,98,79,188,138,198,358,9,118,288,338,218,158,39,19,328,248,278,128,59,228,29,238,268,49,348,178,208,258,88,308]","69","345","227.48288804099914","[227.48288804099914]","[242.48288804099914]","[242]","[30,300,120,30,300,210,300,30,120]","0","36","0","149","10","16","[[[""img/mask12.png""],[""img/mask16.png""],[""img/mask23.png""],[""img/mask2.png""],[""img/mask1.png""],[""img/mask1.png""],[""img/mask57.png""],[""img/mask1.png""],[""img/mask94.png""],[""img/mask92.png""],[""img/mask6.png""],[""img/mask39.png""],[""img/mask1.png""],[""img/mask11.png""],[""img/mask70.png""],[""img/mask41.png""],[""img/mask34.png""],[""img/mask88.png""],[""img/mask98.png""],[""img/mask45.png""],[""img/mask20.png""],[""img/mask56.png""],[""img/mask20.png""],[""img/mask20.png""],[""img/mask96.png""],[""img/mask30.png""],[""img/mask28.png""],[""img/mask42.png""],[""img/mask40.png""],[""img/mask91.png""],[""img/mask3.png""],[""img/mask94.png""],[""img/mask62.png""],[""img/mask98.png""],[""img/mask91.png""],[""img/mask78.png""]]]","","[9,29,6,32,21,13,11,24,25,26,0,19,34,31,12,4,35,10,27,5,7,30,2,15,16,22,8,14,33,28,17,20,18,3,1,23]","main","345","many-guess-6"
"","","","","","html-keyboard-response","138","661497","0.0-10.0-1.59","5e742af79064483aedad296c","640759fa512f630a2bdc333d","6408c180774b08823a318737","1476","Wow! You've completed 60 out of 180 trials! </p> <p>  </p><p> Take a quick break, then press any key when you're ready to continue."," ","","","","","","","","","","","","","","","","","","","fixation","",""
"","","","","","many-guess-6","139","665756","0.0-10.0-0.60-0.60","5e742af79064483aedad296c","640759fa512f630a2bdc333d","6408c180774b08823a318737","[1899]","","","[23,13,6,30,31,5,3,27,1,21,28,33,17,18,12,16,29,11,10,35,0,14,19,24,15,26,4,8,22,20,34,25,7,32,2,9]","[32,52,72,321,341,231,311,171,331,181,251,122,271,351,291,62,142,12,281,241,261,211,301,132,201,221,2,112,82,22,92,42,161,191,151,102]","32","3","179.8644632853497","[179.8644632853497]","[176.8644632853497]","[176]","[30,300,300,210,210,30,120,30,120]","0","36","0","149","12","16","[[[""img/mask76.png""],[""img/mask14.png""],[""img/mask67.png""],[""img/mask11.png""],[""img/mask64.png""],[""img/mask4.png""],[""img/mask19.png""],[""img/mask70.png""],[""img/mask42.png""],[""img/mask17.png""],[""img/mask97.png""],[""img/mask23.png""],[""img/mask52.png""],[""img/mask30.png""],[""img/mask47.png""],[""img/mask74.png""],[""img/mask50.png""],[""img/mask58.png""],[""img/mask93.png""],[""img/mask85.png""],[""img/mask56.png""],[""img/mask41.png""],[""img/mask67.png""],[""img/mask28.png""],[""img/mask29.png""],[""img/mask57.png""],[""img/mask29.png""],[""img/mask77.png""],[""img/mask21.png""],[""img/mask15.png""],[""img/mask75.png""],[""img/mask91.png""],[""img/mask44.png""],[""img/mask55.png""],[""img/mask84.png""],[""img/mask56.png""]]]","","[23,13,6,30,31,5,3,27,1,21,28,33,17,18,12,16,29,11,10,35,0,14,19,24,15,26,4,8,22,20,34,25,7,32,2,9]","main","3","many-guess-6"
"","","","","","html-keyboard-response","140","666258","0.0-10.0-1.60","5e742af79064483aedad296c","640759fa512f630a2bdc333d","6408c180774b08823a318737","null","","null","","","","","","","","","","","","","","","","","","","fixation","",""
"","","","","","color-precision2","141","669964","0.0-10.0-0.61-0.61","5e742af79064483aedad296c","640759fa512f630a2bdc333d","6408c180774b08823a318737","[936]","","","[24]","[342]","342","55","28.689241257320994","[28.689241257320994]","[333.689241257321]","[332]","0","0","1","0","149","997","1000","[[[""img/mask58.png""]]]","","","main","55","color-precision2"
"","","","","","html-keyboard-response","142","670467","0.0-10.0-1.61","5e742af79064483aedad296c","640759fa512f630a2bdc333d","6408c180774b08823a318737","null","","null","","","","","","","","","","","","","","","","","","","fixation","",""
"","","","","","many-guess-6","143","674308","0.0-10.0-0.62-0.62","5e742af79064483aedad296c","640759fa512f630a2bdc333d","6408c180774b08823a318737","[1541]","","","[4,29,2,18,16,11,26,34,13,22,33,15,5,24,30,20,31,27,17,23,7,1,10,28,21,3,35,19,8,14,12,9,32,6,0,25]","[158,9,138,68,108,278,338,88,228,198,148,288,268,208,318,188,29,168,128,49,298,258,348,58,39,308,218,78,178,98,328,238,358,248,19,118]","158","294","253.5363559125186","[253.5363559125186]","[319.5363559125186]","[320]","[210,210,30,300,300,30,30,300,120]","0","36","0","149","14","16","[[[""img/mask76.png""],[""img/mask91.png""],[""img/mask11.png""],[""img/mask23.png""],[""img/mask72.png""],[""img/mask47.png""],[""img/mask71.png""],[""img/mask86.png""],[""img/mask87.png""],[""img/mask46.png""],[""img/mask90.png""],[""img/mask82.png""],[""img/mask92.png""],[""img/mask30.png""],[""img/mask6.png""],[""img/mask36.png""],[""img/mask66.png""],[""img/mask19.png""],[""img/mask63.png""],[""img/mask94.png""],[""img/mask32.png""],[""img/mask87.png""],[""img/mask11.png""],[""img/mask83.png""],[""img/mask79.png""],[""img/mask77.png""],[""img/mask57.png""],[""img/mask94.png""],[""img/mask62.png""],[""img/mask64.png""],[""img/mask48.png""],[""img/mask48.png""],[""img/mask74.png""],[""img/mask31.png""],[""img/mask86.png""],[""img/mask55.png""]]]","","[4,29,2,18,16,11,26,34,13,22,33,15,5,24,30,20,31,27,17,23,7,1,10,28,21,3,35,19,8,14,12,9,32,6,0,25]","main","294","many-guess-6"
"","","","","","html-keyboard-response","144","674810","0.0-10.0-1.62","5e742af79064483aedad296c","640759fa512f630a2bdc333d","6408c180774b08823a318737","null","","null","","","","","","","","","","","","","","","","","","","fixation","",""
"","","","","","color-precision2","145","679764","0.0-10.0-0.63-0.63","5e742af79064483aedad296c","640759fa512f630a2bdc333d","6408c180774b08823a318737","[2392]","","","[30]","[68]","68","2","61.03303462630606","[61.03303462630606]","[59.03303462630606]","[57]","0","0","1","0","149","993","1000","[[[""img/mask28.png""]]]","","","main","2","color-precision2"
"","","","","","html-keyboard-response","146","680273","0.0-10.0-1.63","5e742af79064483aedad296c","640759fa512f630a2bdc333d","6408c180774b08823a318737","null","","null","","","","","","","","","","","","","","","","","","","fixation","",""
"","","","","","many-guess-6","147","685460","0.0-10.0-0.64-0.64","5e742af79064483aedad296c","640759fa512f630a2bdc333d","6408c180774b08823a318737","[2066]","","","[26,14,11,15,29,10,7,35,22,8,13,19,16,34,9,18,1,3,4,21,30,24,6,28,27,0,23,17,20,25,5,2,31,12,33,32]","[216,236,187,177,57,147,37,197,47,137,316,336,256,326,97,207,226,7,107,87,296,276,356,346,167,157,306,27,127,117,266,286,77,17,246,67]","216","140","167.84968430229048","[167.84968430229048]","[27.849684302290484]","[27]","[210,300,30,30,30,30,30,120,300]","0","36","0","149","11","16","[[[""img/mask75.png""],[""img/mask72.png""],[""img/mask33.png""],[""img/mask28.png""],[""img/mask21.png""],[""img/mask63.png""],[""img/mask13.png""],[""img/mask10.png""],[""img/mask29.png""],[""img/mask45.png""],[""img/mask47.png""],[""img/mask71.png""],[""img/mask28.png""],[""img/mask100.png""],[""img/mask70.png""],[""img/mask95.png""],[""img/mask79.png""],[""img/mask72.png""],[""img/mask31.png""],[""img/mask3.png""],[""img/mask48.png""],[""img/mask57.png""],[""img/mask62.png""],[""img/mask64.png""],[""img/mask27.png""],[""img/mask57.png""],[""img/mask61.png""],[""img/mask87.png""],[""img/mask80.png""],[""img/mask79.png""],[""img/mask27.png""],[""img/mask61.png""],[""img/mask74.png""],[""img/mask90.png""],[""img/mask67.png""],[""img/mask16.png""]]]","","[26,14,11,15,29,10,7,35,22,8,13,19,16,34,9,18,1,3,4,21,30,24,6,28,27,0,23,17,20,25,5,2,31,12,33,32]","main","140","many-guess-6"
"","","","","","html-keyboard-response","148","685962","0.0-10.0-1.64","5e742af79064483aedad296c","640759fa512f630a2bdc333d","6408c180774b08823a318737","null","","null","","","","","","","","","","","","","","","","","","","fixation","",""
"","","","","","many-guess-6","149","690060","0.0-10.0-0.65-0.65","5e742af79064483aedad296c","640759fa512f630a2bdc333d","6408c180774b08823a318737","[2096]","","","[30,17,5,29,20,0,22,23,34,16,24,2,11,18,3,19,28,12,9,13,33,31,4,1,15,14,21,25,7,10,8,26,6,32,27,35]","[9,328,358,178,19,268,88,29,158,138,308,258,98,298,168,118,128,148,218,198,338,238,208,78,188,49,108,228,39,278,348,318,248,59,288,69]","9","184","228.73805483733688","[228.73805483733688]","[44.738054837336875]","[44]","[300,30,30,120,30,30,30,30,210]","0","36","0","149","12","16","[[[""img/mask87.png""],[""img/mask13.png""],[""img/mask70.png""],[""img/mask30.png""],[""img/mask9.png""],[""img/mask84.png""],[""img/mask51.png""],[""img/mask44.png""],[""img/mask2.png""],[""img/mask30.png""],[""img/mask21.png""],[""img/mask28.png""],[""img/mask68.png""],[""img/mask66.png""],[""img/mask6.png""],[""img/mask96.png""],[""img/mask69.png""],[""img/mask94.png""],[""img/mask64.png""],[""img/mask28.png""],[""img/mask4.png""],[""img/mask65.png""],[""img/mask12.png""],[""img/mask82.png""],[""img/mask56.png""],[""img/mask51.png""],[""img/mask46.png""],[""img/mask90.png""],[""img/mask76.png""],[""img/mask69.png""],[""img/mask64.png""],[""img/mask18.png""],[""img/mask61.png""],[""img/mask38.png""],[""img/mask44.png""],[""img/mask29.png""]]]","","[30,17,5,29,20,0,22,23,34,16,24,2,11,18,3,19,28,12,9,13,33,31,4,1,15,14,21,25,7,10,8,26,6,32,27,35]","main","184","many-guess-6"
"","","","","","html-keyboard-response","150","690561","0.0-10.0-1.65","5e742af79064483aedad296c","640759fa512f630a2bdc333d","6408c180774b08823a318737","null","","null","","","","","","","","","","","","","","","","","","","fixation","",""
"","","","","","many-guess-6","151","694972","0.0-10.0-0.66-0.66","5e742af79064483aedad296c","640759fa512f630a2bdc333d","6408c180774b08823a318737","[2068]","","","[31,17,32,10,33,30,16,19,0,35,14,11,12,28,7,25,15,1,18,27,26,2,22,3,6,34,29,9,21,13,4,8,20,5,23,24]","[26,56,236,96,256,226,166,266,206,246,76,146,355,66,335,286,186,106,325,345,176,116,16,36,6,126,196,86,305,216,276,46,296,136,156,315]","26","46","239.53835191768445","[239.53835191768445]","[193.53835191768445]","[193]","[30,30,30,120,120,120,120,120,210]","0","36","0","149","11","16","[[[""img/mask12.png""],[""img/mask43.png""],[""img/mask10.png""],[""img/mask2.png""],[""img/mask42.png""],[""img/mask26.png""],[""img/mask19.png""],[""img/mask99.png""],[""img/mask48.png""],[""img/mask34.png""],[""img/mask77.png""],[""img/mask7.png""],[""img/mask2.png""],[""img/mask24.png""],[""img/mask29.png""],[""img/mask56.png""],[""img/mask75.png""],[""img/mask63.png""],[""img/mask66.png""],[""img/mask69.png""],[""img/mask13.png""],[""img/mask1.png""],[""img/mask17.png""],[""img/mask69.png""],[""img/mask58.png""],[""img/mask26.png""],[""img/mask42.png""],[""img/mask23.png""],[""img/mask36.png""],[""img/mask48.png""],[""img/mask64.png""],[""img/mask67.png""],[""img/mask27.png""],[""img/mask36.png""],[""img/mask39.png""],[""img/mask78.png""]]]","","[31,17,32,10,33,30,16,19,0,35,14,11,12,28,7,25,15,1,18,27,26,2,22,3,6,34,29,9,21,13,4,8,20,5,23,24]","main","46","many-guess-6"
"","","","","","html-keyboard-response","152","695473","0.0-10.0-1.66","5e742af79064483aedad296c","640759fa512f630a2bdc333d","6408c180774b08823a318737","null","","null","","","","","","","","","","","","","","","","","","","fixation","",""
"","","","","","many-guess-6","153","699436","0.0-10.0-0.67-0.67","5e742af79064483aedad296c","640759fa512f630a2bdc333d","6408c180774b08823a318737","[2111]","","","[23,3,33,4,17,20,9,16,22,26,15,6,8,21,2,7,0,10,12,34,29,27,32,14,13,5,31,1,25,18,24,35,11,19,28,30]","[270,310,350,1,41,230,51,260,300,81,91,200,101,71,240,21,340,210,131,61,111,140,31,170,190,160,330,250,290,150,180,220,320,280,11,121]","270","65","313.9275314012139","[313.9275314012139]","[248.9275314012139]","[249]","[210,300,300,300,300,210,120,30,300]","0","36","0","150","33","16","[[[""img/mask11.png""],[""img/mask61.png""],[""img/mask42.png""],[""img/mask4.png""],[""img/mask26.png""],[""img/mask21.png""],[""img/mask16.png""],[""img/mask86.png""],[""img/mask65.png""],[""img/mask50.png""],[""img/mask89.png""],[""img/mask72.png""],[""img/mask59.png""],[""img/mask84.png""],[""img/mask3.png""],[""img/mask36.png""],[""img/mask80.png""],[""img/mask7.png""],[""img/mask36.png""],[""img/mask44.png""],[""img/mask9.png""],[""img/mask17.png""],[""img/mask35.png""],[""img/mask16.png""],[""img/mask81.png""],[""img/mask79.png""],[""img/mask31.png""],[""img/mask34.png""],[""img/mask53.png""],[""img/mask95.png""],[""img/mask67.png""],[""img/mask7.png""],[""img/mask13.png""],[""img/mask42.png""],[""img/mask5.png""],[""img/mask47.png""]]]","","[23,3,33,4,17,20,9,16,22,26,15,6,8,21,2,7,0,10,12,34,29,27,32,14,13,5,31,1,25,18,24,35,11,19,28,30]","main","65","many-guess-6"
"","","","","","html-keyboard-response","154","699937","0.0-10.0-1.67","5e742af79064483aedad296c","640759fa512f630a2bdc333d","6408c180774b08823a318737","null","","null","","","","","","","","","","","","","","","","","","","fixation","",""
"","","","","","color-precision2","155","704075","0.0-10.0-0.68-0.68","5e742af79064483aedad296c","640759fa512f630a2bdc333d","6408c180774b08823a318737","[1279]","","","[17]","[168]","168","238","38.7387221032463","[38.7387221032463]","[160.7387221032463]","[159]","0","0","1","0","149","995","1000","[[[""img/mask64.png""]]]","","","main","238","color-precision2"
"","","","","","html-keyboard-response","156","704576","0.0-10.0-1.68","5e742af79064483aedad296c","640759fa512f630a2bdc333d","6408c180774b08823a318737","null","","null","","","","","","","","","","","","","","","","","","","fixation","",""
"","","","","","color-precision2","157","708644","0.0-10.0-0.69-0.69","5e742af79064483aedad296c","640759fa512f630a2bdc333d","6408c180774b08823a318737","[592]","","","[26]","[5]","5","213","225.2754474719192","[225.2754474719192]","[12.275447471919193]","[12]","0","0","1","0","149","996","1000","[[[""img/mask15.png""]]]","","","main","213","color-precision2"
"","","","","","html-keyboard-response","158","709147","0.0-10.0-1.69","5e742af79064483aedad296c","640759fa512f630a2bdc333d","6408c180774b08823a318737","null","","null","","","","","","","","","","","","","","","","","","","fixation","",""
"","","","","","color-precision2","159","712932","0.0-10.0-0.70-0.70","5e742af79064483aedad296c","640759fa512f630a2bdc333d","6408c180774b08823a318737","[1059]","","","[21]","[319]","319","215","196.46022214602618","[196.46022214602618]","[341.4602221460262]","[341]","0","0","1","0","150","997","1000","[[[""img/mask30.png""]]]","","","main","215","color-precision2"
"","","","","","html-keyboard-response","160","713433","0.0-10.0-1.70","5e742af79064483aedad296c","640759fa512f630a2bdc333d","6408c180774b08823a318737","null","","null","","","","","","","","","","","","","","","","","","","fixation","",""
"","","","","","color-precision2","161","717452","0.0-10.0-0.71-0.71","5e742af79064483aedad296c","640759fa512f630a2bdc333d","6408c180774b08823a318737","[1393]","","","[0]","[131]","131","156","292.77354025307363","[292.77354025307363]","[136.77354025307363]","[137]","0","0","1","0","149","996","1000","[[[""img/mask81.png""]]]","","","main","156","color-precision2"
"","","","","","html-keyboard-response","162","717953","0.0-10.0-1.71","5e742af79064483aedad296c","640759fa512f630a2bdc333d","6408c180774b08823a318737","null","","null","","","","","","","","","","","","","","","","","","","fixation","",""
"","","","","","color-precision2","163","721476","0.0-10.0-0.72-0.72","5e742af79064483aedad296c","640759fa512f630a2bdc333d","6408c180774b08823a318737","[445]","","","[7]","[4]","4","136","142.83548306192574","[142.83548306192574]","[6.835483061925743]","[5]","0","0","1","0","149","995","1000","[[[""img/mask32.png""]]]","","","main","136","color-precision2"
"","","","","","html-keyboard-response","164","721978","0.0-10.0-1.72","5e742af79064483aedad296c","640759fa512f630a2bdc333d","6408c180774b08823a318737","null","","null","","","","","","","","","","","","","","","","","","","fixation","",""
"","","","","","many-guess-6","165","725460","0.0-10.0-0.73-0.73","5e742af79064483aedad296c","640759fa512f630a2bdc333d","6408c180774b08823a318737","[1926]","","","[3,21,1,4,31,24,30,14,23,0,20,15,13,27,22,17,18,7,25,34,26,29,19,28,32,16,5,12,2,8,11,33,6,9,35,10]","[240,319,299,40,120,100,250,269,20,110,140,180,329,230,190,70,349,170,160,130,150,289,339,309,210,50,200,279,80,10,90,260,220,30,359,60]","240","308","202.79425865579216","[202.79425865579216]","[254.79425865579216]","[254]","[210,210,300,120,300,210,210,210,120]","0","36","0","149","10","16","[[[""img/mask22.png""],[""img/mask68.png""],[""img/mask86.png""],[""img/mask96.png""],[""img/mask41.png""],[""img/mask47.png""],[""img/mask31.png""],[""img/mask99.png""],[""img/mask6.png""],[""img/mask39.png""],[""img/mask40.png""],[""img/mask92.png""],[""img/mask57.png""],[""img/mask75.png""],[""img/mask63.png""],[""img/mask62.png""],[""img/mask45.png""],[""img/mask70.png""],[""img/mask14.png""],[""img/mask67.png""],[""img/mask23.png""],[""img/mask95.png""],[""img/mask89.png""],[""img/mask62.png""],[""img/mask10.png""],[""img/mask55.png""],[""img/mask13.png""],[""img/mask22.png""],[""img/mask21.png""],[""img/mask15.png""],[""img/mask75.png""],[""img/mask74.png""],[""img/mask74.png""],[""img/mask52.png""],[""img/mask63.png""],[""img/mask80.png""]]]","","[3,21,1,4,31,24,30,14,23,0,20,15,13,27,22,17,18,7,25,34,26,29,19,28,32,16,5,12,2,8,11,33,6,9,35,10]","main","308","many-guess-6"
"","","","","","html-keyboard-response","166","725965","0.0-10.0-1.73","5e742af79064483aedad296c","640759fa512f630a2bdc333d","6408c180774b08823a318737","null","","null","","","","","","","","","","","","","","","","","","","fixation","",""
"","","","","","many-guess-6","167","730468","0.0-10.0-0.74-0.74","5e742af79064483aedad296c","640759fa512f630a2bdc333d","6408c180774b08823a318737","[2313]","","","[0,30,16,24,15,33,9,18,32,1,35,8,3,7,22,5,17,28,26,34,11,29,31,25,14,19,6,23,20,10,2,21,27,12,4,13]","[261,51,161,41,340,191,91,281,310,151,241,350,320,290,330,61,231,171,300,251,101,181,81,121,211,201,131,1,141,21,271,111,221,11,71,31]","261","350","172.16063975359137","[172.16063975359137]","[182.16063975359137]","[181]","[120,30,300,300,210,120,120,300,210]","0","36","0","149","11","16","[[[""img/mask39.png""],[""img/mask52.png""],[""img/mask22.png""],[""img/mask12.png""],[""img/mask74.png""],[""img/mask34.png""],[""img/mask32.png""],[""img/mask70.png""],[""img/mask56.png""],[""img/mask57.png""],[""img/mask47.png""],[""img/mask80.png""],[""img/mask46.png""],[""img/mask94.png""],[""img/mask10.png""],[""img/mask70.png""],[""img/mask89.png""],[""img/mask69.png""],[""img/mask11.png""],[""img/mask71.png""],[""img/mask37.png""],[""img/mask38.png""],[""img/mask31.png""],[""img/mask4.png""],[""img/mask68.png""],[""img/mask92.png""],[""img/mask5.png""],[""img/mask50.png""],[""img/mask89.png""],[""img/mask71.png""],[""img/mask84.png""],[""img/mask94.png""],[""img/mask23.png""],[""img/mask56.png""],[""img/mask95.png""],[""img/mask83.png""]]]","","[0,30,16,24,15,33,9,18,32,1,35,8,3,7,22,5,17,28,26,34,11,29,31,25,14,19,6,23,20,10,2,21,27,12,4,13]","main","350","many-guess-6"
"","","","","","html-keyboard-response","168","730969","0.0-10.0-1.74","5e742af79064483aedad296c","640759fa512f630a2bdc333d","6408c180774b08823a318737","null","","null","","","","","","","","","","","","","","","","","","","fixation","",""
"","","","","","many-guess-6","169","735700","0.0-10.0-0.75-0.75","5e742af79064483aedad296c","640759fa512f630a2bdc333d","6408c180774b08823a318737","[2223]","","","[14,27,35,0,29,21,16,30,26,13,18,23,25,17,2,1,24,10,6,32,34,4,5,33,8,12,7,15,31,22,3,28,19,20,9,11]","[259,349,109,189,299,69,289,119,99,319,19,339,209,49,219,249,29,139,239,149,39,279,129,269,59,359,79,179,309,169,229,329,89,9,199,159]","259","270","70.27213303042882","[70.27213303042882]","[160.27213303042882]","[158]","[120,300,300,120,30,300,120,120,30]","0","36","0","149","12","16","[[[""img/mask19.png""],[""img/mask57.png""],[""img/mask64.png""],[""img/mask74.png""],[""img/mask74.png""],[""img/mask85.png""],[""img/mask46.png""],[""img/mask36.png""],[""img/mask62.png""],[""img/mask18.png""],[""img/mask65.png""],[""img/mask97.png""],[""img/mask49.png""],[""img/mask85.png""],[""img/mask62.png""],[""img/mask93.png""],[""img/mask4.png""],[""img/mask70.png""],[""img/mask3.png""],[""img/mask19.png""],[""img/mask2.png""],[""img/mask38.png""],[""img/mask89.png""],[""img/mask24.png""],[""img/mask82.png""],[""img/mask28.png""],[""img/mask87.png""],[""img/mask50.png""],[""img/mask80.png""],[""img/mask97.png""],[""img/mask31.png""],[""img/mask93.png""],[""img/mask79.png""],[""img/mask61.png""],[""img/mask49.png""],[""img/mask37.png""]]]","","[14,27,35,0,29,21,16,30,26,13,18,23,25,17,2,1,24,10,6,32,34,4,5,33,8,12,7,15,31,22,3,28,19,20,9,11]","main","270","many-guess-6"
"","","","","","html-keyboard-response","170","736201","0.0-10.0-1.75","5e742af79064483aedad296c","640759fa512f630a2bdc333d","6408c180774b08823a318737","null","","null","","","","","","","","","","","","","","","","","","","fixation","",""
"","","","","","color-precision2","171","740115","0.0-10.0-0.76-0.76","5e742af79064483aedad296c","640759fa512f630a2bdc333d","6408c180774b08823a318737","[1133]","","","[6]","[276]","276","309","228.20241917911005","[228.20241917911005]","[279.20241917911005]","[279]","0","0","1","0","149","997","1000","[[[""img/mask93.png""]]]","","","main","309","color-precision2"
"","","","","","html-keyboard-response","172","740616","0.0-10.0-1.76","5e742af79064483aedad296c","640759fa512f630a2bdc333d","6408c180774b08823a318737","null","","null","","","","","","","","","","","","","","","","","","","fixation","",""
"","","","","","many-guess-6","173","745517","0.0-10.0-0.77-0.77","5e742af79064483aedad296c","640759fa512f630a2bdc333d","6408c180774b08823a318737","[1695]","","","[4,29,2,16,3,10,5,14,20,11,6,8,27,9,13,28,12,24,34,7,19,25,31,22,35,26,1,21,33,17,18,0,23,32,30,15]","[113,312,203,262,252,193,173,33,53,93,292,123,183,222,232,302,73,342,213,23,272,133,13,143,153,352,63,3,282,163,242,322,103,83,332,43]","113","275","244.32306350721746","[244.32306350721746]","[329.32306350721746]","[329]","[120,30,300,120,120,210,120,120,30]","0","36","0","149","11","16","[[[""img/mask53.png""],[""img/mask80.png""],[""img/mask5.png""],[""img/mask17.png""],[""img/mask10.png""],[""img/mask48.png""],[""img/mask21.png""],[""img/mask38.png""],[""img/mask43.png""],[""img/mask40.png""],[""img/mask53.png""],[""img/mask83.png""],[""img/mask85.png""],[""img/mask36.png""],[""img/mask88.png""],[""img/mask25.png""],[""img/mask77.png""],[""img/mask17.png""],[""img/mask77.png""],[""img/mask81.png""],[""img/mask77.png""],[""img/mask22.png""],[""img/mask24.png""],[""img/mask94.png""],[""img/mask85.png""],[""img/mask49.png""],[""img/mask53.png""],[""img/mask35.png""],[""img/mask93.png""],[""img/mask13.png""],[""img/mask60.png""],[""img/mask21.png""],[""img/mask47.png""],[""img/mask35.png""],[""img/mask46.png""],[""img/mask2.png""]]]","","[4,29,2,16,3,10,5,14,20,11,6,8,27,9,13,28,12,24,34,7,19,25,31,22,35,26,1,21,33,17,18,0,23,32,30,15]","main","275","many-guess-6"
"","","","","","html-keyboard-response","174","746019","0.0-10.0-1.77","5e742af79064483aedad296c","640759fa512f630a2bdc333d","6408c180774b08823a318737","null","","null","","","","","","","","","","","","","","","","","","","fixation","",""
"","","","","","many-guess-6","175","749589","0.0-10.0-0.78-0.78","5e742af79064483aedad296c","640759fa512f630a2bdc333d","6408c180774b08823a318737","[1898]","","","[27,31,8,13,26,18,25,10,1,0,3,23,4,9,19,16,2,33,7,15,17,22,14,32,34,20,30,28,29,6,12,11,21,35,5,24]","[230,289,349,30,359,130,210,110,190,180,120,279,50,160,60,100,90,150,299,80,200,339,259,220,329,40,309,20,140,240,319,250,269,170,70,10]","230","157","336.7789699043706","[336.7789699043706]","[179.77896990437063]","[179]","[120,210,300,120,210,30,210,300,120]","0","36","0","150","22","16","[[[""img/mask19.png""],[""img/mask36.png""],[""img/mask85.png""],[""img/mask15.png""],[""img/mask83.png""],[""img/mask59.png""],[""img/mask77.png""],[""img/mask25.png""],[""img/mask36.png""],[""img/mask38.png""],[""img/mask48.png""],[""img/mask56.png""],[""img/mask32.png""],[""img/mask43.png""],[""img/mask36.png""],[""img/mask72.png""],[""img/mask96.png""],[""img/mask42.png""],[""img/mask87.png""],[""img/mask4.png""],[""img/mask28.png""],[""img/mask56.png""],[""img/mask69.png""],[""img/mask16.png""],[""img/mask76.png""],[""img/mask69.png""],[""img/mask69.png""],[""img/mask94.png""],[""img/mask75.png""],[""img/mask31.png""],[""img/mask95.png""],[""img/mask72.png""],[""img/mask72.png""],[""img/mask17.png""],[""img/mask77.png""],[""img/mask59.png""]]]","","[27,31,8,13,26,18,25,10,1,0,3,23,4,9,19,16,2,33,7,15,17,22,14,32,34,20,30,28,29,6,12,11,21,35,5,24]","main","157","many-guess-6"
"","","","","","html-keyboard-response","176","750090","0.0-10.0-1.78","5e742af79064483aedad296c","640759fa512f630a2bdc333d","6408c180774b08823a318737","null","","null","","","","","","","","","","","","","","","","","","","fixation","",""
"","","","","","color-precision2","177","753357","0.0-10.0-0.79-0.79","5e742af79064483aedad296c","640759fa512f630a2bdc333d","6408c180774b08823a318737","[460]","","","[12]","[334]","334","205","184.36579266111795","[184.36579266111795]","[339.36579266111795]","[338]","0","0","1","0","149","995","1000","[[[""img/mask60.png""]]]","","","main","205","color-precision2"
"","","","","","html-keyboard-response","178","755344","0.0-10.0-1.79","5e742af79064483aedad296c","640759fa512f630a2bdc333d","6408c180774b08823a318737","1987","Wow! You've completed 80 out of 180 trials! </p> <p>  </p><p> Take a quick break, then press any key when you're ready to continue."," ","","","","","","","","","","","","","","","","","","","fixation","",""
"","","","","","color-precision2","179","759748","0.0-10.0-0.80-0.80","5e742af79064483aedad296c","640759fa512f630a2bdc333d","6408c180774b08823a318737","[1195]","","","[3]","[341]","341","194","170.94530457125464","[170.94530457125464]","[336.9453045712546]","[336]","0","0","1","0","149","999","1000","[[[""img/mask25.png""]]]","","","main","194","color-precision2"
"","","","","","html-keyboard-response","180","760248","0.0-10.0-1.80","5e742af79064483aedad296c","640759fa512f630a2bdc333d","6408c180774b08823a318737","null","","null","","","","","","","","","","","","","","","","","","","fixation","",""
"","","","","","color-precision2","181","762668","0.0-10.0-0.81-0.81","5e742af79064483aedad296c","640759fa512f630a2bdc333d","6408c180774b08823a318737","[112]","","","[2]","[356]","356","258","","[null]","[null]","[351]","0","0","1","0","148","996","1000","[[[""img/mask24.png""]]]","","","main","258","color-precision2"
"","","","","","html-keyboard-response","182","763169","0.0-10.0-1.81","5e742af79064483aedad296c","640759fa512f630a2bdc333d","6408c180774b08823a318737","null","","null","","","","","","","","","","","","","","","","","","","fixation","",""
"","","","","","color-precision2","183","766195","0.0-10.0-0.82-0.82","5e742af79064483aedad296c","640759fa512f630a2bdc333d","6408c180774b08823a318737","[770]","","","[21]","[30]","30","86","124.82654561175258","[124.82654561175258]","[38.82654561175258]","[37]","0","0","1","0","149","994","1000","[[[""img/mask5.png""]]]","","","main","86","color-precision2"
