"success","timeout","failed_images","failed_audio","failed_video","trial_type","trial_index","time_elapsed","internal_node_id","subject_id","study_id","session_id","rt","stimulus","response","position_of_items","colors_of_items","color_of_target","wheel_spin","response_angle","physical_response_angle","reported_color_angle","reported_color_discrete","locs","which_test","set_size","wheel_num_options","actual_mask_duration","actual_stim_duration","CMDispTime","maskArray","maskRotation","item_positions","task","randomSpinAmount","mainTask"
"true","false","[]","[]","[]","preload","0","5695","0.0-0.0","5f2a12f5837dd81e5881b7cc","640759fa512f630a2bdc333d","6408c1857a97bd3946b9d586","","","","","","","","","","","","","","","","","","","","","","","",""
"true","","","","","fullscreen","1","26154","0.0-1.0","5f2a12f5837dd81e5881b7cc","640759fa512f630a2bdc333d","6408c1857a97bd3946b9d586","","","","","","","","","","","","","","","","","","","","","","","",""
"","","","","","html-keyboard-response","2","34875","0.0-2.0","5f2a12f5837dd81e5881b7cc","640759fa512f630a2bdc333d","6408c1857a97bd3946b9d586","8721","What a beautiful Wednesday to do some awesome science! </p> <p>  </p><p> </p>
    By completing this survey or questionnaire, you are consenting to be in this research study. </p>
    Your participation is voluntary and you can stop at any time.<p> [Press any key to continue] </p>"," ","","","","","","","","","","","","","","","","","","","","",""
"","","","","","html-keyboard-response","3","44881","0.0-3.0","5f2a12f5837dd81e5881b7cc","640759fa512f630a2bdc333d","6408c1857a97bd3946b9d586","null","
    <div style='width: 1000px;'>
    <div style='float: center;'><img src='img/TaskInstructions1.png'></img>
    </div>
    ","null","","","","","","","","","","","","","","","","","","","","",""
"","","","","","html-keyboard-response","4","85571","0.0-4.0","5f2a12f5837dd81e5881b7cc","640759fa512f630a2bdc333d","6408c1857a97bd3946b9d586","40690","
    <div style='width: 1000px;'>
    <div style='float: center;'><img src='img/TaskInstructions1.png'></img>
    </div>
    "," ","","","","","","","","","","","","","","","","","","","","",""
"","","","","","html-keyboard-response","5","95586","0.0-5.0","5f2a12f5837dd81e5881b7cc","640759fa512f630a2bdc333d","6408c1857a97bd3946b9d586","null","
    <div style='width: 1000px;'>
    <div style='float: center;'><img src='img/TaskInstructions2.png'></img>
    </div>
    ","null","","","","","","","","","","","","","","","","","","","","",""
"","","","","","html-keyboard-response","6","131228","0.0-6.0","5f2a12f5837dd81e5881b7cc","640759fa512f630a2bdc333d","6408c1857a97bd3946b9d586","35642","
    <div style='width: 1000px;'>
    <div style='float: center;'><img src='img/TaskInstructions2.png'></img>
    </div>
    "," ","","","","","","","","","","","","","","","","","","","","",""
"","","","","","video-keyboard-response","7","158213","0.0-7.0","5f2a12f5837dd81e5881b7cc","640759fa512f630a2bdc333d","6408c1857a97bd3946b9d586","26981","[""video/TaskInstructions3.mp4""]"," ","","","","","","","","","","","","","","","","","","","","",""
"","","","","","image-keyboard-response","8","170380","0.0-8.0-0.0","5f2a12f5837dd81e5881b7cc","640759fa512f630a2bdc333d","6408c1857a97bd3946b9d586","12168","img/training1.png"," ","","","","","","","","","","","","","","","","","","","","",""
"","","","","","color-precision2","9","180121","0.0-8.0-1.0-0.0","5f2a12f5837dd81e5881b7cc","640759fa512f630a2bdc333d","6408c1857a97bd3946b9d586","[2770]","","","[15]","[241]","241","183","61.679575979854064","[61.679575979854064]","[238.67957597985406]","[237]","0","0","1","0","499.3999999999942","1001.4800000000105","1000","","","0","training","",""
"","","","","","image-keyboard-response","10","191797","0.0-8.0-0.1","5f2a12f5837dd81e5881b7cc","640759fa512f630a2bdc333d","6408c1857a97bd3946b9d586","11674","img/training2.png"," ","","","","","","","","","","","","","","","","","","","","",""
"","","","","","many-guess-6","11","203946","0.0-8.0-1.1-0.1","5f2a12f5837dd81e5881b7cc","640759fa512f630a2bdc333d","6408c1857a97bd3946b9d586","[7038]","","","[34,14,31]","[334,281,92]","334","291","288.10427289425473","[288.10427289425473]","[357.10427289425473]","[357]","[210,300,300,30,210,300,30,300,210,210,30,300,120,300,30,30,300,300,30,30,120,120,30,30,120,210,120,30,210,300,120,300,30,30,120,300]","0","3","0","999.7200000000012","1002.7999999999884","1000","[[[""img/mask2.png""],[""img/mask68.png""],[""img/mask49.png""]]]","","[34,14,31]","training","",""
"","","","","","image-keyboard-response","12","210302","0.0-8.0-0.2","5f2a12f5837dd81e5881b7cc","640759fa512f630a2bdc333d","6408c1857a97bd3946b9d586","6354","img/training3.png"," ","","","","","","","","","","","","","","","","","","","","",""
"","","","","","[""many-guess-6""]","13","217478","0.0-8.0-1.2-0.2","5f2a12f5837dd81e5881b7cc","640759fa512f630a2bdc333d","6408c1857a97bd3946b9d586","[3243]","","","[15,7,20,8,14]","[271,293,247,184,203]","271","187","108.36643497978912","[108.36643497978912]","[281.3664349797891]","[280]","[300,300,300,30,120,300,120,210,120,30,210,210,30,30,210,30,300,300,300,300,300,30,300,210,120,30,210,300,30,30,210,210,300,120,30,300]","0","5","0","499.8999999999942","501.95999999999185","500","[[[""img/mask69.png""],[""img/mask1.png""],[""img/mask4.png""],[""img/mask85.png""],[""img/mask71.png""]]]","","[15,7,20,8,14]","training","",""
"","","","","","image-keyboard-response","14","226781","0.0-8.0-0.3","5f2a12f5837dd81e5881b7cc","640759fa512f630a2bdc333d","6408c1857a97bd3946b9d586","9303","img/training4.png"," ","","","","","","","","","","","","","","","","","","","","",""
"","","","","","[""many-guess-6""]","15","233918","0.0-8.0-1.3-0.3","5f2a12f5837dd81e5881b7cc","640759fa512f630a2bdc333d","6408c1857a97bd3946b9d586","[4433]","","","[15,0,21,32,17,5,14,25,34,24]","[286,67,320,150,41,88,102,353,29,117]","286","68","69.91507075585625","[69.91507075585625]","[1.9150707558562488]","[0]","[300,300,120,300,210,210,30,30,30,300,210,30,300,300,300,210,30,120,120,30,300,120,300,210,210,300,210,30,30,300,120,120,210,300,120,30]","0","10","0","131.55999999999767","129.67999999999302","132","[[[""img/mask33.png""],[""img/mask41.png""],[""img/mask4.png""],[""img/mask90.png""],[""img/mask62.png""],[""img/mask61.png""],[""img/mask67.png""],[""img/mask51.png""],[""img/mask81.png""],[""img/mask94.png""]]]","","[15,0,21,32,17,5,14,25,34,24]","training","",""
"","","","","","image-keyboard-response","16","243094","0.0-8.0-0.4","5f2a12f5837dd81e5881b7cc","640759fa512f630a2bdc333d","6408c1857a97bd3946b9d586","9176","img/training5.png"," ","","","","","","","","","","","","","","","","","","","","",""
"","","","","","[""many-guess-6""]","17","249679","0.0-8.0-1.4-0.4","5f2a12f5837dd81e5881b7cc","640759fa512f630a2bdc333d","6408c1857a97bd3946b9d586","[3414]","","","[24,22,26,25,9,17,6,32,10,3,27,5,14,11,33,16,30,1,12,0,18,20,35,8,29,7,13,15,2,19,31,4,34,21,28,23]","[15,334,45,314,224,94,154,35,234,194,134,84,164,104,284,344,5,74,294,124,324,204,244,114,264,25,254,304,274,64,174,55,214,354,184,144]","15","252","94.08661817541737","[94.08661817541737]","[202.08661817541736]","[200]","[210,300,30,210,210,120,210,210,210,300,210,120,300,210,300,210,30,300,300,120,120,30,210,120,30,300,120,120,300,30,210,210,210,300,120,300]","0","36","0","131.04000000000815","15.14000000001397","16","[[[""img/mask99.png""],[""img/mask12.png""],[""img/mask64.png""],[""img/mask60.png""],[""img/mask70.png""],[""img/mask8.png""],[""img/mask28.png""],[""img/mask51.png""],[""img/mask76.png""],[""img/mask35.png""],[""img/mask82.png""],[""img/mask22.png""],[""img/mask98.png""],[""img/mask39.png""],[""img/mask46.png""],[""img/mask69.png""],[""img/mask72.png""],[""img/mask45.png""],[""img/mask73.png""],[""img/mask72.png""],[""img/mask85.png""],[""img/mask38.png""],[""img/mask50.png""],[""img/mask69.png""],[""img/mask16.png""],[""img/mask91.png""],[""img/mask32.png""],[""img/mask74.png""],[""img/mask78.png""],[""img/mask2.png""],[""img/mask66.png""],[""img/mask52.png""],[""img/mask17.png""],[""img/mask54.png""],[""img/mask50.png""],[""img/mask89.png""]]]","","[24,22,26,25,9,17,6,32,10,3,27,5,14,11,33,16,30,1,12,0,18,20,35,8,29,7,13,15,2,19,31,4,34,21,28,23]","training","",""
"","","","","","image-keyboard-response","18","258566","0.0-9.0","5f2a12f5837dd81e5881b7cc","640759fa512f630a2bdc333d","6408c1857a97bd3946b9d586","8882","[""img/endTraining.png""]"," ","","","","","","","","","","","","","","","","","","","","",""
"","","","","","html-keyboard-response","19","259068","0.0-10.0-0.0","5f2a12f5837dd81e5881b7cc","640759fa512f630a2bdc333d","6408c1857a97bd3946b9d586","null","","null","","","","","","","","","","","","","","","","","","","fixation","",""
"","","","","","many-guess-6","20","265695","0.0-10.0-1.0-0.0","5f2a12f5837dd81e5881b7cc","640759fa512f630a2bdc333d","6408c1857a97bd3946b9d586","[3430]","","","[22,12,25,18,24,4,10,34,31,9,14,21,13,33,7,17,20,32,30,6,29,3,1,11,8,23,27,0,16,28,5,19,35,15,26,2]","[229,9,109,39,219,269,358,149,338,129,19,279,169,119,309,328,289,99,318,249,69,239,199,49,179,29,59,79,159,259,189,209,348,139,89,299]","229","277","169.12886306537226","[169.12886306537226]","[252.12886306537226]","[251]","[30,300,30,120,210,120,300,210,120]","0","36","0","151.6599999999744","17.94000000000233","16","[[[""img/mask61.png""],[""img/mask63.png""],[""img/mask1.png""],[""img/mask27.png""],[""img/mask67.png""],[""img/mask74.png""],[""img/mask22.png""],[""img/mask76.png""],[""img/mask49.png""],[""img/mask18.png""],[""img/mask34.png""],[""img/mask73.png""],[""img/mask61.png""],[""img/mask38.png""],[""img/mask20.png""],[""img/mask28.png""],[""img/mask6.png""],[""img/mask46.png""],[""img/mask91.png""],[""img/mask8.png""],[""img/mask3.png""],[""img/mask23.png""],[""img/mask66.png""],[""img/mask17.png""],[""img/mask8.png""],[""img/mask12.png""],[""img/mask75.png""],[""img/mask42.png""],[""img/mask54.png""],[""img/mask63.png""],[""img/mask54.png""],[""img/mask68.png""],[""img/mask76.png""],[""img/mask58.png""],[""img/mask75.png""],[""img/mask82.png""]]]","","[22,12,25,18,24,4,10,34,31,9,14,21,13,33,7,17,20,32,30,6,29,3,1,11,8,23,27,0,16,28,5,19,35,15,26,2]","main","277","many-guess-6"
"","","","","","html-keyboard-response","21","266198","0.0-10.0-0.1","5f2a12f5837dd81e5881b7cc","640759fa512f630a2bdc333d","6408c1857a97bd3946b9d586","null","","null","","","","","","","","","","","","","","","","","","","fixation","",""
"","","","","","color-precision2","22","278808","0.0-10.0-1.1-0.1","5f2a12f5837dd81e5881b7cc","640759fa512f630a2bdc333d","6408c1857a97bd3946b9d586","[9252]","","","[10]","[254]","254","346","234.7655366343634","[234.7655366343634]","[248.7655366343634]","[249]","0","0","1","0","151.59999999997672","1000.8800000000047","1000","[[[""img/mask17.png""]]]","","","main","346","color-precision2"
"","","","","","html-keyboard-response","23","279318","0.0-10.0-0.2","5f2a12f5837dd81e5881b7cc","640759fa512f630a2bdc333d","6408c1857a97bd3946b9d586","null","","null","","","","","","","","","","","","","","","","","","","fixation","",""
"","","","","","many-guess-6","24","286208","0.0-10.0-1.2-0.2","5f2a12f5837dd81e5881b7cc","640759fa512f630a2bdc333d","6408c1857a97bd3946b9d586","[3687]","","","[4,23,18,7,5,28,6,12,10,11,34,1,29,30,31,19,3,17,20,0,22,9,33,35,32,8,15,27,24,16,14,21,13,2,26,25]","[229,40,289,90,10,329,100,279,359,299,150,239,130,60,319,309,30,339,219,160,259,140,180,190,249,200,349,120,170,110,70,209,269,50,20,80]","229","86","72.69980710343033","[72.69980710343033]","[346.6998071034303]","[345]","[30,210,30,210,30,210,300,300,300]","0","36","0","153.4199999999837","17.70000000001164","16","[[[""img/mask98.png""],[""img/mask21.png""],[""img/mask10.png""],[""img/mask34.png""],[""img/mask84.png""],[""img/mask35.png""],[""img/mask59.png""],[""img/mask86.png""],[""img/mask38.png""],[""img/mask23.png""],[""img/mask69.png""],[""img/mask6.png""],[""img/mask28.png""],[""img/mask55.png""],[""img/mask96.png""],[""img/mask98.png""],[""img/mask71.png""],[""img/mask92.png""],[""img/mask36.png""],[""img/mask94.png""],[""img/mask27.png""],[""img/mask9.png""],[""img/mask54.png""],[""img/mask61.png""],[""img/mask61.png""],[""img/mask7.png""],[""img/mask74.png""],[""img/mask84.png""],[""img/mask87.png""],[""img/mask52.png""],[""img/mask51.png""],[""img/mask35.png""],[""img/mask67.png""],[""img/mask94.png""],[""img/mask27.png""],[""img/mask93.png""]]]","","[4,23,18,7,5,28,6,12,10,11,34,1,29,30,31,19,3,17,20,0,22,9,33,35,32,8,15,27,24,16,14,21,13,2,26,25]","main","86","many-guess-6"
"","","","","","html-keyboard-response","25","286712","0.0-10.0-0.3","5f2a12f5837dd81e5881b7cc","640759fa512f630a2bdc333d","6408c1857a97bd3946b9d586","null","","null","","","","","","","","","","","","","","","","","","","fixation","",""
"","","","","","many-guess-6","26","294807","0.0-10.0-1.3-0.3","5f2a12f5837dd81e5881b7cc","640759fa512f630a2bdc333d","6408c1857a97bd3946b9d586","[4687]","","","[27,28,6,31,16,12,15,30,24,23,21,17,0,19,11,1,20,33,2,13,3,29,18,25,10,32,34,22,35,9,4,8,5,7,26,14]","[40,60,339,20,250,359,319,190,140,230,220,240,260,200,160,10,289,210,170,110,90,150,80,180,309,100,30,270,50,120,299,329,279,130,70,349]","40","166","217.76575725232928","[217.76575725232928]","[51.76575725232928]","[51]","[300,120,120,210,120,30,300,300,120]","0","36","0","152.97999999998137","13.260000000009313","16","[[[""img/mask13.png""],[""img/mask33.png""],[""img/mask100.png""],[""img/mask54.png""],[""img/mask74.png""],[""img/mask20.png""],[""img/mask35.png""],[""img/mask66.png""],[""img/mask16.png""],[""img/mask8.png""],[""img/mask56.png""],[""img/mask65.png""],[""img/mask38.png""],[""img/mask81.png""],[""img/mask66.png""],[""img/mask2.png""],[""img/mask84.png""],[""img/mask78.png""],[""img/mask43.png""],[""img/mask59.png""],[""img/mask1.png""],[""img/mask6.png""],[""img/mask26.png""],[""img/mask10.png""],[""img/mask58.png""],[""img/mask66.png""],[""img/mask42.png""],[""img/mask73.png""],[""img/mask64.png""],[""img/mask100.png""],[""img/mask34.png""],[""img/mask14.png""],[""img/mask78.png""],[""img/mask17.png""],[""img/mask75.png""],[""img/mask75.png""]]]","","[27,28,6,31,16,12,15,30,24,23,21,17,0,19,11,1,20,33,2,13,3,29,18,25,10,32,34,22,35,9,4,8,5,7,26,14]","main","166","many-guess-6"
"","","","","","html-keyboard-response","27","295314","0.0-10.0-0.4","5f2a12f5837dd81e5881b7cc","640759fa512f630a2bdc333d","6408c1857a97bd3946b9d586","null","","null","","","","","","","","","","","","","","","","","","","fixation","",""
"","","","","","many-guess-6","28","301777","0.0-10.0-1.4-0.4","5f2a12f5837dd81e5881b7cc","640759fa512f630a2bdc333d","6408c1857a97bd3946b9d586","[4768]","","","[27,9,10,16,0,19,29,4,28,21,17,23,6,11,7,8,5,33,32,22,30,13,25,34,26,35,20,24,14,31,18,1,15,3,2,12]","[112,42,172,351,221,152,132,102,321,92,291,32,52,211,201,142,191,311,162,181,281,331,72,241,22,251,12,82,122,62,301,341,231,261,2,271]","112","275","96.28420552369782","[96.28420552369782]","[181.28420552369784]","[179]","[210,120,300,300,120,30,30,300,210]","0","36","0","152.14000000001397","18.419999999983702","16","[[[""img/mask70.png""],[""img/mask40.png""],[""img/mask61.png""],[""img/mask78.png""],[""img/mask6.png""],[""img/mask32.png""],[""img/mask96.png""],[""img/mask49.png""],[""img/mask86.png""],[""img/mask2.png""],[""img/mask32.png""],[""img/mask97.png""],[""img/mask97.png""],[""img/mask21.png""],[""img/mask17.png""],[""img/mask38.png""],[""img/mask65.png""],[""img/mask78.png""],[""img/mask85.png""],[""img/mask9.png""],[""img/mask83.png""],[""img/mask72.png""],[""img/mask70.png""],[""img/mask8.png""],[""img/mask11.png""],[""img/mask18.png""],[""img/mask95.png""],[""img/mask45.png""],[""img/mask73.png""],[""img/mask30.png""],[""img/mask36.png""],[""img/mask6.png""],[""img/mask25.png""],[""img/mask88.png""],[""img/mask80.png""],[""img/mask56.png""]]]","","[27,9,10,16,0,19,29,4,28,21,17,23,6,11,7,8,5,33,32,22,30,13,25,34,26,35,20,24,14,31,18,1,15,3,2,12]","main","275","many-guess-6"
"","","","","","html-keyboard-response","29","302278","0.0-10.0-0.5","5f2a12f5837dd81e5881b7cc","640759fa512f630a2bdc333d","6408c1857a97bd3946b9d586","null","","null","","","","","","","","","","","","","","","","","","","fixation","",""
"","","","","","color-precision2","30","310379","0.0-10.0-1.5-0.5","5f2a12f5837dd81e5881b7cc","640759fa512f630a2bdc333d","6408c1857a97bd3946b9d586","[4953]","","","[1]","[209]","209","214","58.23569136386794","[58.23569136386794]","[204.23569136386794]","[203]","0","0","1","0","153.09999999997672","999.3800000000047","1000","[[[""img/mask96.png""]]]","","","main","214","color-precision2"
"","","","","","html-keyboard-response","31","310892","0.0-10.0-0.6","5f2a12f5837dd81e5881b7cc","640759fa512f630a2bdc333d","6408c1857a97bd3946b9d586","null","","null","","","","","","","","","","","","","","","","","","","fixation","",""
"","","","","","color-precision2","32","322269","0.0-10.0-1.6-0.6","5f2a12f5837dd81e5881b7cc","640759fa512f630a2bdc333d","6408c1857a97bd3946b9d586","[7093]","","","[11]","[178]","178","197","8.813986890564632","[8.813986890564632]","[171.81398689056462]","[171]","0","0","1","0","152.47999999998137","997.7600000000093","1000","[[[""img/mask49.png""]]]","","","main","197","color-precision2"
"","","","","","html-keyboard-response","33","322780","0.0-10.0-0.7","5f2a12f5837dd81e5881b7cc","640759fa512f630a2bdc333d","6408c1857a97bd3946b9d586","null","","null","","","","","","","","","","","","","","","","","","","fixation","",""
"","","","","","color-precision2","34","331249","0.0-10.0-1.7-0.7","5f2a12f5837dd81e5881b7cc","640759fa512f630a2bdc333d","6408c1857a97bd3946b9d586","[5004]","","","[4]","[327]","327","175","152.6511700467337","[152.6511700467337]","[337.6511700467337]","[336]","0","0","1","0","152.40000000002328","997.679999999993","1000","[[[""img/mask85.png""]]]","","","main","175","color-precision2"
"","","","","","html-keyboard-response","35","331759","0.0-10.0-0.8","5f2a12f5837dd81e5881b7cc","640759fa512f630a2bdc333d","6408c1857a97bd3946b9d586","null","","null","","","","","","","","","","","","","","","","","","","fixation","",""
"","","","","","many-guess-6","36","339411","0.0-10.0-1.8-0.8","5f2a12f5837dd81e5881b7cc","640759fa512f630a2bdc333d","6408c1857a97bd3946b9d586","[4749]","","","[18,32,34,14,29,16,8,25,15,26,5,17,23,10,33,3,35,0,30,9,28,11,20,1,19,4,21,24,7,31,13,22,27,6,2,12]","[307,78,68,8,277,188,18,138,118,208,218,48,88,98,28,297,108,148,168,58,287,178,317,347,267,257,198,128,38,337,237,327,227,357,158,247]","307","101","277.0870784678618","[277.0870784678618]","[176.08707846786177]","[176]","[300,210,30,210,300,300,210,300,120]","0","36","0","152.46000000002095","15.739999999990687","16","[[[""img/mask8.png""],[""img/mask18.png""],[""img/mask74.png""],[""img/mask19.png""],[""img/mask88.png""],[""img/mask96.png""],[""img/mask24.png""],[""img/mask3.png""],[""img/mask74.png""],[""img/mask84.png""],[""img/mask30.png""],[""img/mask47.png""],[""img/mask6.png""],[""img/mask63.png""],[""img/mask61.png""],[""img/mask9.png""],[""img/mask9.png""],[""img/mask53.png""],[""img/mask63.png""],[""img/mask64.png""],[""img/mask33.png""],[""img/mask38.png""],[""img/mask53.png""],[""img/mask60.png""],[""img/mask85.png""],[""img/mask64.png""],[""img/mask30.png""],[""img/mask16.png""],[""img/mask8.png""],[""img/mask82.png""],[""img/mask41.png""],[""img/mask78.png""],[""img/mask77.png""],[""img/mask82.png""],[""img/mask99.png""],[""img/mask38.png""]]]","","[18,32,34,14,29,16,8,25,15,26,5,17,23,10,33,3,35,0,30,9,28,11,20,1,19,4,21,24,7,31,13,22,27,6,2,12]","main","101","many-guess-6"
"","","","","","html-keyboard-response","37","339926","0.0-10.0-0.9","5f2a12f5837dd81e5881b7cc","640759fa512f630a2bdc333d","6408c1857a97bd3946b9d586","null","","null","","","","","","","","","","","","","","","","","","","fixation","",""
"","","","","","color-precision2","38","347017","0.0-10.0-1.9-0.9","5f2a12f5837dd81e5881b7cc","640759fa512f630a2bdc333d","6408c1857a97bd3946b9d586","[4195]","","","[13]","[325]","325","356","329.63117070123155","[329.63117070123155]","[333.63117070123155]","[333]","0","0","1","0","152.46000000002095","1001.7399999999907","1000","[[[""img/mask56.png""]]]","","","main","356","color-precision2"
"","","","","","html-keyboard-response","39","347525","0.0-10.0-0.10","5f2a12f5837dd81e5881b7cc","640759fa512f630a2bdc333d","6408c1857a97bd3946b9d586","null","","null","","","","","","","","","","","","","","","","","","","fixation","",""
"","","","","","many-guess-6","40","353463","0.0-10.0-1.10-0.10","5f2a12f5837dd81e5881b7cc","640759fa512f630a2bdc333d","6408c1857a97bd3946b9d586","[3863]","","","[24,26,10,20,33,29,31,11,34,5,6,22,27,23,8,35,28,15,7,16,14,18,4,3,1,12,9,25,0,21,19,13,2,17,30,32]","[205,235,16,26,66,355,315,6,116,335,285,275,136,106,255,36,156,225,325,345,126,86,96,46,295,305,195,245,265,215,176,76,166,186,56,146]","205","342","39.22344752939924","[39.22344752939924]","[57.22344752939921]","[56]","[210,120,300,30,120,30,210,30,30]","0","36","0","152.5800000000163","13.85999999998603","16","[[[""img/mask39.png""],[""img/mask8.png""],[""img/mask76.png""],[""img/mask64.png""],[""img/mask85.png""],[""img/mask35.png""],[""img/mask75.png""],[""img/mask72.png""],[""img/mask46.png""],[""img/mask40.png""],[""img/mask38.png""],[""img/mask73.png""],[""img/mask59.png""],[""img/mask52.png""],[""img/mask66.png""],[""img/mask45.png""],[""img/mask5.png""],[""img/mask48.png""],[""img/mask44.png""],[""img/mask54.png""],[""img/mask30.png""],[""img/mask9.png""],[""img/mask4.png""],[""img/mask82.png""],[""img/mask76.png""],[""img/mask75.png""],[""img/mask49.png""],[""img/mask40.png""],[""img/mask52.png""],[""img/mask57.png""],[""img/mask24.png""],[""img/mask17.png""],[""img/mask95.png""],[""img/mask98.png""],[""img/mask30.png""],[""img/mask89.png""]]]","","[24,26,10,20,33,29,31,11,34,5,6,22,27,23,8,35,28,15,7,16,14,18,4,3,1,12,9,25,0,21,19,13,2,17,30,32]","main","342","many-guess-6"
"","","","","","html-keyboard-response","41","353971","0.0-10.0-0.11","5f2a12f5837dd81e5881b7cc","640759fa512f630a2bdc333d","6408c1857a97bd3946b9d586","null","","null","","","","","","","","","","","","","","","","","","","fixation","",""
"","","","","","color-precision2","42","360659","0.0-10.0-1.11-0.11","5f2a12f5837dd81e5881b7cc","640759fa512f630a2bdc333d","6408c1857a97bd3946b9d586","[3808]","","","[16]","[254]","254","62","330.2096712134536","[330.2096712134536]","[268.2096712134536]","[268]","0","0","1","0","152.79999999998836","1003.0800000000163","1000","[[[""img/mask39.png""]]]","","","main","62","color-precision2"
"","","","","","html-keyboard-response","43","361163","0.0-10.0-0.12","5f2a12f5837dd81e5881b7cc","640759fa512f630a2bdc333d","6408c1857a97bd3946b9d586","null","","null","","","","","","","","","","","","","","","","","","","fixation","",""
"","","","","","color-precision2","44","368729","0.0-10.0-1.12-0.12","5f2a12f5837dd81e5881b7cc","640759fa512f630a2bdc333d","6408c1857a97bd3946b9d586","[4489]","","","[2]","[218]","218","77","291.1288901841522","[291.1288901841522]","[214.12889018415223]","[214]","0","0","1","0","151.97999999998137","999.2600000000093","1000","[[[""img/mask64.png""]]]","","","main","77","color-precision2"
"","","","","","html-keyboard-response","45","369243","0.0-10.0-0.13","5f2a12f5837dd81e5881b7cc","640759fa512f630a2bdc333d","6408c1857a97bd3946b9d586","null","","null","","","","","","","","","","","","","","","","","","","fixation","",""
"","","","","","many-guess-6","46","375454","0.0-10.0-1.13-0.13","5f2a12f5837dd81e5881b7cc","640759fa512f630a2bdc333d","6408c1857a97bd3946b9d586","[3782]","","","[10,17,3,4,2,13,1,20,19,11,0,30,7,9,16,8,23,29,28,12,25,34,32,21,33,26,6,22,35,27,5,15,18,31,14,24]","[305,16,76,116,186,226,196,276,166,96,136,295,325,345,86,106,36,246,126,315,266,216,66,236,176,46,355,256,206,56,285,26,146,6,156,335]","305","64","17.368782622280936","[17.368782622280936]","[313.36878262228095]","[312]","[210,30,30,210,120,300,30,210,210]","0","36","0","152.90000000002328","13.179999999993015","16","[[[""img/mask76.png""],[""img/mask85.png""],[""img/mask60.png""],[""img/mask98.png""],[""img/mask78.png""],[""img/mask29.png""],[""img/mask22.png""],[""img/mask87.png""],[""img/mask86.png""],[""img/mask14.png""],[""img/mask100.png""],[""img/mask89.png""],[""img/mask95.png""],[""img/mask22.png""],[""img/mask54.png""],[""img/mask57.png""],[""img/mask81.png""],[""img/mask89.png""],[""img/mask14.png""],[""img/mask2.png""],[""img/mask96.png""],[""img/mask51.png""],[""img/mask77.png""],[""img/mask87.png""],[""img/mask64.png""],[""img/mask6.png""],[""img/mask32.png""],[""img/mask50.png""],[""img/mask22.png""],[""img/mask6.png""],[""img/mask94.png""],[""img/mask33.png""],[""img/mask8.png""],[""img/mask66.png""],[""img/mask20.png""],[""img/mask24.png""]]]","","[10,17,3,4,2,13,1,20,19,11,0,30,7,9,16,8,23,29,28,12,25,34,32,21,33,26,6,22,35,27,5,15,18,31,14,24]","main","64","many-guess-6"
"","","","","","html-keyboard-response","47","375964","0.0-10.0-0.14","5f2a12f5837dd81e5881b7cc","640759fa512f630a2bdc333d","6408c1857a97bd3946b9d586","null","","null","","","","","","","","","","","","","","","","","","","fixation","",""
"","","","","","many-guess-6","48","382524","0.0-10.0-1.14-0.14","5f2a12f5837dd81e5881b7cc","640759fa512f630a2bdc333d","6408c1857a97bd3946b9d586","[4515]","","","[26,17,2,19,11,4,15,3,7,1,22,16,21,23,24,29,9,33,6,0,13,8,31,18,27,34,32,35,12,20,28,10,30,14,5,25]","[6,115,285,75,55,95,145,325,315,105,185,125,305,355,135,46,155,165,85,16,36,245,265,235,335,255,175,275,65,295,195,225,205,26,345,215]","6","199","193.43222324645924","[193.43222324645924]","[354.4322232464592]","[354]","[120,210,210,120,300,120,210,120,300]","0","36","0","152.5","14.799999999988358","16","[[[""img/mask59.png""],[""img/mask19.png""],[""img/mask43.png""],[""img/mask88.png""],[""img/mask27.png""],[""img/mask76.png""],[""img/mask9.png""],[""img/mask83.png""],[""img/mask36.png""],[""img/mask52.png""],[""img/mask32.png""],[""img/mask30.png""],[""img/mask13.png""],[""img/mask60.png""],[""img/mask91.png""],[""img/mask59.png""],[""img/mask53.png""],[""img/mask42.png""],[""img/mask79.png""],[""img/mask96.png""],[""img/mask31.png""],[""img/mask87.png""],[""img/mask81.png""],[""img/mask91.png""],[""img/mask55.png""],[""img/mask57.png""],[""img/mask27.png""],[""img/mask70.png""],[""img/mask39.png""],[""img/mask45.png""],[""img/mask89.png""],[""img/mask32.png""],[""img/mask15.png""],[""img/mask32.png""],[""img/mask56.png""],[""img/mask35.png""]]]","","[26,17,2,19,11,4,15,3,7,1,22,16,21,23,24,29,9,33,6,0,13,8,31,18,27,34,32,35,12,20,28,10,30,14,5,25]","main","199","many-guess-6"
"","","","","","html-keyboard-response","49","383030","0.0-10.0-0.15","5f2a12f5837dd81e5881b7cc","640759fa512f630a2bdc333d","6408c1857a97bd3946b9d586","null","","null","","","","","","","","","","","","","","","","","","","fixation","",""
"","","","","","color-precision2","50","391746","0.0-10.0-1.15-0.15","5f2a12f5837dd81e5881b7cc","640759fa512f630a2bdc333d","6408c1857a97bd3946b9d586","[5636]","","","[5]","[217]","217","277","134.43013203283076","[134.43013203283076]","[217.43013203283076]","[217]","0","0","1","0","151.94000000000233","1002.2199999999721","1000","[[[""img/mask66.png""]]]","","","main","277","color-precision2"
"","","","","","html-keyboard-response","51","392247","0.0-10.0-0.16","5f2a12f5837dd81e5881b7cc","640759fa512f630a2bdc333d","6408c1857a97bd3946b9d586","null","","null","","","","","","","","","","","","","","","","","","","fixation","",""
"","","","","","many-guess-6","52","400690","0.0-10.0-1.16-0.16","5f2a12f5837dd81e5881b7cc","640759fa512f630a2bdc333d","6408c1857a97bd3946b9d586","[5463]","","","[14,33,7,6,23,17,1,0,22,30,10,16,13,18,24,8,34,11,31,9,3,35,26,5,25,2,29,21,32,4,15,12,20,19,28,27]","[48,248,358,138,58,218,178,29,128,258,288,348,208,118,9,39,78,238,19,98,268,158,308,188,108,328,68,148,278,228,318,338,198,168,298,88]","48","106","43.31517109073731","[43.31517109073731]","[297.3151710907373]","[296]","[30,30,210,120,30,210,210,30,30]","0","36","0","152.40000000002328","15.679999999993015","16","[[[""img/mask61.png""],[""img/mask32.png""],[""img/mask14.png""],[""img/mask100.png""],[""img/mask23.png""],[""img/mask22.png""],[""img/mask2.png""],[""img/mask60.png""],[""img/mask14.png""],[""img/mask94.png""],[""img/mask99.png""],[""img/mask22.png""],[""img/mask3.png""],[""img/mask44.png""],[""img/mask87.png""],[""img/mask90.png""],[""img/mask30.png""],[""img/mask2.png""],[""img/mask67.png""],[""img/mask28.png""],[""img/mask98.png""],[""img/mask37.png""],[""img/mask57.png""],[""img/mask50.png""],[""img/mask61.png""],[""img/mask8.png""],[""img/mask18.png""],[""img/mask86.png""],[""img/mask77.png""],[""img/mask83.png""],[""img/mask84.png""],[""img/mask21.png""],[""img/mask37.png""],[""img/mask65.png""],[""img/mask87.png""],[""img/mask75.png""]]]","","[14,33,7,6,23,17,1,0,22,30,10,16,13,18,24,8,34,11,31,9,3,35,26,5,25,2,29,21,32,4,15,12,20,19,28,27]","main","106","many-guess-6"
"","","","","","html-keyboard-response","53","401193","0.0-10.0-0.17","5f2a12f5837dd81e5881b7cc","640759fa512f630a2bdc333d","6408c1857a97bd3946b9d586","null","","null","","","","","","","","","","","","","","","","","","","fixation","",""
"","","","","","color-precision2","54","412366","0.0-10.0-1.17-0.17","5f2a12f5837dd81e5881b7cc","640759fa512f630a2bdc333d","6408c1857a97bd3946b9d586","[7958]","","","[13]","[23]","23","50","48.64260389658691","[48.64260389658691]","[358.64260389658693]","[357]","0","0","1","0","153.2600000000093","996.539999999979","1000","[[[""img/mask15.png""]]]","","","main","50","color-precision2"
"","","","","","html-keyboard-response","55","412882","0.0-10.0-0.18","5f2a12f5837dd81e5881b7cc","640759fa512f630a2bdc333d","6408c1857a97bd3946b9d586","null","","null","","","","","","","","","","","","","","","","","","","fixation","",""
"","","","","","many-guess-6","56","418642","0.0-10.0-1.18-0.18","5f2a12f5837dd81e5881b7cc","640759fa512f630a2bdc333d","6408c1857a97bd3946b9d586","[3567]","","","[5,0,16,9,21,28,24,11,22,15,6,30,23,25,4,31,35,27,20,18,19,29,2,3,12,7,17,1,34,33,32,14,10,13,26,8]","[206,97,186,286,57,107,336,117,166,306,47,276,316,236,346,67,37,176,87,127,137,256,196,356,266,27,216,17,7,296,246,226,156,77,326,146]","206","298","309.8975663201948","[309.8975663201948]","[11.897566320194812]","[12]","[300,300,120,300,300,210,120,210,300]","0","36","0","152.44000000000233","13.739999999990687","16","[[[""img/mask61.png""],[""img/mask7.png""],[""img/mask90.png""],[""img/mask58.png""],[""img/mask96.png""],[""img/mask89.png""],[""img/mask38.png""],[""img/mask91.png""],[""img/mask27.png""],[""img/mask53.png""],[""img/mask16.png""],[""img/mask58.png""],[""img/mask20.png""],[""img/mask45.png""],[""img/mask23.png""],[""img/mask42.png""],[""img/mask91.png""],[""img/mask59.png""],[""img/mask96.png""],[""img/mask49.png""],[""img/mask89.png""],[""img/mask94.png""],[""img/mask27.png""],[""img/mask49.png""],[""img/mask4.png""],[""img/mask95.png""],[""img/mask15.png""],[""img/mask48.png""],[""img/mask13.png""],[""img/mask88.png""],[""img/mask64.png""],[""img/mask56.png""],[""img/mask1.png""],[""img/mask36.png""],[""img/mask71.png""],[""img/mask92.png""]]]","","[5,0,16,9,21,28,24,11,22,15,6,30,23,25,4,31,35,27,20,18,19,29,2,3,12,7,17,1,34,33,32,14,10,13,26,8]","main","298","many-guess-6"
"","","","","","html-keyboard-response","57","434464","0.0-10.0-0.19","5f2a12f5837dd81e5881b7cc","640759fa512f630a2bdc333d","6408c1857a97bd3946b9d586","15821","Wow! You've completed 20 out of 180 trials! </p> <p>  </p><p> Take a quick break, then press any key when you're ready to continue."," ","","","","","","","","","","","","","","","","","","","fixation","",""
"","","","","","many-guess-6","58","438568","0.0-10.0-1.19-0.19","5f2a12f5837dd81e5881b7cc","640759fa512f630a2bdc333d","6408c1857a97bd3946b9d586","[2100]","","","[4,8,5,23,26,28,13,2,30,29,9,27,31,0,18,1,14,21,19,33,3,11,15,6,24,10,34,20,7,32,35,22,12,17,16,25]","[69,339,39,249,139,79,109,319,19,289,129,49,89,199,269,159,309,279,239,259,219,299,209,29,169,10,59,329,189,119,359,179,149,99,349,229]","69","45","236.87118118049636","[236.87118118049636]","[191.87118118049636]","[192]","[210,30,30,300,210,120,30,210,120]","0","36","0","152.20000000001164","13.479999999981374","16","[[[""img/mask96.png""],[""img/mask40.png""],[""img/mask13.png""],[""img/mask6.png""],[""img/mask40.png""],[""img/mask2.png""],[""img/mask62.png""],[""img/mask64.png""],[""img/mask95.png""],[""img/mask5.png""],[""img/mask65.png""],[""img/mask78.png""],[""img/mask16.png""],[""img/mask25.png""],[""img/mask16.png""],[""img/mask84.png""],[""img/mask58.png""],[""img/mask52.png""],[""img/mask30.png""],[""img/mask20.png""],[""img/mask47.png""],[""img/mask19.png""],[""img/mask4.png""],[""img/mask48.png""],[""img/mask36.png""],[""img/mask58.png""],[""img/mask24.png""],[""img/mask42.png""],[""img/mask61.png""],[""img/mask32.png""],[""img/mask83.png""],[""img/mask91.png""],[""img/mask43.png""],[""img/mask72.png""],[""img/mask74.png""],[""img/mask34.png""]]]","","[4,8,5,23,26,28,13,2,30,29,9,27,31,0,18,1,14,21,19,33,3,11,15,6,24,10,34,20,7,32,35,22,12,17,16,25]","main","45","many-guess-6"
"","","","","","html-keyboard-response","59","439072","0.0-10.0-0.20","5f2a12f5837dd81e5881b7cc","640759fa512f630a2bdc333d","6408c1857a97bd3946b9d586","null","","null","","","","","","","","","","","","","","","","","","","fixation","",""
"","","","","","color-precision2","60","444630","0.0-10.0-1.20-0.20","5f2a12f5837dd81e5881b7cc","640759fa512f630a2bdc333d","6408c1857a97bd3946b9d586","[2706]","","","[0]","[277]","277","65","339.420051484309","[339.420051484309]","[274.420051484309]","[274]","0","0","1","0","152.71999999997206","997","1000","[[[""img/mask8.png""]]]","","","main","65","color-precision2"
"","","","","","html-keyboard-response","61","445138","0.0-10.0-0.21","5f2a12f5837dd81e5881b7cc","640759fa512f630a2bdc333d","6408c1857a97bd3946b9d586","null","","null","","","","","","","","","","","","","","","","","","","fixation","",""
"","","","","","many-guess-6","62","450862","0.0-10.0-1.21-0.21","5f2a12f5837dd81e5881b7cc","640759fa512f630a2bdc333d","6408c1857a97bd3946b9d586","[4014]","","","[19,16,6,3,33,20,30,14,11,12,28,0,23,2,24,5,27,1,32,22,8,31,25,13,35,17,34,4,10,26,15,9,29,21,7,18]","[154,244,324,344,35,144,5,194,284,64,174,264,164,134,124,84,224,25,294,354,74,54,214,114,15,304,104,334,204,234,184,44,314,94,274,254]","154","46","314.28985826130787","[314.28985826130787]","[268.28985826130787]","[268]","[120,120,300,210,30,210,210,300,120]","0","36","0","151.55999999999767","17.84000000002561","16","[[[""img/mask72.png""],[""img/mask2.png""],[""img/mask13.png""],[""img/mask48.png""],[""img/mask45.png""],[""img/mask15.png""],[""img/mask56.png""],[""img/mask65.png""],[""img/mask62.png""],[""img/mask64.png""],[""img/mask40.png""],[""img/mask97.png""],[""img/mask5.png""],[""img/mask32.png""],[""img/mask42.png""],[""img/mask48.png""],[""img/mask12.png""],[""img/mask60.png""],[""img/mask90.png""],[""img/mask82.png""],[""img/mask42.png""],[""img/mask83.png""],[""img/mask85.png""],[""img/mask50.png""],[""img/mask9.png""],[""img/mask67.png""],[""img/mask91.png""],[""img/mask88.png""],[""img/mask28.png""],[""img/mask18.png""],[""img/mask4.png""],[""img/mask23.png""],[""img/mask63.png""],[""img/mask6.png""],[""img/mask73.png""],[""img/mask24.png""]]]","","[19,16,6,3,33,20,30,14,11,12,28,0,23,2,24,5,27,1,32,22,8,31,25,13,35,17,34,4,10,26,15,9,29,21,7,18]","main","46","many-guess-6"
"","","","","","html-keyboard-response","63","451371","0.0-10.0-0.22","5f2a12f5837dd81e5881b7cc","640759fa512f630a2bdc333d","6408c1857a97bd3946b9d586","null","","null","","","","","","","","","","","","","","","","","","","fixation","",""
"","","","","","color-precision2","64","457756","0.0-10.0-1.22-0.22","5f2a12f5837dd81e5881b7cc","640759fa512f630a2bdc333d","6408c1857a97bd3946b9d586","[3625]","","","[18]","[209]","209","38","239.96373458865074","[239.96373458865074]","[201.96373458865074]","[202]","0","0","1","0","152.5","1002.7800000000279","1000","[[[""img/mask61.png""]]]","","","main","38","color-precision2"
"","","","","","html-keyboard-response","65","458268","0.0-10.0-0.23","5f2a12f5837dd81e5881b7cc","640759fa512f630a2bdc333d","6408c1857a97bd3946b9d586","null","","null","","","","","","","","","","","","","","","","","","","fixation","",""
"","","","","","color-precision2","66","467019","0.0-10.0-1.23-0.23","5f2a12f5837dd81e5881b7cc","640759fa512f630a2bdc333d","6408c1857a97bd3946b9d586","[5913]","","","[8]","[138]","138","358","138.26473436948345","[138.26473436948345]","[140.26473436948345]","[139]","0","0","1","0","153.05999999999767","1001.3400000000256","1000","[[[""img/mask22.png""]]]","","","main","358","color-precision2"
"","","","","","html-keyboard-response","67","467521","0.0-10.0-0.24","5f2a12f5837dd81e5881b7cc","640759fa512f630a2bdc333d","6408c1857a97bd3946b9d586","null","","null","","","","","","","","","","","","","","","","","","","fixation","",""
"","","","","","many-guess-6","68","474853","0.0-10.0-1.24-0.24","5f2a12f5837dd81e5881b7cc","640759fa512f630a2bdc333d","6408c1857a97bd3946b9d586","[5116]","","","[11,22,17,19,24,18,6,0,4,5,26,9,33,2,34,12,29,31,14,13,23,15,30,20,3,21,35,32,10,16,28,7,27,25,8,1]","[213,94,204,44,114,24,14,134,353,84,174,233,273,333,54,283,253,343,194,293,124,243,223,313,34,144,263,323,184,74,64,303,4,164,104,154]","213","130","112.7157833696583","[112.7157833696583]","[342.7157833696583]","[341]","[210,210,210,300,300,210,210,210,210]","0","36","0","152.40000000002328","12.679999999993015","16","[[[""img/mask17.png""],[""img/mask69.png""],[""img/mask83.png""],[""img/mask6.png""],[""img/mask53.png""],[""img/mask53.png""],[""img/mask92.png""],[""img/mask77.png""],[""img/mask54.png""],[""img/mask58.png""],[""img/mask10.png""],[""img/mask5.png""],[""img/mask65.png""],[""img/mask53.png""],[""img/mask80.png""],[""img/mask21.png""],[""img/mask24.png""],[""img/mask40.png""],[""img/mask3.png""],[""img/mask8.png""],[""img/mask56.png""],[""img/mask18.png""],[""img/mask55.png""],[""img/mask80.png""],[""img/mask60.png""],[""img/mask14.png""],[""img/mask8.png""],[""img/mask16.png""],[""img/mask28.png""],[""img/mask78.png""],[""img/mask33.png""],[""img/mask95.png""],[""img/mask69.png""],[""img/mask20.png""],[""img/mask32.png""],[""img/mask29.png""]]]","","[11,22,17,19,24,18,6,0,4,5,26,9,33,2,34,12,29,31,14,13,23,15,30,20,3,21,35,32,10,16,28,7,27,25,8,1]","main","130","many-guess-6"
"","","","","","html-keyboard-response","69","475365","0.0-10.0-0.25","5f2a12f5837dd81e5881b7cc","640759fa512f630a2bdc333d","6408c1857a97bd3946b9d586","null","","null","","","","","","","","","","","","","","","","","","","fixation","",""
"","","","","","color-precision2","70","482545","0.0-10.0-1.25-0.25","5f2a12f5837dd81e5881b7cc","640759fa512f630a2bdc333d","6408c1857a97bd3946b9d586","[3376]","","","[33]","[248]","248","118","7.232913356485389","[7.232913356485389]","[249.23291335648537]","[248]","0","0","1","0","152.28000000002794","997.5599999999977","1000","[[[""img/mask24.png""]]]","","","main","118","color-precision2"
"","","","","","html-keyboard-response","71","483059","0.0-10.0-0.26","5f2a12f5837dd81e5881b7cc","640759fa512f630a2bdc333d","6408c1857a97bd3946b9d586","null","","null","","","","","","","","","","","","","","","","","","","fixation","",""
"","","","","","color-precision2","72","491581","0.0-10.0-1.26-0.26","5f2a12f5837dd81e5881b7cc","640759fa512f630a2bdc333d","6408c1857a97bd3946b9d586","[5161]","","","[22]","[22]","22","122","134.62108713009616","[134.62108713009616]","[12.621087130096157]","[11]","0","0","1","0","152.5800000000163","999.859999999986","1000","[[[""img/mask52.png""]]]","","","main","122","color-precision2"
"","","","","","html-keyboard-response","73","492096","0.0-10.0-0.27","5f2a12f5837dd81e5881b7cc","640759fa512f630a2bdc333d","6408c1857a97bd3946b9d586","null","","null","","","","","","","","","","","","","","","","","","","fixation","",""
"","","","","","color-precision2","74","501482","0.0-10.0-1.27-0.27","5f2a12f5837dd81e5881b7cc","640759fa512f630a2bdc333d","6408c1857a97bd3946b9d586","[6034]","","","[32]","[58]","58","332","28.62072868280072","[28.62072868280072]","[56.620728682800745]","[55]","0","0","1","0","152.71999999997206","1000","1000","[[[""img/mask26.png""]]]","","","main","332","color-precision2"
"","","","","","html-keyboard-response","75","501996","0.0-10.0-0.28","5f2a12f5837dd81e5881b7cc","640759fa512f630a2bdc333d","6408c1857a97bd3946b9d586","null","","null","","","","","","","","","","","","","","","","","","","fixation","",""
"","","","","","color-precision2","76","511748","0.0-10.0-1.28-0.28","5f2a12f5837dd81e5881b7cc","640759fa512f630a2bdc333d","6408c1857a97bd3946b9d586","[6224]","","","[15]","[189]","189","352","184.86569161903373","[184.86569161903373]","[192.86569161903373]","[192]","0","0","1","0","152.52000000001863","997.7999999999884","1000","[[[""img/mask62.png""]]]","","","main","352","color-precision2"
"","","","","","html-keyboard-response","77","512260","0.0-10.0-0.29","5f2a12f5837dd81e5881b7cc","640759fa512f630a2bdc333d","6408c1857a97bd3946b9d586","null","","null","","","","","","","","","","","","","","","","","","","fixation","",""
"","","","","","color-precision2","78","521266","0.0-10.0-1.29-0.29","5f2a12f5837dd81e5881b7cc","640759fa512f630a2bdc333d","6408c1857a97bd3946b9d586","[5470]","","","[33]","[20]","20","294","297.4164821279819","[297.4164821279819]","[3.416482127981908]","[4]","0","0","1","0","152.7600000000093","999.0400000000373","1000","[[[""img/mask24.png""]]]","","","main","294","color-precision2"
"","","","","","html-keyboard-response","79","521778","0.0-10.0-0.30","5f2a12f5837dd81e5881b7cc","640759fa512f630a2bdc333d","6408c1857a97bd3946b9d586","null","","null","","","","","","","","","","","","","","","","","","","fixation","",""
"","","","","","many-guess-6","80","529278","0.0-10.0-1.30-0.30","5f2a12f5837dd81e5881b7cc","640759fa512f630a2bdc333d","6408c1857a97bd3946b9d586","[5641]","","","[23,29,16,32,25,0,28,20,9,27,8,10,24,21,14,6,17,4,11,5,33,1,7,13,19,26,2,12,18,3,22,35,31,15,30,34]","[148,138,118,358,328,198,288,318,158,308,108,228,178,238,98,298,59,69,168,78,9,19,278,39,348,338,188,218,208,49,248,258,268,128,88,29]","148","167","1.834644802924645","[1.834644802924645]","[194.83464480292466]","[194]","[120,30,120,300,300,120,30,120,300]","0","36","0","152.40000000002328","13.699999999953434","16","[[[""img/mask89.png""],[""img/mask94.png""],[""img/mask88.png""],[""img/mask83.png""],[""img/mask75.png""],[""img/mask45.png""],[""img/mask40.png""],[""img/mask18.png""],[""img/mask87.png""],[""img/mask55.png""],[""img/mask46.png""],[""img/mask5.png""],[""img/mask74.png""],[""img/mask8.png""],[""img/mask36.png""],[""img/mask8.png""],[""img/mask60.png""],[""img/mask77.png""],[""img/mask29.png""],[""img/mask91.png""],[""img/mask84.png""],[""img/mask79.png""],[""img/mask32.png""],[""img/mask42.png""],[""img/mask8.png""],[""img/mask42.png""],[""img/mask13.png""],[""img/mask6.png""],[""img/mask86.png""],[""img/mask59.png""],[""img/mask71.png""],[""img/mask45.png""],[""img/mask42.png""],[""img/mask9.png""],[""img/mask60.png""],[""img/mask73.png""]]]","","[23,29,16,32,25,0,28,20,9,27,8,10,24,21,14,6,17,4,11,5,33,1,7,13,19,26,2,12,18,3,22,35,31,15,30,34]","main","167","many-guess-6"
"","","","","","html-keyboard-response","81","529792","0.0-10.0-0.31","5f2a12f5837dd81e5881b7cc","640759fa512f630a2bdc333d","6408c1857a97bd3946b9d586","null","","null","","","","","","","","","","","","","","","","","","","fixation","",""
"","","","","","color-precision2","82","537892","0.0-10.0-1.31-0.31","5f2a12f5837dd81e5881b7cc","640759fa512f630a2bdc333d","6408c1857a97bd3946b9d586","[5255]","","","[23]","[4]","4","233","220.49815254487734","[220.49815254487734]","[347.49815254487737]","[347]","0","0","1","0","151.71999999997206","1000","1000","[[[""img/mask5.png""]]]","","","main","233","color-precision2"
"","","","","","html-keyboard-response","83","538406","0.0-10.0-0.32","5f2a12f5837dd81e5881b7cc","640759fa512f630a2bdc333d","6408c1857a97bd3946b9d586","null","","null","","","","","","","","","","","","","","","","","","","fixation","",""
"","","","","","color-precision2","84","546316","0.0-10.0-1.32-0.32","5f2a12f5837dd81e5881b7cc","640759fa512f630a2bdc333d","6408c1857a97bd3946b9d586","[5012]","","","[4]","[302]","302","317","253.21429248355054","[253.21429248355054]","[296.21429248355054]","[296]","0","0","1","0","152.71999999997206","1000","1000","[[[""img/mask58.png""]]]","","","main","317","color-precision2"
"","","","","","html-keyboard-response","85","546820","0.0-10.0-0.33","5f2a12f5837dd81e5881b7cc","640759fa512f630a2bdc333d","6408c1857a97bd3946b9d586","null","","null","","","","","","","","","","","","","","","","","","","fixation","",""
"","","","","","color-precision2","86","555108","0.0-10.0-1.33-0.33","5f2a12f5837dd81e5881b7cc","640759fa512f630a2bdc333d","6408c1857a97bd3946b9d586","[5519]","","","[33]","[152]","152","187","333.9966526364201","[333.9966526364201]","[146.9966526364201]","[147]","0","0","1","0","152.80000000004657","997.0799999999581","1000","[[[""img/mask71.png""]]]","","","main","187","color-precision2"
"","","","","","html-keyboard-response","87","555620","0.0-10.0-0.34","5f2a12f5837dd81e5881b7cc","640759fa512f630a2bdc333d","6408c1857a97bd3946b9d586","null","","null","","","","","","","","","","","","","","","","","","","fixation","",""
"","","","","","many-guess-6","88","561756","0.0-10.0-1.34-0.34","5f2a12f5837dd81e5881b7cc","640759fa512f630a2bdc333d","6408c1857a97bd3946b9d586","[4028]","","","[2,0,20,8,10,21,15,16,3,9,35,30,33,23,11,26,6,29,25,1,12,28,17,32,24,31,14,4,22,18,34,7,19,27,13,5]","[125,55,85,165,135,195,35,324,15,155,244,65,5,264,274,344,254,175,354,45,235,314,25,95,105,75,304,205,225,185,145,284,115,215,334,294]","125","148","134.62367282945027","[134.62367282945027]","[346.62367282945024]","[345]","[120,30,120,300,120,120,210,300,300]","0","36","0","153.06000000005588","17.339999999967404","16","[[[""img/mask3.png""],[""img/mask53.png""],[""img/mask25.png""],[""img/mask51.png""],[""img/mask17.png""],[""img/mask58.png""],[""img/mask89.png""],[""img/mask77.png""],[""img/mask69.png""],[""img/mask67.png""],[""img/mask12.png""],[""img/mask86.png""],[""img/mask17.png""],[""img/mask29.png""],[""img/mask67.png""],[""img/mask46.png""],[""img/mask10.png""],[""img/mask18.png""],[""img/mask90.png""],[""img/mask7.png""],[""img/mask34.png""],[""img/mask93.png""],[""img/mask81.png""],[""img/mask4.png""],[""img/mask5.png""],[""img/mask22.png""],[""img/mask33.png""],[""img/mask82.png""],[""img/mask97.png""],[""img/mask60.png""],[""img/mask56.png""],[""img/mask54.png""],[""img/mask60.png""],[""img/mask7.png""],[""img/mask71.png""],[""img/mask53.png""]]]","","[2,0,20,8,10,21,15,16,3,9,35,30,33,23,11,26,6,29,25,1,12,28,17,32,24,31,14,4,22,18,34,7,19,27,13,5]","main","148","many-guess-6"
"","","","","","html-keyboard-response","89","562271","0.0-10.0-0.35","5f2a12f5837dd81e5881b7cc","640759fa512f630a2bdc333d","6408c1857a97bd3946b9d586","null","","null","","","","","","","","","","","","","","","","","","","fixation","",""
"","","","","","many-guess-6","90","571934","0.0-10.0-1.35-0.35","5f2a12f5837dd81e5881b7cc","640759fa512f630a2bdc333d","6408c1857a97bd3946b9d586","[7575]","","","[21,1,7,35,33,24,0,20,23,16,12,5,15,9,26,8,22,10,11,34,27,28,19,17,30,13,4,31,32,2,25,18,29,6,14,3]","[186,296,316,226,27,97,176,107,346,7,206,77,47,17,166,356,336,87,266,67,156,116,216,326,246,236,146,126,276,286,37,306,196,57,136,256]","186","62","196.2216257392294","[196.2216257392294]","[134.2216257392294]","[134]","[120,210,30,120,300,300,210,30,300]","0","36","0","152.2600000000093","17.56000000005588","16","[[[""img/mask2.png""],[""img/mask89.png""],[""img/mask51.png""],[""img/mask75.png""],[""img/mask91.png""],[""img/mask30.png""],[""img/mask25.png""],[""img/mask8.png""],[""img/mask14.png""],[""img/mask71.png""],[""img/mask10.png""],[""img/mask23.png""],[""img/mask94.png""],[""img/mask69.png""],[""img/mask5.png""],[""img/mask5.png""],[""img/mask27.png""],[""img/mask85.png""],[""img/mask100.png""],[""img/mask51.png""],[""img/mask68.png""],[""img/mask33.png""],[""img/mask84.png""],[""img/mask18.png""],[""img/mask35.png""],[""img/mask11.png""],[""img/mask3.png""],[""img/mask89.png""],[""img/mask45.png""],[""img/mask82.png""],[""img/mask92.png""],[""img/mask12.png""],[""img/mask60.png""],[""img/mask100.png""],[""img/mask39.png""],[""img/mask92.png""]]]","","[21,1,7,35,33,24,0,20,23,16,12,5,15,9,26,8,22,10,11,34,27,28,19,17,30,13,4,31,32,2,25,18,29,6,14,3]","main","62","many-guess-6"
"","","","","","html-keyboard-response","91","572440","0.0-10.0-0.36","5f2a12f5837dd81e5881b7cc","640759fa512f630a2bdc333d","6408c1857a97bd3946b9d586","null","","null","","","","","","","","","","","","","","","","","","","fixation","",""
"","","","","","many-guess-6","92","579901","0.0-10.0-1.36-0.36","5f2a12f5837dd81e5881b7cc","640759fa512f630a2bdc333d","6408c1857a97bd3946b9d586","[5248]","","","[31,16,30,0,12,13,25,9,28,23,26,24,32,19,29,15,27,5,33,17,3,35,18,21,4,22,11,8,7,20,2,6,14,34,1,10]","[157,28,297,267,337,38,317,8,347,257,187,117,167,197,127,247,137,107,237,147,217,67,307,48,177,227,87,287,57,327,18,97,77,357,277,207]","157","179","316.0812977825322","[316.0812977825322]","[137.0812977825322]","[137]","[300,300,210,210,30,300,210,30,210]","0","36","0","152.35999999998603","17.64000000001397","16","[[[""img/mask97.png""],[""img/mask94.png""],[""img/mask86.png""],[""img/mask33.png""],[""img/mask74.png""],[""img/mask61.png""],[""img/mask66.png""],[""img/mask100.png""],[""img/mask55.png""],[""img/mask84.png""],[""img/mask65.png""],[""img/mask26.png""],[""img/mask98.png""],[""img/mask5.png""],[""img/mask86.png""],[""img/mask4.png""],[""img/mask71.png""],[""img/mask91.png""],[""img/mask81.png""],[""img/mask37.png""],[""img/mask58.png""],[""img/mask50.png""],[""img/mask18.png""],[""img/mask39.png""],[""img/mask10.png""],[""img/mask63.png""],[""img/mask53.png""],[""img/mask23.png""],[""img/mask12.png""],[""img/mask1.png""],[""img/mask57.png""],[""img/mask96.png""],[""img/mask66.png""],[""img/mask81.png""],[""img/mask53.png""],[""img/mask42.png""]]]","","[31,16,30,0,12,13,25,9,28,23,26,24,32,19,29,15,27,5,33,17,3,35,18,21,4,22,11,8,7,20,2,6,14,34,1,10]","main","179","many-guess-6"
"","","","","","html-keyboard-response","93","580409","0.0-10.0-0.37","5f2a12f5837dd81e5881b7cc","640759fa512f630a2bdc333d","6408c1857a97bd3946b9d586","null","","null","","","","","","","","","","","","","","","","","","","fixation","",""
"","","","","","color-precision2","94","588248","0.0-10.0-1.37-0.37","5f2a12f5837dd81e5881b7cc","640759fa512f630a2bdc333d","6408c1857a97bd3946b9d586","[4971]","","","[18]","[49]","49","164","220.76812690947975","[220.76812690947975]","[56.76812690947975]","[57]","0","0","1","0","152.6600000000326","996.9399999999441","1000","[[[""img/mask64.png""]]]","","","main","164","color-precision2"
"","","","","","html-keyboard-response","95","588759","0.0-10.0-0.38","5f2a12f5837dd81e5881b7cc","640759fa512f630a2bdc333d","6408c1857a97bd3946b9d586","null","","null","","","","","","","","","","","","","","","","","","","fixation","",""
"","","","","","many-guess-6","96","595480","0.0-10.0-1.38-0.38","5f2a12f5837dd81e5881b7cc","640759fa512f630a2bdc333d","6408c1857a97bd3946b9d586","[5189]","","","[11,4,24,22,26,33,1,10,19,17,16,5,27,2,30,34,13,0,14,6,25,18,8,3,12,28,15,9,32,7,21,35,29,20,31,23]","[41,130,51,150,340,310,120,290,230,1,160,260,71,21,350,270,320,11,91,170,280,240,250,210,220,330,61,140,200,190,81,111,180,101,300,31]","41","261","252.19890691246079","[252.19890691246079]","[351.19890691246076]","[351]","[300,300,210,120,30,30,30,30,300]","0","36","0","151.90000000002328","14.180000000051223","16","[[[""img/mask88.png""],[""img/mask22.png""],[""img/mask42.png""],[""img/mask72.png""],[""img/mask73.png""],[""img/mask43.png""],[""img/mask94.png""],[""img/mask71.png""],[""img/mask41.png""],[""img/mask4.png""],[""img/mask11.png""],[""img/mask85.png""],[""img/mask61.png""],[""img/mask87.png""],[""img/mask44.png""],[""img/mask41.png""],[""img/mask71.png""],[""img/mask37.png""],[""img/mask60.png""],[""img/mask81.png""],[""img/mask97.png""],[""img/mask54.png""],[""img/mask82.png""],[""img/mask33.png""],[""img/mask47.png""],[""img/mask24.png""],[""img/mask11.png""],[""img/mask63.png""],[""img/mask30.png""],[""img/mask33.png""],[""img/mask22.png""],[""img/mask17.png""],[""img/mask61.png""],[""img/mask26.png""],[""img/mask73.png""],[""img/mask7.png""]]]","","[11,4,24,22,26,33,1,10,19,17,16,5,27,2,30,34,13,0,14,6,25,18,8,3,12,28,15,9,32,7,21,35,29,20,31,23]","main","261","many-guess-6"
"","","","","","html-keyboard-response","97","611522","0.0-10.0-0.39","5f2a12f5837dd81e5881b7cc","640759fa512f630a2bdc333d","6408c1857a97bd3946b9d586","16041","Wow! You've completed 40 out of 180 trials! </p> <p>  </p><p> Take a quick break, then press any key when you're ready to continue."," ","","","","","","","","","","","","","","","","","","","fixation","",""
"","","","","","color-precision2","98","620117","0.0-10.0-1.39-0.39","5f2a12f5837dd81e5881b7cc","640759fa512f630a2bdc333d","6408c1857a97bd3946b9d586","[5234]","","","[5]","[151]","151","274","67.3234448512467","[67.3234448512467]","[153.3234448512467]","[152]","0","0","1","0","152.11999999999534","1001.4000000000233","1000","[[[""img/mask88.png""]]]","","","main","274","color-precision2"
"","","","","","html-keyboard-response","99","620625","0.0-10.0-0.40","5f2a12f5837dd81e5881b7cc","640759fa512f630a2bdc333d","6408c1857a97bd3946b9d586","null","","null","","","","","","","","","","","","","","","","","","","fixation","",""
"","","","","","many-guess-6","100","625597","0.0-10.0-1.40-0.40","5f2a12f5837dd81e5881b7cc","640759fa512f630a2bdc333d","6408c1857a97bd3946b9d586","[3401]","","","[0,15,34,7,12,35,4,27,33,30,19,8,14,9,10,3,32,28,26,6,11,31,20,24,18,13,16,21,22,23,1,17,5,29,25,2]","[219,30,309,269,289,279,80,149,349,50,179,109,60,359,169,20,10,319,159,239,209,229,119,129,199,40,329,249,89,70,189,339,99,299,139,259]","219","197","201.74254492488947","[201.74254492488947]","[4.742544924889472]","[4]","[120,120,210,210,120,30,120,120,120]","0","36","0","151.95999999996275","19.239999999990687","16","[[[""img/mask97.png""],[""img/mask96.png""],[""img/mask47.png""],[""img/mask81.png""],[""img/mask80.png""],[""img/mask3.png""],[""img/mask58.png""],[""img/mask77.png""],[""img/mask13.png""],[""img/mask34.png""],[""img/mask84.png""],[""img/mask68.png""],[""img/mask79.png""],[""img/mask7.png""],[""img/mask85.png""],[""img/mask57.png""],[""img/mask81.png""],[""img/mask44.png""],[""img/mask1.png""],[""img/mask43.png""],[""img/mask66.png""],[""img/mask27.png""],[""img/mask71.png""],[""img/mask76.png""],[""img/mask73.png""],[""img/mask96.png""],[""img/mask64.png""],[""img/mask96.png""],[""img/mask45.png""],[""img/mask53.png""],[""img/mask19.png""],[""img/mask67.png""],[""img/mask47.png""],[""img/mask26.png""],[""img/mask84.png""],[""img/mask82.png""]]]","","[0,15,34,7,12,35,4,27,33,30,19,8,14,9,10,3,32,28,26,6,11,31,20,24,18,13,16,21,22,23,1,17,5,29,25,2]","main","197","many-guess-6"
"","","","","","html-keyboard-response","101","626099","0.0-10.0-0.41","5f2a12f5837dd81e5881b7cc","640759fa512f630a2bdc333d","6408c1857a97bd3946b9d586","null","","null","","","","","","","","","","","","","","","","","","","fixation","",""
"","","","","","many-guess-6","102","630395","0.0-10.0-1.41-0.41","5f2a12f5837dd81e5881b7cc","640759fa512f630a2bdc333d","6408c1857a97bd3946b9d586","[2331]","","","[7,8,15,24,18,12,30,14,0,10,16,9,26,1,28,22,2,35,31,27,21,29,5,20,33,6,4,25,23,34,13,19,32,17,3,11]","[73,312,33,93,143,43,213,352,322,243,252,83,223,103,272,153,173,262,233,302,23,13,3,282,123,193,292,113,63,133,183,163,203,342,53,332]","73","270","58.54846539026657","[58.54846539026657]","[148.54846539026659]","[147]","[300,120,210,300,210,210,30,120,300]","0","36","0","152.28000000002794","12.56000000005588","16","[[[""img/mask97.png""],[""img/mask7.png""],[""img/mask79.png""],[""img/mask1.png""],[""img/mask20.png""],[""img/mask52.png""],[""img/mask91.png""],[""img/mask79.png""],[""img/mask57.png""],[""img/mask79.png""],[""img/mask42.png""],[""img/mask95.png""],[""img/mask31.png""],[""img/mask52.png""],[""img/mask25.png""],[""img/mask77.png""],[""img/mask44.png""],[""img/mask5.png""],[""img/mask29.png""],[""img/mask49.png""],[""img/mask96.png""],[""img/mask71.png""],[""img/mask74.png""],[""img/mask85.png""],[""img/mask90.png""],[""img/mask1.png""],[""img/mask70.png""],[""img/mask72.png""],[""img/mask89.png""],[""img/mask36.png""],[""img/mask43.png""],[""img/mask11.png""],[""img/mask81.png""],[""img/mask95.png""],[""img/mask13.png""],[""img/mask47.png""]]]","","[7,8,15,24,18,12,30,14,0,10,16,9,26,1,28,22,2,35,31,27,21,29,5,20,33,6,4,25,23,34,13,19,32,17,3,11]","main","270","many-guess-6"
"","","","","","html-keyboard-response","103","630904","0.0-10.0-0.42","5f2a12f5837dd81e5881b7cc","640759fa512f630a2bdc333d","6408c1857a97bd3946b9d586","null","","null","","","","","","","","","","","","","","","","","","","fixation","",""
"","","","","","color-precision2","104","637777","0.0-10.0-1.42-0.42","5f2a12f5837dd81e5881b7cc","640759fa512f630a2bdc333d","6408c1857a97bd3946b9d586","[4047]","","","[14]","[94]","94","167","257.85597537737885","[257.85597537737885]","[90.85597537737885]","[91]","0","0","1","0","153.0799999999581","1003.359999999986","1000","[[[""img/mask83.png""]]]","","","main","167","color-precision2"
"","","","","","html-keyboard-response","105","638279","0.0-10.0-0.43","5f2a12f5837dd81e5881b7cc","640759fa512f630a2bdc333d","6408c1857a97bd3946b9d586","null","","null","","","","","","","","","","","","","","","","","","","fixation","",""
"","","","","","color-precision2","106","644183","0.0-10.0-1.43-0.43","5f2a12f5837dd81e5881b7cc","640759fa512f630a2bdc333d","6408c1857a97bd3946b9d586","[3361]","","","[26]","[140]","140","72","216.99489341422603","[216.99489341422603]","[144.99489341422603]","[145]","0","0","1","0","152.68000000005122","999.9599999999627","1000","[[[""img/mask50.png""]]]","","","main","72","color-precision2"
"","","","","","html-keyboard-response","107","644698","0.0-10.0-0.44","5f2a12f5837dd81e5881b7cc","640759fa512f630a2bdc333d","6408c1857a97bd3946b9d586","null","","null","","","","","","","","","","","","","","","","","","","fixation","",""
"","","","","","color-precision2","108","652899","0.0-10.0-1.44-0.44","5f2a12f5837dd81e5881b7cc","640759fa512f630a2bdc333d","6408c1857a97bd3946b9d586","[4231]","","","[25]","[125]","125","129","259.13614500022027","[259.13614500022027]","[130.13614500022027]","[130]","0","0","1","0","153.21999999997206","998.5","1000","[[[""img/mask55.png""]]]","","","main","129","color-precision2"
"","","","","","html-keyboard-response","109","653404","0.0-10.0-0.45","5f2a12f5837dd81e5881b7cc","640759fa512f630a2bdc333d","6408c1857a97bd3946b9d586","null","","null","","","","","","","","","","","","","","","","","","","fixation","",""
"","","","","","color-precision2","110","667153","0.0-10.0-1.45-0.45","5f2a12f5837dd81e5881b7cc","640759fa512f630a2bdc333d","6408c1857a97bd3946b9d586","[9971]","","","[0]","[86]","86","78","171.32992751778752","[171.32992751778752]","[93.32992751778752]","[92]","0","0","1","0","152.43999999994412","996.7199999999721","1000","[[[""img/mask72.png""]]]","","","main","78","color-precision2"
"","","","","","html-keyboard-response","111","667665","0.0-10.0-0.46","5f2a12f5837dd81e5881b7cc","640759fa512f630a2bdc333d","6408c1857a97bd3946b9d586","null","","null","","","","","","","","","","","","","","","","","","","fixation","",""
"","","","","","many-guess-6","112","674337","0.0-10.0-1.46-0.46","5f2a12f5837dd81e5881b7cc","640759fa512f630a2bdc333d","6408c1857a97bd3946b9d586","[4500]","","","[11,22,21,9,2,8,13,28,18,0,7,31,23,29,16,33,35,25,12,30,19,10,15,1,27,3,17,14,4,6,26,20,34,24,5,32]","[100,50,240,319,290,220,120,90,40,170,110,260,200,20,250,300,150,310,190,230,130,60,140,10,339,349,160,30,329,210,80,270,70,280,359,180]","100","302","13.010022374963109","[13.010022374963109]","[71.01002237496311]","[70]","[210,120,120,300,120,300,300,120,300]","0","36","0","152.80000000004657","15.07999999995809","16","[[[""img/mask12.png""],[""img/mask80.png""],[""img/mask37.png""],[""img/mask40.png""],[""img/mask45.png""],[""img/mask24.png""],[""img/mask5.png""],[""img/mask17.png""],[""img/mask40.png""],[""img/mask62.png""],[""img/mask49.png""],[""img/mask70.png""],[""img/mask49.png""],[""img/mask68.png""],[""img/mask26.png""],[""img/mask32.png""],[""img/mask73.png""],[""img/mask69.png""],[""img/mask68.png""],[""img/mask5.png""],[""img/mask40.png""],[""img/mask50.png""],[""img/mask32.png""],[""img/mask88.png""],[""img/mask74.png""],[""img/mask86.png""],[""img/mask82.png""],[""img/mask31.png""],[""img/mask13.png""],[""img/mask77.png""],[""img/mask21.png""],[""img/mask86.png""],[""img/mask87.png""],[""img/mask25.png""],[""img/mask38.png""],[""img/mask30.png""]]]","","[11,22,21,9,2,8,13,28,18,0,7,31,23,29,16,33,35,25,12,30,19,10,15,1,27,3,17,14,4,6,26,20,34,24,5,32]","main","302","many-guess-6"
"","","","","","html-keyboard-response","113","674843","0.0-10.0-0.47","5f2a12f5837dd81e5881b7cc","640759fa512f630a2bdc333d","6408c1857a97bd3946b9d586","null","","null","","","","","","","","","","","","","","","","","","","fixation","",""
"","","","","","color-precision2","114","682343","0.0-10.0-1.47-0.47","5f2a12f5837dd81e5881b7cc","640759fa512f630a2bdc333d","6408c1857a97bd3946b9d586","[4630]","","","[9]","[163]","163","269","86.9270006471054","[86.9270006471054]","[177.9270006471054]","[176]","0","0","1","0","152.1600000000326","1003.4399999999441","1000","[[[""img/mask96.png""]]]","","","main","269","color-precision2"
"","","","","","html-keyboard-response","115","682855","0.0-10.0-0.48","5f2a12f5837dd81e5881b7cc","640759fa512f630a2bdc333d","6408c1857a97bd3946b9d586","null","","null","","","","","","","","","","","","","","","","","","","fixation","",""
"","","","","","color-precision2","116","692196","0.0-10.0-1.48-0.48","5f2a12f5837dd81e5881b7cc","640759fa512f630a2bdc333d","6408c1857a97bd3946b9d586","[6873]","","","[32]","[3]","3","35","23.540809978553423","[23.540809978553423]","[348.5408099785534]","[347]","0","0","1","0","152.45999999996275","999.7399999999907","1000","[[[""img/mask86.png""]]]","","","main","35","color-precision2"
"","","","","","html-keyboard-response","117","692698","0.0-10.0-0.49","5f2a12f5837dd81e5881b7cc","640759fa512f630a2bdc333d","6408c1857a97bd3946b9d586","null","","null","","","","","","","","","","","","","","","","","","","fixation","",""
"","","","","","many-guess-6","118","703416","0.0-10.0-1.49-0.49","5f2a12f5837dd81e5881b7cc","640759fa512f630a2bdc333d","6408c1857a97bd3946b9d586","[6385]","","","[34,8,3,0,33,30,16,31,13,26,20,19,11,2,10,24,12,27,23,35,21,1,22,18,28,9,7,32,4,5,14,17,29,25,6,15]","[82,212,282,312,262,72,272,42,202,332,112,292,341,12,32,92,22,182,52,302,172,132,142,62,242,232,122,252,222,192,351,2,102,152,162,322]","82","334","156.6092752294929","[156.6092752294929]","[182.6092752294929]","[181]","[120,300,30,210,300,30,300,210,30]","0","36","0","152.3399999999674","12.619999999995343","16","[[[""img/mask84.png""],[""img/mask21.png""],[""img/mask49.png""],[""img/mask22.png""],[""img/mask86.png""],[""img/mask23.png""],[""img/mask27.png""],[""img/mask60.png""],[""img/mask55.png""],[""img/mask21.png""],[""img/mask57.png""],[""img/mask1.png""],[""img/mask78.png""],[""img/mask79.png""],[""img/mask77.png""],[""img/mask86.png""],[""img/mask80.png""],[""img/mask44.png""],[""img/mask81.png""],[""img/mask65.png""],[""img/mask41.png""],[""img/mask8.png""],[""img/mask84.png""],[""img/mask82.png""],[""img/mask76.png""],[""img/mask48.png""],[""img/mask77.png""],[""img/mask55.png""],[""img/mask41.png""],[""img/mask15.png""],[""img/mask43.png""],[""img/mask27.png""],[""img/mask77.png""],[""img/mask31.png""],[""img/mask69.png""],[""img/mask73.png""]]]","","[34,8,3,0,33,30,16,31,13,26,20,19,11,2,10,24,12,27,23,35,21,1,22,18,28,9,7,32,4,5,14,17,29,25,6,15]","main","334","many-guess-6"
"","","","","","html-keyboard-response","119","703918","0.0-10.0-0.50","5f2a12f5837dd81e5881b7cc","640759fa512f630a2bdc333d","6408c1857a97bd3946b9d586","null","","null","","","","","","","","","","","","","","","","","","","fixation","",""
"","","","","","many-guess-6","120","712378","0.0-10.0-1.50-0.50","5f2a12f5837dd81e5881b7cc","640759fa512f630a2bdc333d","6408c1857a97bd3946b9d586","[6047]","","","[29,34,3,35,10,23,17,12,1,33,6,18,7,2,25,5,4,28,14,16,19,9,32,31,30,11,24,0,20,8,27,22,15,26,21,13]","[111,31,211,320,21,231,41,121,51,260,350,161,290,201,81,181,71,91,1,171,221,101,11,340,61,131,300,141,330,240,310,270,151,280,250,191]","111","119","55.45770024211005","[55.45770024211005]","[296.45770024211004]","[295]","[300,120,210,300,120,120,300,210,210]","0","36","0","153.31999999994878","18.599999999976717","16","[[[""img/mask34.png""],[""img/mask55.png""],[""img/mask53.png""],[""img/mask79.png""],[""img/mask32.png""],[""img/mask98.png""],[""img/mask51.png""],[""img/mask50.png""],[""img/mask26.png""],[""img/mask35.png""],[""img/mask83.png""],[""img/mask34.png""],[""img/mask23.png""],[""img/mask100.png""],[""img/mask84.png""],[""img/mask44.png""],[""img/mask67.png""],[""img/mask23.png""],[""img/mask91.png""],[""img/mask88.png""],[""img/mask40.png""],[""img/mask67.png""],[""img/mask48.png""],[""img/mask91.png""],[""img/mask44.png""],[""img/mask25.png""],[""img/mask10.png""],[""img/mask82.png""],[""img/mask99.png""],[""img/mask100.png""],[""img/mask96.png""],[""img/mask49.png""],[""img/mask10.png""],[""img/mask19.png""],[""img/mask91.png""],[""img/mask99.png""]]]","","[29,34,3,35,10,23,17,12,1,33,6,18,7,2,25,5,4,28,14,16,19,9,32,31,30,11,24,0,20,8,27,22,15,26,21,13]","main","119","many-guess-6"
"","","","","","html-keyboard-response","121","712891","0.0-10.0-0.51","5f2a12f5837dd81e5881b7cc","640759fa512f630a2bdc333d","6408c1857a97bd3946b9d586","null","","null","","","","","","","","","","","","","","","","","","","fixation","",""
"","","","","","many-guess-6","122","720762","0.0-10.0-1.51-0.51","5f2a12f5837dd81e5881b7cc","640759fa512f630a2bdc333d","6408c1857a97bd3946b9d586","[4389]","","","[18,33,3,25,2,22,29,7,27,13,5,17,6,9,28,16,32,20,12,35,23,8,0,30,10,4,21,34,14,26,19,31,24,15,1,11]","[325,126,216,116,275,16,96,106,176,46,206,156,6,355,146,315,305,136,186,335,345,76,285,255,166,265,246,36,66,295,236,86,26,226,56,196]","325","74","257.82681131783124","[257.82681131783124]","[183.82681131783124]","[184]","[30,300,300,300,30,120,210,300,120]","0","36","0","152.38000000000466","17.660000000032596","16","[[[""img/mask11.png""],[""img/mask64.png""],[""img/mask52.png""],[""img/mask53.png""],[""img/mask96.png""],[""img/mask68.png""],[""img/mask78.png""],[""img/mask18.png""],[""img/mask86.png""],[""img/mask1.png""],[""img/mask62.png""],[""img/mask41.png""],[""img/mask18.png""],[""img/mask52.png""],[""img/mask42.png""],[""img/mask37.png""],[""img/mask34.png""],[""img/mask68.png""],[""img/mask80.png""],[""img/mask54.png""],[""img/mask33.png""],[""img/mask44.png""],[""img/mask12.png""],[""img/mask40.png""],[""img/mask54.png""],[""img/mask38.png""],[""img/mask47.png""],[""img/mask53.png""],[""img/mask49.png""],[""img/mask29.png""],[""img/mask77.png""],[""img/mask95.png""],[""img/mask70.png""],[""img/mask48.png""],[""img/mask19.png""],[""img/mask43.png""]]]","","[18,33,3,25,2,22,29,7,27,13,5,17,6,9,28,16,32,20,12,35,23,8,0,30,10,4,21,34,14,26,19,31,24,15,1,11]","main","74","many-guess-6"
"","","","","","html-keyboard-response","123","721265","0.0-10.0-0.52","5f2a12f5837dd81e5881b7cc","640759fa512f630a2bdc333d","6408c1857a97bd3946b9d586","null","","null","","","","","","","","","","","","","","","","","","","fixation","",""
"","","","","","many-guess-6","124","727935","0.0-10.0-1.52-0.52","5f2a12f5837dd81e5881b7cc","640759fa512f630a2bdc333d","6408c1857a97bd3946b9d586","[4005]","","","[35,17,19,22,4,33,11,9,32,25,0,2,10,31,23,28,30,34,18,26,6,7,12,15,16,8,29,20,27,3,21,5,14,24,1,13]","[280,300,260,21,141,211,91,230,310,71,330,350,1,240,111,171,290,131,340,320,81,101,221,270,121,161,41,181,201,31,11,250,61,191,51,151]","280","149","183.60093981667353","[183.60093981667353]","[34.60093981667353]","[34]","[300,210,300,210,120,210,210,210,30]","0","36","0","152.2600000000093","17.540000000037253","16","[[[""img/mask82.png""],[""img/mask70.png""],[""img/mask96.png""],[""img/mask60.png""],[""img/mask85.png""],[""img/mask49.png""],[""img/mask47.png""],[""img/mask46.png""],[""img/mask21.png""],[""img/mask78.png""],[""img/mask46.png""],[""img/mask37.png""],[""img/mask70.png""],[""img/mask36.png""],[""img/mask59.png""],[""img/mask2.png""],[""img/mask91.png""],[""img/mask42.png""],[""img/mask56.png""],[""img/mask15.png""],[""img/mask59.png""],[""img/mask72.png""],[""img/mask60.png""],[""img/mask68.png""],[""img/mask60.png""],[""img/mask60.png""],[""img/mask34.png""],[""img/mask82.png""],[""img/mask48.png""],[""img/mask47.png""],[""img/mask89.png""],[""img/mask92.png""],[""img/mask57.png""],[""img/mask56.png""],[""img/mask39.png""],[""img/mask26.png""]]]","","[35,17,19,22,4,33,11,9,32,25,0,2,10,31,23,28,30,34,18,26,6,7,12,15,16,8,29,20,27,3,21,5,14,24,1,13]","main","149","many-guess-6"
"","","","","","html-keyboard-response","125","728438","0.0-10.0-0.53","5f2a12f5837dd81e5881b7cc","640759fa512f630a2bdc333d","6408c1857a97bd3946b9d586","null","","null","","","","","","","","","","","","","","","","","","","fixation","",""
"","","","","","many-guess-6","126","739734","0.0-10.0-1.53-0.53","5f2a12f5837dd81e5881b7cc","640759fa512f630a2bdc333d","6408c1857a97bd3946b9d586","[4131]","","","[34,25,9,20,29,27,6,28,11,19,5,10,23,24,4,26,1,30,3,15,14,16,35,17,0,21,12,7,13,18,8,2,22,31,32,33]","[120,190,100,170,220,160,250,180,31,260,11,110,130,51,240,300,310,140,350,1,81,91,150,200,320,290,230,330,270,210,280,61,340,71,21,41]","120","237","348.6015195208736","[348.6015195208736]","[111.60151952087358]","[111]","[120,300,120,300,30,120,210,120,30]","0","36","0","152.3399999999674","16.619999999995343","16","[[[""img/mask85.png""],[""img/mask72.png""],[""img/mask39.png""],[""img/mask40.png""],[""img/mask25.png""],[""img/mask67.png""],[""img/mask47.png""],[""img/mask93.png""],[""img/mask21.png""],[""img/mask70.png""],[""img/mask68.png""],[""img/mask26.png""],[""img/mask64.png""],[""img/mask21.png""],[""img/mask100.png""],[""img/mask56.png""],[""img/mask1.png""],[""img/mask59.png""],[""img/mask44.png""],[""img/mask32.png""],[""img/mask41.png""],[""img/mask74.png""],[""img/mask77.png""],[""img/mask81.png""],[""img/mask76.png""],[""img/mask32.png""],[""img/mask63.png""],[""img/mask24.png""],[""img/mask96.png""],[""img/mask78.png""],[""img/mask66.png""],[""img/mask76.png""],[""img/mask97.png""],[""img/mask17.png""],[""img/mask78.png""],[""img/mask12.png""]]]","","[34,25,9,20,29,27,6,28,11,19,5,10,23,24,4,26,1,30,3,15,14,16,35,17,0,21,12,7,13,18,8,2,22,31,32,33]","main","237","many-guess-6"
"","","","","","html-keyboard-response","127","740243","0.0-10.0-0.54","5f2a12f5837dd81e5881b7cc","640759fa512f630a2bdc333d","6408c1857a97bd3946b9d586","null","","null","","","","","","","","","","","","","","","","","","","fixation","",""
"","","","","","color-precision2","128","747104","0.0-10.0-1.54-0.54","5f2a12f5837dd81e5881b7cc","640759fa512f630a2bdc333d","6408c1857a97bd3946b9d586","[3884]","","","[27]","[193]","193","264","107.22476613130442","[107.22476613130442]","[203.22476613130442]","[201]","0","0","1","0","152.6600000000326","999.9399999999441","1000","[[[""img/mask75.png""]]]","","","main","264","color-precision2"
"","","","","","html-keyboard-response","129","747615","0.0-10.0-0.55","5f2a12f5837dd81e5881b7cc","640759fa512f630a2bdc333d","6408c1857a97bd3946b9d586","null","","null","","","","","","","","","","","","","","","","","","","fixation","",""
"","","","","","many-guess-6","130","752573","0.0-10.0-1.55-0.55","5f2a12f5837dd81e5881b7cc","640759fa512f630a2bdc333d","6408c1857a97bd3946b9d586","[3185]","","","[9,1,10,22,23,14,33,31,25,29,24,21,16,20,0,32,3,17,8,7,12,26,5,30,18,35,2,4,28,27,19,11,13,15,6,34]","[18,138,58,337,317,168,207,247,48,267,357,8,148,287,98,88,217,297,78,158,347,227,237,68,118,38,197,277,178,128,28,307,327,257,188,108]","18","245","157.6202393618286","[157.6202393618286]","[272.62023936182857]","[271]","[210,120,30,210,120,300,30,300,300]","0","36","0","152.64000000001397","13.92000000004191","16","[[[""img/mask43.png""],[""img/mask63.png""],[""img/mask93.png""],[""img/mask38.png""],[""img/mask69.png""],[""img/mask30.png""],[""img/mask100.png""],[""img/mask84.png""],[""img/mask38.png""],[""img/mask75.png""],[""img/mask20.png""],[""img/mask95.png""],[""img/mask26.png""],[""img/mask54.png""],[""img/mask47.png""],[""img/mask100.png""],[""img/mask79.png""],[""img/mask81.png""],[""img/mask27.png""],[""img/mask39.png""],[""img/mask31.png""],[""img/mask69.png""],[""img/mask51.png""],[""img/mask36.png""],[""img/mask3.png""],[""img/mask64.png""],[""img/mask24.png""],[""img/mask55.png""],[""img/mask64.png""],[""img/mask81.png""],[""img/mask8.png""],[""img/mask36.png""],[""img/mask82.png""],[""img/mask71.png""],[""img/mask93.png""],[""img/mask64.png""]]]","","[9,1,10,22,23,14,33,31,25,29,24,21,16,20,0,32,3,17,8,7,12,26,5,30,18,35,2,4,28,27,19,11,13,15,6,34]","main","245","many-guess-6"
"","","","","","html-keyboard-response","131","753073","0.0-10.0-0.56","5f2a12f5837dd81e5881b7cc","640759fa512f630a2bdc333d","6408c1857a97bd3946b9d586","null","","null","","","","","","","","","","","","","","","","","","","fixation","",""
"","","","","","many-guess-6","132","758360","0.0-10.0-1.56-0.56","5f2a12f5837dd81e5881b7cc","640759fa512f630a2bdc333d","6408c1857a97bd3946b9d586","[3361]","","","[35,29,22,21,7,34,28,30,11,16,23,31,19,10,13,4,12,8,15,0,14,2,26,32,27,17,25,20,1,9,33,3,6,18,24,5]","[132,142,292,282,83,73,53,202,103,272,262,162,93,43,352,172,13,242,63,252,33,332,222,182,192,312,322,3,23,122,152,113,212,342,302,232]","132","235","228.9397137345527","[228.9397137345527]","[353.9397137345527]","[354]","[120,120,120,30,300,300,300,210,30]","0","36","0","151.97999999998137","13.260000000009313","16","[[[""img/mask7.png""],[""img/mask98.png""],[""img/mask82.png""],[""img/mask73.png""],[""img/mask70.png""],[""img/mask45.png""],[""img/mask15.png""],[""img/mask49.png""],[""img/mask58.png""],[""img/mask20.png""],[""img/mask21.png""],[""img/mask92.png""],[""img/mask9.png""],[""img/mask23.png""],[""img/mask95.png""],[""img/mask12.png""],[""img/mask79.png""],[""img/mask79.png""],[""img/mask35.png""],[""img/mask28.png""],[""img/mask92.png""],[""img/mask79.png""],[""img/mask18.png""],[""img/mask62.png""],[""img/mask94.png""],[""img/mask86.png""],[""img/mask99.png""],[""img/mask81.png""],[""img/mask50.png""],[""img/mask41.png""],[""img/mask88.png""],[""img/mask37.png""],[""img/mask81.png""],[""img/mask54.png""],[""img/mask96.png""],[""img/mask23.png""]]]","","[35,29,22,21,7,34,28,30,11,16,23,31,19,10,13,4,12,8,15,0,14,2,26,32,27,17,25,20,1,9,33,3,6,18,24,5]","main","235","many-guess-6"
"","","","","","html-keyboard-response","133","758868","0.0-10.0-0.57","5f2a12f5837dd81e5881b7cc","640759fa512f630a2bdc333d","6408c1857a97bd3946b9d586","null","","null","","","","","","","","","","","","","","","","","","","fixation","",""
"","","","","","many-guess-6","134","763289","0.0-10.0-1.57-0.57","5f2a12f5837dd81e5881b7cc","640759fa512f630a2bdc333d","6408c1857a97bd3946b9d586","[2643]","","","[12,3,20,11,33,32,14,4,31,25,35,9,27,28,10,23,16,34,30,1,13,8,29,7,5,0,17,19,15,26,6,24,18,21,2,22]","[201,261,221,62,191,271,321,301,52,211,251,331,291,281,161,141,131,91,341,32,42,111,22,171,151,311,181,12,72,121,101,241,2,82,351,231]","201","293","274.83498685381744","[274.83498685381744]","[341.83498685381744]","[342]","[210,210,120,300,30,120,30,210,300]","0","36","0","152.04000000003725","15.319999999948777","16","[[[""img/mask13.png""],[""img/mask88.png""],[""img/mask15.png""],[""img/mask44.png""],[""img/mask99.png""],[""img/mask72.png""],[""img/mask2.png""],[""img/mask99.png""],[""img/mask55.png""],[""img/mask83.png""],[""img/mask100.png""],[""img/mask78.png""],[""img/mask52.png""],[""img/mask77.png""],[""img/mask58.png""],[""img/mask52.png""],[""img/mask80.png""],[""img/mask27.png""],[""img/mask62.png""],[""img/mask79.png""],[""img/mask81.png""],[""img/mask37.png""],[""img/mask43.png""],[""img/mask25.png""],[""img/mask39.png""],[""img/mask100.png""],[""img/mask51.png""],[""img/mask24.png""],[""img/mask26.png""],[""img/mask29.png""],[""img/mask8.png""],[""img/mask34.png""],[""img/mask3.png""],[""img/mask85.png""],[""img/mask70.png""],[""img/mask87.png""]]]","","[12,3,20,11,33,32,14,4,31,25,35,9,27,28,10,23,16,34,30,1,13,8,29,7,5,0,17,19,15,26,6,24,18,21,2,22]","main","293","many-guess-6"
"","","","","","html-keyboard-response","135","763801","0.0-10.0-0.58","5f2a12f5837dd81e5881b7cc","640759fa512f630a2bdc333d","6408c1857a97bd3946b9d586","null","","null","","","","","","","","","","","","","","","","","","","fixation","",""
"","","","","","many-guess-6","136","768443","0.0-10.0-1.58-0.58","5f2a12f5837dd81e5881b7cc","640759fa512f630a2bdc333d","6408c1857a97bd3946b9d586","[3151]","","","[9,32,27,15,22,30,24,26,25,6,10,2,35,0,34,19,20,31,12,33,23,1,18,29,5,11,14,13,28,8,16,3,7,17,21,4]","[283,313,14,134,24,253,193,203,154,94,74,84,243,213,343,173,263,164,44,54,323,183,223,4,114,64,233,293,273,104,34,333,144,303,124,353]","283","81","356.16562987726184","[356.16562987726184]","[275.16562987726184]","[274]","[30,30,300,300,300,210,120,210,210]","0","36","0","153.04000000003725","16.339999999967404","16","[[[""img/mask3.png""],[""img/mask84.png""],[""img/mask89.png""],[""img/mask7.png""],[""img/mask23.png""],[""img/mask58.png""],[""img/mask95.png""],[""img/mask65.png""],[""img/mask71.png""],[""img/mask10.png""],[""img/mask5.png""],[""img/mask7.png""],[""img/mask26.png""],[""img/mask39.png""],[""img/mask77.png""],[""img/mask1.png""],[""img/mask2.png""],[""img/mask53.png""],[""img/mask22.png""],[""img/mask25.png""],[""img/mask94.png""],[""img/mask36.png""],[""img/mask40.png""],[""img/mask22.png""],[""img/mask80.png""],[""img/mask44.png""],[""img/mask80.png""],[""img/mask58.png""],[""img/mask34.png""],[""img/mask91.png""],[""img/mask48.png""],[""img/mask13.png""],[""img/mask48.png""],[""img/mask9.png""],[""img/mask55.png""],[""img/mask54.png""]]]","","[9,32,27,15,22,30,24,26,25,6,10,2,35,0,34,19,20,31,12,33,23,1,18,29,5,11,14,13,28,8,16,3,7,17,21,4]","main","81","many-guess-6"
"","","","","","html-keyboard-response","137","773164","0.0-10.0-0.59","5f2a12f5837dd81e5881b7cc","640759fa512f630a2bdc333d","6408c1857a97bd3946b9d586","4722","Wow! You've completed 60 out of 180 trials! </p> <p>  </p><p> Take a quick break, then press any key when you're ready to continue."," ","","","","","","","","","","","","","","","","","","","fixation","",""
"","","","","","many-guess-6","138","779038","0.0-10.0-1.59-0.59","5f2a12f5837dd81e5881b7cc","640759fa512f630a2bdc333d","6408c1857a97bd3946b9d586","[3573]","","","[9,13,29,23,21,15,16,30,3,32,33,34,26,4,11,14,35,22,27,28,25,17,0,7,12,1,8,18,10,6,2,5,24,31,19,20]","[123,143,103,53,63,332,352,3,33,73,93,83,243,342,133,153,303,183,233,113,43,223,193,23,213,163,293,173,283,203,273,323,313,13,253,263]","123","190","112.41454416098574","[112.41454416098574]","[282.41454416098577]","[281]","[210,210,120,30,210,30,30,30,30]","0","36","0","153.0799999999581","16.380000000004657","16","[[[""img/mask50.png""],[""img/mask46.png""],[""img/mask63.png""],[""img/mask29.png""],[""img/mask29.png""],[""img/mask78.png""],[""img/mask14.png""],[""img/mask80.png""],[""img/mask44.png""],[""img/mask55.png""],[""img/mask1.png""],[""img/mask97.png""],[""img/mask28.png""],[""img/mask36.png""],[""img/mask95.png""],[""img/mask69.png""],[""img/mask32.png""],[""img/mask99.png""],[""img/mask85.png""],[""img/mask38.png""],[""img/mask79.png""],[""img/mask5.png""],[""img/mask87.png""],[""img/mask51.png""],[""img/mask89.png""],[""img/mask77.png""],[""img/mask29.png""],[""img/mask71.png""],[""img/mask88.png""],[""img/mask90.png""],[""img/mask96.png""],[""img/mask63.png""],[""img/mask83.png""],[""img/mask73.png""],[""img/mask74.png""],[""img/mask65.png""]]]","","[9,13,29,23,21,15,16,30,3,32,33,34,26,4,11,14,35,22,27,28,25,17,0,7,12,1,8,18,10,6,2,5,24,31,19,20]","main","190","many-guess-6"
"","","","","","html-keyboard-response","139","779541","0.0-10.0-0.60","5f2a12f5837dd81e5881b7cc","640759fa512f630a2bdc333d","6408c1857a97bd3946b9d586","null","","null","","","","","","","","","","","","","","","","","","","fixation","",""
"","","","","","color-precision2","140","788125","0.0-10.0-1.60-0.60","5f2a12f5837dd81e5881b7cc","640759fa512f630a2bdc333d","6408c1857a97bd3946b9d586","[5540]","","","[17]","[172]","172","310","126.05439665998654","[126.05439665998654]","[176.05439665998654]","[174]","0","0","1","0","152.35999999998603","1002.640000000014","1000","[[[""img/mask73.png""]]]","","","main","310","color-precision2"
"","","","","","html-keyboard-response","141","788633","0.0-10.0-0.61","5f2a12f5837dd81e5881b7cc","640759fa512f630a2bdc333d","6408c1857a97bd3946b9d586","null","","null","","","","","","","","","","","","","","","","","","","fixation","",""
"","","","","","color-precision2","142","793851","0.0-10.0-1.61-0.61","5f2a12f5837dd81e5881b7cc","640759fa512f630a2bdc333d","6408c1857a97bd3946b9d586","[2767]","","","[19]","[241]","241","246","131.66075279920702","[131.66075279920702]","[245.66075279920702]","[244]","0","0","1","0","152.71999999997206","997","1000","[[[""img/mask51.png""]]]","","","main","246","color-precision2"
"","","","","","html-keyboard-response","143","794362","0.0-10.0-0.62","5f2a12f5837dd81e5881b7cc","640759fa512f630a2bdc333d","6408c1857a97bd3946b9d586","null","","null","","","","","","","","","","","","","","","","","","","fixation","",""
"","","","","","many-guess-6","144","798674","0.0-10.0-1.62-0.62","5f2a12f5837dd81e5881b7cc","640759fa512f630a2bdc333d","6408c1857a97bd3946b9d586","[2616]","","","[14,21,28,0,24,9,17,33,29,8,4,30,34,31,16,1,10,20,13,19,7,22,35,12,2,3,11,5,27,15,18,32,26,25,23,6]","[124,174,164,5,264,304,274,45,74,15,84,214,234,314,144,35,224,344,104,204,284,64,154,184,134,354,194,114,244,25,94,294,324,54,254,334]","124","73","6.295253034372012","[6.295253034372012]","[293.295253034372]","[292]","[300,210,210,120,120,30,120,30,120]","0","36","0","152.19999999995343","18.479999999981374","16","[[[""img/mask90.png""],[""img/mask1.png""],[""img/mask99.png""],[""img/mask51.png""],[""img/mask16.png""],[""img/mask9.png""],[""img/mask67.png""],[""img/mask45.png""],[""img/mask69.png""],[""img/mask79.png""],[""img/mask7.png""],[""img/mask17.png""],[""img/mask6.png""],[""img/mask25.png""],[""img/mask61.png""],[""img/mask97.png""],[""img/mask97.png""],[""img/mask43.png""],[""img/mask35.png""],[""img/mask44.png""],[""img/mask21.png""],[""img/mask85.png""],[""img/mask40.png""],[""img/mask73.png""],[""img/mask96.png""],[""img/mask24.png""],[""img/mask95.png""],[""img/mask40.png""],[""img/mask53.png""],[""img/mask60.png""],[""img/mask47.png""],[""img/mask47.png""],[""img/mask82.png""],[""img/mask33.png""],[""img/mask1.png""],[""img/mask98.png""]]]","","[14,21,28,0,24,9,17,33,29,8,4,30,34,31,16,1,10,20,13,19,7,22,35,12,2,3,11,5,27,15,18,32,26,25,23,6]","main","73","many-guess-6"
"","","","","","html-keyboard-response","145","799185","0.0-10.0-0.63","5f2a12f5837dd81e5881b7cc","640759fa512f630a2bdc333d","6408c1857a97bd3946b9d586","null","","null","","","","","","","","","","","","","","","","","","","fixation","",""
"","","","","","color-precision2","146","809065","0.0-10.0-1.63-0.63","5f2a12f5837dd81e5881b7cc","640759fa512f630a2bdc333d","6408c1857a97bd3946b9d586","[6404]","","","[19]","[310]","310","75","13.627832658830167","[13.627832658830167]","[298.6278326588302]","[297]","0","0","1","0","151.5799999999581","996.859999999986","1000","[[[""img/mask1.png""]]]","","","main","75","color-precision2"
"","","","","","html-keyboard-response","147","809570","0.0-10.0-0.64","5f2a12f5837dd81e5881b7cc","640759fa512f630a2bdc333d","6408c1857a97bd3946b9d586","null","","null","","","","","","","","","","","","","","","","","","","fixation","",""
"","","","","","color-precision2","148","816668","0.0-10.0-1.64-0.64","5f2a12f5837dd81e5881b7cc","640759fa512f630a2bdc333d","6408c1857a97bd3946b9d586","[4229]","","","[26]","[259]","259","114","31.09673455841779","[31.09673455841779]","[277.0967345584178]","[276]","0","0","1","0","151.78000000002794","1002.0600000000559","1000","[[[""img/mask65.png""]]]","","","main","114","color-precision2"
"","","","","","html-keyboard-response","149","817168","0.0-10.0-0.65","5f2a12f5837dd81e5881b7cc","640759fa512f630a2bdc333d","6408c1857a97bd3946b9d586","null","","null","","","","","","","","","","","","","","","","","","","fixation","",""
"","","","","","many-guess-6","150","822795","0.0-10.0-1.65-0.65","5f2a12f5837dd81e5881b7cc","640759fa512f630a2bdc333d","6408c1857a97bd3946b9d586","[4071]","","","[6,21,35,29,19,11,34,27,5,4,14,9,23,13,7,31,3,16,20,32,28,24,15,10,0,18,12,8,30,22,26,33,17,2,1,25]","[12,321,22,251,122,241,311,192,152,2,52,172,261,212,42,72,92,162,142,62,202,351,291,231,32,112,102,281,271,132,331,341,301,221,82,182]","12","68","347.05348971278926","[347.05348971278926]","[279.05348971278926]","[278]","[210,210,210,30,210,30,30,30,210]","0","36","0","152.78000000002794","13.06000000005588","16","[[[""img/mask63.png""],[""img/mask14.png""],[""img/mask59.png""],[""img/mask38.png""],[""img/mask20.png""],[""img/mask55.png""],[""img/mask17.png""],[""img/mask95.png""],[""img/mask52.png""],[""img/mask65.png""],[""img/mask93.png""],[""img/mask90.png""],[""img/mask95.png""],[""img/mask27.png""],[""img/mask63.png""],[""img/mask5.png""],[""img/mask49.png""],[""img/mask33.png""],[""img/mask55.png""],[""img/mask44.png""],[""img/mask19.png""],[""img/mask61.png""],[""img/mask57.png""],[""img/mask23.png""],[""img/mask20.png""],[""img/mask6.png""],[""img/mask85.png""],[""img/mask79.png""],[""img/mask18.png""],[""img/mask78.png""],[""img/mask44.png""],[""img/mask87.png""],[""img/mask11.png""],[""img/mask69.png""],[""img/mask16.png""],[""img/mask42.png""]]]","","[6,21,35,29,19,11,34,27,5,4,14,9,23,13,7,31,3,16,20,32,28,24,15,10,0,18,12,8,30,22,26,33,17,2,1,25]","main","68","many-guess-6"
"","","","","","html-keyboard-response","151","823308","0.0-10.0-0.66","5f2a12f5837dd81e5881b7cc","640759fa512f630a2bdc333d","6408c1857a97bd3946b9d586","null","","null","","","","","","","","","","","","","","","","","","","fixation","",""
"","","","","","color-precision2","152","829602","0.0-10.0-1.66-0.66","5f2a12f5837dd81e5881b7cc","640759fa512f630a2bdc333d","6408c1857a97bd3946b9d586","[3140]","","","[33]","[89]","89","295","27.85522249855723","[27.85522249855723]","[92.85522249855723]","[92]","0","0","1","0","152.11999999999534","1000.4200000000419","1000","[[[""img/mask20.png""]]]","","","main","295","color-precision2"
"","","","","","html-keyboard-response","153","830112","0.0-10.0-0.67","5f2a12f5837dd81e5881b7cc","640759fa512f630a2bdc333d","6408c1857a97bd3946b9d586","null","","null","","","","","","","","","","","","","","","","","","","fixation","",""
"","","","","","color-precision2","154","836535","0.0-10.0-1.67-0.67","5f2a12f5837dd81e5881b7cc","640759fa512f630a2bdc333d","6408c1857a97bd3946b9d586","[3213]","","","[32]","[293]","293","82","13.698589088969722","[13.698589088969722]","[291.6985890889697]","[291]","0","0","1","0","152.52000000001863","996.8000000000466","1000","[[[""img/mask97.png""]]]","","","main","82","color-precision2"
"","","","","","html-keyboard-response","155","837041","0.0-10.0-0.68","5f2a12f5837dd81e5881b7cc","640759fa512f630a2bdc333d","6408c1857a97bd3946b9d586","null","","null","","","","","","","","","","","","","","","","","","","fixation","",""
"","","","","","many-guess-6","156","841662","0.0-10.0-1.68-0.68","5f2a12f5837dd81e5881b7cc","640759fa512f630a2bdc333d","6408c1857a97bd3946b9d586","[2762]","","","[5,16,1,23,2,0,22,33,19,12,30,31,8,32,9,6,3,21,15,10,7,35,29,28,20,4,13,34,25,11,24,26,27,14,18,17]","[217,167,27,336,356,37,236,97,137,47,77,226,117,246,346,17,147,296,256,266,207,306,326,286,197,67,127,107,177,87,7,157,316,57,276,187]","217","154","205.63206645195532","[205.63206645195532]","[51.632066451955325]","[51]","[210,120,120,120,120,300,120,120,210]","0","36","0","152.21999999997206","13.5","16","[[[""img/mask32.png""],[""img/mask63.png""],[""img/mask24.png""],[""img/mask10.png""],[""img/mask26.png""],[""img/mask14.png""],[""img/mask52.png""],[""img/mask55.png""],[""img/mask1.png""],[""img/mask71.png""],[""img/mask37.png""],[""img/mask6.png""],[""img/mask100.png""],[""img/mask99.png""],[""img/mask49.png""],[""img/mask7.png""],[""img/mask88.png""],[""img/mask51.png""],[""img/mask27.png""],[""img/mask62.png""],[""img/mask3.png""],[""img/mask26.png""],[""img/mask7.png""],[""img/mask95.png""],[""img/mask82.png""],[""img/mask85.png""],[""img/mask26.png""],[""img/mask52.png""],[""img/mask25.png""],[""img/mask86.png""],[""img/mask39.png""],[""img/mask99.png""],[""img/mask83.png""],[""img/mask55.png""],[""img/mask100.png""],[""img/mask60.png""]]]","","[5,16,1,23,2,0,22,33,19,12,30,31,8,32,9,6,3,21,15,10,7,35,29,28,20,4,13,34,25,11,24,26,27,14,18,17]","main","154","many-guess-6"
"","","","","","html-keyboard-response","157","842171","0.0-10.0-0.69","5f2a12f5837dd81e5881b7cc","640759fa512f630a2bdc333d","6408c1857a97bd3946b9d586","null","","null","","","","","","","","","","","","","","","","","","","fixation","",""
"","","","","","many-guess-6","158","848064","0.0-10.0-1.69-0.69","5f2a12f5837dd81e5881b7cc","640759fa512f630a2bdc333d","6408c1857a97bd3946b9d586","[3783]","","","[18,4,7,29,34,0,1,13,25,19,16,33,6,26,15,20,27,8,23,35,12,5,21,31,17,22,9,24,3,2,28,32,11,30,10,14]","[126,146,47,346,7,116,106,136,286,326,186,37,206,166,27,17,256,216,86,236,76,196,226,156,276,96,296,306,176,356,336,246,56,66,316,266]","126","294","215.44513487150928","[215.44513487150928]","[281.44513487150925]","[281]","[30,30,210,120,120,210,120,30,210]","0","36","0","152.35999999998603","16.64000000001397","16","[[[""img/mask35.png""],[""img/mask96.png""],[""img/mask66.png""],[""img/mask1.png""],[""img/mask30.png""],[""img/mask22.png""],[""img/mask99.png""],[""img/mask86.png""],[""img/mask76.png""],[""img/mask74.png""],[""img/mask73.png""],[""img/mask3.png""],[""img/mask78.png""],[""img/mask28.png""],[""img/mask63.png""],[""img/mask26.png""],[""img/mask31.png""],[""img/mask10.png""],[""img/mask66.png""],[""img/mask23.png""],[""img/mask67.png""],[""img/mask92.png""],[""img/mask34.png""],[""img/mask27.png""],[""img/mask45.png""],[""img/mask94.png""],[""img/mask43.png""],[""img/mask77.png""],[""img/mask100.png""],[""img/mask82.png""],[""img/mask59.png""],[""img/mask82.png""],[""img/mask81.png""],[""img/mask58.png""],[""img/mask73.png""],[""img/mask8.png""]]]","","[18,4,7,29,34,0,1,13,25,19,16,33,6,26,15,20,27,8,23,35,12,5,21,31,17,22,9,24,3,2,28,32,11,30,10,14]","main","294","many-guess-6"
"","","","","","html-keyboard-response","159","848569","0.0-10.0-0.70","5f2a12f5837dd81e5881b7cc","640759fa512f630a2bdc333d","6408c1857a97bd3946b9d586","null","","null","","","","","","","","","","","","","","","","","","","fixation","",""
"","","","","","many-guess-6","160","853664","0.0-10.0-1.70-0.70","5f2a12f5837dd81e5881b7cc","640759fa512f630a2bdc333d","6408c1857a97bd3946b9d586","[3189]","","","[34,32,25,21,28,29,26,19,22,4,5,9,14,33,24,7,30,23,13,12,0,27,16,17,1,20,10,2,11,18,15,6,35,8,31,3]","[350,210,300,240,190,200,330,140,81,100,230,21,110,270,160,11,280,71,61,320,1,90,31,41,170,220,310,120,51,180,340,290,260,130,250,150]","350","13","349.9469110032568","[349.9469110032568]","[336.9469110032568]","[336]","[210,210,30,120,120,300,30,120,30]","0","36","0","153.06000000005588","18.339999999967404","16","[[[""img/mask44.png""],[""img/mask76.png""],[""img/mask74.png""],[""img/mask65.png""],[""img/mask68.png""],[""img/mask74.png""],[""img/mask75.png""],[""img/mask84.png""],[""img/mask18.png""],[""img/mask27.png""],[""img/mask22.png""],[""img/mask41.png""],[""img/mask68.png""],[""img/mask11.png""],[""img/mask39.png""],[""img/mask83.png""],[""img/mask42.png""],[""img/mask30.png""],[""img/mask28.png""],[""img/mask95.png""],[""img/mask38.png""],[""img/mask27.png""],[""img/mask80.png""],[""img/mask67.png""],[""img/mask3.png""],[""img/mask44.png""],[""img/mask76.png""],[""img/mask47.png""],[""img/mask12.png""],[""img/mask27.png""],[""img/mask27.png""],[""img/mask8.png""],[""img/mask7.png""],[""img/mask100.png""],[""img/mask53.png""],[""img/mask94.png""]]]","","[34,32,25,21,28,29,26,19,22,4,5,9,14,33,24,7,30,23,13,12,0,27,16,17,1,20,10,2,11,18,15,6,35,8,31,3]","main","13","many-guess-6"
"","","","","","html-keyboard-response","161","854168","0.0-10.0-0.71","5f2a12f5837dd81e5881b7cc","640759fa512f630a2bdc333d","6408c1857a97bd3946b9d586","null","","null","","","","","","","","","","","","","","","","","","","fixation","",""
"","","","","","color-precision2","162","861758","0.0-10.0-1.71-0.71","5f2a12f5837dd81e5881b7cc","640759fa512f630a2bdc333d","6408c1857a97bd3946b9d586","[4594]","","","[14]","[6]","6","174","163.8123006999064","[163.8123006999064]","[349.81230069990636]","[349]","0","0","1","0","152.80000000004657","997.0799999999581","1000","[[[""img/mask10.png""]]]","","","main","174","color-precision2"
"","","","","","html-keyboard-response","163","862269","0.0-10.0-0.72","5f2a12f5837dd81e5881b7cc","640759fa512f630a2bdc333d","6408c1857a97bd3946b9d586","null","","null","","","","","","","","","","","","","","","","","","","fixation","",""
"","","","","","color-precision2","164","872286","0.0-10.0-1.72-0.72","5f2a12f5837dd81e5881b7cc","640759fa512f630a2bdc333d","6408c1857a97bd3946b9d586","[7337]","","","[27]","[177]","177","246","64.59228500939537","[64.59228500939537]","[178.59228500939537]","[177]","0","0","1","0","152.81999999994878","1000.0999999999767","1000","[[[""img/mask67.png""]]]","","","main","246","color-precision2"
"","","","","","html-keyboard-response","165","872801","0.0-10.0-0.73","5f2a12f5837dd81e5881b7cc","640759fa512f630a2bdc333d","6408c1857a97bd3946b9d586","null","","null","","","","","","","","","","","","","","","","","","","fixation","",""
"","","","","","color-precision2","166","880023","0.0-10.0-1.73-0.73","5f2a12f5837dd81e5881b7cc","640759fa512f630a2bdc333d","6408c1857a97bd3946b9d586","[4225]","","","[11]","[64]","64","76","141.80883390301213","[141.80883390301213]","[65.80883390301213]","[64]","0","0","1","0","152.45999999996275","1002.7399999999907","1000","[[[""img/mask67.png""]]]","","","main","76","color-precision2"
"","","","","","html-keyboard-response","167","880526","0.0-10.0-0.74","5f2a12f5837dd81e5881b7cc","640759fa512f630a2bdc333d","6408c1857a97bd3946b9d586","null","","null","","","","","","","","","","","","","","","","","","","fixation","",""
"","","","","","color-precision2","168","887798","0.0-10.0-1.74-0.74","5f2a12f5837dd81e5881b7cc","640759fa512f630a2bdc333d","6408c1857a97bd3946b9d586","[4709]","","","[27]","[302]","302","45","338.2432847952711","[338.2432847952711]","[293.2432847952711]","[293]","0","0","1","0","152.45999999996275","999.7399999999907","1000","[[[""img/mask40.png""]]]","","","main","45","color-precision2"
"","","","","","html-keyboard-response","169","888304","0.0-10.0-0.75","5f2a12f5837dd81e5881b7cc","640759fa512f630a2bdc333d","6408c1857a97bd3946b9d586","null","","null","","","","","","","","","","","","","","","","","","","fixation","",""
"","","","","","many-guess-6","170","895125","0.0-10.0-1.75-0.75","5f2a12f5837dd81e5881b7cc","640759fa512f630a2bdc333d","6408c1857a97bd3946b9d586","[5189]","","","[4,28,26,17,22,32,30,9,25,24,34,33,15,16,13,12,2,27,20,21,18,1,35,10,0,19,14,6,8,3,31,11,23,29,5,7]","[153,14,213,203,343,123,133,293,64,263,163,24,143,94,333,74,104,353,323,183,273,223,283,193,303,84,114,253,173,313,4,34,44,233,243,54]","153","48","88.60334098289871","[88.60334098289871]","[40.603340982898715]","[39]","[120,300,30,300,210,210,300,210,120]","0","36","0","153.02000000001863","15.300000000046566","16","[[[""img/mask61.png""],[""img/mask32.png""],[""img/mask46.png""],[""img/mask72.png""],[""img/mask69.png""],[""img/mask58.png""],[""img/mask97.png""],[""img/mask22.png""],[""img/mask49.png""],[""img/mask84.png""],[""img/mask83.png""],[""img/mask66.png""],[""img/mask93.png""],[""img/mask27.png""],[""img/mask38.png""],[""img/mask39.png""],[""img/mask62.png""],[""img/mask67.png""],[""img/mask5.png""],[""img/mask8.png""],[""img/mask47.png""],[""img/mask92.png""],[""img/mask64.png""],[""img/mask50.png""],[""img/mask57.png""],[""img/mask64.png""],[""img/mask38.png""],[""img/mask17.png""],[""img/mask87.png""],[""img/mask85.png""],[""img/mask74.png""],[""img/mask82.png""],[""img/mask8.png""],[""img/mask70.png""],[""img/mask13.png""],[""img/mask9.png""]]]","","[4,28,26,17,22,32,30,9,25,24,34,33,15,16,13,12,2,27,20,21,18,1,35,10,0,19,14,6,8,3,31,11,23,29,5,7]","main","48","many-guess-6"
"","","","","","html-keyboard-response","171","895635","0.0-10.0-0.76","5f2a12f5837dd81e5881b7cc","640759fa512f630a2bdc333d","6408c1857a97bd3946b9d586","null","","null","","","","","","","","","","","","","","","","","","","fixation","",""
"","","","","","color-precision2","172","901972","0.0-10.0-1.76-0.76","5f2a12f5837dd81e5881b7cc","640759fa512f630a2bdc333d","6408c1857a97bd3946b9d586","[3793]","","","[8]","[351]","351","175","154.31296590541615","[154.31296590541615]","[339.31296590541615]","[338]","0","0","1","0","152.31999999994878","1002.5999999999767","1000","[[[""img/mask92.png""]]]","","","main","175","color-precision2"
"","","","","","html-keyboard-response","173","902488","0.0-10.0-0.77","5f2a12f5837dd81e5881b7cc","640759fa512f630a2bdc333d","6408c1857a97bd3946b9d586","null","","null","","","","","","","","","","","","","","","","","","","fixation","",""
"","","","","","color-precision2","174","911248","0.0-10.0-1.77-0.77","5f2a12f5837dd81e5881b7cc","640759fa512f630a2bdc333d","6408c1857a97bd3946b9d586","[5813]","","","[4]","[205]","205","53","253.82517525066592","[253.82517525066592]","[200.82517525066592]","[201]","0","0","1","0","152.5799999999581","999.859999999986","1000","[[[""img/mask77.png""]]]","","","main","53","color-precision2"
"","","","","","html-keyboard-response","175","911755","0.0-10.0-0.78","5f2a12f5837dd81e5881b7cc","640759fa512f630a2bdc333d","6408c1857a97bd3946b9d586","null","","null","","","","","","","","","","","","","","","","","","","fixation","",""
"","","","","","many-guess-6","176","916506","0.0-10.0-1.78-0.78","5f2a12f5837dd81e5881b7cc","640759fa512f630a2bdc333d","6408c1857a97bd3946b9d586","[3277]","","","[25,22,32,31,33,3,30,23,14,4,12,29,28,18,20,11,10,15,16,34,26,27,21,35,1,7,6,5,17,0,8,9,24,2,13,19]","[181,341,101,311,91,281,321,31,201,11,211,191,351,261,121,251,51,241,81,301,151,71,111,2,231,141,161,41,271,171,291,221,131,61,331,21]","181","259","113.07065425613395","[113.07065425613395]","[214.07065425613393]","[212]","[120,120,300,300,120,30,210,120,210]","0","36","0","152.64000000001397","15.92000000004191","16","[[[""img/mask64.png""],[""img/mask84.png""],[""img/mask36.png""],[""img/mask70.png""],[""img/mask20.png""],[""img/mask61.png""],[""img/mask75.png""],[""img/mask1.png""],[""img/mask22.png""],[""img/mask83.png""],[""img/mask22.png""],[""img/mask21.png""],[""img/mask73.png""],[""img/mask24.png""],[""img/mask10.png""],[""img/mask47.png""],[""img/mask35.png""],[""img/mask13.png""],[""img/mask6.png""],[""img/mask7.png""],[""img/mask19.png""],[""img/mask76.png""],[""img/mask68.png""],[""img/mask40.png""],[""img/mask8.png""],[""img/mask25.png""],[""img/mask73.png""],[""img/mask78.png""],[""img/mask98.png""],[""img/mask66.png""],[""img/mask97.png""],[""img/mask33.png""],[""img/mask45.png""],[""img/mask7.png""],[""img/mask40.png""],[""img/mask47.png""]]]","","[25,22,32,31,33,3,30,23,14,4,12,29,28,18,20,11,10,15,16,34,26,27,21,35,1,7,6,5,17,0,8,9,24,2,13,19]","main","259","many-guess-6"
