"success","timeout","failed_images","failed_audio","failed_video","trial_type","trial_index","time_elapsed","internal_node_id","subject_id","study_id","session_id","rt","stimulus","response","position_of_items","colors_of_items","color_of_target","wheel_spin","response_angle","physical_response_angle","reported_color_angle","reported_color_discrete","locs","which_test","set_size","wheel_num_options","actual_mask_duration","actual_stim_duration","CMDispTime","maskArray","maskRotation","item_positions","task","randomSpinAmount","mainTask"
"true","false","[]","[]","[]","preload","0","1056","0.0-0.0","5f8bad1242efeb2f49156f51","640759fa512f630a2bdc333d","640785c94ef0b43ee793113d","","","","","","","","","","","","","","","","","","","","","","","",""
"true","","","","","fullscreen","1","271805","0.0-1.0","5f8bad1242efeb2f49156f51","640759fa512f630a2bdc333d","640785c94ef0b43ee793113d","","","","","","","","","","","","","","","","","","","","","","","",""
"","","","","","html-keyboard-response","2","276069","0.0-2.0","5f8bad1242efeb2f49156f51","640759fa512f630a2bdc333d","640785c94ef0b43ee793113d","4263.900000095367","What a beautiful Tuesday to do some awesome science! </p> <p>  </p><p> </p>
    By completing this survey or questionnaire, you are consenting to be in this research study. </p>
    Your participation is voluntary and you can stop at any time.<p> [Press any key to continue] </p>"," ","","","","","","","","","","","","","","","","","","","","",""
"","","","","","html-keyboard-response","3","286070","0.0-3.0","5f8bad1242efeb2f49156f51","640759fa512f630a2bdc333d","640785c94ef0b43ee793113d","5261.900000095367","
    <div style='width: 1000px;'>
    <div style='float: center;'><img src='img/TaskInstructions1.png'></img>
    </div>
    "," ","","","","","","","","","","","","","","","","","","","","",""
"","","","","","html-keyboard-response","4","286726","0.0-4.0","5f8bad1242efeb2f49156f51","640759fa512f630a2bdc333d","640785c94ef0b43ee793113d","655.0999999046326","
    <div style='width: 1000px;'>
    <div style='float: center;'><img src='img/TaskInstructions1.png'></img>
    </div>
    "," ","","","","","","","","","","","","","","","","","","","","",""
"","","","","","html-keyboard-response","5","296729","0.0-5.0","5f8bad1242efeb2f49156f51","640759fa512f630a2bdc333d","640785c94ef0b43ee793113d","null","
    <div style='width: 1000px;'>
    <div style='float: center;'><img src='img/TaskInstructions2.png'></img>
    </div>
    ","null","","","","","","","","","","","","","","","","","","","","",""
"","","","","","html-keyboard-response","6","299455","0.0-6.0","5f8bad1242efeb2f49156f51","640759fa512f630a2bdc333d","640785c94ef0b43ee793113d","2725.9000000953674","
    <div style='width: 1000px;'>
    <div style='float: center;'><img src='img/TaskInstructions2.png'></img>
    </div>
    "," ","","","","","","","","","","","","","","","","","","","","",""
"","","","","","video-keyboard-response","7","317617","0.0-7.0","5f8bad1242efeb2f49156f51","640759fa512f630a2bdc333d","640785c94ef0b43ee793113d","18160.5","[""video/TaskInstructions3.mp4""]"," ","","","","","","","","","","","","","","","","","","","","",""
"","","","","","image-keyboard-response","8","321600","0.0-8.0-0.0","5f8bad1242efeb2f49156f51","640759fa512f630a2bdc333d","640785c94ef0b43ee793113d","3981.800000190735","img/training1.png"," ","","","","","","","","","","","","","","","","","","","","",""
"","","","","","color-precision2","9","330061","0.0-8.0-1.0-0.0","5f8bad1242efeb2f49156f51","640759fa512f630a2bdc333d","640785c94ef0b43ee793113d","[2554.5]","","","[4]","[216]","216","12","205.81655119242697","[205.81655119242697]","[193.81655119242697]","[193]","0","0","1","0","499.80099999997765","994.0480000953539","1000","","","0","training","",""
"","","","","","image-keyboard-response","10","335097","0.0-8.0-0.1","5f8bad1242efeb2f49156f51","640759fa512f630a2bdc333d","640785c94ef0b43ee793113d","5034.899999856949","img/training2.png"," ","","","","","","","","","","","","","","","","","","","","",""
"","","","","","many-guess-6","11","344433","0.0-8.0-1.1-0.1","5f8bad1242efeb2f49156f51","640759fa512f630a2bdc333d","640785c94ef0b43ee793113d","[2943]","","","[2,4,3]","[137,50,98]","137","27","85.66404091617609","[85.66404091617609]","[58.66404091617609]","[57]","[210,120,30,210,120,120,210,120,30,210,120,210,210,120,30,300,210,120,300,300,300,300,300,120,210,120,30,210,210,120,300,30,210,210,120,210]","0","3","0","999.7810000953614","995.9380000476958","1000","[[[""img/mask3.png""],[""img/mask10.png""],[""img/mask87.png""]]]","","[2,4,3]","training","",""
"","","","","","image-keyboard-response","12","348859","0.0-8.0-0.2","5f8bad1242efeb2f49156f51","640759fa512f630a2bdc333d","640785c94ef0b43ee793113d","4425","img/training3.png"," ","","","","","","","","","","","","","","","","","","","","",""
"","","","","","[""many-guess-6""]","13","356650","0.0-8.0-1.2-0.2","5f8bad1242efeb2f49156f51","640759fa512f630a2bdc333d","640785c94ef0b43ee793113d","[3326.9000000953674]","","","[19,18,8,23,2]","[341,98,136,54,356]","341","133","122.41388454343468","[122.41388454343468]","[349.4138845434347]","[348]","[300,210,120,120,300,120,120,120,300,120,210,120,30,120,300,30,30,300,210,300,210,120,210,300,120,300,30,30,120,300,300,120,30,210,30,120]","0","5","0","499.6070001430344","499.1490001907223","500","[[[""img/mask20.png""],[""img/mask7.png""],[""img/mask62.png""],[""img/mask35.png""],[""img/mask39.png""]]]","","[19,18,8,23,2]","training","",""
"","","","","","image-keyboard-response","14","360388","0.0-8.0-0.3","5f8bad1242efeb2f49156f51","640759fa512f630a2bdc333d","640785c94ef0b43ee793113d","3737.2999999523163","img/training4.png"," ","","","","","","","","","","","","","","","","","","","","",""
"","","","","","[""many-guess-6""]","15","365733","0.0-8.0-1.3-0.3","5f8bad1242efeb2f49156f51","640759fa512f630a2bdc333d","640785c94ef0b43ee793113d","[2110.2999999523163]","","","[30,16,28,15,27,5,33,31,29,0]","[239,39,208,110,132,145,86,71,194,161]","239","235","36.25034062907251","[36.25034062907251]","[161.25034062907253]","[160]","[30,300,300,210,30,210,210,210,210,210,300,30,30,120,120,30,210,300,300,300,30,210,300,120,30,120,210,120,300,120,300,30,30,210,210,30]","0","10","0","132.954000000027","132.49499999999534","132","[[[""img/mask22.png""],[""img/mask1.png""],[""img/mask7.png""],[""img/mask65.png""],[""img/mask21.png""],[""img/mask75.png""],[""img/mask98.png""],[""img/mask31.png""],[""img/mask21.png""],[""img/mask29.png""]]]","","[30,16,28,15,27,5,33,31,29,0]","training","",""
"","","","","","image-keyboard-response","16","369150","0.0-8.0-0.4","5f8bad1242efeb2f49156f51","640759fa512f630a2bdc333d","640785c94ef0b43ee793113d","3416.899999856949","img/training5.png"," ","","","","","","","","","","","","","","","","","","","","",""
"","","","","","[""many-guess-6""]","17","374540","0.0-8.0-1.4-0.4","5f8bad1242efeb2f49156f51","640759fa512f630a2bdc333d","640785c94ef0b43ee793113d","[2183.7000000476837]","","","[18,12,28,16,8,9,10,31,25,4,32,21,23,3,35,0,20,33,17,15,22,14,26,2,6,1,30,24,13,29,7,5,19,27,34,11]","[136,17,96,286,67,246,296,306,47,7,37,346,186,57,256,146,27,316,116,106,226,156,266,326,166,216,276,206,356,236,336,176,87,196,77,126]","136","302","293.7098375068134","[293.7098375068134]","[351.7098375068134]","[353]","[300,30,30,300,210,300,120,300,210,210,120,120,120,210,300,30,30,120,30,30,300,30,210,210,120,210,210,30,120,30,300,210,300,210,120,300]","0","36","0","132.9310001907288","7.930000095395371","16","[[[""img/mask39.png""],[""img/mask53.png""],[""img/mask39.png""],[""img/mask21.png""],[""img/mask26.png""],[""img/mask83.png""],[""img/mask67.png""],[""img/mask48.png""],[""img/mask37.png""],[""img/mask58.png""],[""img/mask14.png""],[""img/mask37.png""],[""img/mask79.png""],[""img/mask24.png""],[""img/mask73.png""],[""img/mask66.png""],[""img/mask93.png""],[""img/mask88.png""],[""img/mask50.png""],[""img/mask10.png""],[""img/mask58.png""],[""img/mask100.png""],[""img/mask84.png""],[""img/mask57.png""],[""img/mask42.png""],[""img/mask55.png""],[""img/mask15.png""],[""img/mask50.png""],[""img/mask53.png""],[""img/mask13.png""],[""img/mask7.png""],[""img/mask23.png""],[""img/mask99.png""],[""img/mask39.png""],[""img/mask36.png""],[""img/mask97.png""]]]","","[18,12,28,16,8,9,10,31,25,4,32,21,23,3,35,0,20,33,17,15,22,14,26,2,6,1,30,24,13,29,7,5,19,27,34,11]","training","",""
"","","","","","image-keyboard-response","18","377238","0.0-9.0","5f8bad1242efeb2f49156f51","640759fa512f630a2bdc333d","640785c94ef0b43ee793113d","2697.2999999523163","[""img/endTraining.png""]"," ","","","","","","","","","","","","","","","","","","","","",""
"","","","","","html-keyboard-response","19","377743","0.0-10.0-0.0","5f8bad1242efeb2f49156f51","640759fa512f630a2bdc333d","640785c94ef0b43ee793113d","null","","null","","","","","","","","","","","","","","","","","","","fixation","",""
"","","","","","many-guess-6","20","383111","0.0-10.0-1.0-0.0","5f8bad1242efeb2f49156f51","640759fa512f630a2bdc333d","640785c94ef0b43ee793113d","[2504.9000000953674]","","","[29,24,17,12,1,16,14,6,2,35,18,20,26,7,11,30,15,27,31,28,0,8,21,10,33,3,25,9,22,23,4,13,19,32,34,5]","[316,107,356,306,256,27,336,97,156,246,166,47,206,77,37,266,226,216,296,176,126,136,17,286,236,67,196,346,57,186,117,7,146,276,87,326]","316","358","72.35668298756336","[72.35668298756336]","[74.35668298756337]","[73]","[210,120,210,120,120,30,30,210,30]","0","36","0","149.68500004766975","8.207999999984168","16","[[[""img/mask26.png""],[""img/mask68.png""],[""img/mask37.png""],[""img/mask64.png""],[""img/mask38.png""],[""img/mask41.png""],[""img/mask41.png""],[""img/mask1.png""],[""img/mask27.png""],[""img/mask96.png""],[""img/mask18.png""],[""img/mask71.png""],[""img/mask52.png""],[""img/mask32.png""],[""img/mask30.png""],[""img/mask55.png""],[""img/mask82.png""],[""img/mask16.png""],[""img/mask7.png""],[""img/mask83.png""],[""img/mask94.png""],[""img/mask23.png""],[""img/mask11.png""],[""img/mask6.png""],[""img/mask81.png""],[""img/mask46.png""],[""img/mask52.png""],[""img/mask40.png""],[""img/mask28.png""],[""img/mask82.png""],[""img/mask28.png""],[""img/mask75.png""],[""img/mask71.png""],[""img/mask27.png""],[""img/mask40.png""],[""img/mask73.png""]]]","","[29,24,17,12,1,16,14,6,2,35,18,20,26,7,11,30,15,27,31,28,0,8,21,10,33,3,25,9,22,23,4,13,19,32,34,5]","main","358","many-guess-6"
"","","","","","html-keyboard-response","21","383616","0.0-10.0-0.1","5f8bad1242efeb2f49156f51","640759fa512f630a2bdc333d","640785c94ef0b43ee793113d","null","","null","","","","","","","","","","","","","","","","","","","fixation","",""
"","","","","","color-precision2","22","390990","0.0-10.0-1.1-0.1","5f8bad1242efeb2f49156f51","640759fa512f630a2bdc333d","640785c94ef0b43ee793113d","[2650.5]","","","[4]","[26]","26","339","359.42685982115654","[359.42685982115654]","[20.42685982115654]","[20]","0","0","1","0","149.68800000002375","1007.5179999999818","1000","[[[""img/mask52.png""]]]","","","main","339","color-precision2"
"","","","","","html-keyboard-response","23","391490","0.0-10.0-0.2","5f8bad1242efeb2f49156f51","640759fa512f630a2bdc333d","640785c94ef0b43ee793113d","null","","null","","","","","","","","","","","","","","","","","","","fixation","",""
"","","","","","color-precision2","24","396938","0.0-10.0-1.2-0.2","5f8bad1242efeb2f49156f51","640759fa512f630a2bdc333d","640785c94ef0b43ee793113d","[1849.4000000953674]","","","[34]","[249]","249","123","9.3712548754146","[9.3712548754146]","[246.3712548754146]","[245]","0","0","1","0","149.84400009538513","994.9780000476749","1000","[[[""img/mask10.png""]]]","","","main","123","color-precision2"
"","","","","","html-keyboard-response","25","397454","0.0-10.0-0.3","5f8bad1242efeb2f49156f51","640759fa512f630a2bdc333d","640785c94ef0b43ee793113d","null","","null","","","","","","","","","","","","","","","","","","","fixation","",""
"","","","","","color-precision2","26","402429","0.0-10.0-1.3-0.3","5f8bad1242efeb2f49156f51","640759fa512f630a2bdc333d","640785c94ef0b43ee793113d","[1473.2999999523163]","","","[6]","[37]","37","315","354.3296738693925","[354.3296738693925]","[39.32967386939248]","[39]","0","0","1","0","149.8090001907549","1006.2440000953502","1000","[[[""img/mask22.png""]]]","","","main","315","color-precision2"
"","","","","","html-keyboard-response","27","402930","0.0-10.0-0.4","5f8bad1242efeb2f49156f51","640759fa512f630a2bdc333d","640785c94ef0b43ee793113d","null","","null","","","","","","","","","","","","","","","","","","","fixation","",""
"","","","","","color-precision2","28","408321","0.0-10.0-1.4-0.4","5f8bad1242efeb2f49156f51","640759fa512f630a2bdc333d","640785c94ef0b43ee793113d","[1882.2999999523163]","","","[25]","[270]","270","196","109.84432979187284","[109.84432979187284]","[273.84432979187284]","[272]","0","0","1","0","149.8440001430572","992.1800001430674","1000","[[[""img/mask36.png""]]]","","","main","196","color-precision2"
"","","","","","html-keyboard-response","29","408822","0.0-10.0-0.5","5f8bad1242efeb2f49156f51","640759fa512f630a2bdc333d","640785c94ef0b43ee793113d","null","","null","","","","","","","","","","","","","","","","","","","fixation","",""
"","","","","","color-precision2","30","413490","0.0-10.0-1.5-0.5","5f8bad1242efeb2f49156f51","640759fa512f630a2bdc333d","640785c94ef0b43ee793113d","[1934.5]","","","[11]","[238]","238","232","107.431567965828","[107.431567965828]","[235.43156796582798]","[233]","0","0","1","0","149.7230000953423","1008.2560001430684","1000","[[[""img/mask64.png""]]]","","","main","232","color-precision2"
"","","","","","html-keyboard-response","31","414001","0.0-10.0-0.6","5f8bad1242efeb2f49156f51","640759fa512f630a2bdc333d","640785c94ef0b43ee793113d","null","","null","","","","","","","","","","","","","","","","","","","fixation","",""
"","","","","","many-guess-6","32","417630","0.0-10.0-1.6-0.6","5f8bad1242efeb2f49156f51","640759fa512f630a2bdc333d","640785c94ef0b43ee793113d","[1808.3000001907349]","","","[7,4,5,14,31,9,8,13,20,10,28,33,11,18,15,29,32,24,21,34,3,16,2,30,19,23,26,0,35,12,22,6,1,17,25,27]","[194,324,204,55,15,105,125,95,85,284,274,314,334,154,5,344,184,294,65,304,25,35,354,164,115,264,174,224,75,134,254,234,45,244,214,144]","194","252","270.11864696418934","[270.11864696418934]","[18.118646964189338]","[18]","[300,120,210,210,120,30,300,210,210]","0","36","0","149.71100019075675","25.020000095362775","16","[[[""img/mask89.png""],[""img/mask19.png""],[""img/mask96.png""],[""img/mask51.png""],[""img/mask7.png""],[""img/mask40.png""],[""img/mask6.png""],[""img/mask89.png""],[""img/mask41.png""],[""img/mask47.png""],[""img/mask6.png""],[""img/mask83.png""],[""img/mask67.png""],[""img/mask23.png""],[""img/mask91.png""],[""img/mask13.png""],[""img/mask11.png""],[""img/mask14.png""],[""img/mask41.png""],[""img/mask90.png""],[""img/mask42.png""],[""img/mask84.png""],[""img/mask94.png""],[""img/mask12.png""],[""img/mask81.png""],[""img/mask8.png""],[""img/mask33.png""],[""img/mask23.png""],[""img/mask22.png""],[""img/mask70.png""],[""img/mask70.png""],[""img/mask93.png""],[""img/mask24.png""],[""img/mask55.png""],[""img/mask27.png""],[""img/mask9.png""]]]","","[7,4,5,14,31,9,8,13,20,10,28,33,11,18,15,29,32,24,21,34,3,16,2,30,19,23,26,0,35,12,22,6,1,17,25,27]","main","252","many-guess-6"
"","","","","","html-keyboard-response","33","418132","0.0-10.0-0.7","5f8bad1242efeb2f49156f51","640759fa512f630a2bdc333d","640785c94ef0b43ee793113d","null","","null","","","","","","","","","","","","","","","","","","","fixation","",""
"","","","","","many-guess-6","34","422007","0.0-10.0-1.7-0.7","5f8bad1242efeb2f49156f51","640759fa512f630a2bdc333d","640785c94ef0b43ee793113d","[2334.7999999523163]","","","[23,22,11,4,12,27,10,7,21,31,32,20,15,9,33,28,29,16,13,14,19,2,5,0,8,24,18,35,1,25,3,26,34,30,17,6]","[106,306,196,326,296,256,176,86,96,336,36,206,116,146,276,236,17,166,356,286,266,126,76,27,46,226,346,56,246,216,316,7,66,136,186,156]","106","342","65.52750811795025","[65.52750811795025]","[83.52750811795022]","[82]","[120,210,30,120,300,30,210,300,210]","0","36","0","149.84799999999814","10.894000047701411","16","[[[""img/mask39.png""],[""img/mask63.png""],[""img/mask52.png""],[""img/mask76.png""],[""img/mask91.png""],[""img/mask29.png""],[""img/mask77.png""],[""img/mask50.png""],[""img/mask30.png""],[""img/mask45.png""],[""img/mask46.png""],[""img/mask22.png""],[""img/mask96.png""],[""img/mask17.png""],[""img/mask58.png""],[""img/mask9.png""],[""img/mask13.png""],[""img/mask65.png""],[""img/mask57.png""],[""img/mask8.png""],[""img/mask55.png""],[""img/mask3.png""],[""img/mask3.png""],[""img/mask22.png""],[""img/mask58.png""],[""img/mask100.png""],[""img/mask13.png""],[""img/mask53.png""],[""img/mask68.png""],[""img/mask23.png""],[""img/mask23.png""],[""img/mask72.png""],[""img/mask57.png""],[""img/mask69.png""],[""img/mask64.png""],[""img/mask35.png""]]]","","[23,22,11,4,12,27,10,7,21,31,32,20,15,9,33,28,29,16,13,14,19,2,5,0,8,24,18,35,1,25,3,26,34,30,17,6]","main","342","many-guess-6"
"","","","","","html-keyboard-response","35","422521","0.0-10.0-0.8","5f8bad1242efeb2f49156f51","640759fa512f630a2bdc333d","640785c94ef0b43ee793113d","null","","null","","","","","","","","","","","","","","","","","","","fixation","",""
"","","","","","many-guess-6","36","426061","0.0-10.0-1.8-0.8","5f8bad1242efeb2f49156f51","640759fa512f630a2bdc333d","640785c94ef0b43ee793113d","[1656]","","","[9,19,2,35,11,27,17,31,30,13,5,12,15,7,14,33,20,4,23,8,0,34,25,32,10,6,1,3,24,16,28,21,18,22,29,26]","[11,121,101,231,31,301,341,291,161,71,351,51,141,61,151,181,41,171,251,311,111,2,91,321,81,331,221,131,211,281,21,241,261,201,191,271]","11","165","123.20811372685706","[123.20811372685706]","[318.20811372685705]","[316]","[120,120,120,210,30,210,120,120,30]","0","36","0","149.81900014303392","22.650000143039506","16","[[[""img/mask12.png""],[""img/mask60.png""],[""img/mask83.png""],[""img/mask8.png""],[""img/mask11.png""],[""img/mask66.png""],[""img/mask80.png""],[""img/mask83.png""],[""img/mask28.png""],[""img/mask75.png""],[""img/mask83.png""],[""img/mask15.png""],[""img/mask31.png""],[""img/mask6.png""],[""img/mask47.png""],[""img/mask4.png""],[""img/mask3.png""],[""img/mask2.png""],[""img/mask12.png""],[""img/mask64.png""],[""img/mask17.png""],[""img/mask96.png""],[""img/mask29.png""],[""img/mask45.png""],[""img/mask48.png""],[""img/mask43.png""],[""img/mask12.png""],[""img/mask10.png""],[""img/mask53.png""],[""img/mask15.png""],[""img/mask20.png""],[""img/mask72.png""],[""img/mask60.png""],[""img/mask68.png""],[""img/mask15.png""],[""img/mask38.png""]]]","","[9,19,2,35,11,27,17,31,30,13,5,12,15,7,14,33,20,4,23,8,0,34,25,32,10,6,1,3,24,16,28,21,18,22,29,26]","main","165","many-guess-6"
"","","","","","html-keyboard-response","37","426562","0.0-10.0-0.9","5f8bad1242efeb2f49156f51","640759fa512f630a2bdc333d","640785c94ef0b43ee793113d","null","","null","","","","","","","","","","","","","","","","","","","fixation","",""
"","","","","","color-precision2","38","430977","0.0-10.0-1.9-0.9","5f8bad1242efeb2f49156f51","640759fa512f630a2bdc333d","640785c94ef0b43ee793113d","[1038.9000000953674]","","","[17]","[179]","179","213","32.804983675793096","[32.804983675793096]","[179.8049836757931]","[179]","0","0","1","0","149.84900009538978","999.5900001907139","1000","[[[""img/mask99.png""]]]","","","main","213","color-precision2"
"","","","","","html-keyboard-response","39","431478","0.0-10.0-0.10","5f8bad1242efeb2f49156f51","640759fa512f630a2bdc333d","640785c94ef0b43ee793113d","null","","null","","","","","","","","","","","","","","","","","","","fixation","",""
"","","","","","color-precision2","40","435732","0.0-10.0-1.10-0.10","5f8bad1242efeb2f49156f51","640759fa512f630a2bdc333d","640785c94ef0b43ee793113d","[976.9000000953674]","","","[14]","[125]","125","339","106.21706875745843","[106.21706875745843]","[127.21706875745843]","[125]","0","0","1","0","149.53200000000652","993.0740000476944","1000","[[[""img/mask60.png""]]]","","","main","339","color-precision2"
"","","","","","html-keyboard-response","41","436233","0.0-10.0-0.11","5f8bad1242efeb2f49156f51","640759fa512f630a2bdc333d","640785c94ef0b43ee793113d","null","","null","","","","","","","","","","","","","","","","","","","fixation","",""
"","","","","","color-precision2","42","439338","0.0-10.0-1.11-0.11","5f8bad1242efeb2f49156f51","640759fa512f630a2bdc333d","640785c94ef0b43ee793113d","[783.2999999523163]","","","[7]","[44]","44","184","227.51756014426462","[227.51756014426462]","[43.51756014426462]","[44]","0","0","1","0","149.66200004768325","1002.4030001430656","1000","[[[""img/mask43.png""]]]","","","main","184","color-precision2"
"","","","","","html-keyboard-response","43","439839","0.0-10.0-0.12","5f8bad1242efeb2f49156f51","640759fa512f630a2bdc333d","640785c94ef0b43ee793113d","null","","null","","","","","","","","","","","","","","","","","","","fixation","",""
"","","","","","color-precision2","44","443957","0.0-10.0-1.12-0.12","5f8bad1242efeb2f49156f51","640759fa512f630a2bdc333d","640785c94ef0b43ee793113d","[1435.1000001430511]","","","[35]","[313]","313","214","171.69413381251402","[171.69413381251402]","[317.694133812514]","[317]","0","0","1","0","149.76600004767533","996.4060000000172","1000","[[[""img/mask9.png""]]]","","","main","214","color-precision2"
"","","","","","html-keyboard-response","45","444458","0.0-10.0-0.13","5f8bad1242efeb2f49156f51","640759fa512f630a2bdc333d","640785c94ef0b43ee793113d","null","","null","","","","","","","","","","","","","","","","","","","fixation","",""
"","","","","","color-precision2","46","448693","0.0-10.0-1.13-0.13","5f8bad1242efeb2f49156f51","640759fa512f630a2bdc333d","640785c94ef0b43ee793113d","[1155.0999999046326]","","","[5]","[11]","11","192","199.94031977607798","[199.94031977607798]","[7.940319776077985]","[8]","0","0","1","0","149.54400009533856","1004.2840001907316","1000","[[[""img/mask5.png""]]]","","","main","192","color-precision2"
"","","","","","html-keyboard-response","47","449194","0.0-10.0-0.14","5f8bad1242efeb2f49156f51","640759fa512f630a2bdc333d","640785c94ef0b43ee793113d","null","","null","","","","","","","","","","","","","","","","","","","fixation","",""
"","","","","","many-guess-6","48","452364","0.0-10.0-1.14-0.14","5f8bad1242efeb2f49156f51","640759fa512f630a2bdc333d","640785c94ef0b43ee793113d","[1542.5]","","","[3,2,7,12,23,31,8,32,26,9,0,22,15,19,13,6,30,16,10,35,1,18,28,21,34,14,33,11,24,20,27,17,25,5,29,4]","[165,205,215,355,145,195,16,315,325,175,125,115,65,345,255,305,245,6,275,295,155,265,75,335,35,85,285,45,55,225,135,185,26,105,95,235]","165","15","26.76416603790261","[26.76416603790261]","[11.764166037902609]","[10]","[30,30,210,210,30,210,30,300,300]","0","36","0","149.9189999999944","32.03200009535067","16","[[[""img/mask43.png""],[""img/mask29.png""],[""img/mask49.png""],[""img/mask65.png""],[""img/mask41.png""],[""img/mask28.png""],[""img/mask36.png""],[""img/mask15.png""],[""img/mask91.png""],[""img/mask10.png""],[""img/mask68.png""],[""img/mask56.png""],[""img/mask36.png""],[""img/mask33.png""],[""img/mask28.png""],[""img/mask57.png""],[""img/mask95.png""],[""img/mask56.png""],[""img/mask44.png""],[""img/mask10.png""],[""img/mask40.png""],[""img/mask55.png""],[""img/mask35.png""],[""img/mask21.png""],[""img/mask34.png""],[""img/mask82.png""],[""img/mask55.png""],[""img/mask24.png""],[""img/mask8.png""],[""img/mask20.png""],[""img/mask90.png""],[""img/mask74.png""],[""img/mask33.png""],[""img/mask78.png""],[""img/mask77.png""],[""img/mask76.png""]]]","","[3,2,7,12,23,31,8,32,26,9,0,22,15,19,13,6,30,16,10,35,1,18,28,21,34,14,33,11,24,20,27,17,25,5,29,4]","main","15","many-guess-6"
"","","","","","html-keyboard-response","49","452865","0.0-10.0-0.15","5f8bad1242efeb2f49156f51","640759fa512f630a2bdc333d","640785c94ef0b43ee793113d","null","","null","","","","","","","","","","","","","","","","","","","fixation","",""
"","","","","","many-guess-6","50","456000","0.0-10.0-1.15-0.15","5f8bad1242efeb2f49156f51","640759fa512f630a2bdc333d","640785c94ef0b43ee793113d","[1645.5]","","","[34,3,12,14,30,1,4,26,28,29,5,9,11,7,25,21,10,18,17,23,27,13,32,35,0,31,16,19,20,24,33,8,2,22,15,6]","[118,298,148,158,278,29,188,258,268,48,318,178,228,128,168,58,348,138,9,218,38,248,358,308,288,98,78,328,88,108,19,198,338,68,238,208]","118","319","54.72411555633248","[54.72411555633248]","[95.72411555633249]","[94]","[210,210,300,300,300,300,210,210,120]","0","36","0","149.79100014304277","30.67399999999907","16","[[[""img/mask47.png""],[""img/mask20.png""],[""img/mask29.png""],[""img/mask86.png""],[""img/mask99.png""],[""img/mask88.png""],[""img/mask61.png""],[""img/mask20.png""],[""img/mask94.png""],[""img/mask52.png""],[""img/mask45.png""],[""img/mask85.png""],[""img/mask87.png""],[""img/mask67.png""],[""img/mask5.png""],[""img/mask21.png""],[""img/mask45.png""],[""img/mask78.png""],[""img/mask59.png""],[""img/mask74.png""],[""img/mask88.png""],[""img/mask54.png""],[""img/mask49.png""],[""img/mask21.png""],[""img/mask85.png""],[""img/mask73.png""],[""img/mask18.png""],[""img/mask77.png""],[""img/mask19.png""],[""img/mask37.png""],[""img/mask34.png""],[""img/mask65.png""],[""img/mask5.png""],[""img/mask90.png""],[""img/mask57.png""],[""img/mask53.png""]]]","","[34,3,12,14,30,1,4,26,28,29,5,9,11,7,25,21,10,18,17,23,27,13,32,35,0,31,16,19,20,24,33,8,2,22,15,6]","main","319","many-guess-6"
"","","","","","html-keyboard-response","51","456500","0.0-10.0-0.16","5f8bad1242efeb2f49156f51","640759fa512f630a2bdc333d","640785c94ef0b43ee793113d","null","","null","","","","","","","","","","","","","","","","","","","fixation","",""
"","","","","","many-guess-6","52","461525","0.0-10.0-1.16-0.16","5f8bad1242efeb2f49156f51","640759fa512f630a2bdc333d","640785c94ef0b43ee793113d","[2569.9000000953674]","","","[22,23,9,8,13,11,0,19,34,30,16,3,5,35,6,17,1,25,28,10,24,12,33,31,29,2,21,20,4,27,15,14,18,32,7,26]","[355,66,135,295,315,26,185,155,86,205,325,235,106,116,215,6,255,16,36,245,335,126,56,165,285,195,46,225,275,175,145,265,345,96,76,305]","355","222","293.2535891560982","[293.2535891560982]","[71.2535891560982]","[72]","[300,210,210,120,300,210,30,210,300]","0","36","0","149.60399999999208","16.868000095360912","16","[[[""img/mask25.png""],[""img/mask74.png""],[""img/mask75.png""],[""img/mask37.png""],[""img/mask28.png""],[""img/mask30.png""],[""img/mask76.png""],[""img/mask91.png""],[""img/mask2.png""],[""img/mask4.png""],[""img/mask61.png""],[""img/mask42.png""],[""img/mask17.png""],[""img/mask71.png""],[""img/mask30.png""],[""img/mask22.png""],[""img/mask47.png""],[""img/mask39.png""],[""img/mask100.png""],[""img/mask50.png""],[""img/mask56.png""],[""img/mask69.png""],[""img/mask42.png""],[""img/mask56.png""],[""img/mask28.png""],[""img/mask14.png""],[""img/mask59.png""],[""img/mask9.png""],[""img/mask11.png""],[""img/mask78.png""],[""img/mask79.png""],[""img/mask97.png""],[""img/mask73.png""],[""img/mask15.png""],[""img/mask45.png""],[""img/mask12.png""]]]","","[22,23,9,8,13,11,0,19,34,30,16,3,5,35,6,17,1,25,28,10,24,12,33,31,29,2,21,20,4,27,15,14,18,32,7,26]","main","222","many-guess-6"
"","","","","","html-keyboard-response","53","462039","0.0-10.0-0.17","5f8bad1242efeb2f49156f51","640759fa512f630a2bdc333d","640785c94ef0b43ee793113d","null","","null","","","","","","","","","","","","","","","","","","","fixation","",""
"","","","","","many-guess-6","54","466789","0.0-10.0-1.17-0.17","5f8bad1242efeb2f49156f51","640759fa512f630a2bdc333d","640785c94ef0b43ee793113d","[2534.9000000953674]","","","[9,5,6,34,0,15,12,26,23,1,24,7,25,14,22,17,8,3,2,31,4,29,18,11,13,16,20,19,32,35,28,27,30,21,33,10]","[345,35,355,55,65,255,145,155,125,185,295,245,235,75,325,165,205,105,285,115,5,315,335,15,45,265,25,95,85,225,195,215,175,275,305,135]","345","195","118.37398342706315","[118.37398342706315]","[283.37398342706314]","[281]","[30,210,120,300,300,30,300,210,30]","0","36","0","149.71900004765484","15.789000095392112","16","[[[""img/mask98.png""],[""img/mask37.png""],[""img/mask51.png""],[""img/mask17.png""],[""img/mask47.png""],[""img/mask27.png""],[""img/mask14.png""],[""img/mask69.png""],[""img/mask35.png""],[""img/mask22.png""],[""img/mask28.png""],[""img/mask83.png""],[""img/mask35.png""],[""img/mask74.png""],[""img/mask76.png""],[""img/mask17.png""],[""img/mask84.png""],[""img/mask12.png""],[""img/mask92.png""],[""img/mask6.png""],[""img/mask13.png""],[""img/mask25.png""],[""img/mask14.png""],[""img/mask24.png""],[""img/mask100.png""],[""img/mask87.png""],[""img/mask36.png""],[""img/mask100.png""],[""img/mask73.png""],[""img/mask99.png""],[""img/mask8.png""],[""img/mask87.png""],[""img/mask87.png""],[""img/mask88.png""],[""img/mask43.png""],[""img/mask77.png""]]]","","[9,5,6,34,0,15,12,26,23,1,24,7,25,14,22,17,8,3,2,31,4,29,18,11,13,16,20,19,32,35,28,27,30,21,33,10]","main","195","many-guess-6"
"","","","","","html-keyboard-response","55","467299","0.0-10.0-0.18","5f8bad1242efeb2f49156f51","640759fa512f630a2bdc333d","640785c94ef0b43ee793113d","null","","null","","","","","","","","","","","","","","","","","","","fixation","",""
"","","","","","many-guess-6","56","470946","0.0-10.0-1.18-0.18","5f8bad1242efeb2f49156f51","640759fa512f630a2bdc333d","640785c94ef0b43ee793113d","[1824.5]","","","[29,35,25,33,13,31,26,12,4,2,3,28,24,8,9,5,17,15,34,7,6,18,14,16,22,1,10,30,27,0,23,19,32,21,11,20]","[141,61,111,191,240,320,211,101,260,181,230,161,201,330,350,250,11,280,31,131,340,310,220,71,91,151,41,1,21,81,290,121,171,270,300,51]","141","19","75.60260462053847","[75.60260462053847]","[56.60260462053847]","[55]","[210,120,120,120,210,210,30,120,120]","0","36","0","149.80000004766043","7.822999999974854","16","[[[""img/mask56.png""],[""img/mask3.png""],[""img/mask43.png""],[""img/mask32.png""],[""img/mask38.png""],[""img/mask60.png""],[""img/mask10.png""],[""img/mask29.png""],[""img/mask17.png""],[""img/mask4.png""],[""img/mask67.png""],[""img/mask88.png""],[""img/mask8.png""],[""img/mask50.png""],[""img/mask58.png""],[""img/mask84.png""],[""img/mask65.png""],[""img/mask89.png""],[""img/mask84.png""],[""img/mask45.png""],[""img/mask20.png""],[""img/mask99.png""],[""img/mask87.png""],[""img/mask28.png""],[""img/mask97.png""],[""img/mask92.png""],[""img/mask76.png""],[""img/mask14.png""],[""img/mask28.png""],[""img/mask36.png""],[""img/mask12.png""],[""img/mask21.png""],[""img/mask73.png""],[""img/mask33.png""],[""img/mask22.png""],[""img/mask71.png""]]]","","[29,35,25,33,13,31,26,12,4,2,3,28,24,8,9,5,17,15,34,7,6,18,14,16,22,1,10,30,27,0,23,19,32,21,11,20]","main","19","many-guess-6"
"","","","","","html-keyboard-response","57","473111","0.0-10.0-0.19","5f8bad1242efeb2f49156f51","640759fa512f630a2bdc333d","640785c94ef0b43ee793113d","2165.4000000953674","Wow! You've completed 20 out of 180 trials! </p> <p>  </p><p> Take a quick break, then press any key when you're ready to continue."," ","","","","","","","","","","","","","","","","","","","fixation","",""
"","","","","","color-precision2","58","477332","0.0-10.0-1.19-0.19","5f8bad1242efeb2f49156f51","640759fa512f630a2bdc333d","640785c94ef0b43ee793113d","[961.5]","","","[26]","[19]","19","171","160.3526842292134","[160.3526842292134]","[349.3526842292134]","[348]","0","0","1","0","149.77100019075442","1001.0800000953604","1000","[[[""img/mask100.png""]]]","","","main","171","color-precision2"
"","","","","","html-keyboard-response","59","477834","0.0-10.0-0.20","5f8bad1242efeb2f49156f51","640759fa512f630a2bdc333d","640785c94ef0b43ee793113d","null","","null","","","","","","","","","","","","","","","","","","","fixation","",""
"","","","","","many-guess-6","60","482063","0.0-10.0-1.20-0.20","5f8bad1242efeb2f49156f51","640759fa512f630a2bdc333d","640785c94ef0b43ee793113d","[2175.0999999046326]","","","[26,23,9,27,20,24,32,8,17,34,10,13,3,30,6,25,18,7,0,12,21,14,4,16,22,35,1,31,11,28,15,29,19,5,2,33]","[119,168,348,178,158,9,358,99,79,228,208,298,258,268,69,238,149,218,188,109,278,59,139,29,288,19,49,338,308,39,248,198,129,318,89,328]","119","56","60.605655352718365","[60.605655352718365]","[4.605655352718365]","[3]","[210,120,120,120,120,300,210,210,120]","0","36","0","149.4440000000177","13.073000143049285","16","[[[""img/mask14.png""],[""img/mask7.png""],[""img/mask14.png""],[""img/mask53.png""],[""img/mask100.png""],[""img/mask9.png""],[""img/mask7.png""],[""img/mask74.png""],[""img/mask62.png""],[""img/mask94.png""],[""img/mask55.png""],[""img/mask96.png""],[""img/mask38.png""],[""img/mask81.png""],[""img/mask93.png""],[""img/mask16.png""],[""img/mask62.png""],[""img/mask3.png""],[""img/mask69.png""],[""img/mask4.png""],[""img/mask58.png""],[""img/mask94.png""],[""img/mask36.png""],[""img/mask45.png""],[""img/mask79.png""],[""img/mask18.png""],[""img/mask38.png""],[""img/mask18.png""],[""img/mask48.png""],[""img/mask59.png""],[""img/mask51.png""],[""img/mask45.png""],[""img/mask38.png""],[""img/mask79.png""],[""img/mask59.png""],[""img/mask9.png""]]]","","[26,23,9,27,20,24,32,8,17,34,10,13,3,30,6,25,18,7,0,12,21,14,4,16,22,35,1,31,11,28,15,29,19,5,2,33]","main","56","many-guess-6"
"","","","","","html-keyboard-response","61","482564","0.0-10.0-0.21","5f8bad1242efeb2f49156f51","640759fa512f630a2bdc333d","640785c94ef0b43ee793113d","null","","null","","","","","","","","","","","","","","","","","","","fixation","",""
"","","","","","many-guess-6","62","486184","0.0-10.0-1.21-0.21","5f8bad1242efeb2f49156f51","640759fa512f630a2bdc333d","640785c94ef0b43ee793113d","[1979.5]","","","[17,27,4,7,26,34,23,15,14,31,28,25,20,29,30,35,13,21,3,10,24,33,18,22,5,11,12,19,16,2,1,6,8,9,32,0]","[297,217,277,108,8,257,327,357,128,307,197,237,157,177,347,118,38,147,18,317,28,58,337,187,88,68,287,227,247,78,48,137,207,98,267,167]","297","223","22.17877640911669","[22.17877640911669]","[159.1787764091167]","[158]","[30,30,210,300,120,30,30,300,30]","0","36","0","149.56100009538932","21.01899999997113","16","[[[""img/mask65.png""],[""img/mask88.png""],[""img/mask29.png""],[""img/mask75.png""],[""img/mask44.png""],[""img/mask96.png""],[""img/mask77.png""],[""img/mask90.png""],[""img/mask99.png""],[""img/mask100.png""],[""img/mask66.png""],[""img/mask7.png""],[""img/mask32.png""],[""img/mask42.png""],[""img/mask15.png""],[""img/mask76.png""],[""img/mask26.png""],[""img/mask12.png""],[""img/mask19.png""],[""img/mask54.png""],[""img/mask10.png""],[""img/mask24.png""],[""img/mask88.png""],[""img/mask19.png""],[""img/mask32.png""],[""img/mask89.png""],[""img/mask81.png""],[""img/mask1.png""],[""img/mask46.png""],[""img/mask41.png""],[""img/mask88.png""],[""img/mask21.png""],[""img/mask17.png""],[""img/mask74.png""],[""img/mask56.png""],[""img/mask14.png""]]]","","[17,27,4,7,26,34,23,15,14,31,28,25,20,29,30,35,13,21,3,10,24,33,18,22,5,11,12,19,16,2,1,6,8,9,32,0]","main","223","many-guess-6"
"","","","","","html-keyboard-response","63","486684","0.0-10.0-0.22","5f8bad1242efeb2f49156f51","640759fa512f630a2bdc333d","640785c94ef0b43ee793113d","null","","null","","","","","","","","","","","","","","","","","","","fixation","",""
"","","","","","color-precision2","64","492104","0.0-10.0-1.22-0.22","5f8bad1242efeb2f49156f51","640759fa512f630a2bdc333d","640785c94ef0b43ee793113d","[1899.2000000476837]","","","[26]","[230]","230","38","270.54868272828753","[270.54868272828753]","[232.54868272828753]","[233]","0","0","1","0","149.57600014307536","992.100000047707","1000","[[[""img/mask45.png""]]]","","","main","38","color-precision2"
"","","","","","html-keyboard-response","65","492604","0.0-10.0-0.23","5f8bad1242efeb2f49156f51","640759fa512f630a2bdc333d","640785c94ef0b43ee793113d","null","","null","","","","","","","","","","","","","","","","","","","fixation","",""
"","","","","","color-precision2","66","496733","0.0-10.0-1.23-0.23","5f8bad1242efeb2f49156f51","640759fa512f630a2bdc333d","640785c94ef0b43ee793113d","[928]","","","[10]","[60]","60","47","128.45623220397897","[128.45623220397897]","[81.45623220397897]","[80]","0","0","1","0","147.95899999997346","1006.2920000000158","1000","[[[""img/mask5.png""]]]","","","main","47","color-precision2"
"","","","","","html-keyboard-response","67","497234","0.0-10.0-0.24","5f8bad1242efeb2f49156f51","640759fa512f630a2bdc333d","640785c94ef0b43ee793113d","null","","null","","","","","","","","","","","","","","","","","","","fixation","",""
"","","","","","many-guess-6","68","503685","0.0-10.0-1.24-0.24","5f8bad1242efeb2f49156f51","640759fa512f630a2bdc333d","640785c94ef0b43ee793113d","[2814.7000000476837]","","","[22,35,4,25,15,33,32,29,13,3,14,1,9,31,18,8,28,17,24,21,2,30,27,34,12,10,20,23,26,7,0,5,19,6,11,16]","[341,1,191,101,231,71,251,201,331,181,91,350,301,31,81,211,21,161,311,61,51,131,281,141,241,111,271,291,261,11,171,221,121,321,151,41]","341","274","39.672600795211714","[39.672600795211714]","[125.67260079521171]","[124]","[210,120,120,120,30,300,30,30,300]","0","36","0","149.43600009538932","18.79400009533856","16","[[[""img/mask46.png""],[""img/mask45.png""],[""img/mask15.png""],[""img/mask33.png""],[""img/mask12.png""],[""img/mask39.png""],[""img/mask15.png""],[""img/mask74.png""],[""img/mask44.png""],[""img/mask75.png""],[""img/mask92.png""],[""img/mask25.png""],[""img/mask96.png""],[""img/mask26.png""],[""img/mask87.png""],[""img/mask80.png""],[""img/mask40.png""],[""img/mask12.png""],[""img/mask66.png""],[""img/mask79.png""],[""img/mask59.png""],[""img/mask29.png""],[""img/mask11.png""],[""img/mask36.png""],[""img/mask3.png""],[""img/mask70.png""],[""img/mask26.png""],[""img/mask66.png""],[""img/mask76.png""],[""img/mask33.png""],[""img/mask55.png""],[""img/mask92.png""],[""img/mask39.png""],[""img/mask62.png""],[""img/mask100.png""],[""img/mask68.png""]]]","","[22,35,4,25,15,33,32,29,13,3,14,1,9,31,18,8,28,17,24,21,2,30,27,34,12,10,20,23,26,7,0,5,19,6,11,16]","main","274","many-guess-6"
"","","","","","html-keyboard-response","69","504186","0.0-10.0-0.25","5f8bad1242efeb2f49156f51","640759fa512f630a2bdc333d","640785c94ef0b43ee793113d","null","","null","","","","","","","","","","","","","","","","","","","fixation","",""
"","","","","","color-precision2","70","507788","0.0-10.0-1.25-0.25","5f8bad1242efeb2f49156f51","640759fa512f630a2bdc333d","640785c94ef0b43ee793113d","[800.5999999046326]","","","[20]","[245]","245","295","186.4461175284713","[186.4461175284713]","[251.4461175284713]","[251]","0","0","1","0","149.4670000000042","1004.1350000476814","1000","[[[""img/mask48.png""]]]","","","main","295","color-precision2"
"","","","","","html-keyboard-response","71","508288","0.0-10.0-0.26","5f8bad1242efeb2f49156f51","640759fa512f630a2bdc333d","640785c94ef0b43ee793113d","null","","null","","","","","","","","","","","","","","","","","","","fixation","",""
"","","","","","many-guess-6","72","512692","0.0-10.0-1.26-0.26","5f8bad1242efeb2f49156f51","640759fa512f630a2bdc333d","640785c94ef0b43ee793113d","[2271.5]","","","[30,10,14,15,5,21,35,23,18,31,24,11,6,29,13,33,27,25,20,8,12,17,32,16,1,19,2,0,4,3,7,28,34,26,22,9]","[13,293,223,323,173,3,313,253,243,342,273,33,23,93,143,233,283,133,213,183,303,83,113,103,352,63,193,153,123,53,43,163,73,263,203,332]","13","172","63.25870765417456","[63.25870765417456]","[251.25870765417454]","[250]","[210,300,30,120,300,30,300,120,210]","0","36","0","149.76900009537349","10.30100004770793","16","[[[""img/mask52.png""],[""img/mask11.png""],[""img/mask6.png""],[""img/mask69.png""],[""img/mask60.png""],[""img/mask77.png""],[""img/mask93.png""],[""img/mask82.png""],[""img/mask94.png""],[""img/mask89.png""],[""img/mask64.png""],[""img/mask87.png""],[""img/mask21.png""],[""img/mask94.png""],[""img/mask18.png""],[""img/mask22.png""],[""img/mask61.png""],[""img/mask40.png""],[""img/mask29.png""],[""img/mask56.png""],[""img/mask37.png""],[""img/mask7.png""],[""img/mask42.png""],[""img/mask30.png""],[""img/mask67.png""],[""img/mask54.png""],[""img/mask40.png""],[""img/mask65.png""],[""img/mask84.png""],[""img/mask96.png""],[""img/mask11.png""],[""img/mask59.png""],[""img/mask28.png""],[""img/mask92.png""],[""img/mask24.png""],[""img/mask100.png""]]]","","[30,10,14,15,5,21,35,23,18,31,24,11,6,29,13,33,27,25,20,8,12,17,32,16,1,19,2,0,4,3,7,28,34,26,22,9]","main","172","many-guess-6"
"","","","","","html-keyboard-response","73","513208","0.0-10.0-0.27","5f8bad1242efeb2f49156f51","640759fa512f630a2bdc333d","640785c94ef0b43ee793113d","null","","null","","","","","","","","","","","","","","","","","","","fixation","",""
"","","","","","many-guess-6","74","517184","0.0-10.0-1.27-0.27","5f8bad1242efeb2f49156f51","640759fa512f630a2bdc333d","640785c94ef0b43ee793113d","[2280.5999999046326]","","","[6,27,18,4,14,9,3,8,10,28,34,33,31,19,1,29,23,7,0,15,11,30,35,21,24,13,16,22,2,26,5,20,25,17,12,32]","[46,265,205,315,56,96,285,355,136,195,245,225,126,335,6,235,345,86,166,26,255,116,146,16,275,325,36,176,156,106,305,76,295,186,66,215]","46","195","340.107978499101","[340.107978499101]","[145.10797849910102]","[145]","[300,210,120,210,210,210,210,300,30]","0","36","0","149.7190001430572","15.082000143069308","16","[[[""img/mask9.png""],[""img/mask64.png""],[""img/mask68.png""],[""img/mask52.png""],[""img/mask80.png""],[""img/mask16.png""],[""img/mask86.png""],[""img/mask17.png""],[""img/mask48.png""],[""img/mask31.png""],[""img/mask97.png""],[""img/mask15.png""],[""img/mask57.png""],[""img/mask63.png""],[""img/mask55.png""],[""img/mask16.png""],[""img/mask23.png""],[""img/mask44.png""],[""img/mask36.png""],[""img/mask25.png""],[""img/mask57.png""],[""img/mask79.png""],[""img/mask25.png""],[""img/mask67.png""],[""img/mask26.png""],[""img/mask78.png""],[""img/mask17.png""],[""img/mask17.png""],[""img/mask2.png""],[""img/mask4.png""],[""img/mask87.png""],[""img/mask70.png""],[""img/mask71.png""],[""img/mask51.png""],[""img/mask83.png""],[""img/mask12.png""]]]","","[6,27,18,4,14,9,3,8,10,28,34,33,31,19,1,29,23,7,0,15,11,30,35,21,24,13,16,22,2,26,5,20,25,17,12,32]","main","195","many-guess-6"
"","","","","","html-keyboard-response","75","517685","0.0-10.0-0.28","5f8bad1242efeb2f49156f51","640759fa512f630a2bdc333d","640785c94ef0b43ee793113d","null","","null","","","","","","","","","","","","","","","","","","","fixation","",""
"","","","","","many-guess-6","76","522747","0.0-10.0-1.28-0.28","5f8bad1242efeb2f49156f51","640759fa512f630a2bdc333d","640785c94ef0b43ee793113d","[2793.5]","","","[25,24,12,6,7,32,27,21,4,18,5,26,11,1,28,34,20,16,0,8,10,3,35,19,31,33,17,23,15,30,9,22,13,29,2,14]","[326,246,107,126,316,146,37,17,266,306,77,176,216,196,27,166,117,136,97,57,47,336,67,186,236,87,7,156,226,346,356,286,256,296,206,276]","326","148","311.700552127194","[311.700552127194]","[163.700552127194]","[164]","[30,210,30,120,300,210,300,30,30]","0","36","0","149.50700014305767","14.58400004770374","16","[[[""img/mask10.png""],[""img/mask60.png""],[""img/mask87.png""],[""img/mask65.png""],[""img/mask50.png""],[""img/mask77.png""],[""img/mask77.png""],[""img/mask60.png""],[""img/mask1.png""],[""img/mask30.png""],[""img/mask14.png""],[""img/mask86.png""],[""img/mask83.png""],[""img/mask13.png""],[""img/mask75.png""],[""img/mask54.png""],[""img/mask83.png""],[""img/mask23.png""],[""img/mask36.png""],[""img/mask83.png""],[""img/mask5.png""],[""img/mask7.png""],[""img/mask83.png""],[""img/mask20.png""],[""img/mask24.png""],[""img/mask73.png""],[""img/mask77.png""],[""img/mask41.png""],[""img/mask37.png""],[""img/mask94.png""],[""img/mask56.png""],[""img/mask33.png""],[""img/mask10.png""],[""img/mask52.png""],[""img/mask32.png""],[""img/mask39.png""]]]","","[25,24,12,6,7,32,27,21,4,18,5,26,11,1,28,34,20,16,0,8,10,3,35,19,31,33,17,23,15,30,9,22,13,29,2,14]","main","148","many-guess-6"
"","","","","","html-keyboard-response","77","523247","0.0-10.0-0.29","5f8bad1242efeb2f49156f51","640759fa512f630a2bdc333d","640785c94ef0b43ee793113d","null","","null","","","","","","","","","","","","","","","","","","","fixation","",""
"","","","","","color-precision2","78","527595","0.0-10.0-1.29-0.29","5f8bad1242efeb2f49156f51","640759fa512f630a2bdc333d","640785c94ef0b43ee793113d","[1475.5]","","","[20]","[77]","77","30","112.92038617647785","[112.92038617647785]","[82.92038617647785]","[81]","0","0","1","0","149.58600014308468","999.0240001430502","1000","[[[""img/mask15.png""]]]","","","main","30","color-precision2"
"","","","","","html-keyboard-response","79","528096","0.0-10.0-0.30","5f8bad1242efeb2f49156f51","640759fa512f630a2bdc333d","640785c94ef0b43ee793113d","null","","null","","","","","","","","","","","","","","","","","","","fixation","",""
"","","","","","many-guess-6","80","531894","0.0-10.0-1.30-0.30","5f8bad1242efeb2f49156f51","640759fa512f630a2bdc333d","640785c94ef0b43ee793113d","[2157.199999809265]","","","[33,18,16,29,35,6,10,1,4,2,22,19,14,7,21,13,34,27,0,25,28,30,26,12,31,3,8,9,5,20,32,23,11,24,15,17]","[43,53,272,73,222,202,302,312,252,342,332,322,212,112,232,162,13,122,262,192,3,282,92,352,292,23,242,132,152,172,142,63,182,102,33,83]","43","53","352.5351303353965","[352.5351303353965]","[299.5351303353965]","[299]","[210,120,300,120,120,120,210,120,120]","0","36","0","149.7890001430642","14.860000190790743","16","[[[""img/mask39.png""],[""img/mask97.png""],[""img/mask5.png""],[""img/mask60.png""],[""img/mask69.png""],[""img/mask61.png""],[""img/mask56.png""],[""img/mask96.png""],[""img/mask14.png""],[""img/mask45.png""],[""img/mask6.png""],[""img/mask60.png""],[""img/mask95.png""],[""img/mask37.png""],[""img/mask33.png""],[""img/mask37.png""],[""img/mask84.png""],[""img/mask86.png""],[""img/mask65.png""],[""img/mask76.png""],[""img/mask83.png""],[""img/mask68.png""],[""img/mask23.png""],[""img/mask68.png""],[""img/mask68.png""],[""img/mask48.png""],[""img/mask50.png""],[""img/mask27.png""],[""img/mask7.png""],[""img/mask51.png""],[""img/mask57.png""],[""img/mask97.png""],[""img/mask40.png""],[""img/mask51.png""],[""img/mask23.png""],[""img/mask55.png""]]]","","[33,18,16,29,35,6,10,1,4,2,22,19,14,7,21,13,34,27,0,25,28,30,26,12,31,3,8,9,5,20,32,23,11,24,15,17]","main","53","many-guess-6"
"","","","","","html-keyboard-response","81","532395","0.0-10.0-0.31","5f8bad1242efeb2f49156f51","640759fa512f630a2bdc333d","640785c94ef0b43ee793113d","null","","null","","","","","","","","","","","","","","","","","","","fixation","",""
"","","","","","many-guess-6","82","536663","0.0-10.0-1.31-0.31","5f8bad1242efeb2f49156f51","640759fa512f630a2bdc333d","640785c94ef0b43ee793113d","[2709.4000000953674]","","","[31,22,4,9,21,33,1,12,29,34,6,7,27,2,17,30,3,23,8,28,10,20,19,0,11,13,14,26,25,32,16,15,35,24,5,18]","[188,208,48,307,168,38,317,198,267,277,217,178,237,118,158,68,257,8,148,297,227,357,28,138,98,78,108,58,347,247,337,88,327,18,287,128]","188","64","150.21394562468134","[150.21394562468134]","[86.21394562468134]","[85]","[120,120,120,300,210,120,120,120,120]","0","36","0","149.58700019074604","21.13600000005681","16","[[[""img/mask77.png""],[""img/mask92.png""],[""img/mask29.png""],[""img/mask31.png""],[""img/mask95.png""],[""img/mask90.png""],[""img/mask13.png""],[""img/mask62.png""],[""img/mask23.png""],[""img/mask30.png""],[""img/mask75.png""],[""img/mask36.png""],[""img/mask26.png""],[""img/mask36.png""],[""img/mask49.png""],[""img/mask67.png""],[""img/mask39.png""],[""img/mask17.png""],[""img/mask30.png""],[""img/mask15.png""],[""img/mask44.png""],[""img/mask57.png""],[""img/mask89.png""],[""img/mask32.png""],[""img/mask93.png""],[""img/mask6.png""],[""img/mask61.png""],[""img/mask97.png""],[""img/mask55.png""],[""img/mask21.png""],[""img/mask50.png""],[""img/mask26.png""],[""img/mask3.png""],[""img/mask87.png""],[""img/mask66.png""],[""img/mask71.png""]]]","","[31,22,4,9,21,33,1,12,29,34,6,7,27,2,17,30,3,23,8,28,10,20,19,0,11,13,14,26,25,32,16,15,35,24,5,18]","main","64","many-guess-6"
"","","","","","html-keyboard-response","83","537163","0.0-10.0-0.32","5f8bad1242efeb2f49156f51","640759fa512f630a2bdc333d","640785c94ef0b43ee793113d","null","","null","","","","","","","","","","","","","","","","","","","fixation","",""
"","","","","","many-guess-6","84","541095","0.0-10.0-1.32-0.32","5f8bad1242efeb2f49156f51","640759fa512f630a2bdc333d","640785c94ef0b43ee793113d","[2241.699999809265]","","","[21,2,14,8,27,20,26,17,29,28,34,32,15,30,24,5,33,22,19,35,7,10,11,6,3,16,31,12,0,1,13,25,9,23,4,18]","[86,345,165,225,56,295,245,46,325,125,265,135,36,6,26,285,305,16,335,355,66,95,105,235,255,205,145,115,175,315,215,185,155,76,195,275]","86","162","342.9541725686145","[342.9541725686145]","[180.95417256861452]","[180]","[120,210,120,210,30,120,210,300,300]","0","36","0","149.79500014299992","16.150000143097714","16","[[[""img/mask69.png""],[""img/mask19.png""],[""img/mask94.png""],[""img/mask34.png""],[""img/mask80.png""],[""img/mask93.png""],[""img/mask85.png""],[""img/mask95.png""],[""img/mask86.png""],[""img/mask72.png""],[""img/mask54.png""],[""img/mask31.png""],[""img/mask12.png""],[""img/mask25.png""],[""img/mask19.png""],[""img/mask62.png""],[""img/mask59.png""],[""img/mask15.png""],[""img/mask56.png""],[""img/mask48.png""],[""img/mask77.png""],[""img/mask67.png""],[""img/mask85.png""],[""img/mask100.png""],[""img/mask32.png""],[""img/mask12.png""],[""img/mask50.png""],[""img/mask94.png""],[""img/mask47.png""],[""img/mask79.png""],[""img/mask4.png""],[""img/mask6.png""],[""img/mask10.png""],[""img/mask91.png""],[""img/mask82.png""],[""img/mask41.png""]]]","","[21,2,14,8,27,20,26,17,29,28,34,32,15,30,24,5,33,22,19,35,7,10,11,6,3,16,31,12,0,1,13,25,9,23,4,18]","main","162","many-guess-6"
"","","","","","html-keyboard-response","85","541596","0.0-10.0-0.33","5f8bad1242efeb2f49156f51","640759fa512f630a2bdc333d","640785c94ef0b43ee793113d","null","","null","","","","","","","","","","","","","","","","","","","fixation","",""
"","","","","","color-precision2","86","545997","0.0-10.0-1.33-0.33","5f8bad1242efeb2f49156f51","640759fa512f630a2bdc333d","640785c94ef0b43ee793113d","[1044.2999999523163]","","","[32]","[142]","142","237","30.850119980602866","[30.850119980602866]","[153.85011998060287]","[153]","0","0","1","0","149.898000190733","1001.6050001907861","1000","[[[""img/mask87.png""]]]","","","main","237","color-precision2"
"","","","","","html-keyboard-response","87","546498","0.0-10.0-0.34","5f8bad1242efeb2f49156f51","640759fa512f630a2bdc333d","640785c94ef0b43ee793113d","null","","null","","","","","","","","","","","","","","","","","","","fixation","",""
"","","","","","many-guess-6","88","552786","0.0-10.0-1.34-0.34","5f8bad1242efeb2f49156f51","640759fa512f630a2bdc333d","640785c94ef0b43ee793113d","[3266.399999856949]","","","[14,9,18,13,21,4,17,25,22,12,33,29,32,8,7,31,6,35,26,3,28,0,11,20,10,1,24,30,15,34,2,19,16,23,27,5]","[243,113,123,143,63,153,293,103,193,203,14,313,303,333,133,53,323,223,173,33,343,43,213,263,83,273,73,4,353,163,23,253,93,233,183,283]","243","7","291.8617294496601","[291.8617294496601]","[284.8617294496601]","[285]","[210,210,300,30,30,300,30,210,300]","0","36","0","149.48300019069575","31.983000047737733","16","[[[""img/mask54.png""],[""img/mask97.png""],[""img/mask51.png""],[""img/mask21.png""],[""img/mask64.png""],[""img/mask27.png""],[""img/mask36.png""],[""img/mask19.png""],[""img/mask20.png""],[""img/mask46.png""],[""img/mask41.png""],[""img/mask50.png""],[""img/mask96.png""],[""img/mask68.png""],[""img/mask66.png""],[""img/mask24.png""],[""img/mask83.png""],[""img/mask67.png""],[""img/mask100.png""],[""img/mask62.png""],[""img/mask5.png""],[""img/mask51.png""],[""img/mask88.png""],[""img/mask28.png""],[""img/mask29.png""],[""img/mask52.png""],[""img/mask52.png""],[""img/mask13.png""],[""img/mask46.png""],[""img/mask23.png""],[""img/mask55.png""],[""img/mask78.png""],[""img/mask29.png""],[""img/mask56.png""],[""img/mask7.png""],[""img/mask22.png""]]]","","[14,9,18,13,21,4,17,25,22,12,33,29,32,8,7,31,6,35,26,3,28,0,11,20,10,1,24,30,15,34,2,19,16,23,27,5]","main","7","many-guess-6"
"","","","","","html-keyboard-response","89","553287","0.0-10.0-0.35","5f8bad1242efeb2f49156f51","640759fa512f630a2bdc333d","640785c94ef0b43ee793113d","null","","null","","","","","","","","","","","","","","","","","","","fixation","",""
"","","","","","color-precision2","90","557390","0.0-10.0-1.35-0.35","5f8bad1242efeb2f49156f51","640759fa512f630a2bdc333d","640785c94ef0b43ee793113d","[1037.4000000953674]","","","[26]","[94]","94","140","246.80169684600668","[246.80169684600668]","[106.80169684600668]","[107]","0","0","1","0","148.70200019073673","999.429000047734","1000","[[[""img/mask6.png""]]]","","","main","140","color-precision2"
"","","","","","html-keyboard-response","91","557891","0.0-10.0-0.36","5f8bad1242efeb2f49156f51","640759fa512f630a2bdc333d","640785c94ef0b43ee793113d","null","","null","","","","","","","","","","","","","","","","","","","fixation","",""
"","","","","","many-guess-6","92","561467","0.0-10.0-1.36-0.36","5f8bad1242efeb2f49156f51","640759fa512f630a2bdc333d","640785c94ef0b43ee793113d","[1714.5]","","","[31,9,0,3,14,8,23,35,34,11,4,18,6,16,13,1,25,20,5,19,24,32,12,30,10,21,26,28,15,22,17,7,27,33,2,29]","[279,269,209,338,219,19,39,9,199,129,319,299,328,259,189,249,69,89,139,119,49,179,229,348,149,239,109,358,99,29,169,159,59,289,79,309]","279","134","39.07198352384948","[39.07198352384948]","[265.0719835238495]","[263]","[210,30,300,300,210,30,210,210,210]","0","36","0","149.6080000953516","13.286000143038109","16","[[[""img/mask32.png""],[""img/mask98.png""],[""img/mask33.png""],[""img/mask7.png""],[""img/mask21.png""],[""img/mask56.png""],[""img/mask24.png""],[""img/mask46.png""],[""img/mask79.png""],[""img/mask87.png""],[""img/mask75.png""],[""img/mask48.png""],[""img/mask43.png""],[""img/mask13.png""],[""img/mask5.png""],[""img/mask91.png""],[""img/mask57.png""],[""img/mask24.png""],[""img/mask41.png""],[""img/mask6.png""],[""img/mask53.png""],[""img/mask50.png""],[""img/mask84.png""],[""img/mask19.png""],[""img/mask51.png""],[""img/mask30.png""],[""img/mask100.png""],[""img/mask95.png""],[""img/mask50.png""],[""img/mask81.png""],[""img/mask29.png""],[""img/mask69.png""],[""img/mask9.png""],[""img/mask64.png""],[""img/mask64.png""],[""img/mask30.png""]]]","","[31,9,0,3,14,8,23,35,34,11,4,18,6,16,13,1,25,20,5,19,24,32,12,30,10,21,26,28,15,22,17,7,27,33,2,29]","main","134","many-guess-6"
"","","","","","html-keyboard-response","93","561969","0.0-10.0-0.37","5f8bad1242efeb2f49156f51","640759fa512f630a2bdc333d","640785c94ef0b43ee793113d","null","","null","","","","","","","","","","","","","","","","","","","fixation","",""
"","","","","","many-guess-6","94","567493","0.0-10.0-1.37-0.37","5f8bad1242efeb2f49156f51","640759fa512f630a2bdc333d","640785c94ef0b43ee793113d","[2707.5]","","","[9,13,17,25,0,23,7,4,33,16,2,6,22,5,18,27,10,26,12,32,20,8,11,29,3,31,21,30,1,15,28,35,19,24,14,34]","[39,339,269,30,189,309,359,239,109,349,279,179,249,59,219,229,199,169,159,119,10,49,259,329,99,299,149,209,129,69,89,139,319,289,20,79]","39","118","290.76737978636265","[290.76737978636265]","[172.76737978636265]","[173]","[210,210,300,300,30,300,120,210,300]","0","36","0","149.87300019070972","10.525000143097714","16","[[[""img/mask90.png""],[""img/mask58.png""],[""img/mask37.png""],[""img/mask18.png""],[""img/mask26.png""],[""img/mask71.png""],[""img/mask1.png""],[""img/mask35.png""],[""img/mask44.png""],[""img/mask26.png""],[""img/mask34.png""],[""img/mask19.png""],[""img/mask2.png""],[""img/mask97.png""],[""img/mask68.png""],[""img/mask36.png""],[""img/mask97.png""],[""img/mask8.png""],[""img/mask90.png""],[""img/mask1.png""],[""img/mask86.png""],[""img/mask4.png""],[""img/mask40.png""],[""img/mask28.png""],[""img/mask7.png""],[""img/mask62.png""],[""img/mask42.png""],[""img/mask41.png""],[""img/mask67.png""],[""img/mask78.png""],[""img/mask90.png""],[""img/mask34.png""],[""img/mask55.png""],[""img/mask97.png""],[""img/mask30.png""],[""img/mask82.png""]]]","","[9,13,17,25,0,23,7,4,33,16,2,6,22,5,18,27,10,26,12,32,20,8,11,29,3,31,21,30,1,15,28,35,19,24,14,34]","main","118","many-guess-6"
"","","","","","html-keyboard-response","95","567994","0.0-10.0-0.38","5f8bad1242efeb2f49156f51","640759fa512f630a2bdc333d","640785c94ef0b43ee793113d","null","","null","","","","","","","","","","","","","","","","","","","fixation","",""
"","","","","","many-guess-6","96","572340","0.0-10.0-1.38-0.38","5f8bad1242efeb2f49156f51","640759fa512f630a2bdc333d","640785c94ef0b43ee793113d","[1654.2000000476837]","","","[6,26,17,18,30,31,28,9,1,24,10,21,0,23,32,19,16,2,20,12,33,25,7,22,15,4,27,35,11,14,5,29,34,8,3,13]","[191,351,1,111,321,271,171,331,311,221,281,71,91,11,131,291,201,341,251,141,241,231,181,61,121,41,161,31,211,151,51,301,261,21,101,81]","191","348","28.832588774246126","[28.832588774246126]","[40.83258877424612]","[40]","[300,300,120,120,120,30,300,120,210]","0","36","0","149.64200019068085","12.824999999953434","16","[[[""img/mask57.png""],[""img/mask61.png""],[""img/mask87.png""],[""img/mask7.png""],[""img/mask39.png""],[""img/mask89.png""],[""img/mask52.png""],[""img/mask20.png""],[""img/mask93.png""],[""img/mask10.png""],[""img/mask99.png""],[""img/mask79.png""],[""img/mask16.png""],[""img/mask46.png""],[""img/mask54.png""],[""img/mask22.png""],[""img/mask6.png""],[""img/mask39.png""],[""img/mask100.png""],[""img/mask69.png""],[""img/mask82.png""],[""img/mask25.png""],[""img/mask14.png""],[""img/mask49.png""],[""img/mask83.png""],[""img/mask2.png""],[""img/mask15.png""],[""img/mask26.png""],[""img/mask72.png""],[""img/mask49.png""],[""img/mask31.png""],[""img/mask70.png""],[""img/mask84.png""],[""img/mask15.png""],[""img/mask69.png""],[""img/mask25.png""]]]","","[6,26,17,18,30,31,28,9,1,24,10,21,0,23,32,19,16,2,20,12,33,25,7,22,15,4,27,35,11,14,5,29,34,8,3,13]","main","348","many-guess-6"
"","","","","","html-keyboard-response","97","573121","0.0-10.0-0.39","5f8bad1242efeb2f49156f51","640759fa512f630a2bdc333d","640785c94ef0b43ee793113d","781","Wow! You've completed 40 out of 180 trials! </p> <p>  </p><p> Take a quick break, then press any key when you're ready to continue."," ","","","","","","","","","","","","","","","","","","","fixation","",""
"","","","","","color-precision2","98","577620","0.0-10.0-1.39-0.39","5f8bad1242efeb2f49156f51","640759fa512f630a2bdc333d","640785c94ef0b43ee793113d","[951.2000000476837]","","","[10]","[197]","197","45","244.16541217085256","[244.16541217085256]","[199.16541217085256]","[199]","0","0","1","0","149.68000000005122","993.7320000476902","1000","[[[""img/mask77.png""]]]","","","main","45","color-precision2"
"","","","","","html-keyboard-response","99","578121","0.0-10.0-0.40","5f8bad1242efeb2f49156f51","640759fa512f630a2bdc333d","640785c94ef0b43ee793113d","null","","null","","","","","","","","","","","","","","","","","","","fixation","",""
"","","","","","many-guess-6","100","583631","0.0-10.0-1.40-0.40","5f8bad1242efeb2f49156f51","640759fa512f630a2bdc333d","640785c94ef0b43ee793113d","[3128.9000000953674]","","","[32,19,20,8,6,35,31,15,1,14,16,25,7,26,5,33,13,34,0,29,18,4,17,2,27,24,23,28,9,10,12,11,30,3,21,22]","[9,318,59,348,269,249,279,49,308,139,338,119,19,109,358,99,229,69,328,219,149,159,199,129,239,179,39,288,79,169,259,209,29,298,189,89]","9","4","6.605637408961742","[6.605637408961742]","[2.6056374089617416]","[2]","[120,300,210,120,300,300,210,210,300]","0","36","0","149.77000019070692","13.792000143090263","16","[[[""img/mask27.png""],[""img/mask68.png""],[""img/mask46.png""],[""img/mask62.png""],[""img/mask10.png""],[""img/mask71.png""],[""img/mask26.png""],[""img/mask97.png""],[""img/mask32.png""],[""img/mask44.png""],[""img/mask83.png""],[""img/mask7.png""],[""img/mask62.png""],[""img/mask81.png""],[""img/mask18.png""],[""img/mask90.png""],[""img/mask14.png""],[""img/mask31.png""],[""img/mask64.png""],[""img/mask5.png""],[""img/mask86.png""],[""img/mask40.png""],[""img/mask40.png""],[""img/mask87.png""],[""img/mask38.png""],[""img/mask92.png""],[""img/mask77.png""],[""img/mask53.png""],[""img/mask32.png""],[""img/mask23.png""],[""img/mask29.png""],[""img/mask56.png""],[""img/mask78.png""],[""img/mask39.png""],[""img/mask13.png""],[""img/mask98.png""]]]","","[32,19,20,8,6,35,31,15,1,14,16,25,7,26,5,33,13,34,0,29,18,4,17,2,27,24,23,28,9,10,12,11,30,3,21,22]","main","4","many-guess-6"
"","","","","","html-keyboard-response","101","584133","0.0-10.0-0.41","5f8bad1242efeb2f49156f51","640759fa512f630a2bdc333d","640785c94ef0b43ee793113d","null","","null","","","","","","","","","","","","","","","","","","","fixation","",""
"","","","","","color-precision2","102","589333","0.0-10.0-1.41-0.41","5f8bad1242efeb2f49156f51","640759fa512f630a2bdc333d","640785c94ef0b43ee793113d","[2281.2000000476837]","","","[18]","[344]","344","337","308.21193001482703","[308.21193001482703]","[331.21193001482703]","[332]","0","0","1","0","149.8530000000028","1006.7570000477135","1000","[[[""img/mask6.png""]]]","","","main","337","color-precision2"
"","","","","","html-keyboard-response","103","589834","0.0-10.0-0.42","5f8bad1242efeb2f49156f51","640759fa512f630a2bdc333d","640785c94ef0b43ee793113d","null","","null","","","","","","","","","","","","","","","","","","","fixation","",""
"","","","","","many-guess-6","104","593332","0.0-10.0-1.42-0.42","5f8bad1242efeb2f49156f51","640759fa512f630a2bdc333d","640785c94ef0b43ee793113d","[1980.0999999046326]","","","[16,33,17,35,0,26,1,7,25,19,12,4,10,18,34,31,3,20,2,32,29,30,13,8,23,21,15,22,24,9,28,6,14,11,5,27]","[285,215,345,225,46,125,235,265,56,165,275,155,315,6,175,105,325,85,26,36,295,135,255,95,245,355,66,335,75,145,305,16,185,115,205,195]","285","261","34.58739413888806","[34.58739413888806]","[133.58739413888804]","[133]","[210,300,30,30,30,120,300,300,30]","0","36","0","148.35300004773308","20.920000190730207","16","[[[""img/mask12.png""],[""img/mask15.png""],[""img/mask23.png""],[""img/mask85.png""],[""img/mask67.png""],[""img/mask39.png""],[""img/mask87.png""],[""img/mask2.png""],[""img/mask17.png""],[""img/mask7.png""],[""img/mask35.png""],[""img/mask31.png""],[""img/mask85.png""],[""img/mask87.png""],[""img/mask54.png""],[""img/mask65.png""],[""img/mask42.png""],[""img/mask71.png""],[""img/mask26.png""],[""img/mask63.png""],[""img/mask44.png""],[""img/mask26.png""],[""img/mask23.png""],[""img/mask98.png""],[""img/mask32.png""],[""img/mask59.png""],[""img/mask74.png""],[""img/mask89.png""],[""img/mask45.png""],[""img/mask34.png""],[""img/mask44.png""],[""img/mask78.png""],[""img/mask43.png""],[""img/mask72.png""],[""img/mask61.png""],[""img/mask2.png""]]]","","[16,33,17,35,0,26,1,7,25,19,12,4,10,18,34,31,3,20,2,32,29,30,13,8,23,21,15,22,24,9,28,6,14,11,5,27]","main","261","many-guess-6"
"","","","","","html-keyboard-response","105","593833","0.0-10.0-0.43","5f8bad1242efeb2f49156f51","640759fa512f630a2bdc333d","640785c94ef0b43ee793113d","null","","null","","","","","","","","","","","","","","","","","","","fixation","",""
"","","","","","color-precision2","106","598776","0.0-10.0-1.43-0.43","5f8bad1242efeb2f49156f51","640759fa512f630a2bdc333d","640785c94ef0b43ee793113d","[2141.0999999046326]","","","[27]","[18]","18","91","109.53399255217657","[109.53399255217657]","[18.53399255217657]","[18]","0","0","1","0","149.31400019070134","1005.9620001430158","1000","[[[""img/mask61.png""]]]","","","main","91","color-precision2"
"","","","","","html-keyboard-response","107","599277","0.0-10.0-0.44","5f8bad1242efeb2f49156f51","640759fa512f630a2bdc333d","640785c94ef0b43ee793113d","null","","null","","","","","","","","","","","","","","","","","","","fixation","",""
"","","","","","many-guess-6","108","603727","0.0-10.0-1.44-0.44","5f8bad1242efeb2f49156f51","640759fa512f630a2bdc333d","640785c94ef0b43ee793113d","[2525.100000143051]","","","[30,15,2,25,1,18,19,5,21,14,29,34,35,3,12,22,23,32,33,16,28,4,17,8,27,20,9,10,24,31,26,7,0,6,11,13]","[273,213,113,313,4,303,143,153,243,343,323,163,54,83,353,93,133,263,203,253,183,103,283,34,193,233,293,173,123,223,333,24,64,73,14,44]","273","138","32.54799462660625","[32.54799462660625]","[254.54799462660625]","[253]","[120,120,30,300,30,210,300,300,210]","0","36","0","149.66600004769862","9.824999999953434","16","[[[""img/mask65.png""],[""img/mask77.png""],[""img/mask36.png""],[""img/mask16.png""],[""img/mask41.png""],[""img/mask21.png""],[""img/mask99.png""],[""img/mask77.png""],[""img/mask51.png""],[""img/mask93.png""],[""img/mask57.png""],[""img/mask42.png""],[""img/mask24.png""],[""img/mask62.png""],[""img/mask95.png""],[""img/mask23.png""],[""img/mask78.png""],[""img/mask7.png""],[""img/mask30.png""],[""img/mask78.png""],[""img/mask89.png""],[""img/mask29.png""],[""img/mask42.png""],[""img/mask31.png""],[""img/mask5.png""],[""img/mask33.png""],[""img/mask56.png""],[""img/mask11.png""],[""img/mask72.png""],[""img/mask68.png""],[""img/mask47.png""],[""img/mask86.png""],[""img/mask63.png""],[""img/mask28.png""],[""img/mask12.png""],[""img/mask31.png""]]]","","[30,15,2,25,1,18,19,5,21,14,29,34,35,3,12,22,23,32,33,16,28,4,17,8,27,20,9,10,24,31,26,7,0,6,11,13]","main","138","many-guess-6"
"","","","","","html-keyboard-response","109","604227","0.0-10.0-0.45","5f8bad1242efeb2f49156f51","640759fa512f630a2bdc333d","640785c94ef0b43ee793113d","null","","null","","","","","","","","","","","","","","","","","","","fixation","",""
"","","","","","many-guess-6","110","608873","0.0-10.0-1.45-0.45","5f8bad1242efeb2f49156f51","640759fa512f630a2bdc333d","640785c94ef0b43ee793113d","[2655.2000000476837]","","","[10,20,33,34,13,14,35,5,18,12,6,26,8,16,32,7,3,31,29,17,9,0,4,25,15,24,19,28,2,11,21,23,27,30,22,1]","[69,9,228,139,218,89,268,109,99,19,178,149,79,258,248,348,328,318,238,298,198,59,169,288,49,119,129,39,159,358,338,278,208,188,308,29]","69","95","5.854422896043799","[5.854422896043799]","[270.8544228960438]","[270]","[30,30,210,210,120,120,120,210,300]","0","36","0","149.55200000002515","12.928000095416792","16","[[[""img/mask57.png""],[""img/mask44.png""],[""img/mask26.png""],[""img/mask7.png""],[""img/mask8.png""],[""img/mask47.png""],[""img/mask73.png""],[""img/mask81.png""],[""img/mask95.png""],[""img/mask31.png""],[""img/mask39.png""],[""img/mask97.png""],[""img/mask89.png""],[""img/mask53.png""],[""img/mask6.png""],[""img/mask26.png""],[""img/mask41.png""],[""img/mask2.png""],[""img/mask48.png""],[""img/mask33.png""],[""img/mask51.png""],[""img/mask80.png""],[""img/mask13.png""],[""img/mask16.png""],[""img/mask8.png""],[""img/mask86.png""],[""img/mask29.png""],[""img/mask17.png""],[""img/mask90.png""],[""img/mask97.png""],[""img/mask76.png""],[""img/mask58.png""],[""img/mask66.png""],[""img/mask40.png""],[""img/mask43.png""],[""img/mask94.png""]]]","","[10,20,33,34,13,14,35,5,18,12,6,26,8,16,32,7,3,31,29,17,9,0,4,25,15,24,19,28,2,11,21,23,27,30,22,1]","main","95","many-guess-6"
"","","","","","html-keyboard-response","111","609374","0.0-10.0-0.46","5f8bad1242efeb2f49156f51","640759fa512f630a2bdc333d","640785c94ef0b43ee793113d","null","","null","","","","","","","","","","","","","","","","","","","fixation","",""
"","","","","","color-precision2","112","613358","0.0-10.0-1.46-0.46","5f8bad1242efeb2f49156f51","640759fa512f630a2bdc333d","640785c94ef0b43ee793113d","[756.1000001430511]","","","[32]","[221]","221","10","227.23720582205263","[227.23720582205263]","[217.23720582205263]","[217]","0","0","1","0","149.002000143053","1005.5400001907256","1000","[[[""img/mask68.png""]]]","","","main","10","color-precision2"
"","","","","","html-keyboard-response","113","613859","0.0-10.0-0.47","5f8bad1242efeb2f49156f51","640759fa512f630a2bdc333d","640785c94ef0b43ee793113d","null","","null","","","","","","","","","","","","","","","","","","","fixation","",""
"","","","","","color-precision2","114","617946","0.0-10.0-1.47-0.47","5f8bad1242efeb2f49156f51","640759fa512f630a2bdc333d","640785c94ef0b43ee793113d","[1128.4000000953674]","","","[18]","[52]","52","39","102.03632954889393","[102.03632954889393]","[63.03632954889393]","[61]","0","0","1","0","149.78900019067805","1000.89600004768","1000","[[[""img/mask59.png""]]]","","","main","39","color-precision2"
"","","","","","html-keyboard-response","115","618447","0.0-10.0-0.48","5f8bad1242efeb2f49156f51","640759fa512f630a2bdc333d","640785c94ef0b43ee793113d","null","","null","","","","","","","","","","","","","","","","","","","fixation","",""
"","","","","","many-guess-6","116","622919","0.0-10.0-1.48-0.48","5f8bad1242efeb2f49156f51","640759fa512f630a2bdc333d","640785c94ef0b43ee793113d","[1817.5999999046326]","","","[12,5,22,17,25,7,34,9,18,28,15,10,33,32,1,13,3,31,8,26,29,23,14,24,0,4,21,19,35,16,6,30,20,11,27,2]","[300,100,220,260,190,60,80,230,20,120,170,319,250,50,329,339,349,150,309,200,160,180,130,359,30,10,40,280,210,140,110,290,90,240,270,70]","300","158","338.3502638681321","[338.3502638681321]","[180.35026386813212]","[180]","[300,300,120,210,30,120,30,300,300]","0","36","0","149.7200001430465","19.208000143058598","16","[[[""img/mask77.png""],[""img/mask45.png""],[""img/mask51.png""],[""img/mask18.png""],[""img/mask7.png""],[""img/mask22.png""],[""img/mask58.png""],[""img/mask90.png""],[""img/mask60.png""],[""img/mask25.png""],[""img/mask80.png""],[""img/mask58.png""],[""img/mask57.png""],[""img/mask4.png""],[""img/mask75.png""],[""img/mask26.png""],[""img/mask95.png""],[""img/mask69.png""],[""img/mask33.png""],[""img/mask27.png""],[""img/mask48.png""],[""img/mask100.png""],[""img/mask56.png""],[""img/mask52.png""],[""img/mask43.png""],[""img/mask16.png""],[""img/mask73.png""],[""img/mask86.png""],[""img/mask1.png""],[""img/mask68.png""],[""img/mask19.png""],[""img/mask36.png""],[""img/mask13.png""],[""img/mask44.png""],[""img/mask37.png""],[""img/mask93.png""]]]","","[12,5,22,17,25,7,34,9,18,28,15,10,33,32,1,13,3,31,8,26,29,23,14,24,0,4,21,19,35,16,6,30,20,11,27,2]","main","158","many-guess-6"
"","","","","","html-keyboard-response","117","623420","0.0-10.0-0.49","5f8bad1242efeb2f49156f51","640759fa512f630a2bdc333d","640785c94ef0b43ee793113d","null","","null","","","","","","","","","","","","","","","","","","","fixation","",""
"","","","","","many-guess-6","118","627169","0.0-10.0-1.49-0.49","5f8bad1242efeb2f49156f51","640759fa512f630a2bdc333d","640785c94ef0b43ee793113d","[2084.800000190735]","","","[11,26,32,4,6,5,20,1,24,12,10,15,22,14,33,9,21,35,27,0,19,2,13,3,17,29,28,7,23,18,16,8,31,34,25,30]","[330,51,340,181,31,221,291,281,171,21,61,141,201,271,350,151,241,310,191,161,300,101,131,71,121,211,81,11,231,251,91,1,261,41,320,111]","330","232","91.98985839681609","[91.98985839681609]","[219.9898583968161]","[218]","[30,120,210,120,120,120,210,120,210]","0","36","0","149.8080001907656","20.47200014302507","16","[[[""img/mask81.png""],[""img/mask68.png""],[""img/mask82.png""],[""img/mask24.png""],[""img/mask29.png""],[""img/mask48.png""],[""img/mask46.png""],[""img/mask83.png""],[""img/mask64.png""],[""img/mask60.png""],[""img/mask92.png""],[""img/mask89.png""],[""img/mask18.png""],[""img/mask97.png""],[""img/mask95.png""],[""img/mask52.png""],[""img/mask81.png""],[""img/mask53.png""],[""img/mask50.png""],[""img/mask46.png""],[""img/mask61.png""],[""img/mask100.png""],[""img/mask99.png""],[""img/mask63.png""],[""img/mask55.png""],[""img/mask2.png""],[""img/mask80.png""],[""img/mask78.png""],[""img/mask43.png""],[""img/mask82.png""],[""img/mask92.png""],[""img/mask68.png""],[""img/mask47.png""],[""img/mask62.png""],[""img/mask14.png""],[""img/mask3.png""]]]","","[11,26,32,4,6,5,20,1,24,12,10,15,22,14,33,9,21,35,27,0,19,2,13,3,17,29,28,7,23,18,16,8,31,34,25,30]","main","232","many-guess-6"
"","","","","","html-keyboard-response","119","627671","0.0-10.0-0.50","5f8bad1242efeb2f49156f51","640759fa512f630a2bdc333d","640785c94ef0b43ee793113d","null","","null","","","","","","","","","","","","","","","","","","","fixation","",""
"","","","","","many-guess-6","120","631710","0.0-10.0-1.50-0.50","5f8bad1242efeb2f49156f51","640759fa512f630a2bdc333d","640785c94ef0b43ee793113d","[2041.7000000476837]","","","[31,29,8,13,5,7,23,9,33,6,15,14,32,19,12,28,4,18,26,22,1,20,11,17,34,35,3,30,21,2,24,16,10,0,27,25]","[121,171,71,52,91,191,281,201,81,42,341,291,32,301,251,181,241,261,351,2,151,311,61,161,12,111,271,221,211,231,141,321,331,22,101,131]","121","140","163.4767957968025","[163.4767957968025]","[23.47679579680249]","[22]","[30,300,210,210,30,30,30,30,300]","0","36","0","149.76699999999255","21.713000143063255","16","[[[""img/mask67.png""],[""img/mask82.png""],[""img/mask42.png""],[""img/mask72.png""],[""img/mask99.png""],[""img/mask60.png""],[""img/mask29.png""],[""img/mask74.png""],[""img/mask40.png""],[""img/mask22.png""],[""img/mask23.png""],[""img/mask26.png""],[""img/mask16.png""],[""img/mask56.png""],[""img/mask31.png""],[""img/mask94.png""],[""img/mask87.png""],[""img/mask65.png""],[""img/mask72.png""],[""img/mask71.png""],[""img/mask45.png""],[""img/mask54.png""],[""img/mask21.png""],[""img/mask99.png""],[""img/mask92.png""],[""img/mask73.png""],[""img/mask43.png""],[""img/mask83.png""],[""img/mask15.png""],[""img/mask16.png""],[""img/mask21.png""],[""img/mask41.png""],[""img/mask99.png""],[""img/mask13.png""],[""img/mask87.png""],[""img/mask16.png""]]]","","[31,29,8,13,5,7,23,9,33,6,15,14,32,19,12,28,4,18,26,22,1,20,11,17,34,35,3,30,21,2,24,16,10,0,27,25]","main","140","many-guess-6"
"","","","","","html-keyboard-response","121","632211","0.0-10.0-0.51","5f8bad1242efeb2f49156f51","640759fa512f630a2bdc333d","640785c94ef0b43ee793113d","null","","null","","","","","","","","","","","","","","","","","","","fixation","",""
"","","","","","color-precision2","122","635512","0.0-10.0-1.51-0.51","5f8bad1242efeb2f49156f51","640759fa512f630a2bdc333d","640785c94ef0b43ee793113d","[494.2999999523163]","","","[15]","[309]","309","351","301.499033233596","[301.499033233596]","[310.499033233596]","[311]","0","0","1","0","149.77100014302414","997.8000001907349","1000","[[[""img/mask18.png""]]]","","","main","351","color-precision2"
"","","","","","html-keyboard-response","123","636013","0.0-10.0-0.52","5f8bad1242efeb2f49156f51","640759fa512f630a2bdc333d","640785c94ef0b43ee793113d","null","","null","","","","","","","","","","","","","","","","","","","fixation","",""
"","","","","","color-precision2","124","641499","0.0-10.0-1.52-0.52","5f8bad1242efeb2f49156f51","640759fa512f630a2bdc333d","640785c94ef0b43ee793113d","[2914.2999999523163]","","","[30]","[268]","268","142","63.64134837092851","[63.64134837092851]","[281.64134837092854]","[280]","0","0","1","0","149.55000009539071","1007.2070001430111","1000","[[[""img/mask36.png""]]]","","","main","142","color-precision2"
"","","","","","html-keyboard-response","125","642000","0.0-10.0-0.53","5f8bad1242efeb2f49156f51","640759fa512f630a2bdc333d","640785c94ef0b43ee793113d","null","","null","","","","","","","","","","","","","","","","","","","fixation","",""
"","","","","","many-guess-6","126","646131","0.0-10.0-1.53-0.53","5f8bad1242efeb2f49156f51","640759fa512f630a2bdc333d","640785c94ef0b43ee793113d","[1463.1000001430511]","","","[24,17,4,26,13,20,28,22,2,14,27,1,15,34,6,0,35,32,5,31,19,30,29,33,18,3,10,9,21,8,16,12,23,11,25,7]","[9,199,59,348,79,159,89,19,249,279,239,49,259,328,99,39,308,169,129,149,358,299,69,318,29,109,229,269,209,189,119,289,139,179,338,219]","9","53","17.718126857187702","[17.718126857187702]","[324.7181268571877]","[323]","[30,120,30,120,300,120,30,300,210]","0","36","0","149.7030000477098","9.439000047626905","16","[[[""img/mask71.png""],[""img/mask96.png""],[""img/mask13.png""],[""img/mask3.png""],[""img/mask1.png""],[""img/mask69.png""],[""img/mask64.png""],[""img/mask38.png""],[""img/mask5.png""],[""img/mask77.png""],[""img/mask50.png""],[""img/mask69.png""],[""img/mask79.png""],[""img/mask22.png""],[""img/mask12.png""],[""img/mask58.png""],[""img/mask15.png""],[""img/mask83.png""],[""img/mask14.png""],[""img/mask59.png""],[""img/mask76.png""],[""img/mask16.png""],[""img/mask91.png""],[""img/mask41.png""],[""img/mask62.png""],[""img/mask78.png""],[""img/mask65.png""],[""img/mask2.png""],[""img/mask40.png""],[""img/mask88.png""],[""img/mask56.png""],[""img/mask48.png""],[""img/mask61.png""],[""img/mask11.png""],[""img/mask71.png""],[""img/mask1.png""]]]","","[24,17,4,26,13,20,28,22,2,14,27,1,15,34,6,0,35,32,5,31,19,30,29,33,18,3,10,9,21,8,16,12,23,11,25,7]","main","53","many-guess-6"
"","","","","","html-keyboard-response","127","646632","0.0-10.0-0.54","5f8bad1242efeb2f49156f51","640759fa512f630a2bdc333d","640785c94ef0b43ee793113d","null","","null","","","","","","","","","","","","","","","","","","","fixation","",""
"","","","","","many-guess-6","128","650341","0.0-10.0-1.54-0.54","5f8bad1242efeb2f49156f51","640759fa512f630a2bdc333d","640785c94ef0b43ee793113d","[1940.6999998092651]","","","[3,6,33,4,23,9,19,13,29,5,1,31,11,17,25,2,27,28,35,18,30,15,0,32,7,26,12,24,20,14,16,22,34,21,10,8]","[177,77,197,266,187,87,67,57,47,117,226,107,217,167,316,127,236,286,97,276,356,157,346,246,7,326,207,17,256,37,137,147,27,296,336,306]","177","51","313.7577281013909","[313.7577281013909]","[262.7577281013909]","[263]","[300,30,120,120,30,120,120,120,30]","0","36","0","149.86500014306512","12.317000047652982","16","[[[""img/mask88.png""],[""img/mask4.png""],[""img/mask66.png""],[""img/mask21.png""],[""img/mask61.png""],[""img/mask9.png""],[""img/mask44.png""],[""img/mask73.png""],[""img/mask32.png""],[""img/mask55.png""],[""img/mask71.png""],[""img/mask45.png""],[""img/mask65.png""],[""img/mask93.png""],[""img/mask31.png""],[""img/mask26.png""],[""img/mask100.png""],[""img/mask21.png""],[""img/mask69.png""],[""img/mask82.png""],[""img/mask18.png""],[""img/mask26.png""],[""img/mask39.png""],[""img/mask40.png""],[""img/mask67.png""],[""img/mask45.png""],[""img/mask30.png""],[""img/mask24.png""],[""img/mask37.png""],[""img/mask73.png""],[""img/mask29.png""],[""img/mask71.png""],[""img/mask19.png""],[""img/mask60.png""],[""img/mask87.png""],[""img/mask66.png""]]]","","[3,6,33,4,23,9,19,13,29,5,1,31,11,17,25,2,27,28,35,18,30,15,0,32,7,26,12,24,20,14,16,22,34,21,10,8]","main","51","many-guess-6"
"","","","","","html-keyboard-response","129","650843","0.0-10.0-0.55","5f8bad1242efeb2f49156f51","640759fa512f630a2bdc333d","640785c94ef0b43ee793113d","null","","null","","","","","","","","","","","","","","","","","","","fixation","",""
"","","","","","many-guess-6","130","653932","0.0-10.0-1.55-0.55","5f8bad1242efeb2f49156f51","640759fa512f630a2bdc333d","640785c94ef0b43ee793113d","[1381.2000000476837]","","","[27,21,6,11,28,1,10,31,5,30,17,23,18,2,3,0,32,25,7,29,12,22,19,15,14,8,35,24,20,4,34,26,13,16,33,9]","[222,172,262,232,92,53,33,162,43,23,292,202,102,212,132,252,272,302,322,3,142,112,332,352,312,192,13,122,82,182,63,72,152,282,242,342]","222","231","37.691181512564015","[37.691181512564015]","[166.69118151256401]","[166]","[30,210,120,120,210,300,30,120,120]","0","36","0","149.79200014309026","19.658000143012032","16","[[[""img/mask14.png""],[""img/mask42.png""],[""img/mask20.png""],[""img/mask19.png""],[""img/mask89.png""],[""img/mask26.png""],[""img/mask22.png""],[""img/mask47.png""],[""img/mask28.png""],[""img/mask42.png""],[""img/mask46.png""],[""img/mask81.png""],[""img/mask89.png""],[""img/mask94.png""],[""img/mask66.png""],[""img/mask45.png""],[""img/mask28.png""],[""img/mask13.png""],[""img/mask69.png""],[""img/mask44.png""],[""img/mask41.png""],[""img/mask57.png""],[""img/mask18.png""],[""img/mask16.png""],[""img/mask70.png""],[""img/mask87.png""],[""img/mask19.png""],[""img/mask18.png""],[""img/mask15.png""],[""img/mask95.png""],[""img/mask42.png""],[""img/mask49.png""],[""img/mask56.png""],[""img/mask82.png""],[""img/mask8.png""],[""img/mask97.png""]]]","","[27,21,6,11,28,1,10,31,5,30,17,23,18,2,3,0,32,25,7,29,12,22,19,15,14,8,35,24,20,4,34,26,13,16,33,9]","main","231","many-guess-6"
"","","","","","html-keyboard-response","131","654432","0.0-10.0-0.56","5f8bad1242efeb2f49156f51","640759fa512f630a2bdc333d","640785c94ef0b43ee793113d","null","","null","","","","","","","","","","","","","","","","","","","fixation","",""
"","","","","","color-precision2","132","657985","0.0-10.0-1.56-0.56","5f8bad1242efeb2f49156f51","640759fa512f630a2bdc333d","640785c94ef0b43ee793113d","[517.5]","","","[31]","[343]","343","61","34.45371023197615","[34.45371023197615]","[333.4537102319762]","[332]","0","0","1","0","149.57500019075815","1005.9050001907162","1000","[[[""img/mask72.png""]]]","","","main","61","color-precision2"
"","","","","","html-keyboard-response","133","658486","0.0-10.0-0.57","5f8bad1242efeb2f49156f51","640759fa512f630a2bdc333d","640785c94ef0b43ee793113d","null","","null","","","","","","","","","","","","","","","","","","","fixation","",""
"","","","","","color-precision2","134","662101","0.0-10.0-1.57-0.57","5f8bad1242efeb2f49156f51","640759fa512f630a2bdc333d","640785c94ef0b43ee793113d","[966.8999998569489]","","","[8]","[269]","269","187","95.73004965784982","[95.73004965784982]","[268.7300496578498]","[269]","0","0","1","0","149.375","992.9050000476418","1000","[[[""img/mask87.png""]]]","","","main","187","color-precision2"
"","","","","","html-keyboard-response","135","662602","0.0-10.0-0.58","5f8bad1242efeb2f49156f51","640759fa512f630a2bdc333d","640785c94ef0b43ee793113d","null","","null","","","","","","","","","","","","","","","","","","","fixation","",""
"","","","","","many-guess-6","136","666091","0.0-10.0-1.58-0.58","5f8bad1242efeb2f49156f51","640759fa512f630a2bdc333d","640785c94ef0b43ee793113d","[1607.2999999523163]","","","[18,5,10,25,26,7,6,21,2,4,27,17,15,32,24,3,29,9,28,35,1,31,11,0,14,12,16,20,30,8,23,19,22,33,34,13]","[200,359,60,249,30,170,130,230,10,150,100,80,20,349,40,339,319,110,190,220,140,240,180,329,70,210,309,50,269,289,120,90,299,160,279,259]","200","300","348.08580933301266","[348.08580933301266]","[48.08580933301266]","[48]","[210,30,300,210,120,30,120,30,120]","0","36","0","149.7200000953162","8.653000143007375","16","[[[""img/mask51.png""],[""img/mask38.png""],[""img/mask36.png""],[""img/mask88.png""],[""img/mask26.png""],[""img/mask70.png""],[""img/mask50.png""],[""img/mask26.png""],[""img/mask70.png""],[""img/mask99.png""],[""img/mask27.png""],[""img/mask7.png""],[""img/mask60.png""],[""img/mask31.png""],[""img/mask36.png""],[""img/mask71.png""],[""img/mask71.png""],[""img/mask43.png""],[""img/mask2.png""],[""img/mask77.png""],[""img/mask54.png""],[""img/mask71.png""],[""img/mask23.png""],[""img/mask22.png""],[""img/mask100.png""],[""img/mask41.png""],[""img/mask3.png""],[""img/mask72.png""],[""img/mask51.png""],[""img/mask55.png""],[""img/mask14.png""],[""img/mask28.png""],[""img/mask94.png""],[""img/mask31.png""],[""img/mask54.png""],[""img/mask78.png""]]]","","[18,5,10,25,26,7,6,21,2,4,27,17,15,32,24,3,29,9,28,35,1,31,11,0,14,12,16,20,30,8,23,19,22,33,34,13]","main","300","many-guess-6"
"","","","","","html-keyboard-response","137","666963","0.0-10.0-0.59","5f8bad1242efeb2f49156f51","640759fa512f630a2bdc333d","640785c94ef0b43ee793113d","871.0999999046326","Wow! You've completed 60 out of 180 trials! </p> <p>  </p><p> Take a quick break, then press any key when you're ready to continue."," ","","","","","","","","","","","","","","","","","","","fixation","",""
"","","","","","color-precision2","138","675008","0.0-10.0-1.59-0.59","5f8bad1242efeb2f49156f51","640759fa512f630a2bdc333d","640785c94ef0b43ee793113d","[2324.2999999523163]","","","[18]","[264]","264","117","29.03682228884414","[29.03682228884414]","[272.0368222888441]","[271]","0","0","1","0","149.4670001907507","997.4120000953553","1000","[[[""img/mask94.png""]]]","","","main","117","color-precision2"
"","","","","","html-keyboard-response","139","675509","0.0-10.0-0.60","5f8bad1242efeb2f49156f51","640759fa512f630a2bdc333d","640785c94ef0b43ee793113d","null","","null","","","","","","","","","","","","","","","","","","","fixation","",""
"","","","","","many-guess-6","140","680177","0.0-10.0-1.60-0.60","5f8bad1242efeb2f49156f51","640759fa512f630a2bdc333d","640785c94ef0b43ee793113d","[2526.399999856949]","","","[15,6,4,13,34,11,19,33,25,31,1,20,8,17,35,7,5,29,24,26,28,32,12,22,27,0,21,30,2,18,3,14,9,16,10,23]","[342,352,272,222,252,43,152,53,262,282,102,182,202,92,23,112,33,322,302,13,162,312,292,3,232,82,242,332,72,192,142,132,212,122,62,172]","342","100","118.40371076160491","[118.40371076160491]","[18.403710761604913]","[17]","[120,300,120,120,210,210,210,210,120]","0","36","0","149.85300014307722","19.804000047734007","16","[[[""img/mask45.png""],[""img/mask29.png""],[""img/mask84.png""],[""img/mask99.png""],[""img/mask32.png""],[""img/mask19.png""],[""img/mask40.png""],[""img/mask31.png""],[""img/mask45.png""],[""img/mask21.png""],[""img/mask27.png""],[""img/mask22.png""],[""img/mask91.png""],[""img/mask96.png""],[""img/mask27.png""],[""img/mask41.png""],[""img/mask14.png""],[""img/mask89.png""],[""img/mask67.png""],[""img/mask9.png""],[""img/mask41.png""],[""img/mask10.png""],[""img/mask24.png""],[""img/mask68.png""],[""img/mask88.png""],[""img/mask88.png""],[""img/mask46.png""],[""img/mask48.png""],[""img/mask65.png""],[""img/mask25.png""],[""img/mask19.png""],[""img/mask54.png""],[""img/mask98.png""],[""img/mask81.png""],[""img/mask3.png""],[""img/mask26.png""]]]","","[15,6,4,13,34,11,19,33,25,31,1,20,8,17,35,7,5,29,24,26,28,32,12,22,27,0,21,30,2,18,3,14,9,16,10,23]","main","100","many-guess-6"
"","","","","","html-keyboard-response","141","680678","0.0-10.0-0.61","5f8bad1242efeb2f49156f51","640759fa512f630a2bdc333d","640785c94ef0b43ee793113d","null","","null","","","","","","","","","","","","","","","","","","","fixation","",""
"","","","","","many-guess-6","142","686075","0.0-10.0-1.61-0.61","5f8bad1242efeb2f49156f51","640759fa512f630a2bdc333d","640785c94ef0b43ee793113d","[1825.1000001430511]","","","[35,17,16,24,29,6,11,5,34,22,7,33,31,18,8,20,9,14,1,26,2,21,32,0,30,25,4,10,27,19,12,28,15,23,3,13]","[353,243,134,4,193,24,14,253,263,323,223,333,273,124,213,313,183,74,104,54,34,114,343,303,44,173,283,163,94,293,203,153,84,233,64,143]","353","79","154.62904730456162","[154.62904730456162]","[75.62904730456162]","[74]","[120,210,30,120,30,120,300,210,30]","0","36","0","149.83400004764553","21.257000095327385","16","[[[""img/mask85.png""],[""img/mask41.png""],[""img/mask35.png""],[""img/mask31.png""],[""img/mask6.png""],[""img/mask39.png""],[""img/mask81.png""],[""img/mask3.png""],[""img/mask87.png""],[""img/mask42.png""],[""img/mask45.png""],[""img/mask76.png""],[""img/mask31.png""],[""img/mask53.png""],[""img/mask7.png""],[""img/mask13.png""],[""img/mask74.png""],[""img/mask69.png""],[""img/mask42.png""],[""img/mask2.png""],[""img/mask69.png""],[""img/mask18.png""],[""img/mask61.png""],[""img/mask9.png""],[""img/mask47.png""],[""img/mask75.png""],[""img/mask75.png""],[""img/mask14.png""],[""img/mask53.png""],[""img/mask39.png""],[""img/mask46.png""],[""img/mask11.png""],[""img/mask76.png""],[""img/mask82.png""],[""img/mask43.png""],[""img/mask82.png""]]]","","[35,17,16,24,29,6,11,5,34,22,7,33,31,18,8,20,9,14,1,26,2,21,32,0,30,25,4,10,27,19,12,28,15,23,3,13]","main","79","many-guess-6"
"","","","","","html-keyboard-response","143","686576","0.0-10.0-0.62","5f8bad1242efeb2f49156f51","640759fa512f630a2bdc333d","640785c94ef0b43ee793113d","null","","null","","","","","","","","","","","","","","","","","","","fixation","",""
"","","","","","many-guess-6","144","690828","0.0-10.0-1.62-0.62","5f8bad1242efeb2f49156f51","640759fa512f630a2bdc333d","640785c94ef0b43ee793113d","[1777.6000001430511]","","","[3,32,19,4,1,5,7,34,9,25,15,6,12,35,0,21,2,18,13,27,28,20,33,31,29,16,10,22,14,26,17,23,30,11,24,8]","[231,162,281,72,211,221,52,351,2,261,301,341,142,122,112,132,331,82,201,271,22,251,32,152,191,311,102,241,291,321,181,171,92,42,62,12]","231","67","182.61417472156452","[182.61417472156452]","[115.61417472156452]","[115]","[210,210,30,300,300,30,210,300,210]","0","36","0","149.14100014301948","19.60100004763808","16","[[[""img/mask28.png""],[""img/mask3.png""],[""img/mask98.png""],[""img/mask30.png""],[""img/mask59.png""],[""img/mask69.png""],[""img/mask27.png""],[""img/mask13.png""],[""img/mask17.png""],[""img/mask67.png""],[""img/mask49.png""],[""img/mask77.png""],[""img/mask67.png""],[""img/mask77.png""],[""img/mask83.png""],[""img/mask6.png""],[""img/mask64.png""],[""img/mask33.png""],[""img/mask100.png""],[""img/mask56.png""],[""img/mask95.png""],[""img/mask55.png""],[""img/mask1.png""],[""img/mask12.png""],[""img/mask16.png""],[""img/mask59.png""],[""img/mask45.png""],[""img/mask93.png""],[""img/mask27.png""],[""img/mask51.png""],[""img/mask42.png""],[""img/mask18.png""],[""img/mask86.png""],[""img/mask16.png""],[""img/mask24.png""],[""img/mask25.png""]]]","","[3,32,19,4,1,5,7,34,9,25,15,6,12,35,0,21,2,18,13,27,28,20,33,31,29,16,10,22,14,26,17,23,30,11,24,8]","main","67","many-guess-6"
"","","","","","html-keyboard-response","145","691329","0.0-10.0-0.63","5f8bad1242efeb2f49156f51","640759fa512f630a2bdc333d","640785c94ef0b43ee793113d","null","","null","","","","","","","","","","","","","","","","","","","fixation","",""
"","","","","","color-precision2","146","695344","0.0-10.0-1.63-0.63","5f8bad1242efeb2f49156f51","640759fa512f630a2bdc333d","640785c94ef0b43ee793113d","[1144.2999999523163]","","","[26]","[149]","149","75","234.54235498913084","[234.54235498913084]","[159.54235498913084]","[159]","0","0","1","0","149.8590000953991","993.9660001907032","1000","[[[""img/mask64.png""]]]","","","main","75","color-precision2"
"","","","","","html-keyboard-response","147","695847","0.0-10.0-0.64","5f8bad1242efeb2f49156f51","640759fa512f630a2bdc333d","640785c94ef0b43ee793113d","null","","null","","","","","","","","","","","","","","","","","","","fixation","",""
"","","","","","many-guess-6","148","699799","0.0-10.0-1.64-0.64","5f8bad1242efeb2f49156f51","640759fa512f630a2bdc333d","640785c94ef0b43ee793113d","[1632]","","","[8,19,4,18,6,12,13,33,29,5,16,30,23,3,21,7,34,17,1,27,22,9,0,10,2,24,25,32,20,15,35,31,28,11,26,14]","[73,232,332,272,3,123,83,262,292,242,142,222,103,33,192,322,23,342,162,282,172,13,252,63,43,182,352,312,53,212,152,133,202,93,113,302]","73","322","335.086773919593","[335.086773919593]","[13.086773919592986]","[13]","[300,30,120,120,30,120,120,120,30]","0","36","0","149.85900019074325","19.107000047690235","16","[[[""img/mask61.png""],[""img/mask97.png""],[""img/mask86.png""],[""img/mask80.png""],[""img/mask80.png""],[""img/mask28.png""],[""img/mask74.png""],[""img/mask27.png""],[""img/mask4.png""],[""img/mask83.png""],[""img/mask14.png""],[""img/mask35.png""],[""img/mask21.png""],[""img/mask77.png""],[""img/mask7.png""],[""img/mask20.png""],[""img/mask24.png""],[""img/mask70.png""],[""img/mask99.png""],[""img/mask12.png""],[""img/mask91.png""],[""img/mask30.png""],[""img/mask51.png""],[""img/mask87.png""],[""img/mask71.png""],[""img/mask24.png""],[""img/mask81.png""],[""img/mask14.png""],[""img/mask83.png""],[""img/mask9.png""],[""img/mask9.png""],[""img/mask53.png""],[""img/mask29.png""],[""img/mask13.png""],[""img/mask12.png""],[""img/mask57.png""]]]","","[8,19,4,18,6,12,13,33,29,5,16,30,23,3,21,7,34,17,1,27,22,9,0,10,2,24,25,32,20,15,35,31,28,11,26,14]","main","322","many-guess-6"
"","","","","","html-keyboard-response","149","700300","0.0-10.0-0.65","5f8bad1242efeb2f49156f51","640759fa512f630a2bdc333d","640785c94ef0b43ee793113d","null","","null","","","","","","","","","","","","","","","","","","","fixation","",""
"","","","","","color-precision2","150","703607","0.0-10.0-1.65-0.65","5f8bad1242efeb2f49156f51","640759fa512f630a2bdc333d","640785c94ef0b43ee793113d","[490.60000014305115]","","","[10]","[166]","166","143","318.6648276062761","[318.6648276062761]","[175.6648276062761]","[176]","0","0","1","0","149.0610001430614","1000.5990001907339","1000","[[[""img/mask98.png""]]]","","","main","143","color-precision2"
"","","","","","html-keyboard-response","151","704108","0.0-10.0-0.66","5f8bad1242efeb2f49156f51","640759fa512f630a2bdc333d","640785c94ef0b43ee793113d","null","","null","","","","","","","","","","","","","","","","","","","fixation","",""
"","","","","","color-precision2","152","707346","0.0-10.0-1.66-0.66","5f8bad1242efeb2f49156f51","640759fa512f630a2bdc333d","640785c94ef0b43ee793113d","[528.7999999523163]","","","[31]","[357]","357","309","296.9900056130828","[296.9900056130828]","[347.9900056130828]","[348]","0","0","1","0","149.71000019076746","1005.0340001907898","1000","[[[""img/mask30.png""]]]","","","main","309","color-precision2"
"","","","","","html-keyboard-response","153","707847","0.0-10.0-0.67","5f8bad1242efeb2f49156f51","640759fa512f630a2bdc333d","640785c94ef0b43ee793113d","null","","null","","","","","","","","","","","","","","","","","","","fixation","",""
"","","","","","many-guess-6","154","711964","0.0-10.0-1.67-0.67","5f8bad1242efeb2f49156f51","640759fa512f630a2bdc333d","640785c94ef0b43ee793113d","[2497.300000190735]","","","[29,8,24,14,13,3,5,20,30,23,1,12,34,33,16,10,21,6,22,28,35,32,7,4,27,25,17,9,15,19,31,2,11,0,18,26]","[135,175,205,265,225,294,235,5,275,95,255,324,105,354,115,165,35,55,304,215,185,65,25,314,145,344,85,285,45,75,334,125,15,195,245,155]","135","198","25.800521558796333","[25.800521558796333]","[187.80052155879633]","[187]","[120,30,300,210,120,210,300,300,120]","0","36","0","149.74800009536557","8.302000047639012","16","[[[""img/mask47.png""],[""img/mask63.png""],[""img/mask21.png""],[""img/mask44.png""],[""img/mask32.png""],[""img/mask24.png""],[""img/mask76.png""],[""img/mask26.png""],[""img/mask64.png""],[""img/mask10.png""],[""img/mask24.png""],[""img/mask52.png""],[""img/mask14.png""],[""img/mask76.png""],[""img/mask75.png""],[""img/mask51.png""],[""img/mask80.png""],[""img/mask53.png""],[""img/mask85.png""],[""img/mask94.png""],[""img/mask86.png""],[""img/mask80.png""],[""img/mask54.png""],[""img/mask83.png""],[""img/mask61.png""],[""img/mask34.png""],[""img/mask8.png""],[""img/mask38.png""],[""img/mask61.png""],[""img/mask34.png""],[""img/mask60.png""],[""img/mask71.png""],[""img/mask12.png""],[""img/mask9.png""],[""img/mask69.png""],[""img/mask54.png""]]]","","[29,8,24,14,13,3,5,20,30,23,1,12,34,33,16,10,21,6,22,28,35,32,7,4,27,25,17,9,15,19,31,2,11,0,18,26]","main","198","many-guess-6"
"","","","","","html-keyboard-response","155","712465","0.0-10.0-0.68","5f8bad1242efeb2f49156f51","640759fa512f630a2bdc333d","640785c94ef0b43ee793113d","null","","null","","","","","","","","","","","","","","","","","","","fixation","",""
"","","","","","color-precision2","156","716771","0.0-10.0-1.68-0.68","5f8bad1242efeb2f49156f51","640759fa512f630a2bdc333d","640785c94ef0b43ee793113d","[937.4000000953674]","","","[28]","[172]","172","19","189.27780849245138","[189.27780849245138]","[170.27780849245138]","[169]","0","0","1","0","148.15500019071624","1002.0480001907563","1000","[[[""img/mask21.png""]]]","","","main","19","color-precision2"
"","","","","","html-keyboard-response","157","717272","0.0-10.0-0.69","5f8bad1242efeb2f49156f51","640759fa512f630a2bdc333d","640785c94ef0b43ee793113d","null","","null","","","","","","","","","","","","","","","","","","","fixation","",""
"","","","","","many-guess-6","158","721257","0.0-10.0-1.69-0.69","5f8bad1242efeb2f49156f51","640759fa512f630a2bdc333d","640785c94ef0b43ee793113d","[1790.2999999523163]","","","[20,4,12,22,8,16,25,32,7,13,30,9,3,19,34,28,1,18,31,21,23,24,35,27,10,6,33,11,0,17,5,29,14,2,15,26]","[2,131,141,241,201,211,12,271,111,181,191,32,291,72,22,301,261,121,311,251,151,171,321,341,101,92,161,331,42,52,62,231,82,351,221,281]","2","225","149.30273354398489","[149.30273354398489]","[284.3027335439849]","[283]","[210,210,120,300,120,210,300,210,300]","0","36","0","149.47100019070785","11.023000143002719","16","[[[""img/mask88.png""],[""img/mask51.png""],[""img/mask11.png""],[""img/mask4.png""],[""img/mask42.png""],[""img/mask12.png""],[""img/mask16.png""],[""img/mask68.png""],[""img/mask7.png""],[""img/mask50.png""],[""img/mask80.png""],[""img/mask59.png""],[""img/mask60.png""],[""img/mask8.png""],[""img/mask61.png""],[""img/mask28.png""],[""img/mask56.png""],[""img/mask93.png""],[""img/mask66.png""],[""img/mask36.png""],[""img/mask29.png""],[""img/mask18.png""],[""img/mask5.png""],[""img/mask45.png""],[""img/mask80.png""],[""img/mask30.png""],[""img/mask14.png""],[""img/mask95.png""],[""img/mask62.png""],[""img/mask18.png""],[""img/mask84.png""],[""img/mask95.png""],[""img/mask6.png""],[""img/mask70.png""],[""img/mask6.png""],[""img/mask18.png""]]]","","[20,4,12,22,8,16,25,32,7,13,30,9,3,19,34,28,1,18,31,21,23,24,35,27,10,6,33,11,0,17,5,29,14,2,15,26]","main","225","many-guess-6"
"","","","","","html-keyboard-response","159","721767","0.0-10.0-0.70","5f8bad1242efeb2f49156f51","640759fa512f630a2bdc333d","640785c94ef0b43ee793113d","null","","null","","","","","","","","","","","","","","","","","","","fixation","",""
"","","","","","color-precision2","160","725930","0.0-10.0-1.70-0.70","5f8bad1242efeb2f49156f51","640759fa512f630a2bdc333d","640785c94ef0b43ee793113d","[946.5]","","","[35]","[128]","128","71","200.76988219442163","[200.76988219442163]","[129.76988219442163]","[130]","0","0","1","0","149.54100019077305","998.883000190719","1000","[[[""img/mask91.png""]]]","","","main","71","color-precision2"
"","","","","","html-keyboard-response","161","726431","0.0-10.0-0.71","5f8bad1242efeb2f49156f51","640759fa512f630a2bdc333d","640785c94ef0b43ee793113d","null","","null","","","","","","","","","","","","","","","","","","","fixation","",""
"","","","","","many-guess-6","162","731020","0.0-10.0-1.71-0.71","5f8bad1242efeb2f49156f51","640759fa512f630a2bdc333d","640785c94ef0b43ee793113d","[2820.2000000476837]","","","[6,26,35,10,3,13,0,21,1,25,34,5,12,11,23,31,16,8,33,27,17,7,22,19,24,18,14,15,28,2,20,29,32,4,9,30]","[78,98,357,347,118,168,8,318,248,198,258,138,38,308,28,48,18,338,268,298,108,68,58,218,238,188,278,128,148,158,88,228,178,288,328,208]","78","288","71.94684266484225","[71.94684266484225]","[143.94684266484225]","[142]","[30,30,120,30,300,210,210,30,300]","0","36","0","149.6490001907805","8.079000000027008","16","[[[""img/mask66.png""],[""img/mask37.png""],[""img/mask5.png""],[""img/mask33.png""],[""img/mask87.png""],[""img/mask15.png""],[""img/mask49.png""],[""img/mask68.png""],[""img/mask6.png""],[""img/mask67.png""],[""img/mask31.png""],[""img/mask78.png""],[""img/mask29.png""],[""img/mask72.png""],[""img/mask78.png""],[""img/mask93.png""],[""img/mask1.png""],[""img/mask65.png""],[""img/mask79.png""],[""img/mask49.png""],[""img/mask68.png""],[""img/mask45.png""],[""img/mask14.png""],[""img/mask62.png""],[""img/mask89.png""],[""img/mask33.png""],[""img/mask9.png""],[""img/mask49.png""],[""img/mask40.png""],[""img/mask14.png""],[""img/mask98.png""],[""img/mask4.png""],[""img/mask75.png""],[""img/mask35.png""],[""img/mask18.png""],[""img/mask49.png""]]]","","[6,26,35,10,3,13,0,21,1,25,34,5,12,11,23,31,16,8,33,27,17,7,22,19,24,18,14,15,28,2,20,29,32,4,9,30]","main","288","many-guess-6"
"","","","","","html-keyboard-response","163","731521","0.0-10.0-0.72","5f8bad1242efeb2f49156f51","640759fa512f630a2bdc333d","640785c94ef0b43ee793113d","null","","null","","","","","","","","","","","","","","","","","","","fixation","",""
