"success","timeout","failed_images","failed_audio","failed_video","trial_type","trial_index","time_elapsed","internal_node_id","subject_id","study_id","session_id","rt","stimulus","response","position_of_items","colors_of_items","color_of_target","wheel_spin","response_angle","physical_response_angle","reported_color_angle","reported_color_discrete","locs","which_test","set_size","wheel_num_options","actual_mask_duration","actual_stim_duration","CMDispTime","maskArray","maskRotation","item_positions","task","randomSpinAmount","mainTask"
"true","false","[]","[]","[]","preload","0","3028","0.0-0.0","6000cefee380e61fa9bc5ae4","640759fa512f630a2bdc333d","6408c1831b890a3c84ea3005","","","","","","","","","","","","","","","","","","","","","","","",""
"true","","","","","fullscreen","1","1194748","0.0-1.0","6000cefee380e61fa9bc5ae4","640759fa512f630a2bdc333d","6408c1831b890a3c84ea3005","","","","","","","","","","","","","","","","","","","","","","","",""
"","","","","","html-keyboard-response","2","1200347","0.0-2.0","6000cefee380e61fa9bc5ae4","640759fa512f630a2bdc333d","6408c1831b890a3c84ea3005","5598","What a beautiful Wednesday to do some awesome science! </p> <p>  </p><p> </p>
    By completing this survey or questionnaire, you are consenting to be in this research study. </p>
    Your participation is voluntary and you can stop at any time.<p> [Press any key to continue] </p>"," ","","","","","","","","","","","","","","","","","","","","",""
"","","","","","html-keyboard-response","3","1210356","0.0-3.0","6000cefee380e61fa9bc5ae4","640759fa512f630a2bdc333d","6408c1831b890a3c84ea3005","9342","
    <div style='width: 1000px;'>
    <div style='float: center;'><img src='img/TaskInstructions1.png'></img>
    </div>
    "," ","","","","","","","","","","","","","","","","","","","","",""
"","","","","","html-keyboard-response","4","1210466","0.0-4.0","6000cefee380e61fa9bc5ae4","640759fa512f630a2bdc333d","6408c1831b890a3c84ea3005","110","
    <div style='width: 1000px;'>
    <div style='float: center;'><img src='img/TaskInstructions1.png'></img>
    </div>
    ","v","","","","","","","","","","","","","","","","","","","","",""
"","","","","","html-keyboard-response","5","1220472","0.0-5.0","6000cefee380e61fa9bc5ae4","640759fa512f630a2bdc333d","6408c1831b890a3c84ea3005","null","
    <div style='width: 1000px;'>
    <div style='float: center;'><img src='img/TaskInstructions2.png'></img>
    </div>
    ","null","","","","","","","","","","","","","","","","","","","","",""
"","","","","","html-keyboard-response","6","1235066","0.0-6.0","6000cefee380e61fa9bc5ae4","640759fa512f630a2bdc333d","6408c1831b890a3c84ea3005","14594","
    <div style='width: 1000px;'>
    <div style='float: center;'><img src='img/TaskInstructions2.png'></img>
    </div>
    ","f","","","","","","","","","","","","","","","","","","","","",""
"","","","","","video-keyboard-response","7","1248203","0.0-7.0","6000cefee380e61fa9bc5ae4","640759fa512f630a2bdc333d","6408c1831b890a3c84ea3005","13136","[""video/TaskInstructions3.mp4""]","v","","","","","","","","","","","","","","","","","","","","",""
"","","","","","image-keyboard-response","8","1254082","0.0-8.0-0.0","6000cefee380e61fa9bc5ae4","640759fa512f630a2bdc333d","6408c1831b890a3c84ea3005","5874","img/training1.png","v","","","","","","","","","","","","","","","","","","","","",""
"","","","","","color-precision2","9","1262104","0.0-8.0-1.0-0.0","6000cefee380e61fa9bc5ae4","640759fa512f630a2bdc333d","6408c1831b890a3c84ea3005","[1981]","","","[0]","[169]","169","332","153.32116442322337","[153.32116442322337]","[181.32116442322337]","[180]","0","0","1","0","500","994","1000","","","0","training","",""
"","","","","","image-keyboard-response","10","1267834","0.0-8.0-0.1","6000cefee380e61fa9bc5ae4","640759fa512f630a2bdc333d","6408c1831b890a3c84ea3005","5729","img/training2.png","v","","","","","","","","","","","","","","","","","","","","",""
"","","","","","many-guess-6","11","1359482","0.0-8.0-1.1-0.1","6000cefee380e61fa9bc5ae4","640759fa512f630a2bdc333d","6408c1831b890a3c84ea3005","[87189]","","","[14,19,20]","[41,188,110]","41","276","302.99568428062236","[302.99568428062236]","[26.995684280622356]","[27]","[120,210,300,30,210,30,300,210,300,210,210,210,300,300,210,210,30,300,120,300,120,300,30,120,210,210,120,120,210,300,30,120,30,120,300,300]","0","3","0","1000","994","1000","[[[""img/mask99.png""],[""img/mask47.png""],[""img/mask51.png""]]]","","[14,19,20]","training","",""
"","","","","","image-keyboard-response","12","1364130","0.0-8.0-0.2","6000cefee380e61fa9bc5ae4","640759fa512f630a2bdc333d","6408c1831b890a3c84ea3005","4647","img/training3.png","g","","","","","","","","","","","","","","","","","","","","",""
"","","","","","[""many-guess-6""]","13","1369568","0.0-8.0-1.2-0.2","6000cefee380e61fa9bc5ae4","640759fa512f630a2bdc333d","6408c1831b890a3c84ea3005","[2040]","","","[35,34,3,10,28]","[85,21,72,7,155]","85","242","55.79378490994168","[55.79378490994168]","[173.79378490994168]","[172]","[210,300,300,120,210,300,30,210,300,30,300,210,210,300,120,30,120,300,300,120,30,120,300,30,210,300,30,120,210,30,300,300,210,300,30,30]","0","5","0","500","506","500","[[[""img/mask3.png""],[""img/mask99.png""],[""img/mask87.png""],[""img/mask51.png""],[""img/mask60.png""]]]","","[35,34,3,10,28]","training","",""
"","","","","","image-keyboard-response","14","1373826","0.0-8.0-0.3","6000cefee380e61fa9bc5ae4","640759fa512f630a2bdc333d","6408c1831b890a3c84ea3005","4258","img/training4.png","f","","","","","","","","","","","","","","","","","","","","",""
"","","","","","[""many-guess-6""]","15","1439885","0.0-8.0-1.3-0.3","6000cefee380e61fa9bc5ae4","640759fa512f630a2bdc333d","6408c1831b890a3c84ea3005","[63637]","","","[18,16,8,11,5,27,35,28,29,30]","[305,215,330,198,146,262,227,186,167,284]","305","8","34.48697619311895","[34.48697619311895]","[26.48697619311895]","[25]","[120,30,300,120,120,120,30,300,300,120,30,300,300,120,120,210,210,30,120,210,210,210,120,120,30,30,30,210,300,120,30,30,120,210,210,30]","0","10","0","133","136","132","[[[""img/mask99.png""],[""img/mask31.png""],[""img/mask45.png""],[""img/mask13.png""],[""img/mask39.png""],[""img/mask84.png""],[""img/mask68.png""],[""img/mask59.png""],[""img/mask90.png""],[""img/mask64.png""]]]","","[18,16,8,11,5,27,35,28,29,30]","training","",""
"","","","","","image-keyboard-response","16","1442523","0.0-8.0-0.4","6000cefee380e61fa9bc5ae4","640759fa512f630a2bdc333d","6408c1831b890a3c84ea3005","2638","img/training5.png","f","","","","","","","","","","","","","","","","","","","","",""
"","","","","","[""many-guess-6""]","17","1447068","0.0-8.0-1.4-0.4","6000cefee380e61fa9bc5ae4","640759fa512f630a2bdc333d","6408c1831b890a3c84ea3005","[2294]","","","[5,31,21,19,13,29,17,8,34,3,14,18,25,11,10,32,27,28,33,23,15,0,35,16,6,2,22,9,12,30,24,20,4,1,7,26]","[207,167,107,326,137,77,307,187,17,237,277,127,297,227,27,346,267,257,247,97,57,157,287,217,7,37,177,197,117,336,147,356,87,316,47,67]","207","300","130.11839173650995","[130.11839173650995]","[190.11839173650995]","[188]","[30,120,300,210,30,30,120,300,210,30,120,300,300,300,300,300,300,300,30,300,300,30,120,30,30,300,300,30,120,120,120,210,300,120,120,210]","0","36","0","134","20","16","[[[""img/mask59.png""],[""img/mask9.png""],[""img/mask2.png""],[""img/mask30.png""],[""img/mask41.png""],[""img/mask1.png""],[""img/mask72.png""],[""img/mask86.png""],[""img/mask62.png""],[""img/mask29.png""],[""img/mask92.png""],[""img/mask29.png""],[""img/mask17.png""],[""img/mask30.png""],[""img/mask53.png""],[""img/mask21.png""],[""img/mask74.png""],[""img/mask91.png""],[""img/mask13.png""],[""img/mask52.png""],[""img/mask19.png""],[""img/mask31.png""],[""img/mask100.png""],[""img/mask37.png""],[""img/mask33.png""],[""img/mask56.png""],[""img/mask95.png""],[""img/mask18.png""],[""img/mask15.png""],[""img/mask22.png""],[""img/mask72.png""],[""img/mask32.png""],[""img/mask43.png""],[""img/mask21.png""],[""img/mask28.png""],[""img/mask84.png""]]]","","[5,31,21,19,13,29,17,8,34,3,14,18,25,11,10,32,27,28,33,23,15,0,35,16,6,2,22,9,12,30,24,20,4,1,7,26]","training","",""
"","","","","","image-keyboard-response","18","1449051","0.0-9.0","6000cefee380e61fa9bc5ae4","640759fa512f630a2bdc333d","6408c1831b890a3c84ea3005","1981","[""img/endTraining.png""]","f","","","","","","","","","","","","","","","","","","","","",""
"","","","","","many-guess-6","19","1453408","0.0-10.0-0.0-0.0","6000cefee380e61fa9bc5ae4","640759fa512f630a2bdc333d","6408c1831b890a3c84ea3005","[2616]","","","[4,26,23,33,11,24,34,18,0,2,20,19,31,6,22,1,28,21,29,12,13,3,5,17,10,27,7,14,9,15,25,16,32,30,35,8]","[218,278,258,268,198,178,308,118,188,78,208,168,128,58,338,158,38,108,298,328,98,148,19,9,228,138,248,358,68,88,318,238,28,288,48,348]","218","120","308.899261218535","[308.899261218535]","[188.899261218535]","[189]","[300,120,30,210,120,210,120,30,120]","0","36","0","150","22","16","[[[""img/mask65.png""],[""img/mask96.png""],[""img/mask76.png""],[""img/mask40.png""],[""img/mask30.png""],[""img/mask77.png""],[""img/mask31.png""],[""img/mask84.png""],[""img/mask48.png""],[""img/mask29.png""],[""img/mask2.png""],[""img/mask72.png""],[""img/mask91.png""],[""img/mask62.png""],[""img/mask26.png""],[""img/mask36.png""],[""img/mask54.png""],[""img/mask29.png""],[""img/mask10.png""],[""img/mask75.png""],[""img/mask37.png""],[""img/mask18.png""],[""img/mask40.png""],[""img/mask3.png""],[""img/mask41.png""],[""img/mask56.png""],[""img/mask25.png""],[""img/mask99.png""],[""img/mask26.png""],[""img/mask1.png""],[""img/mask23.png""],[""img/mask11.png""],[""img/mask73.png""],[""img/mask56.png""],[""img/mask88.png""],[""img/mask84.png""]]]","","[4,26,23,33,11,24,34,18,0,2,20,19,31,6,22,1,28,21,29,12,13,3,5,17,10,27,7,14,9,15,25,16,32,30,35,8]","main","120","many-guess-6"
"","","","","","html-keyboard-response","20","1453910","0.0-10.0-1.0","6000cefee380e61fa9bc5ae4","640759fa512f630a2bdc333d","6408c1831b890a3c84ea3005","null","","null","","","","","","","","","","","","","","","","","","","fixation","",""
"","","","","","many-guess-6","21","1457991","0.0-10.0-0.1-0.1","6000cefee380e61fa9bc5ae4","640759fa512f630a2bdc333d","6408c1831b890a3c84ea3005","[2397]","","","[16,13,25,23,18,24,27,2,21,11,31,30,4,26,32,29,12,20,34,3,5,14,7,17,33,15,9,1,8,6,10,28,0,19,22,35]","[210,30,300,100,180,340,230,320,250,140,280,130,40,310,359,50,170,349,80,120,160,270,70,200,110,10,90,220,150,60,190,20,260,240,290,330]","210","107","168.1367669518017","[168.1367669518017]","[61.13676695180169]","[60]","[210,210,120,30,210,210,120,30,30]","0","36","0","149","8","16","[[[""img/mask32.png""],[""img/mask26.png""],[""img/mask82.png""],[""img/mask80.png""],[""img/mask93.png""],[""img/mask91.png""],[""img/mask3.png""],[""img/mask15.png""],[""img/mask54.png""],[""img/mask53.png""],[""img/mask53.png""],[""img/mask17.png""],[""img/mask83.png""],[""img/mask54.png""],[""img/mask43.png""],[""img/mask96.png""],[""img/mask88.png""],[""img/mask12.png""],[""img/mask39.png""],[""img/mask30.png""],[""img/mask98.png""],[""img/mask13.png""],[""img/mask93.png""],[""img/mask41.png""],[""img/mask46.png""],[""img/mask28.png""],[""img/mask20.png""],[""img/mask96.png""],[""img/mask29.png""],[""img/mask79.png""],[""img/mask27.png""],[""img/mask24.png""],[""img/mask70.png""],[""img/mask64.png""],[""img/mask15.png""],[""img/mask13.png""]]]","","[16,13,25,23,18,24,27,2,21,11,31,30,4,26,32,29,12,20,34,3,5,14,7,17,33,15,9,1,8,6,10,28,0,19,22,35]","main","107","many-guess-6"
"","","","","","html-keyboard-response","22","1458491","0.0-10.0-1.1","6000cefee380e61fa9bc5ae4","640759fa512f630a2bdc333d","6408c1831b890a3c84ea3005","null","","null","","","","","","","","","","","","","","","","","","","fixation","",""
"","","","","","many-guess-6","23","1463792","0.0-10.0-0.2-0.2","6000cefee380e61fa9bc5ae4","640759fa512f630a2bdc333d","6408c1831b890a3c84ea3005","[3363]","","","[30,18,10,34,6,35,5,28,12,7,8,2,24,20,19,21,31,29,27,3,22,13,23,11,0,26,15,32,17,25,14,1,16,33,9,4]","[240,71,41,91,31,11,330,320,191,181,290,141,1,131,340,270,260,161,250,201,300,81,151,211,310,230,350,221,280,171,21,111,61,121,101,51]","240","185","31.402797524262205","[31.402797524262205]","[206.4027975242622]","[205]","[300,120,120,210,210,30,210,210,30]","0","36","0","150","9","16","[[[""img/mask63.png""],[""img/mask51.png""],[""img/mask14.png""],[""img/mask49.png""],[""img/mask69.png""],[""img/mask36.png""],[""img/mask84.png""],[""img/mask49.png""],[""img/mask24.png""],[""img/mask3.png""],[""img/mask66.png""],[""img/mask69.png""],[""img/mask10.png""],[""img/mask9.png""],[""img/mask36.png""],[""img/mask67.png""],[""img/mask44.png""],[""img/mask68.png""],[""img/mask98.png""],[""img/mask32.png""],[""img/mask17.png""],[""img/mask69.png""],[""img/mask68.png""],[""img/mask85.png""],[""img/mask71.png""],[""img/mask53.png""],[""img/mask51.png""],[""img/mask6.png""],[""img/mask56.png""],[""img/mask70.png""],[""img/mask10.png""],[""img/mask25.png""],[""img/mask36.png""],[""img/mask59.png""],[""img/mask68.png""],[""img/mask99.png""]]]","","[30,18,10,34,6,35,5,28,12,7,8,2,24,20,19,21,31,29,27,3,22,13,23,11,0,26,15,32,17,25,14,1,16,33,9,4]","main","185","many-guess-6"
"","","","","","html-keyboard-response","24","1464293","0.0-10.0-1.2","6000cefee380e61fa9bc5ae4","640759fa512f630a2bdc333d","6408c1831b890a3c84ea3005","null","","null","","","","","","","","","","","","","","","","","","","fixation","",""
"","","","","","many-guess-6","25","1467226","0.0-10.0-0.3-0.3","6000cefee380e61fa9bc5ae4","640759fa512f630a2bdc333d","6408c1831b890a3c84ea3005","[1695]","","","[26,21,1,3,4,29,17,27,22,8,12,34,10,6,33,9,7,2,18,13,24,15,0,23,28,31,19,14,11,35,5,25,20,32,16,30]","[100,200,220,190,359,309,150,130,120,60,110,170,249,140,210,279,230,299,349,30,329,10,160,70,289,50,269,239,40,90,20,259,80,180,339,319]","100","110","350.1067085996116","[350.1067085996116]","[240.10670859961158]","[239]","[300,300,30,300,300,120,30,30,210]","0","36","0","150","13","16","[[[""img/mask13.png""],[""img/mask6.png""],[""img/mask45.png""],[""img/mask13.png""],[""img/mask31.png""],[""img/mask13.png""],[""img/mask96.png""],[""img/mask14.png""],[""img/mask95.png""],[""img/mask47.png""],[""img/mask19.png""],[""img/mask59.png""],[""img/mask12.png""],[""img/mask65.png""],[""img/mask41.png""],[""img/mask99.png""],[""img/mask37.png""],[""img/mask19.png""],[""img/mask93.png""],[""img/mask20.png""],[""img/mask85.png""],[""img/mask39.png""],[""img/mask34.png""],[""img/mask39.png""],[""img/mask35.png""],[""img/mask46.png""],[""img/mask30.png""],[""img/mask31.png""],[""img/mask81.png""],[""img/mask76.png""],[""img/mask59.png""],[""img/mask21.png""],[""img/mask40.png""],[""img/mask16.png""],[""img/mask98.png""],[""img/mask97.png""]]]","","[26,21,1,3,4,29,17,27,22,8,12,34,10,6,33,9,7,2,18,13,24,15,0,23,28,31,19,14,11,35,5,25,20,32,16,30]","main","110","many-guess-6"
"","","","","","html-keyboard-response","26","1467727","0.0-10.0-1.3","6000cefee380e61fa9bc5ae4","640759fa512f630a2bdc333d","6408c1831b890a3c84ea3005","null","","null","","","","","","","","","","","","","","","","","","","fixation","",""
"","","","","","many-guess-6","27","1470934","0.0-10.0-0.4-0.4","6000cefee380e61fa9bc5ae4","640759fa512f630a2bdc333d","6408c1831b890a3c84ea3005","[1901]","","","[0,25,23,29,5,9,30,35,11,34,1,14,21,24,6,28,16,32,33,12,18,13,27,15,8,26,7,31,2,4,3,17,20,19,10,22]","[197,137,317,267,78,48,97,247,127,8,187,28,207,157,18,277,68,257,287,347,297,147,117,87,58,177,217,307,327,107,337,357,38,167,227,237]","197","177","115.8325958165334","[115.8325958165334]","[298.8325958165334]","[297]","[300,30,120,30,210,210,30,30,210]","0","36","0","150","18","16","[[[""img/mask12.png""],[""img/mask1.png""],[""img/mask31.png""],[""img/mask71.png""],[""img/mask56.png""],[""img/mask74.png""],[""img/mask3.png""],[""img/mask63.png""],[""img/mask98.png""],[""img/mask89.png""],[""img/mask51.png""],[""img/mask49.png""],[""img/mask80.png""],[""img/mask33.png""],[""img/mask71.png""],[""img/mask75.png""],[""img/mask82.png""],[""img/mask81.png""],[""img/mask56.png""],[""img/mask100.png""],[""img/mask98.png""],[""img/mask79.png""],[""img/mask45.png""],[""img/mask16.png""],[""img/mask68.png""],[""img/mask73.png""],[""img/mask76.png""],[""img/mask38.png""],[""img/mask9.png""],[""img/mask25.png""],[""img/mask18.png""],[""img/mask10.png""],[""img/mask86.png""],[""img/mask70.png""],[""img/mask21.png""],[""img/mask89.png""]]]","","[0,25,23,29,5,9,30,35,11,34,1,14,21,24,6,28,16,32,33,12,18,13,27,15,8,26,7,31,2,4,3,17,20,19,10,22]","main","177","many-guess-6"
"","","","","","html-keyboard-response","28","1471436","0.0-10.0-1.4","6000cefee380e61fa9bc5ae4","640759fa512f630a2bdc333d","6408c1831b890a3c84ea3005","null","","null","","","","","","","","","","","","","","","","","","","fixation","",""
"","","","","","many-guess-6","29","1475435","0.0-10.0-0.5-0.5","6000cefee380e61fa9bc5ae4","640759fa512f630a2bdc333d","6408c1831b890a3c84ea3005","[2718]","","","[23,8,1,13,34,24,21,17,22,20,3,25,5,35,27,12,0,16,11,28,33,2,6,29,19,30,26,18,10,14,4,31,32,15,7,9]","[12,201,52,62,211,151,281,121,191,72,42,101,241,2,271,22,221,351,251,301,321,231,311,91,131,81,341,141,171,111,291,181,331,161,261,32]","12","167","352.9701141273895","[352.9701141273895]","[185.97011412738948]","[185]","[30,210,30,120,210,120,210,30,300]","0","36","0","150","11","16","[[[""img/mask57.png""],[""img/mask96.png""],[""img/mask87.png""],[""img/mask62.png""],[""img/mask90.png""],[""img/mask51.png""],[""img/mask80.png""],[""img/mask30.png""],[""img/mask78.png""],[""img/mask12.png""],[""img/mask11.png""],[""img/mask24.png""],[""img/mask93.png""],[""img/mask88.png""],[""img/mask28.png""],[""img/mask98.png""],[""img/mask66.png""],[""img/mask40.png""],[""img/mask48.png""],[""img/mask59.png""],[""img/mask55.png""],[""img/mask100.png""],[""img/mask76.png""],[""img/mask11.png""],[""img/mask60.png""],[""img/mask58.png""],[""img/mask3.png""],[""img/mask94.png""],[""img/mask28.png""],[""img/mask55.png""],[""img/mask51.png""],[""img/mask55.png""],[""img/mask68.png""],[""img/mask7.png""],[""img/mask63.png""],[""img/mask19.png""]]]","","[23,8,1,13,34,24,21,17,22,20,3,25,5,35,27,12,0,16,11,28,33,2,6,29,19,30,26,18,10,14,4,31,32,15,7,9]","main","167","many-guess-6"
"","","","","","html-keyboard-response","30","1475935","0.0-10.0-1.5","6000cefee380e61fa9bc5ae4","640759fa512f630a2bdc333d","6408c1831b890a3c84ea3005","null","","null","","","","","","","","","","","","","","","","","","","fixation","",""
"","","","","","color-precision2","31","1480530","0.0-10.0-0.6-0.6","6000cefee380e61fa9bc5ae4","640759fa512f630a2bdc333d","6408c1831b890a3c84ea3005","[2361]","","","[16]","[19]","19","199","208.0155198602548","[208.0155198602548]","[9.015519860254813]","[9]","0","0","1","0","149","996","1000","[[[""img/mask28.png""]]]","","","main","199","color-precision2"
"","","","","","html-keyboard-response","32","1481031","0.0-10.0-1.6","6000cefee380e61fa9bc5ae4","640759fa512f630a2bdc333d","6408c1831b890a3c84ea3005","null","","null","","","","","","","","","","","","","","","","","","","fixation","",""
"","","","","","color-precision2","33","1484894","0.0-10.0-0.7-0.7","6000cefee380e61fa9bc5ae4","640759fa512f630a2bdc333d","6408c1831b890a3c84ea3005","[1441]","","","[15]","[95]","95","324","63.70814939733547","[63.70814939733547]","[99.70814939733549]","[98]","0","0","1","0","150","998","1000","[[[""img/mask28.png""]]]","","","main","324","color-precision2"
"","","","","","html-keyboard-response","34","1485395","0.0-10.0-1.7","6000cefee380e61fa9bc5ae4","640759fa512f630a2bdc333d","6408c1831b890a3c84ea3005","null","","null","","","","","","","","","","","","","","","","","","","fixation","",""
"","","","","","color-precision2","35","1489176","0.0-10.0-0.8-0.8","6000cefee380e61fa9bc5ae4","640759fa512f630a2bdc333d","6408c1831b890a3c84ea3005","[1204]","","","[14]","[217]","217","269","129.71576629530966","[129.71576629530966]","[220.71576629530966]","[219]","0","0","1","0","166","1008","1000","[[[""img/mask89.png""]]]","","","main","269","color-precision2"
"","","","","","html-keyboard-response","36","1489677","0.0-10.0-1.8","6000cefee380e61fa9bc5ae4","640759fa512f630a2bdc333d","6408c1831b890a3c84ea3005","null","","null","","","","","","","","","","","","","","","","","","","fixation","",""
"","","","","","many-guess-6","37","1789819","0.0-10.0-0.9-0.9","6000cefee380e61fa9bc5ae4","640759fa512f630a2bdc333d","6408c1831b890a3c84ea3005","[2252]","","","[9,6,14,24,18,30,10,31,29,34,11,12,15,16,27,25,33,0,17,3,5,26,19,32,35,20,4,23,22,8,13,28,2,7,1,21]","[73,34,173,313,193,203,83,253,293,133,143,333,323,243,4,183,353,273,103,263,113,303,93,24,44,213,233,223,163,53,343,283,153,123,63,14]","73","265","212.0316929596443","[212.0316929596443]","[307.03169295964426]","[307]","[300,210,30,210,30,120,30,120,300]","0","36","0","149","24","16","[[[""img/mask54.png""],[""img/mask45.png""],[""img/mask87.png""],[""img/mask13.png""],[""img/mask15.png""],[""img/mask94.png""],[""img/mask84.png""],[""img/mask11.png""],[""img/mask8.png""],[""img/mask52.png""],[""img/mask57.png""],[""img/mask78.png""],[""img/mask6.png""],[""img/mask86.png""],[""img/mask43.png""],[""img/mask71.png""],[""img/mask24.png""],[""img/mask63.png""],[""img/mask6.png""],[""img/mask37.png""],[""img/mask42.png""],[""img/mask55.png""],[""img/mask23.png""],[""img/mask51.png""],[""img/mask93.png""],[""img/mask53.png""],[""img/mask92.png""],[""img/mask37.png""],[""img/mask40.png""],[""img/mask64.png""],[""img/mask97.png""],[""img/mask14.png""],[""img/mask78.png""],[""img/mask52.png""],[""img/mask79.png""],[""img/mask30.png""]]]","","[9,6,14,24,18,30,10,31,29,34,11,12,15,16,27,25,33,0,17,3,5,26,19,32,35,20,4,23,22,8,13,28,2,7,1,21]","main","265","many-guess-6"
"","","","","","html-keyboard-response","38","1790320","0.0-10.0-1.9","6000cefee380e61fa9bc5ae4","640759fa512f630a2bdc333d","6408c1831b890a3c84ea3005","null","","null","","","","","","","","","","","","","","","","","","","fixation","",""
"","","","","","color-precision2","39","1793733","0.0-10.0-0.10-0.10","6000cefee380e61fa9bc5ae4","640759fa512f630a2bdc333d","6408c1831b890a3c84ea3005","[832]","","","[13]","[88]","88","258","341.3321399093966","[341.3321399093966]","[83.33213990939657]","[83]","0","0","1","0","150","993","1000","[[[""img/mask21.png""]]]","","","main","258","color-precision2"
"","","","","","html-keyboard-response","40","1794234","0.0-10.0-1.10","6000cefee380e61fa9bc5ae4","640759fa512f630a2bdc333d","6408c1831b890a3c84ea3005","null","","null","","","","","","","","","","","","","","","","","","","fixation","",""
"","","","","","many-guess-6","41","1797161","0.0-10.0-0.11-0.11","6000cefee380e61fa9bc5ae4","640759fa512f630a2bdc333d","6408c1831b890a3c84ea3005","[1693]","","","[28,26,24,6,32,20,19,0,22,2,21,30,17,1,3,25,13,34,4,33,31,15,35,14,29,9,27,16,10,7,8,5,18,23,12,11]","[128,257,138,227,188,277,317,357,8,78,98,237,28,58,198,178,148,207,327,38,287,118,88,297,18,168,108,337,347,48,158,267,68,307,247,217]","128","35","54.747906759947085","[54.747906759947085]","[19.747906759947085]","[18]","[30,210,120,300,300,30,30,30,120]","0","36","0","149","16","16","[[[""img/mask38.png""],[""img/mask99.png""],[""img/mask60.png""],[""img/mask82.png""],[""img/mask37.png""],[""img/mask46.png""],[""img/mask10.png""],[""img/mask98.png""],[""img/mask7.png""],[""img/mask82.png""],[""img/mask61.png""],[""img/mask63.png""],[""img/mask21.png""],[""img/mask78.png""],[""img/mask56.png""],[""img/mask77.png""],[""img/mask20.png""],[""img/mask5.png""],[""img/mask84.png""],[""img/mask100.png""],[""img/mask4.png""],[""img/mask66.png""],[""img/mask52.png""],[""img/mask60.png""],[""img/mask69.png""],[""img/mask22.png""],[""img/mask38.png""],[""img/mask47.png""],[""img/mask50.png""],[""img/mask22.png""],[""img/mask80.png""],[""img/mask40.png""],[""img/mask79.png""],[""img/mask1.png""],[""img/mask84.png""],[""img/mask67.png""]]]","","[28,26,24,6,32,20,19,0,22,2,21,30,17,1,3,25,13,34,4,33,31,15,35,14,29,9,27,16,10,7,8,5,18,23,12,11]","main","35","many-guess-6"
"","","","","","html-keyboard-response","42","1797663","0.0-10.0-1.11","6000cefee380e61fa9bc5ae4","640759fa512f630a2bdc333d","6408c1831b890a3c84ea3005","null","","null","","","","","","","","","","","","","","","","","","","fixation","",""
"","","","","","many-guess-6","43","1802285","0.0-10.0-0.12-0.12","6000cefee380e61fa9bc5ae4","640759fa512f630a2bdc333d","6408c1831b890a3c84ea3005","[1947]","","","[35,17,22,14,3,19,2,24,23,16,30,21,34,26,32,15,27,10,28,11,7,9,33,20,12,18,31,4,25,13,0,1,6,5,29,8]","[325,305,126,315,255,245,6,26,215,66,16,285,345,56,46,275,235,185,86,136,335,116,295,96,225,195,106,265,36,76,355,176,146,205,156,166]","325","256","104.32303135767242","[104.32303135767242]","[208.32303135767242]","[206]","[120,300,210,30,120,120,30,300,300]","0","36","0","150","14","16","[[[""img/mask43.png""],[""img/mask13.png""],[""img/mask71.png""],[""img/mask31.png""],[""img/mask35.png""],[""img/mask62.png""],[""img/mask46.png""],[""img/mask49.png""],[""img/mask74.png""],[""img/mask2.png""],[""img/mask90.png""],[""img/mask77.png""],[""img/mask18.png""],[""img/mask34.png""],[""img/mask76.png""],[""img/mask83.png""],[""img/mask50.png""],[""img/mask71.png""],[""img/mask73.png""],[""img/mask42.png""],[""img/mask16.png""],[""img/mask4.png""],[""img/mask30.png""],[""img/mask6.png""],[""img/mask85.png""],[""img/mask65.png""],[""img/mask15.png""],[""img/mask91.png""],[""img/mask1.png""],[""img/mask60.png""],[""img/mask61.png""],[""img/mask7.png""],[""img/mask11.png""],[""img/mask44.png""],[""img/mask1.png""],[""img/mask67.png""]]]","","[35,17,22,14,3,19,2,24,23,16,30,21,34,26,32,15,27,10,28,11,7,9,33,20,12,18,31,4,25,13,0,1,6,5,29,8]","main","256","many-guess-6"
"","","","","","html-keyboard-response","44","1802791","0.0-10.0-1.12","6000cefee380e61fa9bc5ae4","640759fa512f630a2bdc333d","6408c1831b890a3c84ea3005","null","","null","","","","","","","","","","","","","","","","","","","fixation","",""
"","","","","","many-guess-6","45","1805733","0.0-10.0-0.13-0.13","6000cefee380e61fa9bc5ae4","640759fa512f630a2bdc333d","6408c1831b890a3c84ea3005","[1545]","","","[23,18,2,21,24,29,33,10,32,27,6,20,16,9,3,17,13,12,14,35,22,7,8,28,25,19,4,34,26,11,0,15,30,1,5,31]","[267,227,167,87,107,187,177,207,297,67,317,327,77,336,127,57,247,97,237,37,47,7,17,307,157,117,356,137,257,217,346,27,197,287,147,277]","267","123","147.51318652163044","[147.51318652163044]","[24.513186521630445]","[24]","[300,210,210,120,210,210,30,30,300]","0","36","0","150","11","16","[[[""img/mask12.png""],[""img/mask10.png""],[""img/mask88.png""],[""img/mask76.png""],[""img/mask32.png""],[""img/mask23.png""],[""img/mask70.png""],[""img/mask55.png""],[""img/mask99.png""],[""img/mask80.png""],[""img/mask97.png""],[""img/mask88.png""],[""img/mask80.png""],[""img/mask1.png""],[""img/mask86.png""],[""img/mask33.png""],[""img/mask98.png""],[""img/mask92.png""],[""img/mask44.png""],[""img/mask52.png""],[""img/mask41.png""],[""img/mask48.png""],[""img/mask99.png""],[""img/mask25.png""],[""img/mask87.png""],[""img/mask2.png""],[""img/mask34.png""],[""img/mask21.png""],[""img/mask24.png""],[""img/mask28.png""],[""img/mask43.png""],[""img/mask63.png""],[""img/mask18.png""],[""img/mask54.png""],[""img/mask21.png""],[""img/mask66.png""]]]","","[23,18,2,21,24,29,33,10,32,27,6,20,16,9,3,17,13,12,14,35,22,7,8,28,25,19,4,34,26,11,0,15,30,1,5,31]","main","123","many-guess-6"
"","","","","","html-keyboard-response","46","1806240","0.0-10.0-1.13","6000cefee380e61fa9bc5ae4","640759fa512f630a2bdc333d","6408c1831b890a3c84ea3005","null","","null","","","","","","","","","","","","","","","","","","","fixation","",""
"","","","","","many-guess-6","47","1808913","0.0-10.0-0.14-0.14","6000cefee380e61fa9bc5ae4","640759fa512f630a2bdc333d","6408c1831b890a3c84ea3005","[1324]","","","[23,15,26,9,33,24,27,6,17,32,13,2,22,20,35,16,31,28,21,34,10,30,7,29,25,1,5,14,0,11,12,8,19,18,4,3]","[18,257,247,48,267,137,287,327,217,107,227,68,317,337,127,97,8,237,307,167,347,78,297,197,187,28,38,207,88,117,277,357,147,58,157,177]","18","4","99.34571886959702","[99.34571886959702]","[95.34571886959702]","[94]","[300,210,120,30,210,210,30,210,120]","0","36","0","151","12","16","[[[""img/mask99.png""],[""img/mask7.png""],[""img/mask27.png""],[""img/mask28.png""],[""img/mask99.png""],[""img/mask67.png""],[""img/mask20.png""],[""img/mask48.png""],[""img/mask64.png""],[""img/mask79.png""],[""img/mask99.png""],[""img/mask5.png""],[""img/mask40.png""],[""img/mask47.png""],[""img/mask74.png""],[""img/mask8.png""],[""img/mask6.png""],[""img/mask52.png""],[""img/mask97.png""],[""img/mask3.png""],[""img/mask59.png""],[""img/mask92.png""],[""img/mask29.png""],[""img/mask87.png""],[""img/mask59.png""],[""img/mask10.png""],[""img/mask97.png""],[""img/mask26.png""],[""img/mask98.png""],[""img/mask75.png""],[""img/mask68.png""],[""img/mask14.png""],[""img/mask95.png""],[""img/mask18.png""],[""img/mask36.png""],[""img/mask71.png""]]]","","[23,15,26,9,33,24,27,6,17,32,13,2,22,20,35,16,31,28,21,34,10,30,7,29,25,1,5,14,0,11,12,8,19,18,4,3]","main","4","many-guess-6"
"","","","","","html-keyboard-response","48","1809414","0.0-10.0-1.14","6000cefee380e61fa9bc5ae4","640759fa512f630a2bdc333d","6408c1831b890a3c84ea3005","null","","null","","","","","","","","","","","","","","","","","","","fixation","",""
"","","","","","color-precision2","49","1812345","0.0-10.0-0.15-0.15","6000cefee380e61fa9bc5ae4","640759fa512f630a2bdc333d","6408c1831b890a3c84ea3005","[753]","","","[33]","[172]","172","91","271.9266610899945","[271.9266610899945]","[180.92666108999452]","[181]","0","0","1","0","150","996","1000","[[[""img/mask75.png""]]]","","","main","91","color-precision2"
"","","","","","html-keyboard-response","50","1812846","0.0-10.0-1.15","6000cefee380e61fa9bc5ae4","640759fa512f630a2bdc333d","6408c1831b890a3c84ea3005","null","","null","","","","","","","","","","","","","","","","","","","fixation","",""
"","","","","","color-precision2","51","1816427","0.0-10.0-0.16-0.16","6000cefee380e61fa9bc5ae4","640759fa512f630a2bdc333d","6408c1831b890a3c84ea3005","[1117]","","","[5]","[41]","41","145","180.68838535767853","[180.68838535767853]","[35.68838535767853]","[35]","0","0","1","0","149","993","1000","[[[""img/mask54.png""]]]","","","main","145","color-precision2"
"","","","","","html-keyboard-response","52","1816927","0.0-10.0-1.16","6000cefee380e61fa9bc5ae4","640759fa512f630a2bdc333d","6408c1831b890a3c84ea3005","null","","null","","","","","","","","","","","","","","","","","","","fixation","",""
"","","","","","many-guess-6","53","1820515","0.0-10.0-0.17-0.17","6000cefee380e61fa9bc5ae4","640759fa512f630a2bdc333d","6408c1831b890a3c84ea3005","[1971]","","","[35,23,2,8,19,22,28,32,12,29,6,20,5,7,17,13,10,11,3,9,31,16,18,4,27,15,30,34,33,26,24,1,21,25,14,0]","[49,128,278,298,168,39,288,318,88,59,258,29,148,98,78,158,308,138,358,188,118,218,68,19,198,238,328,9,108,208,248,348,178,268,338,228]","49","336","225.82058057448307","[225.82058057448307]","[249.82058057448307]","[250]","[120,120,210,300,120,210,30,30,210]","0","36","0","150","9","16","[[[""img/mask100.png""],[""img/mask68.png""],[""img/mask88.png""],[""img/mask3.png""],[""img/mask35.png""],[""img/mask63.png""],[""img/mask51.png""],[""img/mask64.png""],[""img/mask68.png""],[""img/mask24.png""],[""img/mask12.png""],[""img/mask85.png""],[""img/mask4.png""],[""img/mask47.png""],[""img/mask73.png""],[""img/mask27.png""],[""img/mask32.png""],[""img/mask90.png""],[""img/mask86.png""],[""img/mask69.png""],[""img/mask67.png""],[""img/mask46.png""],[""img/mask57.png""],[""img/mask80.png""],[""img/mask19.png""],[""img/mask93.png""],[""img/mask31.png""],[""img/mask87.png""],[""img/mask4.png""],[""img/mask58.png""],[""img/mask53.png""],[""img/mask61.png""],[""img/mask78.png""],[""img/mask37.png""],[""img/mask49.png""],[""img/mask23.png""]]]","","[35,23,2,8,19,22,28,32,12,29,6,20,5,7,17,13,10,11,3,9,31,16,18,4,27,15,30,34,33,26,24,1,21,25,14,0]","main","336","many-guess-6"
"","","","","","html-keyboard-response","54","1821015","0.0-10.0-1.17","6000cefee380e61fa9bc5ae4","640759fa512f630a2bdc333d","6408c1831b890a3c84ea3005","null","","null","","","","","","","","","","","","","","","","","","","fixation","",""
"","","","","","many-guess-6","55","1824089","0.0-10.0-0.18-0.18","6000cefee380e61fa9bc5ae4","640759fa512f630a2bdc333d","6408c1831b890a3c84ea3005","[1728]","","","[3,13,6,12,8,7,11,17,1,23,35,5,26,28,10,24,33,16,34,32,22,4,20,9,14,18,31,27,19,15,30,2,29,21,0,25]","[43,123,152,172,53,312,83,73,13,262,282,113,242,162,202,222,192,212,322,292,352,272,23,252,103,182,232,142,93,332,63,132,302,33,342,3]","43","159","21.30576286086489","[21.30576286086489]","[222.3057628608649]","[221]","[120,120,210,30,210,210,300,210,300]","0","36","0","150","13","16","[[[""img/mask6.png""],[""img/mask9.png""],[""img/mask22.png""],[""img/mask2.png""],[""img/mask96.png""],[""img/mask1.png""],[""img/mask3.png""],[""img/mask77.png""],[""img/mask80.png""],[""img/mask82.png""],[""img/mask91.png""],[""img/mask20.png""],[""img/mask74.png""],[""img/mask13.png""],[""img/mask24.png""],[""img/mask10.png""],[""img/mask51.png""],[""img/mask17.png""],[""img/mask71.png""],[""img/mask55.png""],[""img/mask80.png""],[""img/mask88.png""],[""img/mask14.png""],[""img/mask81.png""],[""img/mask3.png""],[""img/mask17.png""],[""img/mask3.png""],[""img/mask81.png""],[""img/mask8.png""],[""img/mask75.png""],[""img/mask42.png""],[""img/mask8.png""],[""img/mask13.png""],[""img/mask28.png""],[""img/mask56.png""],[""img/mask19.png""]]]","","[3,13,6,12,8,7,11,17,1,23,35,5,26,28,10,24,33,16,34,32,22,4,20,9,14,18,31,27,19,15,30,2,29,21,0,25]","main","159","many-guess-6"
"","","","","","html-keyboard-response","56","1824589","0.0-10.0-1.18","6000cefee380e61fa9bc5ae4","640759fa512f630a2bdc333d","6408c1831b890a3c84ea3005","null","","null","","","","","","","","","","","","","","","","","","","fixation","",""
"","","","","","many-guess-6","57","1827963","0.0-10.0-0.19-0.19","6000cefee380e61fa9bc5ae4","640759fa512f630a2bdc333d","6408c1831b890a3c84ea3005","[2133]","","","[32,24,28,6,12,8,9,1,3,23,16,25,27,4,26,29,35,21,0,10,18,30,33,5,11,20,15,14,17,19,13,31,2,34,7,22]","[182,301,221,331,311,281,142,122,102,22,201,231,251,112,291,62,132,32,172,192,152,261,82,52,2,321,72,92,211,42,341,351,271,162,241,12]","182","244","81.69920254949278","[81.69920254949278]","[197.69920254949278]","[196]","[210,30,300,30,30,300,300,120,300]","0","36","0","150","16","16","[[[""img/mask40.png""],[""img/mask26.png""],[""img/mask74.png""],[""img/mask19.png""],[""img/mask22.png""],[""img/mask15.png""],[""img/mask49.png""],[""img/mask59.png""],[""img/mask39.png""],[""img/mask1.png""],[""img/mask97.png""],[""img/mask7.png""],[""img/mask78.png""],[""img/mask16.png""],[""img/mask22.png""],[""img/mask21.png""],[""img/mask15.png""],[""img/mask98.png""],[""img/mask25.png""],[""img/mask5.png""],[""img/mask64.png""],[""img/mask82.png""],[""img/mask25.png""],[""img/mask27.png""],[""img/mask28.png""],[""img/mask23.png""],[""img/mask72.png""],[""img/mask36.png""],[""img/mask24.png""],[""img/mask52.png""],[""img/mask20.png""],[""img/mask80.png""],[""img/mask18.png""],[""img/mask98.png""],[""img/mask6.png""],[""img/mask52.png""]]]","","[32,24,28,6,12,8,9,1,3,23,16,25,27,4,26,29,35,21,0,10,18,30,33,5,11,20,15,14,17,19,13,31,2,34,7,22]","main","244","many-guess-6"
"","","","","","html-keyboard-response","58","1833732","0.0-10.0-1.19","6000cefee380e61fa9bc5ae4","640759fa512f630a2bdc333d","6408c1831b890a3c84ea3005","5767","Wow! You've completed 20 out of 180 trials! </p> <p>  </p><p> Take a quick break, then press any key when you're ready to continue."," ","","","","","","","","","","","","","","","","","","","fixation","",""
"","","","","","many-guess-6","59","1837415","0.0-10.0-0.20-0.20","6000cefee380e61fa9bc5ae4","640759fa512f630a2bdc333d","6408c1831b890a3c84ea3005","[1781]","","","[28,29,1,33,9,17,7,10,34,6,23,18,35,16,15,21,0,2,20,24,5,31,14,27,8,3,12,19,32,22,30,26,11,13,25,4]","[162,42,202,291,232,262,222,92,152,122,142,321,192,242,252,281,2,62,72,341,32,22,331,112,52,311,351,12,272,132,212,172,301,102,82,182]","162","241","81.62518768421775","[81.62518768421775]","[200.62518768421774]","[199]","[210,30,120,300,210,120,300,300,30]","0","36","0","149","11","16","[[[""img/mask98.png""],[""img/mask46.png""],[""img/mask67.png""],[""img/mask39.png""],[""img/mask60.png""],[""img/mask57.png""],[""img/mask70.png""],[""img/mask15.png""],[""img/mask96.png""],[""img/mask26.png""],[""img/mask32.png""],[""img/mask9.png""],[""img/mask85.png""],[""img/mask60.png""],[""img/mask18.png""],[""img/mask6.png""],[""img/mask98.png""],[""img/mask10.png""],[""img/mask82.png""],[""img/mask18.png""],[""img/mask44.png""],[""img/mask87.png""],[""img/mask26.png""],[""img/mask73.png""],[""img/mask54.png""],[""img/mask18.png""],[""img/mask45.png""],[""img/mask6.png""],[""img/mask87.png""],[""img/mask58.png""],[""img/mask2.png""],[""img/mask68.png""],[""img/mask1.png""],[""img/mask41.png""],[""img/mask76.png""],[""img/mask11.png""]]]","","[28,29,1,33,9,17,7,10,34,6,23,18,35,16,15,21,0,2,20,24,5,31,14,27,8,3,12,19,32,22,30,26,11,13,25,4]","main","241","many-guess-6"
"","","","","","html-keyboard-response","60","1837916","0.0-10.0-1.20","6000cefee380e61fa9bc5ae4","640759fa512f630a2bdc333d","6408c1831b890a3c84ea3005","null","","null","","","","","","","","","","","","","","","","","","","fixation","",""
"","","","","","color-precision2","61","1841135","0.0-10.0-0.21-0.21","6000cefee380e61fa9bc5ae4","640759fa512f630a2bdc333d","6408c1831b890a3c84ea3005","[949]","","","[22]","[178]","178","129","308.9544771839002","[308.9544771839002]","[179.95447718390022]","[180]","0","0","1","0","150","997","1000","[[[""img/mask22.png""]]]","","","main","129","color-precision2"
"","","","","","html-keyboard-response","62","1841635","0.0-10.0-1.21","6000cefee380e61fa9bc5ae4","640759fa512f630a2bdc333d","6408c1831b890a3c84ea3005","null","","null","","","","","","","","","","","","","","","","","","","fixation","",""
"","","","","","many-guess-6","63","1844699","0.0-10.0-0.22-0.22","6000cefee380e61fa9bc5ae4","640759fa512f630a2bdc333d","6408c1831b890a3c84ea3005","[1663]","","","[20,33,26,30,10,28,13,31,35,11,3,17,34,15,27,8,29,7,14,25,32,1,9,2,6,4,18,21,5,12,24,0,16,22,23,19]","[233,43,73,143,63,353,123,303,293,283,83,53,223,343,193,313,203,13,213,163,4,103,153,263,333,243,253,33,133,173,113,93,273,323,23,183]","233","84","78.69563508786229","[78.69563508786229]","[354.6956350878623]","[353]","[300,300,120,120,300,120,300,210,300]","0","36","0","149","19","16","[[[""img/mask19.png""],[""img/mask23.png""],[""img/mask64.png""],[""img/mask66.png""],[""img/mask1.png""],[""img/mask16.png""],[""img/mask26.png""],[""img/mask5.png""],[""img/mask95.png""],[""img/mask63.png""],[""img/mask29.png""],[""img/mask88.png""],[""img/mask47.png""],[""img/mask81.png""],[""img/mask64.png""],[""img/mask64.png""],[""img/mask31.png""],[""img/mask18.png""],[""img/mask16.png""],[""img/mask10.png""],[""img/mask78.png""],[""img/mask25.png""],[""img/mask78.png""],[""img/mask48.png""],[""img/mask72.png""],[""img/mask72.png""],[""img/mask75.png""],[""img/mask82.png""],[""img/mask10.png""],[""img/mask31.png""],[""img/mask21.png""],[""img/mask39.png""],[""img/mask28.png""],[""img/mask44.png""],[""img/mask14.png""],[""img/mask78.png""]]]","","[20,33,26,30,10,28,13,31,35,11,3,17,34,15,27,8,29,7,14,25,32,1,9,2,6,4,18,21,5,12,24,0,16,22,23,19]","main","84","many-guess-6"
"","","","","","html-keyboard-response","64","1845200","0.0-10.0-1.22","6000cefee380e61fa9bc5ae4","640759fa512f630a2bdc333d","6408c1831b890a3c84ea3005","null","","null","","","","","","","","","","","","","","","","","","","fixation","",""
"","","","","","color-precision2","65","1848006","0.0-10.0-0.23-0.23","6000cefee380e61fa9bc5ae4","640759fa512f630a2bdc333d","6408c1831b890a3c84ea3005","[484]","","","[21]","[100]","100","17","119.9663226848934","[119.9663226848934]","[102.9663226848934]","[101]","0","0","1","0","150","1005","1000","[[[""img/mask94.png""]]]","","","main","17","color-precision2"
"","","","","","html-keyboard-response","66","1848506","0.0-10.0-1.23","6000cefee380e61fa9bc5ae4","640759fa512f630a2bdc333d","6408c1831b890a3c84ea3005","null","","null","","","","","","","","","","","","","","","","","","","fixation","",""
"","","","","","many-guess-6","67","1851861","0.0-10.0-0.24-0.24","6000cefee380e61fa9bc5ae4","640759fa512f630a2bdc333d","6408c1831b890a3c84ea3005","[1988]","","","[33,25,4,15,5,17,31,29,11,18,24,34,13,3,9,32,19,35,27,10,1,22,8,20,14,12,0,16,21,2,7,30,6,28,26,23]","[240,250,280,230,210,350,61,131,11,71,340,290,300,180,51,310,31,330,41,21,260,170,121,161,151,1,111,141,81,200,320,91,220,101,270,190]","240","312","84.1833226868123","[84.1833226868123]","[132.1833226868123]","[130]","[120,300,300,300,120,300,300,30,30]","0","36","0","150","22","16","[[[""img/mask63.png""],[""img/mask83.png""],[""img/mask39.png""],[""img/mask45.png""],[""img/mask85.png""],[""img/mask39.png""],[""img/mask99.png""],[""img/mask15.png""],[""img/mask17.png""],[""img/mask26.png""],[""img/mask97.png""],[""img/mask65.png""],[""img/mask19.png""],[""img/mask96.png""],[""img/mask20.png""],[""img/mask36.png""],[""img/mask26.png""],[""img/mask68.png""],[""img/mask75.png""],[""img/mask61.png""],[""img/mask2.png""],[""img/mask75.png""],[""img/mask59.png""],[""img/mask42.png""],[""img/mask96.png""],[""img/mask43.png""],[""img/mask97.png""],[""img/mask47.png""],[""img/mask9.png""],[""img/mask44.png""],[""img/mask31.png""],[""img/mask29.png""],[""img/mask76.png""],[""img/mask95.png""],[""img/mask62.png""],[""img/mask86.png""]]]","","[33,25,4,15,5,17,31,29,11,18,24,34,13,3,9,32,19,35,27,10,1,22,8,20,14,12,0,16,21,2,7,30,6,28,26,23]","main","312","many-guess-6"
"","","","","","html-keyboard-response","68","1852362","0.0-10.0-1.24","6000cefee380e61fa9bc5ae4","640759fa512f630a2bdc333d","6408c1831b890a3c84ea3005","null","","null","","","","","","","","","","","","","","","","","","","fixation","",""
"","","","","","color-precision2","69","1856009","0.0-10.0-0.25-0.25","6000cefee380e61fa9bc5ae4","640759fa512f630a2bdc333d","6408c1831b890a3c84ea3005","[1251]","","","[22]","[262]","262","148","54.8127148375027","[54.8127148375027]","[266.8127148375027]","[265]","0","0","1","0","150","1003","1000","[[[""img/mask34.png""]]]","","","main","148","color-precision2"
"","","","","","html-keyboard-response","70","1856517","0.0-10.0-1.25","6000cefee380e61fa9bc5ae4","640759fa512f630a2bdc333d","6408c1831b890a3c84ea3005","null","","null","","","","","","","","","","","","","","","","","","","fixation","",""
"","","","","","color-precision2","71","1859401","0.0-10.0-0.26-0.26","6000cefee380e61fa9bc5ae4","640759fa512f630a2bdc333d","6408c1831b890a3c84ea3005","[558]","","","[33]","[216]","216","18","238.09531668298064","[238.09531668298064]","[220.09531668298064]","[220]","0","0","1","0","166","1001","1000","[[[""img/mask81.png""]]]","","","main","18","color-precision2"
"","","","","","html-keyboard-response","72","1859902","0.0-10.0-1.26","6000cefee380e61fa9bc5ae4","640759fa512f630a2bdc333d","6408c1831b890a3c84ea3005","null","","null","","","","","","","","","","","","","","","","","","","fixation","",""
"","","","","","color-precision2","73","1865157","0.0-10.0-0.27-0.27","6000cefee380e61fa9bc5ae4","640759fa512f630a2bdc333d","6408c1831b890a3c84ea3005","[2396]","","","[24]","[338]","338","90","73.06208567150257","[73.06208567150257]","[343.0620856715026]","[341]","0","0","1","0","150","1003","1000","[[[""img/mask17.png""]]]","","","main","90","color-precision2"
"","","","","","html-keyboard-response","74","1865659","0.0-10.0-1.27","6000cefee380e61fa9bc5ae4","640759fa512f630a2bdc333d","6408c1831b890a3c84ea3005","null","","null","","","","","","","","","","","","","","","","","","","fixation","",""
"","","","","","many-guess-6","75","1868741","0.0-10.0-0.28-0.28","6000cefee380e61fa9bc5ae4","640759fa512f630a2bdc333d","6408c1831b890a3c84ea3005","[1580]","","","[13,30,20,3,27,22,21,33,2,25,4,15,24,34,8,9,19,7,14,10,23,0,12,6,26,11,32,5,16,31,35,29,17,18,28,1]","[216,325,86,166,226,146,256,156,136,306,126,355,106,296,206,335,345,315,266,16,196,186,6,236,286,116,26,96,176,46,246,36,276,56,76,66]","216","121","108.7833829184658","[108.7833829184658]","[347.7833829184658]","[346]","[210,30,30,30,30,30,300,300,30]","0","36","0","149","13","16","[[[""img/mask33.png""],[""img/mask95.png""],[""img/mask62.png""],[""img/mask8.png""],[""img/mask38.png""],[""img/mask94.png""],[""img/mask35.png""],[""img/mask29.png""],[""img/mask83.png""],[""img/mask86.png""],[""img/mask47.png""],[""img/mask93.png""],[""img/mask25.png""],[""img/mask12.png""],[""img/mask65.png""],[""img/mask69.png""],[""img/mask34.png""],[""img/mask5.png""],[""img/mask87.png""],[""img/mask57.png""],[""img/mask66.png""],[""img/mask98.png""],[""img/mask26.png""],[""img/mask95.png""],[""img/mask28.png""],[""img/mask65.png""],[""img/mask22.png""],[""img/mask72.png""],[""img/mask74.png""],[""img/mask20.png""],[""img/mask92.png""],[""img/mask52.png""],[""img/mask19.png""],[""img/mask93.png""],[""img/mask17.png""],[""img/mask41.png""]]]","","[13,30,20,3,27,22,21,33,2,25,4,15,24,34,8,9,19,7,14,10,23,0,12,6,26,11,32,5,16,31,35,29,17,18,28,1]","main","121","many-guess-6"
"","","","","","html-keyboard-response","76","1869242","0.0-10.0-1.28","6000cefee380e61fa9bc5ae4","640759fa512f630a2bdc333d","6408c1831b890a3c84ea3005","null","","null","","","","","","","","","","","","","","","","","","","fixation","",""
"","","","","","many-guess-6","77","1872457","0.0-10.0-0.29-0.29","6000cefee380e61fa9bc5ae4","640759fa512f630a2bdc333d","6408c1831b890a3c84ea3005","[1910]","","","[35,21,15,30,25,5,10,13,23,8,28,29,14,9,0,3,32,2,22,6,27,20,31,7,11,24,33,16,34,18,4,19,26,12,1,17]","[320,230,210,170,200,120,11,160,70,21,60,110,350,240,310,100,130,290,250,220,140,180,190,270,280,150,260,1,30,340,330,80,300,50,40,90]","320","236","68.49511219764995","[68.49511219764995]","[192.49511219764995]","[191]","[300,210,300,120,300,210,30,210,30]","0","36","0","150","12","16","[[[""img/mask68.png""],[""img/mask14.png""],[""img/mask97.png""],[""img/mask52.png""],[""img/mask89.png""],[""img/mask7.png""],[""img/mask59.png""],[""img/mask39.png""],[""img/mask20.png""],[""img/mask75.png""],[""img/mask29.png""],[""img/mask40.png""],[""img/mask42.png""],[""img/mask45.png""],[""img/mask45.png""],[""img/mask69.png""],[""img/mask30.png""],[""img/mask97.png""],[""img/mask39.png""],[""img/mask92.png""],[""img/mask45.png""],[""img/mask94.png""],[""img/mask85.png""],[""img/mask33.png""],[""img/mask72.png""],[""img/mask42.png""],[""img/mask88.png""],[""img/mask7.png""],[""img/mask81.png""],[""img/mask92.png""],[""img/mask35.png""],[""img/mask2.png""],[""img/mask51.png""],[""img/mask61.png""],[""img/mask96.png""],[""img/mask41.png""]]]","","[35,21,15,30,25,5,10,13,23,8,28,29,14,9,0,3,32,2,22,6,27,20,31,7,11,24,33,16,34,18,4,19,26,12,1,17]","main","236","many-guess-6"
"","","","","","html-keyboard-response","78","1872958","0.0-10.0-1.29","6000cefee380e61fa9bc5ae4","640759fa512f630a2bdc333d","6408c1831b890a3c84ea3005","null","","null","","","","","","","","","","","","","","","","","","","fixation","",""
"","","","","","color-precision2","79","1876159","0.0-10.0-0.30-0.30","6000cefee380e61fa9bc5ae4","640759fa512f630a2bdc333d","6408c1831b890a3c84ea3005","[828]","","","[24]","[279]","279","56","334.06629550312306","[334.06629550312306]","[278.06629550312306]","[279]","0","0","1","0","166","1001","1000","[[[""img/mask40.png""]]]","","","main","56","color-precision2"
"","","","","","html-keyboard-response","80","1876660","0.0-10.0-1.30","6000cefee380e61fa9bc5ae4","640759fa512f630a2bdc333d","6408c1831b890a3c84ea3005","null","","null","","","","","","","","","","","","","","","","","","","fixation","",""
"","","","","","many-guess-6","81","1881475","0.0-10.0-0.31-0.31","6000cefee380e61fa9bc5ae4","640759fa512f630a2bdc333d","6408c1831b890a3c84ea3005","[3410]","","","[24,21,35,20,0,17,14,30,19,3,33,34,18,9,7,28,11,2,23,5,32,31,12,1,13,22,26,8,6,15,16,10,27,29,25,4]","[99,278,348,178,208,89,109,238,228,218,258,118,148,59,268,128,328,158,29,298,9,308,138,39,358,168,198,248,338,69,79,19,288,188,49,318]","99","345","155.47735693548105","[155.47735693548105]","[170.47735693548105]","[169]","[30,120,210,30,300,300,30,30,30]","0","36","0","150","13","16","[[[""img/mask64.png""],[""img/mask54.png""],[""img/mask44.png""],[""img/mask77.png""],[""img/mask96.png""],[""img/mask11.png""],[""img/mask53.png""],[""img/mask72.png""],[""img/mask64.png""],[""img/mask66.png""],[""img/mask18.png""],[""img/mask56.png""],[""img/mask61.png""],[""img/mask6.png""],[""img/mask63.png""],[""img/mask58.png""],[""img/mask72.png""],[""img/mask22.png""],[""img/mask88.png""],[""img/mask72.png""],[""img/mask76.png""],[""img/mask35.png""],[""img/mask85.png""],[""img/mask97.png""],[""img/mask24.png""],[""img/mask64.png""],[""img/mask58.png""],[""img/mask46.png""],[""img/mask96.png""],[""img/mask80.png""],[""img/mask77.png""],[""img/mask67.png""],[""img/mask71.png""],[""img/mask46.png""],[""img/mask59.png""],[""img/mask26.png""]]]","","[24,21,35,20,0,17,14,30,19,3,33,34,18,9,7,28,11,2,23,5,32,31,12,1,13,22,26,8,6,15,16,10,27,29,25,4]","main","345","many-guess-6"
"","","","","","html-keyboard-response","82","1881990","0.0-10.0-1.31","6000cefee380e61fa9bc5ae4","640759fa512f630a2bdc333d","6408c1831b890a3c84ea3005","null","","null","","","","","","","","","","","","","","","","","","","fixation","",""
"","","","","","color-precision2","83","1886439","0.0-10.0-0.32-0.32","6000cefee380e61fa9bc5ae4","640759fa512f630a2bdc333d","6408c1831b890a3c84ea3005","[2155]","","","[7]","[328]","328","281","240.2206398118322","[240.2206398118322]","[319.2206398118322]","[319]","0","0","1","0","149","1003","1000","[[[""img/mask2.png""]]]","","","main","281","color-precision2"
"","","","","","html-keyboard-response","84","1886940","0.0-10.0-1.32","6000cefee380e61fa9bc5ae4","640759fa512f630a2bdc333d","6408c1831b890a3c84ea3005","null","","null","","","","","","","","","","","","","","","","","","","fixation","",""
"","","","","","many-guess-6","85","1890965","0.0-10.0-0.33-0.33","6000cefee380e61fa9bc5ae4","640759fa512f630a2bdc333d","6408c1831b890a3c84ea3005","[2395]","","","[23,11,24,8,9,25,10,1,22,35,16,15,6,4,20,7,31,29,2,32,13,28,30,33,27,19,14,34,5,21,26,12,0,3,18,17]","[145,125,315,295,175,16,305,135,275,115,195,285,6,205,56,265,355,325,215,255,105,345,36,335,76,96,245,225,46,66,86,235,26,165,155,185]","145","75","274.82552893545176","[274.82552893545176]","[199.82552893545176]","[200]","[300,30,30,120,120,300,30,300,210]","0","36","0","150","17","16","[[[""img/mask29.png""],[""img/mask73.png""],[""img/mask69.png""],[""img/mask30.png""],[""img/mask30.png""],[""img/mask70.png""],[""img/mask63.png""],[""img/mask48.png""],[""img/mask8.png""],[""img/mask96.png""],[""img/mask12.png""],[""img/mask50.png""],[""img/mask54.png""],[""img/mask100.png""],[""img/mask94.png""],[""img/mask9.png""],[""img/mask65.png""],[""img/mask97.png""],[""img/mask9.png""],[""img/mask81.png""],[""img/mask26.png""],[""img/mask67.png""],[""img/mask23.png""],[""img/mask94.png""],[""img/mask44.png""],[""img/mask53.png""],[""img/mask39.png""],[""img/mask57.png""],[""img/mask37.png""],[""img/mask51.png""],[""img/mask97.png""],[""img/mask20.png""],[""img/mask36.png""],[""img/mask54.png""],[""img/mask27.png""],[""img/mask28.png""]]]","","[23,11,24,8,9,25,10,1,22,35,16,15,6,4,20,7,31,29,2,32,13,28,30,33,27,19,14,34,5,21,26,12,0,3,18,17]","main","75","many-guess-6"
"","","","","","html-keyboard-response","86","1891471","0.0-10.0-1.33","6000cefee380e61fa9bc5ae4","640759fa512f630a2bdc333d","6408c1831b890a3c84ea3005","null","","null","","","","","","","","","","","","","","","","","","","fixation","",""
"","","","","","many-guess-6","87","1894373","0.0-10.0-0.34-0.34","6000cefee380e61fa9bc5ae4","640759fa512f630a2bdc333d","6408c1831b890a3c84ea3005","[1352]","","","[1,26,0,29,9,21,24,2,6,17,4,15,32,28,23,3,33,14,11,7,30,18,19,31,22,13,12,27,34,16,10,25,20,5,8,35]","[266,306,27,7,206,216,336,146,246,87,67,47,106,256,326,356,186,97,126,37,176,236,286,226,77,166,17,116,136,57,316,156,276,196,346,296]","266","127","129.53506400213368","[129.53506400213368]","[2.53506400213368]","[1]","[210,120,210,300,210,30,210,30,30]","0","36","0","150","13","16","[[[""img/mask85.png""],[""img/mask15.png""],[""img/mask68.png""],[""img/mask21.png""],[""img/mask21.png""],[""img/mask20.png""],[""img/mask11.png""],[""img/mask1.png""],[""img/mask87.png""],[""img/mask71.png""],[""img/mask66.png""],[""img/mask78.png""],[""img/mask39.png""],[""img/mask75.png""],[""img/mask98.png""],[""img/mask90.png""],[""img/mask16.png""],[""img/mask88.png""],[""img/mask83.png""],[""img/mask14.png""],[""img/mask60.png""],[""img/mask27.png""],[""img/mask41.png""],[""img/mask88.png""],[""img/mask100.png""],[""img/mask18.png""],[""img/mask47.png""],[""img/mask60.png""],[""img/mask6.png""],[""img/mask7.png""],[""img/mask71.png""],[""img/mask67.png""],[""img/mask75.png""],[""img/mask73.png""],[""img/mask96.png""],[""img/mask47.png""]]]","","[1,26,0,29,9,21,24,2,6,17,4,15,32,28,23,3,33,14,11,7,30,18,19,31,22,13,12,27,34,16,10,25,20,5,8,35]","main","127","many-guess-6"
"","","","","","html-keyboard-response","88","1894874","0.0-10.0-1.34","6000cefee380e61fa9bc5ae4","640759fa512f630a2bdc333d","6408c1831b890a3c84ea3005","null","","null","","","","","","","","","","","","","","","","","","","fixation","",""
"","","","","","color-precision2","89","1898343","0.0-10.0-0.35-0.35","6000cefee380e61fa9bc5ae4","640759fa512f630a2bdc333d","6408c1831b890a3c84ea3005","[970]","","","[17]","[88]","88","129","203.5348006177546","[203.5348006177546]","[74.5348006177546]","[74]","0","0","1","0","150","1006","1000","[[[""img/mask78.png""]]]","","","main","129","color-precision2"
"","","","","","html-keyboard-response","90","1898844","0.0-10.0-1.35","6000cefee380e61fa9bc5ae4","640759fa512f630a2bdc333d","6408c1831b890a3c84ea3005","null","","null","","","","","","","","","","","","","","","","","","","fixation","",""
"","","","","","many-guess-6","91","1902261","0.0-10.0-0.36-0.36","6000cefee380e61fa9bc5ae4","640759fa512f630a2bdc333d","6408c1831b890a3c84ea3005","[1971]","","","[13,18,5,29,4,33,6,8,24,0,10,14,21,7,27,9,26,11,31,17,3,1,32,19,28,16,15,23,30,35,12,22,20,2,25,34]","[155,215,335,285,135,145,65,105,185,275,305,6,45,295,85,225,95,315,25,125,345,205,195,355,265,75,55,255,115,245,325,165,235,35,175,16]","155","302","121.22966703146781","[121.22966703146781]","[179.2296670314678]","[177]","[210,120,210,120,120,120,210,120,300]","0","36","0","149","11","16","[[[""img/mask21.png""],[""img/mask61.png""],[""img/mask17.png""],[""img/mask46.png""],[""img/mask19.png""],[""img/mask42.png""],[""img/mask35.png""],[""img/mask17.png""],[""img/mask50.png""],[""img/mask44.png""],[""img/mask70.png""],[""img/mask8.png""],[""img/mask27.png""],[""img/mask74.png""],[""img/mask26.png""],[""img/mask18.png""],[""img/mask58.png""],[""img/mask93.png""],[""img/mask11.png""],[""img/mask82.png""],[""img/mask25.png""],[""img/mask54.png""],[""img/mask67.png""],[""img/mask86.png""],[""img/mask82.png""],[""img/mask22.png""],[""img/mask17.png""],[""img/mask90.png""],[""img/mask37.png""],[""img/mask50.png""],[""img/mask59.png""],[""img/mask94.png""],[""img/mask36.png""],[""img/mask54.png""],[""img/mask61.png""],[""img/mask81.png""]]]","","[13,18,5,29,4,33,6,8,24,0,10,14,21,7,27,9,26,11,31,17,3,1,32,19,28,16,15,23,30,35,12,22,20,2,25,34]","main","302","many-guess-6"
"","","","","","html-keyboard-response","92","1902762","0.0-10.0-1.36","6000cefee380e61fa9bc5ae4","640759fa512f630a2bdc333d","6408c1831b890a3c84ea3005","null","","null","","","","","","","","","","","","","","","","","","","fixation","",""
"","","","","","many-guess-6","93","1906565","0.0-10.0-0.37-0.37","6000cefee380e61fa9bc5ae4","640759fa512f630a2bdc333d","6408c1831b890a3c84ea3005","[2372]","","","[34,28,9,3,12,19,7,25,33,21,4,27,20,14,6,31,16,24,15,35,26,17,32,0,2,11,10,22,8,29,13,30,18,5,1,23]","[140,110,200,170,260,160,31,330,270,290,11,280,61,240,120,190,320,100,310,300,81,250,91,21,51,220,1,41,71,180,210,350,230,130,340,150]","140","224","227.3185393738017","[227.3185393738017]","[3.3185393738017126]","[4]","[120,30,30,30,300,300,210,120,30]","0","36","0","150","12","16","[[[""img/mask77.png""],[""img/mask99.png""],[""img/mask41.png""],[""img/mask55.png""],[""img/mask33.png""],[""img/mask67.png""],[""img/mask20.png""],[""img/mask54.png""],[""img/mask71.png""],[""img/mask77.png""],[""img/mask7.png""],[""img/mask44.png""],[""img/mask66.png""],[""img/mask67.png""],[""img/mask20.png""],[""img/mask19.png""],[""img/mask77.png""],[""img/mask95.png""],[""img/mask84.png""],[""img/mask34.png""],[""img/mask43.png""],[""img/mask38.png""],[""img/mask63.png""],[""img/mask36.png""],[""img/mask49.png""],[""img/mask19.png""],[""img/mask73.png""],[""img/mask93.png""],[""img/mask38.png""],[""img/mask4.png""],[""img/mask72.png""],[""img/mask41.png""],[""img/mask63.png""],[""img/mask75.png""],[""img/mask67.png""],[""img/mask47.png""]]]","","[34,28,9,3,12,19,7,25,33,21,4,27,20,14,6,31,16,24,15,35,26,17,32,0,2,11,10,22,8,29,13,30,18,5,1,23]","main","224","many-guess-6"
"","","","","","html-keyboard-response","94","1907066","0.0-10.0-1.37","6000cefee380e61fa9bc5ae4","640759fa512f630a2bdc333d","6408c1831b890a3c84ea3005","null","","null","","","","","","","","","","","","","","","","","","","fixation","",""
"","","","","","color-precision2","95","1911213","0.0-10.0-0.38-0.38","6000cefee380e61fa9bc5ae4","640759fa512f630a2bdc333d","6408c1831b890a3c84ea3005","[1653]","","","[1]","[341]","341","286","251.06055050377586","[251.06055050377586]","[325.06055050377586]","[325]","0","0","1","0","150","995","1000","[[[""img/mask92.png""]]]","","","main","286","color-precision2"
"","","","","","html-keyboard-response","96","1911713","0.0-10.0-1.38","6000cefee380e61fa9bc5ae4","640759fa512f630a2bdc333d","6408c1831b890a3c84ea3005","null","","null","","","","","","","","","","","","","","","","","","","fixation","",""
"","","","","","many-guess-6","97","1914573","0.0-10.0-0.39-0.39","6000cefee380e61fa9bc5ae4","640759fa512f630a2bdc333d","6408c1831b890a3c84ea3005","[1562]","","","[26,16,18,29,15,22,11,13,20,6,19,33,5,8,25,0,9,7,35,30,23,31,17,2,4,1,32,3,14,34,28,27,24,21,12,10]","[230,190,170,30,299,269,329,289,70,200,349,220,279,259,60,130,90,110,249,160,210,120,140,40,20,80,339,100,150,359,240,10,319,180,50,309]","230","115","91.65452428370345","[91.65452428370345]","[336.65452428370344]","[335]","[30,120,300,210,210,120,210,30,30]","0","36","0","150","11","16","[[[""img/mask32.png""],[""img/mask30.png""],[""img/mask56.png""],[""img/mask23.png""],[""img/mask76.png""],[""img/mask6.png""],[""img/mask14.png""],[""img/mask75.png""],[""img/mask27.png""],[""img/mask4.png""],[""img/mask14.png""],[""img/mask51.png""],[""img/mask89.png""],[""img/mask59.png""],[""img/mask21.png""],[""img/mask82.png""],[""img/mask31.png""],[""img/mask40.png""],[""img/mask55.png""],[""img/mask44.png""],[""img/mask38.png""],[""img/mask41.png""],[""img/mask48.png""],[""img/mask45.png""],[""img/mask13.png""],[""img/mask54.png""],[""img/mask49.png""],[""img/mask73.png""],[""img/mask37.png""],[""img/mask77.png""],[""img/mask32.png""],[""img/mask37.png""],[""img/mask78.png""],[""img/mask3.png""],[""img/mask78.png""],[""img/mask8.png""]]]","","[26,16,18,29,15,22,11,13,20,6,19,33,5,8,25,0,9,7,35,30,23,31,17,2,4,1,32,3,14,34,28,27,24,21,12,10]","main","115","many-guess-6"
"","","","","","html-keyboard-response","98","1916620","0.0-10.0-1.39","6000cefee380e61fa9bc5ae4","640759fa512f630a2bdc333d","6408c1831b890a3c84ea3005","2046","Wow! You've completed 40 out of 180 trials! </p> <p>  </p><p> Take a quick break, then press any key when you're ready to continue."," ","","","","","","","","","","","","","","","","","","","fixation","",""
"","","","","","color-precision2","99","1920721","0.0-10.0-0.40-0.40","6000cefee380e61fa9bc5ae4","640759fa512f630a2bdc333d","6408c1831b890a3c84ea3005","[1156]","","","[12]","[186]","186","323","159.84898571843308","[159.84898571843308]","[196.84898571843308]","[196]","0","0","1","0","166","1014","1000","[[[""img/mask29.png""]]]","","","main","323","color-precision2"
"","","","","","html-keyboard-response","100","1921221","0.0-10.0-1.40","6000cefee380e61fa9bc5ae4","640759fa512f630a2bdc333d","6408c1831b890a3c84ea3005","null","","null","","","","","","","","","","","","","","","","","","","fixation","",""
"","","","","","many-guess-6","101","1924021","0.0-10.0-0.41-0.41","6000cefee380e61fa9bc5ae4","640759fa512f630a2bdc333d","6408c1831b890a3c84ea3005","[1389]","","","[28,16,29,31,4,35,21,24,26,34,18,6,20,3,32,23,19,14,8,9,27,5,12,11,10,25,7,2,0,13,30,15,22,17,1,33]","[211,301,152,32,132,82,102,181,351,321,221,92,42,311,291,2,142,122,72,231,62,251,12,22,241,172,271,331,112,341,162,261,52,281,201,191]","211","268","86.7070943656031","[86.7070943656031]","[178.7070943656031]","[177]","[30,210,30,30,120,30,210,120,300]","0","36","0","150","24","16","[[[""img/mask69.png""],[""img/mask29.png""],[""img/mask57.png""],[""img/mask18.png""],[""img/mask77.png""],[""img/mask24.png""],[""img/mask99.png""],[""img/mask87.png""],[""img/mask42.png""],[""img/mask32.png""],[""img/mask5.png""],[""img/mask21.png""],[""img/mask95.png""],[""img/mask74.png""],[""img/mask63.png""],[""img/mask17.png""],[""img/mask5.png""],[""img/mask67.png""],[""img/mask82.png""],[""img/mask67.png""],[""img/mask8.png""],[""img/mask12.png""],[""img/mask81.png""],[""img/mask92.png""],[""img/mask6.png""],[""img/mask64.png""],[""img/mask31.png""],[""img/mask87.png""],[""img/mask17.png""],[""img/mask10.png""],[""img/mask99.png""],[""img/mask11.png""],[""img/mask28.png""],[""img/mask38.png""],[""img/mask64.png""],[""img/mask11.png""]]]","","[28,16,29,31,4,35,21,24,26,34,18,6,20,3,32,23,19,14,8,9,27,5,12,11,10,25,7,2,0,13,30,15,22,17,1,33]","main","268","many-guess-6"
"","","","","","html-keyboard-response","102","1924521","0.0-10.0-1.41","6000cefee380e61fa9bc5ae4","640759fa512f630a2bdc333d","6408c1831b890a3c84ea3005","null","","null","","","","","","","","","","","","","","","","","","","fixation","",""
"","","","","","many-guess-6","103","1928459","0.0-10.0-0.42-0.42","6000cefee380e61fa9bc5ae4","640759fa512f630a2bdc333d","6408c1831b890a3c84ea3005","[2675]","","","[28,0,23,2,16,33,30,32,1,26,25,20,10,7,21,12,17,35,5,11,8,31,9,29,14,18,27,15,34,22,3,4,24,13,19,6]","[95,85,185,304,244,135,25,145,284,195,5,264,214,344,125,115,334,354,324,45,15,105,35,165,224,234,175,205,75,274,294,65,254,314,55,155]","95","214","68.97616104300442","[68.97616104300442]","[214.97616104300442]","[213]","[30,120,120,210,30,210,300,210,120]","0","36","0","150","17","16","[[[""img/mask70.png""],[""img/mask56.png""],[""img/mask26.png""],[""img/mask49.png""],[""img/mask77.png""],[""img/mask64.png""],[""img/mask35.png""],[""img/mask23.png""],[""img/mask11.png""],[""img/mask59.png""],[""img/mask77.png""],[""img/mask22.png""],[""img/mask70.png""],[""img/mask89.png""],[""img/mask14.png""],[""img/mask36.png""],[""img/mask7.png""],[""img/mask22.png""],[""img/mask4.png""],[""img/mask83.png""],[""img/mask65.png""],[""img/mask99.png""],[""img/mask58.png""],[""img/mask90.png""],[""img/mask32.png""],[""img/mask60.png""],[""img/mask65.png""],[""img/mask69.png""],[""img/mask20.png""],[""img/mask19.png""],[""img/mask32.png""],[""img/mask52.png""],[""img/mask94.png""],[""img/mask6.png""],[""img/mask56.png""],[""img/mask82.png""]]]","","[28,0,23,2,16,33,30,32,1,26,25,20,10,7,21,12,17,35,5,11,8,31,9,29,14,18,27,15,34,22,3,4,24,13,19,6]","main","214","many-guess-6"
"","","","","","html-keyboard-response","104","1928963","0.0-10.0-1.42","6000cefee380e61fa9bc5ae4","640759fa512f630a2bdc333d","6408c1831b890a3c84ea3005","null","","null","","","","","","","","","","","","","","","","","","","fixation","",""
"","","","","","color-precision2","105","1933055","0.0-10.0-0.43-0.43","6000cefee380e61fa9bc5ae4","640759fa512f630a2bdc333d","6408c1831b890a3c84ea3005","[786]","","","[2]","[99]","99","165","265.2988711285424","[265.2988711285424]","[100.29887112854237]","[101]","0","0","1","0","166","1013","1000","[[[""img/mask96.png""]]]","","","main","165","color-precision2"
"","","","","","html-keyboard-response","106","1933556","0.0-10.0-1.43","6000cefee380e61fa9bc5ae4","640759fa512f630a2bdc333d","6408c1831b890a3c84ea3005","null","","null","","","","","","","","","","","","","","","","","","","fixation","",""
"","","","","","many-guess-6","107","1936141","0.0-10.0-0.44-0.44","6000cefee380e61fa9bc5ae4","640759fa512f630a2bdc333d","6408c1831b890a3c84ea3005","[1354]","","","[5,35,21,23,30,0,32,16,27,2,11,9,22,10,3,8,20,19,26,24,17,14,29,6,18,7,25,33,15,1,28,12,13,4,31,34]","[81,21,340,320,71,290,110,11,61,150,120,180,140,130,330,41,100,300,280,51,210,160,270,91,230,260,200,220,240,1,350,31,170,310,250,190]","81","47","84.08706318175848","[84.08706318175848]","[37.08706318175848]","[35]","[210,30,300,210,120,300,300,30,120]","0","36","0","150","18","16","[[[""img/mask14.png""],[""img/mask78.png""],[""img/mask8.png""],[""img/mask58.png""],[""img/mask77.png""],[""img/mask65.png""],[""img/mask16.png""],[""img/mask58.png""],[""img/mask23.png""],[""img/mask16.png""],[""img/mask75.png""],[""img/mask55.png""],[""img/mask35.png""],[""img/mask41.png""],[""img/mask72.png""],[""img/mask99.png""],[""img/mask14.png""],[""img/mask93.png""],[""img/mask75.png""],[""img/mask58.png""],[""img/mask89.png""],[""img/mask15.png""],[""img/mask64.png""],[""img/mask83.png""],[""img/mask78.png""],[""img/mask96.png""],[""img/mask47.png""],[""img/mask88.png""],[""img/mask50.png""],[""img/mask20.png""],[""img/mask90.png""],[""img/mask58.png""],[""img/mask55.png""],[""img/mask100.png""],[""img/mask36.png""],[""img/mask69.png""]]]","","[5,35,21,23,30,0,32,16,27,2,11,9,22,10,3,8,20,19,26,24,17,14,29,6,18,7,25,33,15,1,28,12,13,4,31,34]","main","47","many-guess-6"
"","","","","","html-keyboard-response","108","1936642","0.0-10.0-1.44","6000cefee380e61fa9bc5ae4","640759fa512f630a2bdc333d","6408c1831b890a3c84ea3005","null","","null","","","","","","","","","","","","","","","","","","","fixation","",""
"","","","","","color-precision2","109","1940165","0.0-10.0-0.45-0.45","6000cefee380e61fa9bc5ae4","640759fa512f630a2bdc333d","6408c1831b890a3c84ea3005","[960]","","","[0]","[123]","123","321","84.53271812935483","[84.53271812935483]","[123.53271812935483]","[123]","0","0","1","0","150","1006","1000","[[[""img/mask24.png""]]]","","","main","321","color-precision2"
"","","","","","html-keyboard-response","110","1940665","0.0-10.0-1.45","6000cefee380e61fa9bc5ae4","640759fa512f630a2bdc333d","6408c1831b890a3c84ea3005","null","","null","","","","","","","","","","","","","","","","","","","fixation","",""
"","","","","","color-precision2","111","1957291","0.0-10.0-0.46-0.46","6000cefee380e61fa9bc5ae4","640759fa512f630a2bdc333d","6408c1831b890a3c84ea3005","[1363]","","","[19]","[269]","269","284","196.03459604440638","[196.03459604440638]","[272.0345960444064]","[271]","0","0","1","0","149","994","1000","[[[""img/mask27.png""]]]","","","main","284","color-precision2"
"","","","","","html-keyboard-response","112","1957791","0.0-10.0-1.46","6000cefee380e61fa9bc5ae4","640759fa512f630a2bdc333d","6408c1831b890a3c84ea3005","null","","null","","","","","","","","","","","","","","","","","","","fixation","",""
"","","","","","many-guess-6","113","1961037","0.0-10.0-0.47-0.47","6000cefee380e61fa9bc5ae4","640759fa512f630a2bdc333d","6408c1831b890a3c84ea3005","[1308]","","","[5,3,10,21,26,25,6,24,17,15,35,30,13,11,0,20,32,23,8,29,12,33,27,28,1,31,19,14,16,9,7,18,22,2,34,4]","[70,229,309,40,170,80,160,239,120,349,10,329,319,50,209,130,269,110,30,150,339,359,180,140,259,299,60,249,279,199,20,100,289,189,90,219]","70","172","86.4862876257992","[86.4862876257992]","[274.4862876257992]","[273]","[120,300,120,300,120,120,210,300,120]","0","36","0","149","24","16","[[[""img/mask53.png""],[""img/mask39.png""],[""img/mask13.png""],[""img/mask84.png""],[""img/mask67.png""],[""img/mask73.png""],[""img/mask51.png""],[""img/mask80.png""],[""img/mask66.png""],[""img/mask83.png""],[""img/mask82.png""],[""img/mask71.png""],[""img/mask14.png""],[""img/mask46.png""],[""img/mask16.png""],[""img/mask79.png""],[""img/mask61.png""],[""img/mask43.png""],[""img/mask37.png""],[""img/mask45.png""],[""img/mask58.png""],[""img/mask39.png""],[""img/mask63.png""],[""img/mask78.png""],[""img/mask9.png""],[""img/mask86.png""],[""img/mask27.png""],[""img/mask44.png""],[""img/mask8.png""],[""img/mask79.png""],[""img/mask99.png""],[""img/mask31.png""],[""img/mask51.png""],[""img/mask28.png""],[""img/mask25.png""],[""img/mask8.png""]]]","","[5,3,10,21,26,25,6,24,17,15,35,30,13,11,0,20,32,23,8,29,12,33,27,28,1,31,19,14,16,9,7,18,22,2,34,4]","main","172","many-guess-6"
"","","","","","html-keyboard-response","114","1961537","0.0-10.0-1.47","6000cefee380e61fa9bc5ae4","640759fa512f630a2bdc333d","6408c1831b890a3c84ea3005","null","","null","","","","","","","","","","","","","","","","","","","fixation","",""
"","","","","","color-precision2","115","1964767","0.0-10.0-0.48-0.48","6000cefee380e61fa9bc5ae4","640759fa512f630a2bdc333d","6408c1831b890a3c84ea3005","[770]","","","[29]","[195]","195","228","67.63828760174913","[67.63828760174913]","[199.63828760174914]","[198]","0","0","1","0","150","993","1000","[[[""img/mask25.png""]]]","","","main","228","color-precision2"
"","","","","","html-keyboard-response","116","1965267","0.0-10.0-1.48","6000cefee380e61fa9bc5ae4","640759fa512f630a2bdc333d","6408c1831b890a3c84ea3005","null","","null","","","","","","","","","","","","","","","","","","","fixation","",""
"","","","","","many-guess-6","117","1968159","0.0-10.0-0.49-0.49","6000cefee380e61fa9bc5ae4","640759fa512f630a2bdc333d","6408c1831b890a3c84ea3005","[1645]","","","[18,22,35,15,11,24,31,27,6,19,16,21,26,14,12,7,3,30,32,20,13,1,9,4,17,28,0,2,5,25,29,34,33,10,23,8]","[87,336,37,137,207,257,326,7,227,346,127,306,197,247,157,47,97,356,267,237,67,277,147,187,217,17,107,27,57,77,296,117,167,286,177,316]","87","112","104.0887616521724","[104.0887616521724]","[352.08876165217237]","[350]","[300,120,30,300,30,120,210,30,120]","0","36","0","150","17","16","[[[""img/mask29.png""],[""img/mask27.png""],[""img/mask45.png""],[""img/mask61.png""],[""img/mask85.png""],[""img/mask8.png""],[""img/mask6.png""],[""img/mask43.png""],[""img/mask13.png""],[""img/mask2.png""],[""img/mask87.png""],[""img/mask8.png""],[""img/mask38.png""],[""img/mask22.png""],[""img/mask79.png""],[""img/mask100.png""],[""img/mask40.png""],[""img/mask45.png""],[""img/mask82.png""],[""img/mask40.png""],[""img/mask66.png""],[""img/mask85.png""],[""img/mask41.png""],[""img/mask50.png""],[""img/mask29.png""],[""img/mask21.png""],[""img/mask34.png""],[""img/mask28.png""],[""img/mask68.png""],[""img/mask34.png""],[""img/mask5.png""],[""img/mask66.png""],[""img/mask31.png""],[""img/mask55.png""],[""img/mask81.png""],[""img/mask78.png""]]]","","[18,22,35,15,11,24,31,27,6,19,16,21,26,14,12,7,3,30,32,20,13,1,9,4,17,28,0,2,5,25,29,34,33,10,23,8]","main","112","many-guess-6"
"","","","","","html-keyboard-response","118","1968660","0.0-10.0-1.49","6000cefee380e61fa9bc5ae4","640759fa512f630a2bdc333d","6408c1831b890a3c84ea3005","null","","null","","","","","","","","","","","","","","","","","","","fixation","",""
"","","","","","many-guess-6","119","1971749","0.0-10.0-0.50-0.50","6000cefee380e61fa9bc5ae4","640759fa512f630a2bdc333d","6408c1831b890a3c84ea3005","[1700]","","","[15,10,17,25,22,31,13,24,33,11,18,5,14,2,16,7,1,34,30,26,12,23,3,32,19,4,29,9,0,28,27,8,21,20,6,35]","[256,236,66,136,356,276,126,116,16,86,156,306,226,296,196,346,266,26,7,246,166,176,146,36,106,206,46,56,336,76,186,286,316,96,326,216]","256","9","11.61073089653494","[11.61073089653494]","[2.6107308965349407]","[2]","[30,300,300,300,210,210,300,210,300]","0","36","0","150","19","16","[[[""img/mask77.png""],[""img/mask37.png""],[""img/mask54.png""],[""img/mask73.png""],[""img/mask33.png""],[""img/mask15.png""],[""img/mask27.png""],[""img/mask11.png""],[""img/mask51.png""],[""img/mask93.png""],[""img/mask71.png""],[""img/mask46.png""],[""img/mask42.png""],[""img/mask67.png""],[""img/mask60.png""],[""img/mask46.png""],[""img/mask15.png""],[""img/mask45.png""],[""img/mask39.png""],[""img/mask8.png""],[""img/mask84.png""],[""img/mask48.png""],[""img/mask81.png""],[""img/mask47.png""],[""img/mask22.png""],[""img/mask55.png""],[""img/mask16.png""],[""img/mask36.png""],[""img/mask28.png""],[""img/mask57.png""],[""img/mask70.png""],[""img/mask26.png""],[""img/mask87.png""],[""img/mask72.png""],[""img/mask32.png""],[""img/mask28.png""]]]","","[15,10,17,25,22,31,13,24,33,11,18,5,14,2,16,7,1,34,30,26,12,23,3,32,19,4,29,9,0,28,27,8,21,20,6,35]","main","9","many-guess-6"
"","","","","","html-keyboard-response","120","1972250","0.0-10.0-1.50","6000cefee380e61fa9bc5ae4","640759fa512f630a2bdc333d","6408c1831b890a3c84ea3005","null","","null","","","","","","","","","","","","","","","","","","","fixation","",""
"","","","","","many-guess-6","121","1974823","0.0-10.0-0.51-0.51","6000cefee380e61fa9bc5ae4","640759fa512f630a2bdc333d","6408c1831b890a3c84ea3005","[1356]","","","[7,23,26,0,13,15,4,22,20,2,10,31,12,24,21,29,8,34,3,27,25,5,35,18,17,16,1,11,28,19,33,6,9,32,14,30]","[106,166,335,76,146,86,355,66,226,26,206,96,126,186,325,16,156,6,246,176,275,295,36,236,196,255,136,315,305,265,116,216,56,345,285,46]","106","13","268.92714607856215","[268.92714607856215]","[255.92714607856215]","[256]","[300,300,210,30,120,120,120,210,300]","0","36","0","150","16","16","[[[""img/mask88.png""],[""img/mask15.png""],[""img/mask73.png""],[""img/mask28.png""],[""img/mask31.png""],[""img/mask28.png""],[""img/mask32.png""],[""img/mask66.png""],[""img/mask38.png""],[""img/mask65.png""],[""img/mask23.png""],[""img/mask7.png""],[""img/mask50.png""],[""img/mask32.png""],[""img/mask23.png""],[""img/mask10.png""],[""img/mask45.png""],[""img/mask4.png""],[""img/mask36.png""],[""img/mask63.png""],[""img/mask100.png""],[""img/mask4.png""],[""img/mask61.png""],[""img/mask78.png""],[""img/mask49.png""],[""img/mask81.png""],[""img/mask63.png""],[""img/mask47.png""],[""img/mask9.png""],[""img/mask3.png""],[""img/mask68.png""],[""img/mask46.png""],[""img/mask20.png""],[""img/mask23.png""],[""img/mask64.png""],[""img/mask70.png""]]]","","[7,23,26,0,13,15,4,22,20,2,10,31,12,24,21,29,8,34,3,27,25,5,35,18,17,16,1,11,28,19,33,6,9,32,14,30]","main","13","many-guess-6"
"","","","","","html-keyboard-response","122","1975325","0.0-10.0-1.51","6000cefee380e61fa9bc5ae4","640759fa512f630a2bdc333d","6408c1831b890a3c84ea3005","null","","null","","","","","","","","","","","","","","","","","","","fixation","",""
"","","","","","color-precision2","123","1978667","0.0-10.0-0.52-0.52","6000cefee380e61fa9bc5ae4","640759fa512f630a2bdc333d","6408c1831b890a3c84ea3005","[848]","","","[30]","[47]","47","88","130.60105984740628","[130.60105984740628]","[42.601059847406276]","[41]","0","0","1","0","149","992","1000","[[[""img/mask89.png""]]]","","","main","88","color-precision2"
"","","","","","html-keyboard-response","124","1979169","0.0-10.0-1.52","6000cefee380e61fa9bc5ae4","640759fa512f630a2bdc333d","6408c1831b890a3c84ea3005","null","","null","","","","","","","","","","","","","","","","","","","fixation","",""
"","","","","","color-precision2","125","1982477","0.0-10.0-0.53-0.53","6000cefee380e61fa9bc5ae4","640759fa512f630a2bdc333d","6408c1831b890a3c84ea3005","[890]","","","[25]","[243]","243","305","191.3601205156404","[191.3601205156404]","[246.3601205156404]","[246]","0","0","1","0","150","1004","1000","[[[""img/mask35.png""]]]","","","main","305","color-precision2"
"","","","","","html-keyboard-response","126","1982978","0.0-10.0-1.53","6000cefee380e61fa9bc5ae4","640759fa512f630a2bdc333d","6408c1831b890a3c84ea3005","null","","null","","","","","","","","","","","","","","","","","","","fixation","",""
"","","","","","color-precision2","127","1985989","0.0-10.0-0.54-0.54","6000cefee380e61fa9bc5ae4","640759fa512f630a2bdc333d","6408c1831b890a3c84ea3005","[501]","","","[27]","[109]","109","190","300.51267139437925","[300.51267139437925]","[110.51267139437925]","[110]","0","0","1","0","149","992","1000","[[[""img/mask98.png""]]]","","","main","190","color-precision2"
"","","","","","html-keyboard-response","128","1986490","0.0-10.0-1.54","6000cefee380e61fa9bc5ae4","640759fa512f630a2bdc333d","6408c1831b890a3c84ea3005","null","","null","","","","","","","","","","","","","","","","","","","fixation","",""
"","","","","","many-guess-6","129","1989979","0.0-10.0-0.55-0.55","6000cefee380e61fa9bc5ae4","640759fa512f630a2bdc333d","6408c1831b890a3c84ea3005","[2290]","","","[21,22,3,31,14,20,4,19,33,30,7,6,28,12,24,35,0,27,17,15,2,23,26,34,1,13,25,10,16,32,11,8,5,29,9,18]","[40,209,349,149,299,179,339,30,89,69,10,59,319,229,239,269,249,359,49,259,79,189,329,109,219,119,309,199,159,279,139,20,169,129,99,289]","40","166","148.29317392345968","[148.29317392345968]","[342.2931739234597]","[341]","[300,210,120,120,30,210,30,30,120]","0","36","0","150","11","16","[[[""img/mask99.png""],[""img/mask21.png""],[""img/mask64.png""],[""img/mask65.png""],[""img/mask14.png""],[""img/mask25.png""],[""img/mask27.png""],[""img/mask56.png""],[""img/mask51.png""],[""img/mask41.png""],[""img/mask24.png""],[""img/mask44.png""],[""img/mask25.png""],[""img/mask73.png""],[""img/mask62.png""],[""img/mask96.png""],[""img/mask99.png""],[""img/mask31.png""],[""img/mask80.png""],[""img/mask90.png""],[""img/mask60.png""],[""img/mask75.png""],[""img/mask73.png""],[""img/mask87.png""],[""img/mask42.png""],[""img/mask92.png""],[""img/mask16.png""],[""img/mask89.png""],[""img/mask5.png""],[""img/mask76.png""],[""img/mask93.png""],[""img/mask53.png""],[""img/mask98.png""],[""img/mask59.png""],[""img/mask88.png""],[""img/mask92.png""]]]","","[21,22,3,31,14,20,4,19,33,30,7,6,28,12,24,35,0,27,17,15,2,23,26,34,1,13,25,10,16,32,11,8,5,29,9,18]","main","166","many-guess-6"
"","","","","","html-keyboard-response","130","1990480","0.0-10.0-1.55","6000cefee380e61fa9bc5ae4","640759fa512f630a2bdc333d","6408c1831b890a3c84ea3005","null","","null","","","","","","","","","","","","","","","","","","","fixation","",""
"","","","","","color-precision2","131","1994009","0.0-10.0-0.56-0.56","6000cefee380e61fa9bc5ae4","640759fa512f630a2bdc333d","6408c1831b890a3c84ea3005","[1001]","","","[30]","[109]","109","112","245.74777758160036","[245.74777758160036]","[133.74777758160036]","[134]","0","0","1","0","166","1008","1000","[[[""img/mask12.png""]]]","","","main","112","color-precision2"
"","","","","","html-keyboard-response","132","1994511","0.0-10.0-1.56","6000cefee380e61fa9bc5ae4","640759fa512f630a2bdc333d","6408c1831b890a3c84ea3005","null","","null","","","","","","","","","","","","","","","","","","","fixation","",""
"","","","","","many-guess-6","133","2012345","0.0-10.0-0.57-0.57","6000cefee380e61fa9bc5ae4","640759fa512f630a2bdc333d","6408c1831b890a3c84ea3005","[1614]","","","[10,25,24,9,1,7,32,14,0,35,19,5,13,28,33,27,2,11,21,17,4,8,12,18,20,29,31,34,22,3,23,30,15,16,26,6]","[32,42,292,102,192,202,212,282,92,62,122,252,82,22,52,322,262,331,112,142,172,162,351,232,72,2,152,312,12,242,182,132,302,272,222,341]","32","24","60.90058809128319","[60.90058809128319]","[36.90058809128319]","[35]","[30,30,300,300,300,30,30,30,120]","0","36","0","150","14","16","[[[""img/mask79.png""],[""img/mask20.png""],[""img/mask2.png""],[""img/mask82.png""],[""img/mask93.png""],[""img/mask81.png""],[""img/mask70.png""],[""img/mask71.png""],[""img/mask33.png""],[""img/mask90.png""],[""img/mask39.png""],[""img/mask51.png""],[""img/mask4.png""],[""img/mask90.png""],[""img/mask41.png""],[""img/mask47.png""],[""img/mask89.png""],[""img/mask5.png""],[""img/mask35.png""],[""img/mask49.png""],[""img/mask86.png""],[""img/mask75.png""],[""img/mask2.png""],[""img/mask74.png""],[""img/mask96.png""],[""img/mask62.png""],[""img/mask55.png""],[""img/mask78.png""],[""img/mask32.png""],[""img/mask1.png""],[""img/mask40.png""],[""img/mask71.png""],[""img/mask19.png""],[""img/mask52.png""],[""img/mask29.png""],[""img/mask91.png""]]]","","[10,25,24,9,1,7,32,14,0,35,19,5,13,28,33,27,2,11,21,17,4,8,12,18,20,29,31,34,22,3,23,30,15,16,26,6]","main","24","many-guess-6"
"","","","","","html-keyboard-response","134","2012846","0.0-10.0-1.57","6000cefee380e61fa9bc5ae4","640759fa512f630a2bdc333d","6408c1831b890a3c84ea3005","null","","null","","","","","","","","","","","","","","","","","","","fixation","",""
"","","","","","color-precision2","135","2016835","0.0-10.0-0.58-0.58","6000cefee380e61fa9bc5ae4","640759fa512f630a2bdc333d","6408c1831b890a3c84ea3005","[1036]","","","[11]","[64]","64","331","28.896377835905092","[28.896377835905092]","[57.89637783590507]","[57]","0","0","1","0","149","1001","1000","[[[""img/mask83.png""]]]","","","main","331","color-precision2"
"","","","","","html-keyboard-response","136","2017337","0.0-10.0-1.58","6000cefee380e61fa9bc5ae4","640759fa512f630a2bdc333d","6408c1831b890a3c84ea3005","null","","null","","","","","","","","","","","","","","","","","","","fixation","",""
"","","","","","many-guess-6","137","2020951","0.0-10.0-0.59-0.59","6000cefee380e61fa9bc5ae4","640759fa512f630a2bdc333d","6408c1831b890a3c84ea3005","[2334]","","","[21,9,4,15,6,32,24,30,22,13,1,0,14,17,34,23,12,10,2,31,26,11,8,20,16,3,29,7,19,18,33,28,25,5,27,35]","[358,89,119,179,289,309,259,209,159,39,69,239,139,219,19,129,229,149,79,109,348,338,299,99,199,279,269,9,29,318,249,49,169,189,59,328]","358","86","336.2296408285156","[336.2296408285156]","[250.22964082851558]","[250]","[210,120,210,210,300,210,30,210,210]","0","36","0","150","23","16","[[[""img/mask10.png""],[""img/mask91.png""],[""img/mask15.png""],[""img/mask69.png""],[""img/mask34.png""],[""img/mask65.png""],[""img/mask91.png""],[""img/mask59.png""],[""img/mask33.png""],[""img/mask14.png""],[""img/mask16.png""],[""img/mask99.png""],[""img/mask39.png""],[""img/mask23.png""],[""img/mask86.png""],[""img/mask16.png""],[""img/mask34.png""],[""img/mask61.png""],[""img/mask68.png""],[""img/mask30.png""],[""img/mask22.png""],[""img/mask36.png""],[""img/mask95.png""],[""img/mask98.png""],[""img/mask19.png""],[""img/mask51.png""],[""img/mask26.png""],[""img/mask82.png""],[""img/mask8.png""],[""img/mask31.png""],[""img/mask47.png""],[""img/mask32.png""],[""img/mask91.png""],[""img/mask90.png""],[""img/mask49.png""],[""img/mask33.png""]]]","","[21,9,4,15,6,32,24,30,22,13,1,0,14,17,34,23,12,10,2,31,26,11,8,20,16,3,29,7,19,18,33,28,25,5,27,35]","main","86","many-guess-6"
"","","","","","html-keyboard-response","138","2022916","0.0-10.0-1.59","6000cefee380e61fa9bc5ae4","640759fa512f630a2bdc333d","6408c1831b890a3c84ea3005","1965","Wow! You've completed 60 out of 180 trials! </p> <p>  </p><p> Take a quick break, then press any key when you're ready to continue.","f","","","","","","","","","","","","","","","","","","","fixation","",""
"","","","","","color-precision2","139","2026971","0.0-10.0-0.60-0.60","6000cefee380e61fa9bc5ae4","640759fa512f630a2bdc333d","6408c1831b890a3c84ea3005","[851]","","","[27]","[42]","42","119","161.5273903773244","[161.5273903773244]","[42.527390377324394]","[42]","0","0","1","0","150","1004","1000","[[[""img/mask59.png""]]]","","","main","119","color-precision2"
"","","","","","html-keyboard-response","140","2027472","0.0-10.0-1.60","6000cefee380e61fa9bc5ae4","640759fa512f630a2bdc333d","6408c1831b890a3c84ea3005","null","","null","","","","","","","","","","","","","","","","","","","fixation","",""
"","","","","","many-guess-6","141","2030249","0.0-10.0-0.61-0.61","6000cefee380e61fa9bc5ae4","640759fa512f630a2bdc333d","6408c1831b890a3c84ea3005","[1329]","","","[30,11,0,31,24,3,1,9,32,13,20,35,19,2,23,6,33,28,8,10,29,27,22,17,21,14,5,18,4,12,15,16,34,25,26,7]","[244,333,323,134,114,164,214,224,263,204,184,174,144,74,34,44,54,84,353,293,194,273,303,283,234,94,14,343,253,64,4,124,104,313,24,154]","244","27","79.43387153042129","[79.43387153042129]","[52.433871530421285]","[51]","[30,210,210,300,300,30,120,30,210]","0","36","0","150","10","16","[[[""img/mask13.png""],[""img/mask88.png""],[""img/mask71.png""],[""img/mask3.png""],[""img/mask31.png""],[""img/mask80.png""],[""img/mask89.png""],[""img/mask50.png""],[""img/mask28.png""],[""img/mask15.png""],[""img/mask70.png""],[""img/mask53.png""],[""img/mask58.png""],[""img/mask14.png""],[""img/mask24.png""],[""img/mask14.png""],[""img/mask85.png""],[""img/mask43.png""],[""img/mask94.png""],[""img/mask51.png""],[""img/mask51.png""],[""img/mask93.png""],[""img/mask28.png""],[""img/mask57.png""],[""img/mask16.png""],[""img/mask49.png""],[""img/mask7.png""],[""img/mask26.png""],[""img/mask35.png""],[""img/mask99.png""],[""img/mask96.png""],[""img/mask21.png""],[""img/mask93.png""],[""img/mask6.png""],[""img/mask27.png""],[""img/mask22.png""]]]","","[30,11,0,31,24,3,1,9,32,13,20,35,19,2,23,6,33,28,8,10,29,27,22,17,21,14,5,18,4,12,15,16,34,25,26,7]","main","27","many-guess-6"
"","","","","","html-keyboard-response","142","2030749","0.0-10.0-1.61","6000cefee380e61fa9bc5ae4","640759fa512f630a2bdc333d","6408c1831b890a3c84ea3005","null","","null","","","","","","","","","","","","","","","","","","","fixation","",""
"","","","","","color-precision2","143","2033523","0.0-10.0-0.62-0.62","6000cefee380e61fa9bc5ae4","640759fa512f630a2bdc333d","6408c1831b890a3c84ea3005","[617]","","","[33]","[36]","36","89","123.78305475220017","[123.78305475220017]","[34.78305475220017]","[33]","0","0","1","0","150","1006","1000","[[[""img/mask90.png""]]]","","","main","89","color-precision2"
"","","","","","html-keyboard-response","144","2034024","0.0-10.0-1.62","6000cefee380e61fa9bc5ae4","640759fa512f630a2bdc333d","6408c1831b890a3c84ea3005","null","","null","","","","","","","","","","","","","","","","","","","fixation","",""
"","","","","","color-precision2","145","2036867","0.0-10.0-0.63-0.63","6000cefee380e61fa9bc5ae4","640759fa512f630a2bdc333d","6408c1831b890a3c84ea3005","[543]","","","[25]","[83]","83","74","157.58966852491042","[157.58966852491042]","[83.58966852491042]","[83]","0","0","1","0","150","993","1000","[[[""img/mask90.png""]]]","","","main","74","color-precision2"
"","","","","","html-keyboard-response","146","2037368","0.0-10.0-1.63","6000cefee380e61fa9bc5ae4","640759fa512f630a2bdc333d","6408c1831b890a3c84ea3005","null","","null","","","","","","","","","","","","","","","","","","","fixation","",""
"","","","","","color-precision2","147","2043261","0.0-10.0-0.64-0.64","6000cefee380e61fa9bc5ae4","640759fa512f630a2bdc333d","6408c1831b890a3c84ea3005","[3686]","","","[24]","[58]","58","219","268.71972599616555","[268.71972599616555]","[49.71972599616555]","[50]","0","0","1","0","150","996","1000","[[[""img/mask24.png""]]]","","","main","219","color-precision2"
"","","","","","html-keyboard-response","148","2043769","0.0-10.0-1.64","6000cefee380e61fa9bc5ae4","640759fa512f630a2bdc333d","6408c1831b890a3c84ea3005","null","","null","","","","","","","","","","","","","","","","","","","fixation","",""
"","","","","","many-guess-6","149","2081363","0.0-10.0-0.65-0.65","6000cefee380e61fa9bc5ae4","640759fa512f630a2bdc333d","6408c1831b890a3c84ea3005","[1473]","","","[17,8,1,28,20,15,26,6,35,14,9,3,23,18,30,34,16,7,0,25,11,33,12,10,4,22,24,19,29,32,5,27,21,31,2,13]","[255,5,35,245,195,105,135,145,45,324,125,334,85,275,25,225,75,155,55,65,295,185,175,115,235,265,285,315,305,344,15,165,354,215,205,95]","255","346","88.13828125951402","[88.13828125951402]","[102.13828125951403]","[100]","[210,30,300,210,30,300,210,210,120]","0","36","0","150","14","16","[[[""img/mask48.png""],[""img/mask69.png""],[""img/mask68.png""],[""img/mask5.png""],[""img/mask46.png""],[""img/mask5.png""],[""img/mask59.png""],[""img/mask61.png""],[""img/mask74.png""],[""img/mask68.png""],[""img/mask65.png""],[""img/mask18.png""],[""img/mask59.png""],[""img/mask37.png""],[""img/mask78.png""],[""img/mask13.png""],[""img/mask8.png""],[""img/mask3.png""],[""img/mask72.png""],[""img/mask13.png""],[""img/mask96.png""],[""img/mask81.png""],[""img/mask90.png""],[""img/mask58.png""],[""img/mask34.png""],[""img/mask92.png""],[""img/mask62.png""],[""img/mask21.png""],[""img/mask29.png""],[""img/mask42.png""],[""img/mask67.png""],[""img/mask27.png""],[""img/mask44.png""],[""img/mask55.png""],[""img/mask7.png""],[""img/mask87.png""]]]","","[17,8,1,28,20,15,26,6,35,14,9,3,23,18,30,34,16,7,0,25,11,33,12,10,4,22,24,19,29,32,5,27,21,31,2,13]","main","346","many-guess-6"
"","","","","","html-keyboard-response","150","2081864","0.0-10.0-1.65","6000cefee380e61fa9bc5ae4","640759fa512f630a2bdc333d","6408c1831b890a3c84ea3005","null","","null","","","","","","","","","","","","","","","","","","","fixation","",""
"","","","","","many-guess-6","151","2085791","0.0-10.0-0.66-0.66","6000cefee380e61fa9bc5ae4","640759fa512f630a2bdc333d","6408c1831b890a3c84ea3005","[2516]","","","[18,24,11,30,28,25,21,35,34,31,15,13,9,17,27,7,6,4,5,8,26,23,1,22,10,14,33,32,3,12,16,29,2,20,0,19]","[269,59,318,69,99,229,249,19,89,9,348,259,179,299,358,239,139,189,308,279,209,129,199,328,169,119,109,159,39,338,29,79,289,219,149,49]","269","100","127.78818641645437","[127.78818641645437]","[27.788186416454366]","[26]","[300,300,210,30,300,210,210,210,300]","0","36","0","149","10","16","[[[""img/mask23.png""],[""img/mask26.png""],[""img/mask20.png""],[""img/mask90.png""],[""img/mask98.png""],[""img/mask85.png""],[""img/mask10.png""],[""img/mask17.png""],[""img/mask59.png""],[""img/mask17.png""],[""img/mask29.png""],[""img/mask52.png""],[""img/mask21.png""],[""img/mask88.png""],[""img/mask50.png""],[""img/mask49.png""],[""img/mask37.png""],[""img/mask98.png""],[""img/mask31.png""],[""img/mask97.png""],[""img/mask42.png""],[""img/mask96.png""],[""img/mask18.png""],[""img/mask12.png""],[""img/mask43.png""],[""img/mask13.png""],[""img/mask18.png""],[""img/mask56.png""],[""img/mask33.png""],[""img/mask76.png""],[""img/mask55.png""],[""img/mask65.png""],[""img/mask26.png""],[""img/mask67.png""],[""img/mask93.png""],[""img/mask70.png""]]]","","[18,24,11,30,28,25,21,35,34,31,15,13,9,17,27,7,6,4,5,8,26,23,1,22,10,14,33,32,3,12,16,29,2,20,0,19]","main","100","many-guess-6"
"","","","","","html-keyboard-response","152","2086291","0.0-10.0-1.66","6000cefee380e61fa9bc5ae4","640759fa512f630a2bdc333d","6408c1831b890a3c84ea3005","null","","null","","","","","","","","","","","","","","","","","","","fixation","",""
"","","","","","many-guess-6","153","2089136","0.0-10.0-0.67-0.67","6000cefee380e61fa9bc5ae4","640759fa512f630a2bdc333d","6408c1831b890a3c84ea3005","[1410]","","","[12,33,15,11,16,31,13,14,1,30,21,6,0,24,22,25,34,3,35,20,18,26,29,5,10,32,8,2,23,7,28,27,9,19,4,17]","[202,312,212,22,142,102,62,42,122,272,132,172,72,352,242,152,282,162,112,192,332,3,302,232,342,222,322,82,13,52,182,252,32,292,92,262]","202","309","74.4343533886852","[74.4343533886852]","[125.4343533886852]","[124]","[30,120,300,120,120,300,30,210,300]","0","36","0","150","8","16","[[[""img/mask13.png""],[""img/mask71.png""],[""img/mask75.png""],[""img/mask83.png""],[""img/mask20.png""],[""img/mask12.png""],[""img/mask22.png""],[""img/mask57.png""],[""img/mask18.png""],[""img/mask19.png""],[""img/mask7.png""],[""img/mask56.png""],[""img/mask77.png""],[""img/mask70.png""],[""img/mask35.png""],[""img/mask100.png""],[""img/mask59.png""],[""img/mask39.png""],[""img/mask26.png""],[""img/mask53.png""],[""img/mask33.png""],[""img/mask92.png""],[""img/mask43.png""],[""img/mask80.png""],[""img/mask72.png""],[""img/mask2.png""],[""img/mask11.png""],[""img/mask18.png""],[""img/mask74.png""],[""img/mask94.png""],[""img/mask29.png""],[""img/mask55.png""],[""img/mask56.png""],[""img/mask49.png""],[""img/mask87.png""],[""img/mask7.png""]]]","","[12,33,15,11,16,31,13,14,1,30,21,6,0,24,22,25,34,3,35,20,18,26,29,5,10,32,8,2,23,7,28,27,9,19,4,17]","main","309","many-guess-6"
"","","","","","html-keyboard-response","154","2089636","0.0-10.0-1.67","6000cefee380e61fa9bc5ae4","640759fa512f630a2bdc333d","6408c1831b890a3c84ea3005","null","","null","","","","","","","","","","","","","","","","","","","fixation","",""
"","","","","","many-guess-6","155","2092496","0.0-10.0-0.68-0.68","6000cefee380e61fa9bc5ae4","640759fa512f630a2bdc333d","6408c1831b890a3c84ea3005","[1568]","","","[25,18,5,27,1,20,2,11,21,16,10,4,34,13,6,31,32,29,26,7,28,19,23,12,17,30,15,24,22,35,9,33,0,8,14,3]","[134,314,64,333,254,184,214,14,34,24,74,343,274,94,104,54,4,174,294,124,44,154,194,264,234,224,244,353,144,324,164,304,114,284,84,204]","134","142","8.487687583339673","[8.487687583339673]","[226.48768758333966]","[225]","[30,120,120,120,300,120,300,300,120]","0","36","0","149","19","16","[[[""img/mask24.png""],[""img/mask95.png""],[""img/mask49.png""],[""img/mask13.png""],[""img/mask26.png""],[""img/mask89.png""],[""img/mask69.png""],[""img/mask33.png""],[""img/mask55.png""],[""img/mask26.png""],[""img/mask50.png""],[""img/mask47.png""],[""img/mask95.png""],[""img/mask11.png""],[""img/mask4.png""],[""img/mask63.png""],[""img/mask69.png""],[""img/mask87.png""],[""img/mask47.png""],[""img/mask78.png""],[""img/mask96.png""],[""img/mask20.png""],[""img/mask33.png""],[""img/mask5.png""],[""img/mask5.png""],[""img/mask65.png""],[""img/mask1.png""],[""img/mask29.png""],[""img/mask69.png""],[""img/mask67.png""],[""img/mask76.png""],[""img/mask90.png""],[""img/mask73.png""],[""img/mask72.png""],[""img/mask98.png""],[""img/mask12.png""]]]","","[25,18,5,27,1,20,2,11,21,16,10,4,34,13,6,31,32,29,26,7,28,19,23,12,17,30,15,24,22,35,9,33,0,8,14,3]","main","142","many-guess-6"
"","","","","","html-keyboard-response","156","2092997","0.0-10.0-1.68","6000cefee380e61fa9bc5ae4","640759fa512f630a2bdc333d","6408c1831b890a3c84ea3005","null","","null","","","","","","","","","","","","","","","","","","","fixation","",""
"","","","","","many-guess-6","157","2096116","0.0-10.0-0.69-0.69","6000cefee380e61fa9bc5ae4","640759fa512f630a2bdc333d","6408c1831b890a3c84ea3005","[1803]","","","[19,7,27,16,31,13,22,35,1,15,24,12,0,9,2,29,3,8,17,10,34,18,26,28,33,23,21,6,25,4,32,30,20,11,5,14]","[14,193,173,4,104,293,24,263,64,283,303,353,243,313,223,124,134,74,213,34,253,273,183,44,144,343,203,114,54,84,323,94,233,163,333,154]","14","28","180.40573178126786","[180.40573178126786]","[152.40573178126786]","[152]","[120,30,30,30,30,300,300,120,300]","0","36","0","150","16","16","[[[""img/mask16.png""],[""img/mask98.png""],[""img/mask52.png""],[""img/mask51.png""],[""img/mask87.png""],[""img/mask52.png""],[""img/mask39.png""],[""img/mask73.png""],[""img/mask27.png""],[""img/mask100.png""],[""img/mask80.png""],[""img/mask26.png""],[""img/mask79.png""],[""img/mask68.png""],[""img/mask63.png""],[""img/mask30.png""],[""img/mask49.png""],[""img/mask34.png""],[""img/mask7.png""],[""img/mask41.png""],[""img/mask39.png""],[""img/mask36.png""],[""img/mask89.png""],[""img/mask22.png""],[""img/mask62.png""],[""img/mask19.png""],[""img/mask20.png""],[""img/mask37.png""],[""img/mask43.png""],[""img/mask5.png""],[""img/mask9.png""],[""img/mask79.png""],[""img/mask80.png""],[""img/mask80.png""],[""img/mask47.png""],[""img/mask11.png""]]]","","[19,7,27,16,31,13,22,35,1,15,24,12,0,9,2,29,3,8,17,10,34,18,26,28,33,23,21,6,25,4,32,30,20,11,5,14]","main","28","many-guess-6"
"","","","","","html-keyboard-response","158","2096628","0.0-10.0-1.69","6000cefee380e61fa9bc5ae4","640759fa512f630a2bdc333d","6408c1831b890a3c84ea3005","null","","null","","","","","","","","","","","","","","","","","","","fixation","",""
"","","","","","many-guess-6","159","2099358","0.0-10.0-0.70-0.70","6000cefee380e61fa9bc5ae4","640759fa512f630a2bdc333d","6408c1831b890a3c84ea3005","[1427]","","","[2,34,20,28,6,23,29,8,25,26,16,32,33,27,19,12,17,10,35,18,30,15,3,5,14,24,4,1,31,7,0,22,9,21,13,11]","[199,328,69,358,89,109,79,99,219,169,288,139,249,268,59,19,209,119,39,189,9,278,29,308,129,348,149,239,229,159,318,259,49,338,179,298]","199","265","29.615573265930934","[29.615573265930934]","[124.61557326593095]","[123]","[30,300,300,210,300,30,120,300,30]","0","36","0","150","11","16","[[[""img/mask75.png""],[""img/mask70.png""],[""img/mask69.png""],[""img/mask57.png""],[""img/mask60.png""],[""img/mask17.png""],[""img/mask77.png""],[""img/mask100.png""],[""img/mask63.png""],[""img/mask48.png""],[""img/mask37.png""],[""img/mask70.png""],[""img/mask31.png""],[""img/mask66.png""],[""img/mask49.png""],[""img/mask44.png""],[""img/mask88.png""],[""img/mask13.png""],[""img/mask25.png""],[""img/mask26.png""],[""img/mask40.png""],[""img/mask77.png""],[""img/mask59.png""],[""img/mask66.png""],[""img/mask90.png""],[""img/mask15.png""],[""img/mask44.png""],[""img/mask86.png""],[""img/mask19.png""],[""img/mask55.png""],[""img/mask75.png""],[""img/mask22.png""],[""img/mask15.png""],[""img/mask14.png""],[""img/mask66.png""],[""img/mask29.png""]]]","","[2,34,20,28,6,23,29,8,25,26,16,32,33,27,19,12,17,10,35,18,30,15,3,5,14,24,4,1,31,7,0,22,9,21,13,11]","main","265","many-guess-6"
"","","","","","html-keyboard-response","160","2099868","0.0-10.0-1.70","6000cefee380e61fa9bc5ae4","640759fa512f630a2bdc333d","6408c1831b890a3c84ea3005","null","","null","","","","","","","","","","","","","","","","","","","fixation","",""
"","","","","","color-precision2","161","2103198","0.0-10.0-0.71-0.71","6000cefee380e61fa9bc5ae4","640759fa512f630a2bdc333d","6408c1831b890a3c84ea3005","[1016]","","","[34]","[30]","30","194","223.5075940712627","[223.5075940712627]","[29.5075940712627]","[30]","0","0","1","0","149","1005","1000","[[[""img/mask91.png""]]]","","","main","194","color-precision2"
"","","","","","html-keyboard-response","162","2103699","0.0-10.0-1.71","6000cefee380e61fa9bc5ae4","640759fa512f630a2bdc333d","6408c1831b890a3c84ea3005","null","","null","","","","","","","","","","","","","","","","","","","fixation","",""
"","","","","","color-precision2","163","2106788","0.0-10.0-0.72-0.72","6000cefee380e61fa9bc5ae4","640759fa512f630a2bdc333d","6408c1831b890a3c84ea3005","[537]","","","[22]","[200]","200","68","270.6807055719693","[270.6807055719693]","[202.68070557196933]","[203]","0","0","1","0","149","1002","1000","[[[""img/mask96.png""]]]","","","main","68","color-precision2"
"","","","","","html-keyboard-response","164","2107289","0.0-10.0-1.72","6000cefee380e61fa9bc5ae4","640759fa512f630a2bdc333d","6408c1831b890a3c84ea3005","null","","null","","","","","","","","","","","","","","","","","","","fixation","",""
"","","","","","color-precision2","165","2109920","0.0-10.0-0.73-0.73","6000cefee380e61fa9bc5ae4","640759fa512f630a2bdc333d","6408c1831b890a3c84ea3005","[335]","","","[35]","[111]","111","142","268.2997496904392","[268.2997496904392]","[126.29974969043923]","[126]","0","0","1","0","149","992","1000","[[[""img/mask62.png""]]]","","","main","142","color-precision2"
"","","","","","html-keyboard-response","166","2110421","0.0-10.0-1.73","6000cefee380e61fa9bc5ae4","640759fa512f630a2bdc333d","6408c1831b890a3c84ea3005","null","","null","","","","","","","","","","","","","","","","","","","fixation","",""
"","","","","","color-precision2","167","2112854","0.0-10.0-0.74-0.74","6000cefee380e61fa9bc5ae4","640759fa512f630a2bdc333d","6408c1831b890a3c84ea3005","[251]","","","[32]","[112]","112","153","","[null]","[null]","[119]","0","0","1","0","150","996","1000","[[[""img/mask60.png""]]]","","","main","153","color-precision2"
"","","","","","html-keyboard-response","168","2113354","0.0-10.0-1.74","6000cefee380e61fa9bc5ae4","640759fa512f630a2bdc333d","6408c1831b890a3c84ea3005","null","","null","","","","","","","","","","","","","","","","","","","fixation","",""
