"success","timeout","failed_images","failed_audio","failed_video","trial_type","trial_index","time_elapsed","internal_node_id","subject_id","study_id","session_id","rt","stimulus","response","position_of_items","colors_of_items","color_of_target","wheel_spin","response_angle","physical_response_angle","reported_color_angle","reported_color_discrete","locs","which_test","set_size","wheel_num_options","actual_mask_duration","actual_stim_duration","CMDispTime","maskArray","maskRotation","item_positions","task","randomSpinAmount","mainTask"
"true","false","[]","[]","[]","preload","0","5687","0.0-0.0","60c119b30aa5205b493541b6","640759fa512f630a2bdc333d","6408c1721806d9b9e8039b00","","","","","","","","","","","","","","","","","","","","","","","",""
"true","","","","","fullscreen","1","9682","0.0-1.0","60c119b30aa5205b493541b6","640759fa512f630a2bdc333d","6408c1721806d9b9e8039b00","","","","","","","","","","","","","","","","","","","","","","","",""
"","","","","","html-keyboard-response","2","16681","0.0-2.0","60c119b30aa5205b493541b6","640759fa512f630a2bdc333d","6408c1721806d9b9e8039b00","6998","What a beautiful Wednesday to do some awesome science! </p> <p>  </p><p> </p>
    By completing this survey or questionnaire, you are consenting to be in this research study. </p>
    Your participation is voluntary and you can stop at any time.<p> [Press any key to continue] </p>"," ","","","","","","","","","","","","","","","","","","","","",""
"","","","","","html-keyboard-response","3","26683","0.0-3.0","60c119b30aa5205b493541b6","640759fa512f630a2bdc333d","6408c1721806d9b9e8039b00","9470.899999976158","
    <div style='width: 1000px;'>
    <div style='float: center;'><img src='img/TaskInstructions1.png'></img>
    </div>
    "," ","","","","","","","","","","","","","","","","","","","","",""
"","","","","","html-keyboard-response","4","27400","0.0-4.0","60c119b30aa5205b493541b6","640759fa512f630a2bdc333d","6408c1721806d9b9e8039b00","716.8000000119209","
    <div style='width: 1000px;'>
    <div style='float: center;'><img src='img/TaskInstructions1.png'></img>
    </div>
    "," ","","","","","","","","","","","","","","","","","","","","",""
"","","","","","html-keyboard-response","5","37415","0.0-5.0","60c119b30aa5205b493541b6","640759fa512f630a2bdc333d","6408c1721806d9b9e8039b00","null","
    <div style='width: 1000px;'>
    <div style='float: center;'><img src='img/TaskInstructions2.png'></img>
    </div>
    ","null","","","","","","","","","","","","","","","","","","","","",""
"","","","","","html-keyboard-response","6","47353","0.0-6.0","60c119b30aa5205b493541b6","640759fa512f630a2bdc333d","6408c1721806d9b9e8039b00","9937.299999952316","
    <div style='width: 1000px;'>
    <div style='float: center;'><img src='img/TaskInstructions2.png'></img>
    </div>
    "," ","","","","","","","","","","","","","","","","","","","","",""
"","","","","","video-keyboard-response","7","63523","0.0-7.0","60c119b30aa5205b493541b6","640759fa512f630a2bdc333d","6408c1721806d9b9e8039b00","16161.599999964237","[""video/TaskInstructions3.mp4""]"," ","","","","","","","","","","","","","","","","","","","","",""
"","","","","","image-keyboard-response","8","71696","0.0-8.0-0.0","60c119b30aa5205b493541b6","640759fa512f630a2bdc333d","6408c1721806d9b9e8039b00","8171.800000011921","img/training1.png"," ","","","","","","","","","","","","","","","","","","","","",""
"","","","","","color-precision2","9","81295","0.0-8.0-1.0-0.0","60c119b30aa5205b493541b6","640759fa512f630a2bdc333d","6408c1721806d9b9e8039b00","[2357.399999976158]","","","[21]","[311]","311","297","247.2021761691047","[247.2021761691047]","[310.2021761691047]","[311]","0","0","1","0","498.5040000000008","996.0959999642364","1000","","","0","training","",""
"","","","","","image-keyboard-response","10","214625","0.0-8.0-0.1","60c119b30aa5205b493541b6","640759fa512f630a2bdc333d","6408c1721806d9b9e8039b00","133329.09999996424","img/training2.png"," ","","","","","","","","","","","","","","","","","","","","",""
"","","","","","many-guess-6","11","228040","0.0-8.0-1.1-0.1","60c119b30aa5205b493541b6","640759fa512f630a2bdc333d","6408c1721806d9b9e8039b00","[5384.899999976158]","","","[11,27,15]","[287,228,319]","287","171","60.51998123105003","[60.51998123105003]","[249.51998123105002]","[248]","[210,30,210,120,120,120,300,120,210,300,210,30,210,30,210,30,120,210,210,30,30,120,30,30,300,300,120,300,120,30,300,300,120,120,210,120]","0","3","0","999.0879999523167","991.708999964234","1000","[[[""img/mask54.png""],[""img/mask81.png""],[""img/mask71.png""]]]","","[11,27,15]","training","",""
"","","","","","image-keyboard-response","12","234401","0.0-8.0-0.2","60c119b30aa5205b493541b6","640759fa512f630a2bdc333d","6408c1721806d9b9e8039b00","6359.699999988079","img/training3.png"," ","","","","","","","","","","","","","","","","","","","","",""
"","","","","","[""many-guess-6""]","13","243554","0.0-8.0-1.2-0.2","60c119b30aa5205b493541b6","640759fa512f630a2bdc333d","6408c1721806d9b9e8039b00","[3583.199999988079]","","","[4,18,13,29,21]","[157,202,115,80,214]","157","327","151.89596301833396","[151.89596301833396]","[184.89596301833396]","[183]","[30,120,300,300,120,120,30,30,210,210,120,300,300,30,210,30,210,120,210,120,30,120,300,210,300,30,300,210,30,30,30,300,120,210,30,120]","0","5","0","499.2190000000119","492.84299998809","500","[[[""img/mask70.png""],[""img/mask47.png""],[""img/mask10.png""],[""img/mask40.png""],[""img/mask36.png""]]]","","[4,18,13,29,21]","training","",""
"","","","","","image-keyboard-response","14","249458","0.0-8.0-0.3","60c119b30aa5205b493541b6","640759fa512f630a2bdc333d","6408c1721806d9b9e8039b00","5902.400000035763","img/training4.png"," ","","","","","","","","","","","","","","","","","","","","",""
"","","","","","[""many-guess-6""]","15","256990","0.0-8.0-1.3-0.3","60c119b30aa5205b493541b6","640759fa512f630a2bdc333d","6408c1721806d9b9e8039b00","[3452.400000035763]","","","[29,14,32,19,28,33,27,31,11,7]","[22,98,283,33,48,347,269,243,63,317]","22","175","199.52591041817956","[199.52591041817956]","[24.525910418179564]","[24]","[210,210,210,210,210,30,120,210,120,30,300,300,210,120,300,120,30,300,300,120,300,120,300,30,300,30,30,30,120,120,210,210,30,210,120,210]","0","10","0","132.23399995232467","129.76999998808606","132","[[[""img/mask63.png""],[""img/mask78.png""],[""img/mask100.png""],[""img/mask50.png""],[""img/mask20.png""],[""img/mask87.png""],[""img/mask43.png""],[""img/mask55.png""],[""img/mask86.png""],[""img/mask57.png""]]]","","[29,14,32,19,28,33,27,31,11,7]","training","",""
"","","","","","image-keyboard-response","16","260241","0.0-8.0-0.4","60c119b30aa5205b493541b6","640759fa512f630a2bdc333d","6408c1721806d9b9e8039b00","3250","img/training5.png"," ","","","","","","","","","","","","","","","","","","","","",""
"","","","","","[""many-guess-6""]","17","269238","0.0-8.0-1.4-0.4","60c119b30aa5205b493541b6","640759fa512f630a2bdc333d","6408c1721806d9b9e8039b00","[5032.699999988079]","","","[18,22,24,30,34,3,33,31,26,1,29,8,23,28,20,4,7,32,19,6,35,14,16,12,13,10,17,25,21,15,9,2,11,0,5,27]","[93,282,302,212,292,262,352,312,23,73,152,222,132,142,252,342,43,322,112,162,53,122,242,332,3,192,182,63,232,103,272,202,13,33,83,172]","93","257","38.332761302462465","[38.332761302462465]","[141.33276130246247]","[140]","[300,120,30,300,30,300,210,120,120,30,30,300,120,120,120,30,210,210,210,120,300,30,210,30,300,30,120,120,30,300,30,210,300,30,120,120]","0","36","0","132.4359999523149","19.91699997615069","16","[[[""img/mask41.png""],[""img/mask41.png""],[""img/mask100.png""],[""img/mask76.png""],[""img/mask12.png""],[""img/mask70.png""],[""img/mask44.png""],[""img/mask99.png""],[""img/mask13.png""],[""img/mask9.png""],[""img/mask63.png""],[""img/mask18.png""],[""img/mask3.png""],[""img/mask25.png""],[""img/mask18.png""],[""img/mask21.png""],[""img/mask66.png""],[""img/mask54.png""],[""img/mask30.png""],[""img/mask75.png""],[""img/mask55.png""],[""img/mask38.png""],[""img/mask4.png""],[""img/mask74.png""],[""img/mask80.png""],[""img/mask69.png""],[""img/mask74.png""],[""img/mask80.png""],[""img/mask3.png""],[""img/mask85.png""],[""img/mask63.png""],[""img/mask21.png""],[""img/mask17.png""],[""img/mask7.png""],[""img/mask43.png""],[""img/mask66.png""]]]","","[18,22,24,30,34,3,33,31,26,1,29,8,23,28,20,4,7,32,19,6,35,14,16,12,13,10,17,25,21,15,9,2,11,0,5,27]","training","",""
"","","","","","image-keyboard-response","18","275169","0.0-9.0","60c119b30aa5205b493541b6","640759fa512f630a2bdc333d","6408c1721806d9b9e8039b00","5930","[""img/endTraining.png""]"," ","","","","","","","","","","","","","","","","","","","","",""
"","","","","","html-keyboard-response","19","275669","0.0-10.0-0.0","60c119b30aa5205b493541b6","640759fa512f630a2bdc333d","6408c1721806d9b9e8039b00","null","","null","","","","","","","","","","","","","","","","","","","fixation","",""
"","","","","","many-guess-6","20","292550","0.0-10.0-1.0-0.0","60c119b30aa5205b493541b6","640759fa512f630a2bdc333d","6408c1721806d9b9e8039b00","[2511.199999988079]","","","[35,29,22,10,34,27,15,31,1,30,17,2,14,13,32,8,5,28,33,4,25,12,6,7,18,21,16,0,11,20,23,19,26,9,24,3]","[282,163,103,33,173,133,73,322,183,272,222,242,53,63,123,113,312,212,153,262,302,13,342,93,192,202,252,23,352,143,292,83,43,232,3,332]","282","213","256.5500111365923","[256.5500111365923]","[43.550011136592275]","[44]","[300,120,300,120,210,30,210,120,210]","0","36","0","149.21399995230604","22.769999964220915","16","[[[""img/mask56.png""],[""img/mask57.png""],[""img/mask89.png""],[""img/mask16.png""],[""img/mask16.png""],[""img/mask60.png""],[""img/mask68.png""],[""img/mask16.png""],[""img/mask17.png""],[""img/mask36.png""],[""img/mask43.png""],[""img/mask56.png""],[""img/mask30.png""],[""img/mask32.png""],[""img/mask52.png""],[""img/mask6.png""],[""img/mask58.png""],[""img/mask88.png""],[""img/mask56.png""],[""img/mask66.png""],[""img/mask69.png""],[""img/mask49.png""],[""img/mask72.png""],[""img/mask38.png""],[""img/mask5.png""],[""img/mask7.png""],[""img/mask23.png""],[""img/mask66.png""],[""img/mask36.png""],[""img/mask66.png""],[""img/mask76.png""],[""img/mask87.png""],[""img/mask41.png""],[""img/mask63.png""],[""img/mask97.png""],[""img/mask62.png""]]]","","[35,29,22,10,34,27,15,31,1,30,17,2,14,13,32,8,5,28,33,4,25,12,6,7,18,21,16,0,11,20,23,19,26,9,24,3]","main","213","many-guess-6"
"","","","","","html-keyboard-response","21","293052","0.0-10.0-0.1","60c119b30aa5205b493541b6","640759fa512f630a2bdc333d","6408c1721806d9b9e8039b00","null","","null","","","","","","","","","","","","","","","","","","","fixation","",""
"","","","","","many-guess-6","22","302407","0.0-10.0-1.1-0.1","60c119b30aa5205b493541b6","640759fa512f630a2bdc333d","6408c1721806d9b9e8039b00","[3052.300000011921]","","","[2,8,6,22,4,10,26,33,14,13,28,30,34,24,25,9,5,16,27,32,31,20,0,23,29,3,17,35,1,21,15,11,18,7,12,19]","[20,129,269,79,329,229,159,189,139,309,50,10,349,219,169,359,259,319,199,60,40,119,109,299,339,289,279,30,249,239,70,179,149,209,99,89]","20","210","86.72919338662663","[86.72919338662663]","[236.72919338662663]","[235]","[30,30,120,120,300,120,210,120,30]","0","36","0","148.923999952327","20.60699998808559","16","[[[""img/mask37.png""],[""img/mask42.png""],[""img/mask51.png""],[""img/mask91.png""],[""img/mask67.png""],[""img/mask93.png""],[""img/mask53.png""],[""img/mask9.png""],[""img/mask74.png""],[""img/mask45.png""],[""img/mask88.png""],[""img/mask26.png""],[""img/mask42.png""],[""img/mask59.png""],[""img/mask61.png""],[""img/mask64.png""],[""img/mask93.png""],[""img/mask34.png""],[""img/mask30.png""],[""img/mask67.png""],[""img/mask43.png""],[""img/mask32.png""],[""img/mask50.png""],[""img/mask34.png""],[""img/mask50.png""],[""img/mask89.png""],[""img/mask23.png""],[""img/mask93.png""],[""img/mask85.png""],[""img/mask24.png""],[""img/mask27.png""],[""img/mask56.png""],[""img/mask15.png""],[""img/mask32.png""],[""img/mask81.png""],[""img/mask9.png""]]]","","[2,8,6,22,4,10,26,33,14,13,28,30,34,24,25,9,5,16,27,32,31,20,0,23,29,3,17,35,1,21,15,11,18,7,12,19]","main","210","many-guess-6"
"","","","","","html-keyboard-response","23","302909","0.0-10.0-0.2","60c119b30aa5205b493541b6","640759fa512f630a2bdc333d","6408c1721806d9b9e8039b00","null","","null","","","","","","","","","","","","","","","","","","","fixation","",""
"","","","","","color-precision2","24","324568","0.0-10.0-1.2-0.2","60c119b30aa5205b493541b6","640759fa512f630a2bdc333d","6408c1721806d9b9e8039b00","[3379.899999976158]","","","[31]","[174]","174","135","312.48711801316","[312.48711801316]","[177.48711801316]","[177]","0","0","1","0","149.1699999642442","1006.6989999761572","1000","[[[""img/mask64.png""]]]","","","main","135","color-precision2"
"","","","","","html-keyboard-response","25","325069","0.0-10.0-0.3","60c119b30aa5205b493541b6","640759fa512f630a2bdc333d","6408c1721806d9b9e8039b00","null","","null","","","","","","","","","","","","","","","","","","","fixation","",""
"","","","","","color-precision2","26","332225","0.0-10.0-1.3-0.3","60c119b30aa5205b493541b6","640759fa512f630a2bdc333d","6408c1721806d9b9e8039b00","[3436.800000011921]","","","[11]","[30]","30","110","147.59062622528447","[147.59062622528447]","[37.59062622528447]","[37]","0","0","1","0","149.06199999997625","1004.3520000000135","1000","[[[""img/mask59.png""]]]","","","main","110","color-precision2"
"","","","","","html-keyboard-response","27","332726","0.0-10.0-0.4","60c119b30aa5205b493541b6","640759fa512f630a2bdc333d","6408c1721806d9b9e8039b00","null","","null","","","","","","","","","","","","","","","","","","","fixation","",""
"","","","","","many-guess-6","28","337281","0.0-10.0-1.4-0.4","60c119b30aa5205b493541b6","640759fa512f630a2bdc333d","6408c1721806d9b9e8039b00","[2276.199999988079]","","","[1,28,18,35,24,25,11,9,17,30,0,2,31,27,16,29,5,22,12,15,34,23,21,20,4,6,8,26,7,14,3,10,32,33,19,13]","[120,230,290,310,170,60,31,330,300,160,220,320,260,100,180,11,350,1,250,41,150,240,280,110,130,90,270,70,21,140,340,210,50,190,200,80]","120","59","299.86911954081404","[299.86911954081404]","[240.86911954081404]","[241]","[30,210,30,210,300,300,30,30,210]","0","36","0","149.40799998806324","19.160999964224175","16","[[[""img/mask47.png""],[""img/mask40.png""],[""img/mask98.png""],[""img/mask59.png""],[""img/mask10.png""],[""img/mask20.png""],[""img/mask85.png""],[""img/mask21.png""],[""img/mask44.png""],[""img/mask47.png""],[""img/mask40.png""],[""img/mask8.png""],[""img/mask39.png""],[""img/mask27.png""],[""img/mask46.png""],[""img/mask47.png""],[""img/mask92.png""],[""img/mask95.png""],[""img/mask53.png""],[""img/mask66.png""],[""img/mask34.png""],[""img/mask4.png""],[""img/mask5.png""],[""img/mask100.png""],[""img/mask59.png""],[""img/mask53.png""],[""img/mask46.png""],[""img/mask31.png""],[""img/mask5.png""],[""img/mask82.png""],[""img/mask46.png""],[""img/mask95.png""],[""img/mask20.png""],[""img/mask60.png""],[""img/mask5.png""],[""img/mask62.png""]]]","","[1,28,18,35,24,25,11,9,17,30,0,2,31,27,16,29,5,22,12,15,34,23,21,20,4,6,8,26,7,14,3,10,32,33,19,13]","main","59","many-guess-6"
"","","","","","html-keyboard-response","29","337783","0.0-10.0-0.5","60c119b30aa5205b493541b6","640759fa512f630a2bdc333d","6408c1721806d9b9e8039b00","null","","null","","","","","","","","","","","","","","","","","","","fixation","",""
"","","","","","many-guess-6","30","342455","0.0-10.0-1.5-0.5","60c119b30aa5205b493541b6","640759fa512f630a2bdc333d","6408c1721806d9b9e8039b00","[2701.300000011921]","","","[13,27,17,26,5,32,28,8,11,30,10,34,29,1,12,31,23,21,6,3,9,7,25,19,2,24,33,4,0,18,20,15,35,16,14,22]","[71,130,180,51,220,320,1,170,210,240,150,200,140,61,111,300,160,21,91,280,101,310,340,290,350,81,250,41,190,330,230,31,260,121,11,270]","71","290","307.3896129516952","[307.3896129516952]","[17.3896129516952]","[17]","[210,210,210,120,30,300,300,120,30]","0","36","0","149.39199995232048","27.062999964226037","16","[[[""img/mask90.png""],[""img/mask100.png""],[""img/mask71.png""],[""img/mask45.png""],[""img/mask80.png""],[""img/mask26.png""],[""img/mask15.png""],[""img/mask66.png""],[""img/mask71.png""],[""img/mask94.png""],[""img/mask18.png""],[""img/mask95.png""],[""img/mask97.png""],[""img/mask25.png""],[""img/mask90.png""],[""img/mask35.png""],[""img/mask9.png""],[""img/mask50.png""],[""img/mask69.png""],[""img/mask8.png""],[""img/mask52.png""],[""img/mask97.png""],[""img/mask85.png""],[""img/mask82.png""],[""img/mask98.png""],[""img/mask40.png""],[""img/mask20.png""],[""img/mask20.png""],[""img/mask14.png""],[""img/mask72.png""],[""img/mask80.png""],[""img/mask75.png""],[""img/mask98.png""],[""img/mask14.png""],[""img/mask5.png""],[""img/mask69.png""]]]","","[13,27,17,26,5,32,28,8,11,30,10,34,29,1,12,31,23,21,6,3,9,7,25,19,2,24,33,4,0,18,20,15,35,16,14,22]","main","290","many-guess-6"
"","","","","","html-keyboard-response","31","342956","0.0-10.0-0.6","60c119b30aa5205b493541b6","640759fa512f630a2bdc333d","6408c1721806d9b9e8039b00","null","","null","","","","","","","","","","","","","","","","","","","fixation","",""
"","","","","","color-precision2","32","350997","0.0-10.0-1.6-0.6","60c119b30aa5205b493541b6","640759fa512f630a2bdc333d","6408c1721806d9b9e8039b00","[4742.800000011921]","","","[18]","[232]","232","7","250.7570021137052","[250.7570021137052]","[243.7570021137052]","[244]","0","0","1","0","149.00599995232187","997.2039999880944","1000","[[[""img/mask5.png""]]]","","","main","7","color-precision2"
"","","","","","html-keyboard-response","33","351500","0.0-10.0-0.7","60c119b30aa5205b493541b6","640759fa512f630a2bdc333d","6408c1721806d9b9e8039b00","null","","null","","","","","","","","","","","","","","","","","","","fixation","",""
"","","","","","many-guess-6","34","357813","0.0-10.0-1.7-0.7","60c119b30aa5205b493541b6","640759fa512f630a2bdc333d","6408c1721806d9b9e8039b00","[3492]","","","[4,9,20,33,23,7,3,16,25,35,26,10,24,15,29,31,12,2,6,14,13,8,28,32,21,34,22,30,11,27,0,17,18,1,19,5]","[72,12,121,141,22,341,171,92,251,82,311,32,42,321,241,291,52,62,101,271,131,331,151,281,231,181,351,161,201,211,111,191,2,221,301,261]","72","88","213.4118392152192","[213.4118392152192]","[125.4118392152192]","[125]","[210,300,30,30,120,300,300,120,210]","0","36","0","149.25","13.877999976160936","16","[[[""img/mask73.png""],[""img/mask51.png""],[""img/mask91.png""],[""img/mask42.png""],[""img/mask87.png""],[""img/mask71.png""],[""img/mask25.png""],[""img/mask46.png""],[""img/mask50.png""],[""img/mask25.png""],[""img/mask87.png""],[""img/mask32.png""],[""img/mask15.png""],[""img/mask80.png""],[""img/mask7.png""],[""img/mask58.png""],[""img/mask96.png""],[""img/mask14.png""],[""img/mask94.png""],[""img/mask48.png""],[""img/mask81.png""],[""img/mask35.png""],[""img/mask53.png""],[""img/mask60.png""],[""img/mask23.png""],[""img/mask61.png""],[""img/mask14.png""],[""img/mask19.png""],[""img/mask84.png""],[""img/mask65.png""],[""img/mask55.png""],[""img/mask6.png""],[""img/mask3.png""],[""img/mask94.png""],[""img/mask51.png""],[""img/mask88.png""]]]","","[4,9,20,33,23,7,3,16,25,35,26,10,24,15,29,31,12,2,6,14,13,8,28,32,21,34,22,30,11,27,0,17,18,1,19,5]","main","88","many-guess-6"
"","","","","","html-keyboard-response","35","358315","0.0-10.0-0.8","60c119b30aa5205b493541b6","640759fa512f630a2bdc333d","6408c1721806d9b9e8039b00","null","","null","","","","","","","","","","","","","","","","","","","fixation","",""
"","","","","","color-precision2","36","366009","0.0-10.0-1.8-0.8","60c119b30aa5205b493541b6","640759fa512f630a2bdc333d","6408c1721806d9b9e8039b00","[2988.100000023842]","","","[31]","[294]","294","103","37.545775047622605","[37.545775047622605]","[294.5457750476226]","[294]","0","0","1","0","149.28299997613067","1000.6560000000172","1000","[[[""img/mask52.png""]]]","","","main","103","color-precision2"
"","","","","","html-keyboard-response","37","366510","0.0-10.0-0.9","60c119b30aa5205b493541b6","640759fa512f630a2bdc333d","6408c1721806d9b9e8039b00","null","","null","","","","","","","","","","","","","","","","","","","fixation","",""
"","","","","","color-precision2","38","371992","0.0-10.0-1.9-0.9","60c119b30aa5205b493541b6","640759fa512f630a2bdc333d","6408c1721806d9b9e8039b00","[1937.199999988079]","","","[15]","[56]","56","256","293.6109980311559","[293.6109980311559]","[37.61099803115587]","[38]","0","0","1","0","149.36099996423582","1000.0199999642209","1000","[[[""img/mask88.png""]]]","","","main","256","color-precision2"
"","","","","","html-keyboard-response","39","372493","0.0-10.0-0.10","60c119b30aa5205b493541b6","640759fa512f630a2bdc333d","6408c1721806d9b9e8039b00","null","","null","","","","","","","","","","","","","","","","","","","fixation","",""
"","","","","","many-guess-6","40","377419","0.0-10.0-1.10-0.10","60c119b30aa5205b493541b6","640759fa512f630a2bdc333d","6408c1721806d9b9e8039b00","[3148.599999964237]","","","[4,29,35,3,19,9,10,0,24,1,26,30,33,15,12,13,32,7,21,16,6,27,14,11,28,17,5,23,25,20,2,8,22,31,18,34]","[203,34,333,343,84,263,323,213,14,24,173,144,114,104,353,303,243,44,233,124,134,193,313,223,253,273,183,283,153,163,54,74,64,293,4,94]","203","78","135.5033465918781","[135.5033465918781]","[57.50334659187811]","[56]","[30,30,210,300,300,120,300,30,300]","0","36","0","149.21299996424932","18.737999988079537","16","[[[""img/mask33.png""],[""img/mask73.png""],[""img/mask17.png""],[""img/mask16.png""],[""img/mask25.png""],[""img/mask66.png""],[""img/mask6.png""],[""img/mask57.png""],[""img/mask74.png""],[""img/mask25.png""],[""img/mask36.png""],[""img/mask95.png""],[""img/mask69.png""],[""img/mask53.png""],[""img/mask15.png""],[""img/mask42.png""],[""img/mask88.png""],[""img/mask41.png""],[""img/mask5.png""],[""img/mask11.png""],[""img/mask24.png""],[""img/mask80.png""],[""img/mask4.png""],[""img/mask61.png""],[""img/mask80.png""],[""img/mask37.png""],[""img/mask28.png""],[""img/mask65.png""],[""img/mask30.png""],[""img/mask66.png""],[""img/mask25.png""],[""img/mask32.png""],[""img/mask98.png""],[""img/mask16.png""],[""img/mask63.png""],[""img/mask59.png""]]]","","[4,29,35,3,19,9,10,0,24,1,26,30,33,15,12,13,32,7,21,16,6,27,14,11,28,17,5,23,25,20,2,8,22,31,18,34]","main","78","many-guess-6"
"","","","","","html-keyboard-response","41","377920","0.0-10.0-0.11","60c119b30aa5205b493541b6","640759fa512f630a2bdc333d","6408c1721806d9b9e8039b00","null","","null","","","","","","","","","","","","","","","","","","","fixation","",""
"","","","","","color-precision2","42","382937","0.0-10.0-1.11-0.11","60c119b30aa5205b493541b6","640759fa512f630a2bdc333d","6408c1721806d9b9e8039b00","[2349.5]","","","[8]","[116]","116","272","28.870436558853026","[28.870436558853026]","[116.87043655885302]","[116]","0","0","1","0","149.20499998808373","996.1139999523293","1000","[[[""img/mask87.png""]]]","","","main","272","color-precision2"
"","","","","","html-keyboard-response","43","383438","0.0-10.0-0.12","60c119b30aa5205b493541b6","640759fa512f630a2bdc333d","6408c1721806d9b9e8039b00","null","","null","","","","","","","","","","","","","","","","","","","fixation","",""
"","","","","","many-guess-6","44","388361","0.0-10.0-1.12-0.12","60c119b30aa5205b493541b6","640759fa512f630a2bdc333d","6408c1721806d9b9e8039b00","[2923.599999964237]","","","[23,35,18,0,1,30,12,25,17,15,5,10,19,16,14,27,6,4,9,21,33,13,3,20,34,31,11,29,22,7,28,24,26,2,8,32]","[166,306,136,96,316,106,266,56,326,76,176,37,156,17,7,186,66,246,336,356,216,86,126,296,116,276,346,196,27,236,146,206,286,47,226,256]","166","107","130.92898698903383","[130.92898698903383]","[23.92898698903383]","[22]","[30,120,120,210,300,210,120,30,210]","0","36","0","149.5379999880679","17.54399998806184","16","[[[""img/mask27.png""],[""img/mask23.png""],[""img/mask15.png""],[""img/mask70.png""],[""img/mask89.png""],[""img/mask43.png""],[""img/mask20.png""],[""img/mask54.png""],[""img/mask41.png""],[""img/mask76.png""],[""img/mask9.png""],[""img/mask85.png""],[""img/mask49.png""],[""img/mask84.png""],[""img/mask89.png""],[""img/mask16.png""],[""img/mask99.png""],[""img/mask100.png""],[""img/mask44.png""],[""img/mask34.png""],[""img/mask92.png""],[""img/mask58.png""],[""img/mask46.png""],[""img/mask20.png""],[""img/mask20.png""],[""img/mask55.png""],[""img/mask81.png""],[""img/mask83.png""],[""img/mask51.png""],[""img/mask29.png""],[""img/mask19.png""],[""img/mask59.png""],[""img/mask96.png""],[""img/mask18.png""],[""img/mask70.png""],[""img/mask89.png""]]]","","[23,35,18,0,1,30,12,25,17,15,5,10,19,16,14,27,6,4,9,21,33,13,3,20,34,31,11,29,22,7,28,24,26,2,8,32]","main","107","many-guess-6"
"","","","","","html-keyboard-response","45","388863","0.0-10.0-0.13","60c119b30aa5205b493541b6","640759fa512f630a2bdc333d","6408c1721806d9b9e8039b00","null","","null","","","","","","","","","","","","","","","","","","","fixation","",""
"","","","","","color-precision2","46","395389","0.0-10.0-1.13-0.13","60c119b30aa5205b493541b6","640759fa512f630a2bdc333d","6408c1721806d9b9e8039b00","[3400.800000011921]","","","[8]","[25]","25","99","119.05817357635249","[119.05817357635249]","[20.058173576352488]","[18]","0","0","1","0","148.79399997612927","999.9229999642121","1000","[[[""img/mask75.png""]]]","","","main","99","color-precision2"
"","","","","","html-keyboard-response","47","395890","0.0-10.0-0.14","60c119b30aa5205b493541b6","640759fa512f630a2bdc333d","6408c1721806d9b9e8039b00","null","","null","","","","","","","","","","","","","","","","","","","fixation","",""
"","","","","","many-guess-6","48","400241","0.0-10.0-1.14-0.14","60c119b30aa5205b493541b6","640759fa512f630a2bdc333d","6408c1721806d9b9e8039b00","[2369.5]","","","[13,14,35,25,15,33,20,5,9,28,24,7,27,30,17,19,23,21,29,3,0,10,32,1,6,11,34,18,4,12,2,8,26,16,31,22]","[73,133,183,33,203,23,143,292,193,213,153,233,113,342,243,263,3,173,63,43,103,253,223,283,322,93,163,53,273,332,83,13,312,352,123,302]","73","117","158.18025267564082","[158.18025267564082]","[41.180252675640816]","[40]","[210,210,210,300,300,120,30,210,30]","0","36","0","147.85499997617444","25.466999952332117","16","[[[""img/mask30.png""],[""img/mask35.png""],[""img/mask8.png""],[""img/mask87.png""],[""img/mask65.png""],[""img/mask25.png""],[""img/mask18.png""],[""img/mask76.png""],[""img/mask65.png""],[""img/mask62.png""],[""img/mask33.png""],[""img/mask4.png""],[""img/mask33.png""],[""img/mask47.png""],[""img/mask52.png""],[""img/mask74.png""],[""img/mask83.png""],[""img/mask56.png""],[""img/mask10.png""],[""img/mask28.png""],[""img/mask51.png""],[""img/mask8.png""],[""img/mask77.png""],[""img/mask2.png""],[""img/mask38.png""],[""img/mask46.png""],[""img/mask16.png""],[""img/mask90.png""],[""img/mask35.png""],[""img/mask91.png""],[""img/mask42.png""],[""img/mask38.png""],[""img/mask22.png""],[""img/mask65.png""],[""img/mask45.png""],[""img/mask97.png""]]]","","[13,14,35,25,15,33,20,5,9,28,24,7,27,30,17,19,23,21,29,3,0,10,32,1,6,11,34,18,4,12,2,8,26,16,31,22]","main","117","many-guess-6"
"","","","","","html-keyboard-response","49","400742","0.0-10.0-0.15","60c119b30aa5205b493541b6","640759fa512f630a2bdc333d","6408c1721806d9b9e8039b00","null","","null","","","","","","","","","","","","","","","","","","","fixation","",""
"","","","","","color-precision2","50","405743","0.0-10.0-1.15-0.15","60c119b30aa5205b493541b6","640759fa512f630a2bdc333d","6408c1721806d9b9e8039b00","[1371.5]","","","[16]","[40]","40","160","189.39133382246646","[189.39133382246646]","[29.391333822466464]","[29]","0","0","1","0","149.58399996423395","1006.8159999761847","1000","[[[""img/mask53.png""]]]","","","main","160","color-precision2"
"","","","","","html-keyboard-response","51","406245","0.0-10.0-0.16","60c119b30aa5205b493541b6","640759fa512f630a2bdc333d","6408c1721806d9b9e8039b00","null","","null","","","","","","","","","","","","","","","","","","","fixation","",""
"","","","","","color-precision2","52","411620","0.0-10.0-1.16-0.16","60c119b30aa5205b493541b6","640759fa512f630a2bdc333d","6408c1721806d9b9e8039b00","[2549.100000023842]","","","[32]","[55]","55","145","204.40177777651277","[204.40177777651277]","[59.40177777651277]","[59]","0","0","1","0","149.07799997617258","994.0269999642624","1000","[[[""img/mask96.png""]]]","","","main","145","color-precision2"
"","","","","","html-keyboard-response","53","412121","0.0-10.0-0.17","60c119b30aa5205b493541b6","640759fa512f630a2bdc333d","6408c1721806d9b9e8039b00","null","","null","","","","","","","","","","","","","","","","","","","fixation","",""
"","","","","","color-precision2","54","416159","0.0-10.0-1.17-0.17","60c119b30aa5205b493541b6","640759fa512f630a2bdc333d","6408c1721806d9b9e8039b00","[1204.5]","","","[35]","[260]","260","146","41.44903297446106","[41.44903297446106]","[255.44903297446106]","[254]","0","0","1","0","149.05699997616466","1004.0889999642386","1000","[[[""img/mask52.png""]]]","","","main","146","color-precision2"
"","","","","","html-keyboard-response","55","416660","0.0-10.0-0.18","60c119b30aa5205b493541b6","640759fa512f630a2bdc333d","6408c1721806d9b9e8039b00","null","","null","","","","","","","","","","","","","","","","","","","fixation","",""
"","","","","","color-precision2","56","421320","0.0-10.0-1.18-0.18","60c119b30aa5205b493541b6","640759fa512f630a2bdc333d","6408c1721806d9b9e8039b00","[1731.1000000238419]","","","[7]","[196]","196","90","278.960480487841","[278.960480487841]","[188.96048048784098]","[189]","0","0","1","0","149.0109999642591","1000.5299999522977","1000","[[[""img/mask34.png""]]]","","","main","90","color-precision2"
"","","","","","html-keyboard-response","57","426798","0.0-10.0-0.19","60c119b30aa5205b493541b6","640759fa512f630a2bdc333d","6408c1721806d9b9e8039b00","5477.399999976158","Wow! You've completed 20 out of 180 trials! </p> <p>  </p><p> Take a quick break, then press any key when you're ready to continue."," ","","","","","","","","","","","","","","","","","","","fixation","",""
"","","","","","many-guess-6","58","433239","0.0-10.0-1.19-0.19","60c119b30aa5205b493541b6","640759fa512f630a2bdc333d","6408c1721806d9b9e8039b00","[2151.7999999523163]","","","[25,32,10,28,19,0,31,17,27,22,33,21,18,9,34,20,1,5,12,14,13,30,2,35,23,26,8,11,4,3,7,15,6,29,24,16]","[280,80,220,30,290,200,319,70,329,190,10,120,180,90,250,339,310,110,230,270,260,300,349,130,160,359,100,210,240,150,40,60,170,20,140,50]","280","348","345.15606673506335","[345.15606673506335]","[357.15606673506335]","[357]","[120,210,120,300,300,120,210,30,120]","0","36","0","149.28199995233444","15.053999988071155","16","[[[""img/mask18.png""],[""img/mask100.png""],[""img/mask49.png""],[""img/mask5.png""],[""img/mask69.png""],[""img/mask95.png""],[""img/mask32.png""],[""img/mask26.png""],[""img/mask54.png""],[""img/mask58.png""],[""img/mask74.png""],[""img/mask34.png""],[""img/mask14.png""],[""img/mask28.png""],[""img/mask18.png""],[""img/mask56.png""],[""img/mask69.png""],[""img/mask3.png""],[""img/mask23.png""],[""img/mask62.png""],[""img/mask6.png""],[""img/mask14.png""],[""img/mask2.png""],[""img/mask48.png""],[""img/mask73.png""],[""img/mask86.png""],[""img/mask50.png""],[""img/mask32.png""],[""img/mask75.png""],[""img/mask10.png""],[""img/mask63.png""],[""img/mask71.png""],[""img/mask79.png""],[""img/mask89.png""],[""img/mask76.png""],[""img/mask77.png""]]]","","[25,32,10,28,19,0,31,17,27,22,33,21,18,9,34,20,1,5,12,14,13,30,2,35,23,26,8,11,4,3,7,15,6,29,24,16]","main","348","many-guess-6"
"","","","","","html-keyboard-response","59","433741","0.0-10.0-0.20","60c119b30aa5205b493541b6","640759fa512f630a2bdc333d","6408c1721806d9b9e8039b00","null","","null","","","","","","","","","","","","","","","","","","","fixation","",""
"","","","","","many-guess-6","60","437837","0.0-10.0-1.20-0.20","60c119b30aa5205b493541b6","640759fa512f630a2bdc333d","6408c1721806d9b9e8039b00","[1832.8999999761581]","","","[6,1,14,8,32,5,29,10,12,19,15,16,0,35,22,24,17,21,11,13,28,7,25,27,20,30,23,4,9,18,26,33,31,2,3,34]","[354,164,334,264,34,84,184,64,284,274,314,94,254,124,144,5,214,234,134,244,304,174,54,344,294,104,44,15,74,194,204,224,114,154,324,24]","354","37","211.1412170446562","[211.1412170446562]","[174.1412170446562]","[174]","[30,210,120,210,120,300,300,210,300]","0","36","0","148.73299996420974","18.829999952344224","16","[[[""img/mask11.png""],[""img/mask44.png""],[""img/mask24.png""],[""img/mask76.png""],[""img/mask54.png""],[""img/mask43.png""],[""img/mask74.png""],[""img/mask69.png""],[""img/mask41.png""],[""img/mask28.png""],[""img/mask83.png""],[""img/mask76.png""],[""img/mask72.png""],[""img/mask61.png""],[""img/mask27.png""],[""img/mask90.png""],[""img/mask66.png""],[""img/mask32.png""],[""img/mask50.png""],[""img/mask32.png""],[""img/mask6.png""],[""img/mask25.png""],[""img/mask37.png""],[""img/mask9.png""],[""img/mask75.png""],[""img/mask87.png""],[""img/mask37.png""],[""img/mask83.png""],[""img/mask90.png""],[""img/mask47.png""],[""img/mask23.png""],[""img/mask79.png""],[""img/mask82.png""],[""img/mask3.png""],[""img/mask82.png""],[""img/mask75.png""]]]","","[6,1,14,8,32,5,29,10,12,19,15,16,0,35,22,24,17,21,11,13,28,7,25,27,20,30,23,4,9,18,26,33,31,2,3,34]","main","37","many-guess-6"
"","","","","","html-keyboard-response","61","438338","0.0-10.0-0.21","60c119b30aa5205b493541b6","640759fa512f630a2bdc333d","6408c1721806d9b9e8039b00","null","","null","","","","","","","","","","","","","","","","","","","fixation","",""
"","","","","","color-precision2","62","445515","0.0-10.0-1.21-0.21","60c119b30aa5205b493541b6","640759fa512f630a2bdc333d","6408c1721806d9b9e8039b00","[4160.699999988079]","","","[12]","[236]","236","274","147.9458707572709","[147.9458707572709]","[233.9458707572709]","[233]","0","0","1","0","149.73799998807954","1005.4329999880865","1000","[[[""img/mask14.png""]]]","","","main","274","color-precision2"
"","","","","","html-keyboard-response","63","446017","0.0-10.0-0.22","60c119b30aa5205b493541b6","640759fa512f630a2bdc333d","6408c1721806d9b9e8039b00","null","","null","","","","","","","","","","","","","","","","","","","fixation","",""
"","","","","","many-guess-6","64","450441","0.0-10.0-1.22-0.22","60c119b30aa5205b493541b6","640759fa512f630a2bdc333d","6408c1721806d9b9e8039b00","[2703.300000011921]","","","[3,5,28,11,16,26,27,19,6,15,0,24,30,34,20,10,35,2,14,22,32,1,23,29,8,33,18,21,17,4,31,7,13,25,9,12]","[270,160,50,329,20,30,110,289,40,70,130,60,220,10,210,100,230,170,240,349,260,309,120,279,200,299,150,359,80,190,339,250,180,319,140,90]","270","276","280.7781622096649","[280.7781622096649]","[4.778162209664913]","[5]","[30,300,300,30,120,30,30,30,300]","0","36","0","149.43899996421533","15.968999976175837","16","[[[""img/mask23.png""],[""img/mask88.png""],[""img/mask3.png""],[""img/mask96.png""],[""img/mask99.png""],[""img/mask26.png""],[""img/mask60.png""],[""img/mask86.png""],[""img/mask57.png""],[""img/mask15.png""],[""img/mask14.png""],[""img/mask40.png""],[""img/mask11.png""],[""img/mask99.png""],[""img/mask31.png""],[""img/mask14.png""],[""img/mask67.png""],[""img/mask45.png""],[""img/mask7.png""],[""img/mask14.png""],[""img/mask24.png""],[""img/mask78.png""],[""img/mask73.png""],[""img/mask13.png""],[""img/mask79.png""],[""img/mask78.png""],[""img/mask21.png""],[""img/mask87.png""],[""img/mask78.png""],[""img/mask1.png""],[""img/mask56.png""],[""img/mask67.png""],[""img/mask80.png""],[""img/mask1.png""],[""img/mask62.png""],[""img/mask84.png""]]]","","[3,5,28,11,16,26,27,19,6,15,0,24,30,34,20,10,35,2,14,22,32,1,23,29,8,33,18,21,17,4,31,7,13,25,9,12]","main","276","many-guess-6"
"","","","","","html-keyboard-response","65","450942","0.0-10.0-0.23","60c119b30aa5205b493541b6","640759fa512f630a2bdc333d","6408c1721806d9b9e8039b00","null","","null","","","","","","","","","","","","","","","","","","","fixation","",""
"","","","","","color-precision2","66","458113","0.0-10.0-1.23-0.23","60c119b30aa5205b493541b6","640759fa512f630a2bdc333d","6408c1721806d9b9e8039b00","[2909]","","","[9]","[77]","77","33","125.61921009661306","[125.61921009661306]","[92.61921009661306]","[91]","0","0","1","0","149.0669999999809","1005.2089999880991","1000","[[[""img/mask41.png""]]]","","","main","33","color-precision2"
"","","","","","html-keyboard-response","67","458616","0.0-10.0-0.24","60c119b30aa5205b493541b6","640759fa512f630a2bdc333d","6408c1721806d9b9e8039b00","null","","null","","","","","","","","","","","","","","","","","","","fixation","",""
"","","","","","many-guess-6","68","469407","0.0-10.0-1.24-0.24","60c119b30aa5205b493541b6","640759fa512f630a2bdc333d","6408c1721806d9b9e8039b00","[8952.600000023842]","","","[34,35,30,18,32,7,25,9,27,28,19,1,13,33,26,23,6,3,24,22,14,21,2,20,5,15,0,8,17,31,11,12,10,29,4,16]","[31,111,51,171,310,240,220,210,141,131,181,21,121,61,250,151,1,300,350,340,161,230,320,290,81,270,330,280,260,71,91,11,190,41,101,200]","31","298","179.16593906824173","[179.16593906824173]","[241.16593906824173]","[240]","[300,30,120,300,210,30,300,120,30]","0","36","0","148.8559999522986","20.13799996423768","16","[[[""img/mask8.png""],[""img/mask99.png""],[""img/mask76.png""],[""img/mask51.png""],[""img/mask40.png""],[""img/mask40.png""],[""img/mask53.png""],[""img/mask69.png""],[""img/mask98.png""],[""img/mask83.png""],[""img/mask39.png""],[""img/mask97.png""],[""img/mask24.png""],[""img/mask2.png""],[""img/mask57.png""],[""img/mask7.png""],[""img/mask8.png""],[""img/mask22.png""],[""img/mask14.png""],[""img/mask89.png""],[""img/mask67.png""],[""img/mask79.png""],[""img/mask63.png""],[""img/mask91.png""],[""img/mask89.png""],[""img/mask46.png""],[""img/mask99.png""],[""img/mask50.png""],[""img/mask56.png""],[""img/mask82.png""],[""img/mask12.png""],[""img/mask9.png""],[""img/mask18.png""],[""img/mask42.png""],[""img/mask43.png""],[""img/mask98.png""]]]","","[34,35,30,18,32,7,25,9,27,28,19,1,13,33,26,23,6,3,24,22,14,21,2,20,5,15,0,8,17,31,11,12,10,29,4,16]","main","298","many-guess-6"
"","","","","","html-keyboard-response","69","469919","0.0-10.0-0.25","60c119b30aa5205b493541b6","640759fa512f630a2bdc333d","6408c1721806d9b9e8039b00","null","","null","","","","","","","","","","","","","","","","","","","fixation","",""
"","","","","","many-guess-6","70","474701","0.0-10.0-1.25-0.25","60c119b30aa5205b493541b6","640759fa512f630a2bdc333d","6408c1721806d9b9e8039b00","[2163.600000023842]","","","[2,11,13,22,7,34,6,8,26,14,35,17,24,21,15,31,27,9,1,16,33,0,23,30,28,32,29,25,20,10,19,3,12,5,18,4]","[77,177,97,306,227,137,276,326,346,117,356,127,17,257,27,37,336,47,187,237,197,217,266,296,107,7,207,57,157,286,167,316,87,67,147,247]","77","48","243.72100383531648","[243.72100383531648]","[195.72100383531648]","[196]","[300,120,300,300,210,120,300,120,300]","0","36","0","149.25999995233724","17.509999988076743","16","[[[""img/mask40.png""],[""img/mask44.png""],[""img/mask56.png""],[""img/mask93.png""],[""img/mask96.png""],[""img/mask47.png""],[""img/mask48.png""],[""img/mask92.png""],[""img/mask87.png""],[""img/mask64.png""],[""img/mask18.png""],[""img/mask14.png""],[""img/mask34.png""],[""img/mask23.png""],[""img/mask86.png""],[""img/mask79.png""],[""img/mask11.png""],[""img/mask93.png""],[""img/mask16.png""],[""img/mask68.png""],[""img/mask16.png""],[""img/mask46.png""],[""img/mask92.png""],[""img/mask52.png""],[""img/mask13.png""],[""img/mask51.png""],[""img/mask3.png""],[""img/mask28.png""],[""img/mask21.png""],[""img/mask80.png""],[""img/mask83.png""],[""img/mask11.png""],[""img/mask87.png""],[""img/mask1.png""],[""img/mask71.png""],[""img/mask17.png""]]]","","[2,11,13,22,7,34,6,8,26,14,35,17,24,21,15,31,27,9,1,16,33,0,23,30,28,32,29,25,20,10,19,3,12,5,18,4]","main","48","many-guess-6"
"","","","","","html-keyboard-response","71","475203","0.0-10.0-0.26","60c119b30aa5205b493541b6","640759fa512f630a2bdc333d","6408c1721806d9b9e8039b00","null","","null","","","","","","","","","","","","","","","","","","","fixation","",""
"","","","","","color-precision2","72","479591","0.0-10.0-1.26-0.26","60c119b30aa5205b493541b6","640759fa512f630a2bdc333d","6408c1721806d9b9e8039b00","[1020.3000000119209]","","","[13]","[225]","225","271","162.17769020727928","[162.17769020727928]","[251.17769020727928]","[250]","0","0","1","0","148.82000000000698","1006.9399999761372","1000","[[[""img/mask33.png""]]]","","","main","271","color-precision2"
"","","","","","html-keyboard-response","73","480092","0.0-10.0-0.27","60c119b30aa5205b493541b6","640759fa512f630a2bdc333d","6408c1721806d9b9e8039b00","null","","null","","","","","","","","","","","","","","","","","","","fixation","",""
"","","","","","many-guess-6","74","483740","0.0-10.0-1.27-0.27","60c119b30aa5205b493541b6","640759fa512f630a2bdc333d","6408c1721806d9b9e8039b00","[2069.5]","","","[19,29,13,30,12,0,6,10,34,27,31,2,35,33,18,24,15,16,21,9,14,32,11,28,1,23,26,5,20,4,22,3,17,8,25,7]","[339,240,140,100,80,10,30,329,70,359,260,290,170,90,309,220,40,60,20,250,160,190,120,300,270,150,180,210,110,349,50,280,230,200,130,319]","339","250","281.5097922019019","[281.5097922019019]","[31.509792201901917]","[32]","[120,300,120,300,210,300,120,120,300]","0","36","0","149.50599995232187","23.844999952299986","16","[[[""img/mask41.png""],[""img/mask7.png""],[""img/mask55.png""],[""img/mask18.png""],[""img/mask53.png""],[""img/mask93.png""],[""img/mask67.png""],[""img/mask46.png""],[""img/mask58.png""],[""img/mask83.png""],[""img/mask18.png""],[""img/mask75.png""],[""img/mask82.png""],[""img/mask10.png""],[""img/mask40.png""],[""img/mask54.png""],[""img/mask79.png""],[""img/mask15.png""],[""img/mask67.png""],[""img/mask38.png""],[""img/mask36.png""],[""img/mask98.png""],[""img/mask77.png""],[""img/mask7.png""],[""img/mask28.png""],[""img/mask6.png""],[""img/mask93.png""],[""img/mask98.png""],[""img/mask4.png""],[""img/mask22.png""],[""img/mask26.png""],[""img/mask30.png""],[""img/mask36.png""],[""img/mask5.png""],[""img/mask42.png""],[""img/mask98.png""]]]","","[19,29,13,30,12,0,6,10,34,27,31,2,35,33,18,24,15,16,21,9,14,32,11,28,1,23,26,5,20,4,22,3,17,8,25,7]","main","250","many-guess-6"
"","","","","","html-keyboard-response","75","484242","0.0-10.0-0.28","60c119b30aa5205b493541b6","640759fa512f630a2bdc333d","6408c1721806d9b9e8039b00","null","","null","","","","","","","","","","","","","","","","","","","fixation","",""
"","","","","","many-guess-6","76","488440","0.0-10.0-1.28-0.28","60c119b30aa5205b493541b6","640759fa512f630a2bdc333d","6408c1721806d9b9e8039b00","[2286.7999999523163]","","","[11,28,20,25,1,6,29,8,2,30,21,33,27,34,31,18,19,17,32,12,24,10,15,14,35,4,23,26,9,3,5,22,0,13,7,16]","[69,149,59,319,199,99,19,189,139,239,339,39,358,259,249,229,279,209,299,179,9,119,49,329,348,159,29,219,129,109,89,79,169,309,289,269]","69","71","51.13456261446836","[51.13456261446836]","[340.13456261446834]","[338]","[120,300,210,210,210,30,30,30,30]","0","36","0","148.79999997618143","11.999999964260496","16","[[[""img/mask47.png""],[""img/mask29.png""],[""img/mask97.png""],[""img/mask45.png""],[""img/mask21.png""],[""img/mask2.png""],[""img/mask29.png""],[""img/mask66.png""],[""img/mask48.png""],[""img/mask57.png""],[""img/mask3.png""],[""img/mask2.png""],[""img/mask47.png""],[""img/mask92.png""],[""img/mask76.png""],[""img/mask88.png""],[""img/mask84.png""],[""img/mask99.png""],[""img/mask66.png""],[""img/mask5.png""],[""img/mask77.png""],[""img/mask88.png""],[""img/mask69.png""],[""img/mask28.png""],[""img/mask25.png""],[""img/mask95.png""],[""img/mask11.png""],[""img/mask88.png""],[""img/mask63.png""],[""img/mask100.png""],[""img/mask9.png""],[""img/mask1.png""],[""img/mask90.png""],[""img/mask66.png""],[""img/mask72.png""],[""img/mask97.png""]]]","","[11,28,20,25,1,6,29,8,2,30,21,33,27,34,31,18,19,17,32,12,24,10,15,14,35,4,23,26,9,3,5,22,0,13,7,16]","main","71","many-guess-6"
"","","","","","html-keyboard-response","77","488941","0.0-10.0-0.29","60c119b30aa5205b493541b6","640759fa512f630a2bdc333d","6408c1721806d9b9e8039b00","null","","null","","","","","","","","","","","","","","","","","","","fixation","",""
"","","","","","many-guess-6","78","493487","0.0-10.0-1.29-0.29","60c119b30aa5205b493541b6","640759fa512f630a2bdc333d","6408c1721806d9b9e8039b00","[2249]","","","[0,33,17,10,34,2,8,31,3,18,16,9,23,28,26,21,1,14,35,4,6,27,20,22,19,13,7,30,11,15,32,29,24,5,12,25]","[40,160,240,100,190,309,60,180,140,270,50,90,319,80,220,200,130,230,250,150,260,329,10,359,290,349,20,110,280,170,210,120,339,70,300,30]","40","127","275.0228549531318","[275.0228549531318]","[148.0228549531318]","[148]","[120,300,300,30,30,30,210,30,210]","0","36","0","148.8249999761465","19.13799995230511","16","[[[""img/mask83.png""],[""img/mask13.png""],[""img/mask57.png""],[""img/mask20.png""],[""img/mask79.png""],[""img/mask53.png""],[""img/mask74.png""],[""img/mask86.png""],[""img/mask21.png""],[""img/mask18.png""],[""img/mask67.png""],[""img/mask53.png""],[""img/mask20.png""],[""img/mask71.png""],[""img/mask93.png""],[""img/mask91.png""],[""img/mask21.png""],[""img/mask88.png""],[""img/mask32.png""],[""img/mask5.png""],[""img/mask29.png""],[""img/mask30.png""],[""img/mask65.png""],[""img/mask100.png""],[""img/mask43.png""],[""img/mask91.png""],[""img/mask35.png""],[""img/mask30.png""],[""img/mask69.png""],[""img/mask20.png""],[""img/mask81.png""],[""img/mask99.png""],[""img/mask32.png""],[""img/mask76.png""],[""img/mask73.png""],[""img/mask37.png""]]]","","[0,33,17,10,34,2,8,31,3,18,16,9,23,28,26,21,1,14,35,4,6,27,20,22,19,13,7,30,11,15,32,29,24,5,12,25]","main","127","many-guess-6"
"","","","","","html-keyboard-response","79","493987","0.0-10.0-0.30","60c119b30aa5205b493541b6","640759fa512f630a2bdc333d","6408c1721806d9b9e8039b00","null","","null","","","","","","","","","","","","","","","","","","","fixation","",""
"","","","","","color-precision2","80","500447","0.0-10.0-1.30-0.30","60c119b30aa5205b493541b6","640759fa512f630a2bdc333d","6408c1721806d9b9e8039b00","[2926.599999964237]","","","[31]","[52]","52","229","280.41083282378435","[280.41083282378435]","[51.41083282378435]","[52]","0","0","1","0","149.06099997618003","998.7169999642647","1000","[[[""img/mask78.png""]]]","","","main","229","color-precision2"
"","","","","","html-keyboard-response","81","500952","0.0-10.0-0.31","60c119b30aa5205b493541b6","640759fa512f630a2bdc333d","6408c1721806d9b9e8039b00","null","","null","","","","","","","","","","","","","","","","","","","fixation","",""
"","","","","","many-guess-6","82","505881","0.0-10.0-1.31-0.31","60c119b30aa5205b493541b6","640759fa512f630a2bdc333d","6408c1721806d9b9e8039b00","[2776.599999964237]","","","[26,1,12,5,27,0,7,19,10,6,21,13,23,31,4,33,35,11,28,32,30,9,22,34,14,20,18,29,17,2,3,16,15,8,24,25]","[28,38,217,357,317,58,108,207,138,247,267,88,327,128,197,257,347,48,78,237,287,98,18,227,297,167,68,148,187,277,158,8,337,307,177,118]","28","127","185.94199509571558","[185.94199509571558]","[58.94199509571558]","[58]","[210,300,30,120,300,210,210,300,30]","0","36","0","149.26899996423163","13.082999964244664","16","[[[""img/mask15.png""],[""img/mask74.png""],[""img/mask40.png""],[""img/mask56.png""],[""img/mask30.png""],[""img/mask89.png""],[""img/mask5.png""],[""img/mask11.png""],[""img/mask22.png""],[""img/mask53.png""],[""img/mask44.png""],[""img/mask76.png""],[""img/mask97.png""],[""img/mask45.png""],[""img/mask4.png""],[""img/mask51.png""],[""img/mask90.png""],[""img/mask26.png""],[""img/mask17.png""],[""img/mask72.png""],[""img/mask1.png""],[""img/mask66.png""],[""img/mask4.png""],[""img/mask20.png""],[""img/mask56.png""],[""img/mask61.png""],[""img/mask9.png""],[""img/mask23.png""],[""img/mask73.png""],[""img/mask45.png""],[""img/mask1.png""],[""img/mask77.png""],[""img/mask89.png""],[""img/mask2.png""],[""img/mask11.png""],[""img/mask32.png""]]]","","[26,1,12,5,27,0,7,19,10,6,21,13,23,31,4,33,35,11,28,32,30,9,22,34,14,20,18,29,17,2,3,16,15,8,24,25]","main","127","many-guess-6"
"","","","","","html-keyboard-response","83","506383","0.0-10.0-0.32","60c119b30aa5205b493541b6","640759fa512f630a2bdc333d","6408c1721806d9b9e8039b00","null","","null","","","","","","","","","","","","","","","","","","","fixation","",""
"","","","","","many-guess-6","84","510001","0.0-10.0-1.32-0.32","60c119b30aa5205b493541b6","640759fa512f630a2bdc333d","6408c1721806d9b9e8039b00","[1930.1000000238419]","","","[0,30,5,11,19,20,13,23,2,35,1,16,9,34,31,28,21,27,25,24,4,33,18,7,6,10,32,8,12,17,14,22,26,15,3,29]","[10,90,349,40,30,259,140,220,50,299,170,269,150,20,60,329,309,239,80,339,130,279,160,110,120,230,210,200,319,359,70,289,249,180,100,190]","10","119","131.26623126971322","[131.26623126971322]","[12.266231269713217]","[11]","[120,120,300,210,210,210,120,210,30]","0","36","0","148.92899996426422","24.739999964251183","16","[[[""img/mask61.png""],[""img/mask65.png""],[""img/mask12.png""],[""img/mask57.png""],[""img/mask62.png""],[""img/mask86.png""],[""img/mask82.png""],[""img/mask39.png""],[""img/mask96.png""],[""img/mask33.png""],[""img/mask32.png""],[""img/mask34.png""],[""img/mask30.png""],[""img/mask13.png""],[""img/mask54.png""],[""img/mask64.png""],[""img/mask70.png""],[""img/mask95.png""],[""img/mask85.png""],[""img/mask4.png""],[""img/mask75.png""],[""img/mask77.png""],[""img/mask34.png""],[""img/mask72.png""],[""img/mask61.png""],[""img/mask64.png""],[""img/mask24.png""],[""img/mask79.png""],[""img/mask87.png""],[""img/mask40.png""],[""img/mask16.png""],[""img/mask19.png""],[""img/mask77.png""],[""img/mask90.png""],[""img/mask27.png""],[""img/mask12.png""]]]","","[0,30,5,11,19,20,13,23,2,35,1,16,9,34,31,28,21,27,25,24,4,33,18,7,6,10,32,8,12,17,14,22,26,15,3,29]","main","119","many-guess-6"
"","","","","","html-keyboard-response","85","510502","0.0-10.0-0.33","60c119b30aa5205b493541b6","640759fa512f630a2bdc333d","6408c1721806d9b9e8039b00","null","","null","","","","","","","","","","","","","","","","","","","fixation","",""
"","","","","","color-precision2","86","514605","0.0-10.0-1.33-0.33","60c119b30aa5205b493541b6","640759fa512f630a2bdc333d","6408c1721806d9b9e8039b00","[1200.7000000476837]","","","[7]","[223]","223","277","152.33983725650168","[152.33983725650168]","[235.33983725650168]","[234]","0","0","1","0","148.7799999761628","1006.1559999523452","1000","[[[""img/mask92.png""]]]","","","main","277","color-precision2"
"","","","","","html-keyboard-response","87","515106","0.0-10.0-0.34","60c119b30aa5205b493541b6","640759fa512f630a2bdc333d","6408c1721806d9b9e8039b00","null","","null","","","","","","","","","","","","","","","","","","","fixation","",""
"","","","","","many-guess-6","88","518862","0.0-10.0-1.34-0.34","60c119b30aa5205b493541b6","640759fa512f630a2bdc333d","6408c1721806d9b9e8039b00","[1957.1000000238419]","","","[6,8,25,2,7,15,18,35,22,3,26,14,1,23,20,34,0,31,27,29,13,32,17,11,10,9,33,19,24,21,30,28,5,12,16,4]","[28,118,357,307,237,18,167,247,68,267,327,277,138,257,297,108,98,157,88,38,317,287,207,48,78,58,128,217,8,177,197,337,148,227,347,187]","28","338","85.75203904595618","[85.75203904595618]","[107.75203904595617]","[106]","[210,210,30,120,120,210,30,30,300]","0","36","0","149.36499998805812","22.154999952297658","16","[[[""img/mask27.png""],[""img/mask37.png""],[""img/mask71.png""],[""img/mask65.png""],[""img/mask85.png""],[""img/mask66.png""],[""img/mask53.png""],[""img/mask1.png""],[""img/mask69.png""],[""img/mask64.png""],[""img/mask6.png""],[""img/mask77.png""],[""img/mask73.png""],[""img/mask73.png""],[""img/mask34.png""],[""img/mask42.png""],[""img/mask49.png""],[""img/mask35.png""],[""img/mask57.png""],[""img/mask77.png""],[""img/mask55.png""],[""img/mask48.png""],[""img/mask1.png""],[""img/mask74.png""],[""img/mask26.png""],[""img/mask9.png""],[""img/mask54.png""],[""img/mask66.png""],[""img/mask77.png""],[""img/mask59.png""],[""img/mask36.png""],[""img/mask38.png""],[""img/mask34.png""],[""img/mask19.png""],[""img/mask37.png""],[""img/mask75.png""]]]","","[6,8,25,2,7,15,18,35,22,3,26,14,1,23,20,34,0,31,27,29,13,32,17,11,10,9,33,19,24,21,30,28,5,12,16,4]","main","338","many-guess-6"
"","","","","","html-keyboard-response","89","519363","0.0-10.0-0.35","60c119b30aa5205b493541b6","640759fa512f630a2bdc333d","6408c1721806d9b9e8039b00","null","","null","","","","","","","","","","","","","","","","","","","fixation","",""
"","","","","","color-precision2","90","525406","0.0-10.0-1.35-0.35","60c119b30aa5205b493541b6","640759fa512f630a2bdc333d","6408c1721806d9b9e8039b00","[3318.800000011921]","","","[26]","[73]","73","218","294.7963500372939","[294.7963500372939]","[76.7963500372939]","[77]","0","0","1","0","148.1989999761572","1000.6009999522939","1000","[[[""img/mask1.png""]]]","","","main","218","color-precision2"
"","","","","","html-keyboard-response","91","525908","0.0-10.0-0.36","60c119b30aa5205b493541b6","640759fa512f630a2bdc333d","6408c1721806d9b9e8039b00","null","","null","","","","","","","","","","","","","","","","","","","fixation","",""
"","","","","","color-precision2","92","530877","0.0-10.0-1.36-0.36","60c119b30aa5205b493541b6","640759fa512f630a2bdc333d","6408c1721806d9b9e8039b00","[1690.199999988079]","","","[35]","[259]","259","205","112.30779535034176","[112.30779535034176]","[267.30779535034173]","[265]","0","0","1","0","148.65299997618422","1000.4199999523116","1000","[[[""img/mask5.png""]]]","","","main","205","color-precision2"
"","","","","","html-keyboard-response","93","531380","0.0-10.0-0.37","60c119b30aa5205b493541b6","640759fa512f630a2bdc333d","6408c1721806d9b9e8039b00","null","","null","","","","","","","","","","","","","","","","","","","fixation","",""
"","","","","","many-guess-6","94","535373","0.0-10.0-1.37-0.37","60c119b30aa5205b493541b6","640759fa512f630a2bdc333d","6408c1721806d9b9e8039b00","[2035.5999999642372]","","","[14,22,2,8,35,7,26,16,15,1,17,24,18,12,5,3,23,11,27,10,13,31,21,9,34,30,32,0,6,28,4,29,33,25,19,20]","[79,39,238,298,358,258,189,119,218,129,338,308,328,318,69,29,248,179,109,199,208,348,49,228,139,169,288,19,99,9,149,268,89,159,278,59]","79","265","25.2543995324999","[25.2543995324999]","[120.25439953249989]","[119]","[30,30,210,120,300,120,210,30,300]","0","36","0","148.84299996425398","17.35600000002887","16","[[[""img/mask13.png""],[""img/mask45.png""],[""img/mask54.png""],[""img/mask71.png""],[""img/mask64.png""],[""img/mask89.png""],[""img/mask54.png""],[""img/mask99.png""],[""img/mask48.png""],[""img/mask50.png""],[""img/mask19.png""],[""img/mask12.png""],[""img/mask94.png""],[""img/mask35.png""],[""img/mask71.png""],[""img/mask97.png""],[""img/mask61.png""],[""img/mask63.png""],[""img/mask84.png""],[""img/mask35.png""],[""img/mask25.png""],[""img/mask69.png""],[""img/mask98.png""],[""img/mask21.png""],[""img/mask32.png""],[""img/mask28.png""],[""img/mask89.png""],[""img/mask100.png""],[""img/mask84.png""],[""img/mask58.png""],[""img/mask58.png""],[""img/mask26.png""],[""img/mask89.png""],[""img/mask14.png""],[""img/mask17.png""],[""img/mask52.png""]]]","","[14,22,2,8,35,7,26,16,15,1,17,24,18,12,5,3,23,11,27,10,13,31,21,9,34,30,32,0,6,28,4,29,33,25,19,20]","main","265","many-guess-6"
"","","","","","html-keyboard-response","95","535874","0.0-10.0-0.38","60c119b30aa5205b493541b6","640759fa512f630a2bdc333d","6408c1721806d9b9e8039b00","null","","null","","","","","","","","","","","","","","","","","","","fixation","",""
"","","","","","color-precision2","96","540615","0.0-10.0-1.38-0.38","60c119b30aa5205b493541b6","640759fa512f630a2bdc333d","6408c1721806d9b9e8039b00","[1960.6000000238419]","","","[23]","[116]","116","9","141.2238871915574","[141.2238871915574]","[132.2238871915574]","[131]","0","0","1","0","149.00800000003073","1003.1239999880781","1000","[[[""img/mask99.png""]]]","","","main","9","color-precision2"
"","","","","","html-keyboard-response","97","541896","0.0-10.0-0.39","60c119b30aa5205b493541b6","640759fa512f630a2bdc333d","6408c1721806d9b9e8039b00","1280.5","Wow! You've completed 40 out of 180 trials! </p> <p>  </p><p> Take a quick break, then press any key when you're ready to continue."," ","","","","","","","","","","","","","","","","","","","fixation","",""
"","","","","","many-guess-6","98","547433","0.0-10.0-1.39-0.39","60c119b30aa5205b493541b6","640759fa512f630a2bdc333d","6408c1721806d9b9e8039b00","[1595.199999988079]","","","[12,13,19,1,14,2,24,28,31,17,5,3,29,22,33,4,23,35,16,6,8,25,20,30,9,7,21,0,11,27,18,15,10,26,34,32]","[78,188,18,248,128,298,238,258,338,318,178,58,218,228,108,148,138,68,88,8,198,48,348,308,98,358,158,328,38,268,278,118,208,288,28,168]","78","84","180.68509307012215","[180.68509307012215]","[96.68509307012215]","[96]","[300,30,210,30,120,210,30,210,30]","0","36","0","148.93999996420462","14.635000000009313","16","[[[""img/mask7.png""],[""img/mask29.png""],[""img/mask9.png""],[""img/mask80.png""],[""img/mask42.png""],[""img/mask77.png""],[""img/mask22.png""],[""img/mask40.png""],[""img/mask11.png""],[""img/mask39.png""],[""img/mask67.png""],[""img/mask92.png""],[""img/mask98.png""],[""img/mask18.png""],[""img/mask95.png""],[""img/mask47.png""],[""img/mask60.png""],[""img/mask28.png""],[""img/mask35.png""],[""img/mask26.png""],[""img/mask88.png""],[""img/mask36.png""],[""img/mask30.png""],[""img/mask17.png""],[""img/mask36.png""],[""img/mask10.png""],[""img/mask97.png""],[""img/mask51.png""],[""img/mask72.png""],[""img/mask4.png""],[""img/mask65.png""],[""img/mask80.png""],[""img/mask96.png""],[""img/mask71.png""],[""img/mask74.png""],[""img/mask33.png""]]]","","[12,13,19,1,14,2,24,28,31,17,5,3,29,22,33,4,23,35,16,6,8,25,20,30,9,7,21,0,11,27,18,15,10,26,34,32]","main","84","many-guess-6"
"","","","","","html-keyboard-response","99","547935","0.0-10.0-0.40","60c119b30aa5205b493541b6","640759fa512f630a2bdc333d","6408c1721806d9b9e8039b00","null","","null","","","","","","","","","","","","","","","","","","","fixation","",""
"","","","","","color-precision2","100","552569","0.0-10.0-1.40-0.40","60c119b30aa5205b493541b6","640759fa512f630a2bdc333d","6408c1721806d9b9e8039b00","[1597.8999999761581]","","","[6]","[303]","303","14","294.63206800910655","[294.63206800910655]","[280.63206800910655]","[281]","0","0","1","0","149.26500000001397","1001.0429999761982","1000","[[[""img/mask81.png""]]]","","","main","14","color-precision2"
"","","","","","html-keyboard-response","101","553070","0.0-10.0-0.41","60c119b30aa5205b493541b6","640759fa512f630a2bdc333d","6408c1721806d9b9e8039b00","null","","null","","","","","","","","","","","","","","","","","","","fixation","",""
"","","","","","many-guess-6","102","556491","0.0-10.0-1.41-0.41","60c119b30aa5205b493541b6","640759fa512f630a2bdc333d","6408c1721806d9b9e8039b00","[1736.800000011921]","","","[32,24,1,19,21,23,9,6,27,35,2,18,3,15,12,22,17,7,11,0,8,4,29,28,26,34,10,20,31,16,33,25,5,14,30,13]","[214,25,314,174,264,304,204,55,124,15,224,164,244,104,45,284,65,294,194,75,234,114,94,344,35,274,354,84,254,324,154,5,334,144,134,184]","214","87","237.5336631843519","[237.5336631843519]","[150.5336631843519]","[151]","[30,30,210,30,300,30,120,300,300]","0","36","0","149.1519999881275","19.47799998812843","16","[[[""img/mask78.png""],[""img/mask83.png""],[""img/mask41.png""],[""img/mask93.png""],[""img/mask63.png""],[""img/mask96.png""],[""img/mask17.png""],[""img/mask97.png""],[""img/mask47.png""],[""img/mask8.png""],[""img/mask1.png""],[""img/mask46.png""],[""img/mask83.png""],[""img/mask77.png""],[""img/mask59.png""],[""img/mask82.png""],[""img/mask24.png""],[""img/mask94.png""],[""img/mask52.png""],[""img/mask17.png""],[""img/mask93.png""],[""img/mask60.png""],[""img/mask70.png""],[""img/mask74.png""],[""img/mask95.png""],[""img/mask1.png""],[""img/mask53.png""],[""img/mask13.png""],[""img/mask26.png""],[""img/mask31.png""],[""img/mask19.png""],[""img/mask39.png""],[""img/mask20.png""],[""img/mask6.png""],[""img/mask20.png""],[""img/mask69.png""]]]","","[32,24,1,19,21,23,9,6,27,35,2,18,3,15,12,22,17,7,11,0,8,4,29,28,26,34,10,20,31,16,33,25,5,14,30,13]","main","87","many-guess-6"
"","","","","","html-keyboard-response","103","557000","0.0-10.0-0.42","60c119b30aa5205b493541b6","640759fa512f630a2bdc333d","6408c1721806d9b9e8039b00","null","","null","","","","","","","","","","","","","","","","","","","fixation","",""
"","","","","","color-precision2","104","561507","0.0-10.0-1.42-0.42","60c119b30aa5205b493541b6","640759fa512f630a2bdc333d","6408c1721806d9b9e8039b00","[1619.300000011921]","","","[19]","[11]","11","92","110.07230676153941","[110.07230676153941]","[18.07230676153941]","[16]","0","0","1","0","148.99599998805206","1000.3659999880474","1000","[[[""img/mask61.png""]]]","","","main","92","color-precision2"
"","","","","","html-keyboard-response","105","562009","0.0-10.0-0.43","60c119b30aa5205b493541b6","640759fa512f630a2bdc333d","6408c1721806d9b9e8039b00","null","","null","","","","","","","","","","","","","","","","","","","fixation","",""
"","","","","","many-guess-6","106","566193","0.0-10.0-1.43-0.43","60c119b30aa5205b493541b6","640759fa512f630a2bdc333d","6408c1721806d9b9e8039b00","[2638.900000035763]","","","[26,25,17,22,33,4,15,5,34,1,8,35,21,20,13,16,29,30,18,11,27,9,31,0,24,32,7,14,12,19,2,28,10,6,3,23]","[324,334,155,344,264,35,304,145,294,55,25,314,85,274,174,284,254,354,164,214,194,15,125,105,135,244,45,115,75,204,65,95,224,5,184,234]","324","332","232.20629974396311","[232.20629974396311]","[260.2062997439631]","[260]","[120,120,120,210,300,30,300,120,30]","0","36","0","149.38799997617025","20.78000000002794","16","[[[""img/mask44.png""],[""img/mask31.png""],[""img/mask13.png""],[""img/mask62.png""],[""img/mask81.png""],[""img/mask44.png""],[""img/mask100.png""],[""img/mask37.png""],[""img/mask83.png""],[""img/mask25.png""],[""img/mask25.png""],[""img/mask74.png""],[""img/mask93.png""],[""img/mask88.png""],[""img/mask12.png""],[""img/mask60.png""],[""img/mask10.png""],[""img/mask88.png""],[""img/mask23.png""],[""img/mask44.png""],[""img/mask90.png""],[""img/mask33.png""],[""img/mask76.png""],[""img/mask18.png""],[""img/mask5.png""],[""img/mask44.png""],[""img/mask68.png""],[""img/mask85.png""],[""img/mask39.png""],[""img/mask1.png""],[""img/mask97.png""],[""img/mask79.png""],[""img/mask39.png""],[""img/mask6.png""],[""img/mask37.png""],[""img/mask65.png""]]]","","[26,25,17,22,33,4,15,5,34,1,8,35,21,20,13,16,29,30,18,11,27,9,31,0,24,32,7,14,12,19,2,28,10,6,3,23]","main","332","many-guess-6"
"","","","","","html-keyboard-response","107","566694","0.0-10.0-0.44","60c119b30aa5205b493541b6","640759fa512f630a2bdc333d","6408c1721806d9b9e8039b00","null","","null","","","","","","","","","","","","","","","","","","","fixation","",""
"","","","","","many-guess-6","108","572297","0.0-10.0-1.44-0.44","60c119b30aa5205b493541b6","640759fa512f630a2bdc333d","6408c1721806d9b9e8039b00","[3426.099999964237]","","","[15,12,20,35,23,24,28,16,1,7,21,6,0,31,13,33,3,17,22,32,27,11,14,30,2,18,19,25,34,9,5,8,4,29,10,26]","[171,340,121,241,91,330,1,101,41,290,221,251,191,211,280,141,31,151,181,81,161,61,201,260,21,320,111,51,310,11,71,300,270,231,131,350]","171","291","34.74326991848608","[34.74326991848608]","[103.74326991848608]","[103]","[300,120,30,30,210,120,30,300,120]","0","36","0","149.24199999996927","15.862999976146966","16","[[[""img/mask33.png""],[""img/mask4.png""],[""img/mask26.png""],[""img/mask42.png""],[""img/mask69.png""],[""img/mask36.png""],[""img/mask38.png""],[""img/mask100.png""],[""img/mask94.png""],[""img/mask26.png""],[""img/mask1.png""],[""img/mask94.png""],[""img/mask90.png""],[""img/mask42.png""],[""img/mask26.png""],[""img/mask10.png""],[""img/mask70.png""],[""img/mask95.png""],[""img/mask21.png""],[""img/mask77.png""],[""img/mask77.png""],[""img/mask91.png""],[""img/mask67.png""],[""img/mask7.png""],[""img/mask35.png""],[""img/mask36.png""],[""img/mask68.png""],[""img/mask70.png""],[""img/mask89.png""],[""img/mask93.png""],[""img/mask59.png""],[""img/mask92.png""],[""img/mask49.png""],[""img/mask70.png""],[""img/mask8.png""],[""img/mask54.png""]]]","","[15,12,20,35,23,24,28,16,1,7,21,6,0,31,13,33,3,17,22,32,27,11,14,30,2,18,19,25,34,9,5,8,4,29,10,26]","main","291","many-guess-6"
"","","","","","html-keyboard-response","109","572800","0.0-10.0-0.45","60c119b30aa5205b493541b6","640759fa512f630a2bdc333d","6408c1721806d9b9e8039b00","null","","null","","","","","","","","","","","","","","","","","","","fixation","",""
"","","","","","many-guess-6","110","576323","0.0-10.0-1.45-0.45","60c119b30aa5205b493541b6","640759fa512f630a2bdc333d","6408c1721806d9b9e8039b00","[1785.5]","","","[11,26,25,20,9,27,14,35,34,0,15,32,12,18,2,13,4,6,16,5,17,22,21,33,31,1,10,24,29,19,23,30,3,8,7,28]","[340,1,31,100,190,220,160,230,330,310,200,240,11,280,50,300,21,180,80,320,120,260,41,140,70,90,350,170,110,270,60,250,130,210,290,150]","340","332","140.34992482387554","[140.34992482387554]","[168.34992482387554]","[167]","[120,210,210,210,120,120,300,120,120]","0","36","0","149.31099997612182","12.324999988079071","16","[[[""img/mask62.png""],[""img/mask90.png""],[""img/mask70.png""],[""img/mask34.png""],[""img/mask8.png""],[""img/mask11.png""],[""img/mask98.png""],[""img/mask45.png""],[""img/mask5.png""],[""img/mask32.png""],[""img/mask89.png""],[""img/mask80.png""],[""img/mask62.png""],[""img/mask37.png""],[""img/mask83.png""],[""img/mask22.png""],[""img/mask99.png""],[""img/mask53.png""],[""img/mask88.png""],[""img/mask54.png""],[""img/mask54.png""],[""img/mask95.png""],[""img/mask43.png""],[""img/mask5.png""],[""img/mask54.png""],[""img/mask24.png""],[""img/mask23.png""],[""img/mask38.png""],[""img/mask94.png""],[""img/mask44.png""],[""img/mask5.png""],[""img/mask72.png""],[""img/mask94.png""],[""img/mask62.png""],[""img/mask29.png""],[""img/mask10.png""]]]","","[11,26,25,20,9,27,14,35,34,0,15,32,12,18,2,13,4,6,16,5,17,22,21,33,31,1,10,24,29,19,23,30,3,8,7,28]","main","332","many-guess-6"
"","","","","","html-keyboard-response","111","576824","0.0-10.0-0.46","60c119b30aa5205b493541b6","640759fa512f630a2bdc333d","6408c1721806d9b9e8039b00","null","","null","","","","","","","","","","","","","","","","","","","fixation","",""
"","","","","","many-guess-6","112","581039","0.0-10.0-1.46-0.46","60c119b30aa5205b493541b6","640759fa512f630a2bdc333d","6408c1721806d9b9e8039b00","[2384.7000000476837]","","","[23,13,17,12,15,4,25,20,27,1,10,31,2,22,3,16,33,11,7,14,8,32,21,5,19,9,6,29,18,34,35,24,30,28,26,0]","[259,49,19,129,358,159,229,99,139,9,299,249,309,329,209,269,109,319,29,239,89,79,59,39,69,179,219,189,199,169,149,279,119,289,338,348]","259","249","261.29808400519323","[261.29808400519323]","[12.298084005193232]","[12]","[120,210,120,120,300,30,30,300,210]","0","36","0","149.00399999995716","11.923999964259565","16","[[[""img/mask24.png""],[""img/mask20.png""],[""img/mask79.png""],[""img/mask23.png""],[""img/mask78.png""],[""img/mask87.png""],[""img/mask6.png""],[""img/mask30.png""],[""img/mask26.png""],[""img/mask11.png""],[""img/mask75.png""],[""img/mask61.png""],[""img/mask83.png""],[""img/mask39.png""],[""img/mask17.png""],[""img/mask64.png""],[""img/mask73.png""],[""img/mask64.png""],[""img/mask33.png""],[""img/mask34.png""],[""img/mask18.png""],[""img/mask94.png""],[""img/mask91.png""],[""img/mask53.png""],[""img/mask14.png""],[""img/mask10.png""],[""img/mask98.png""],[""img/mask98.png""],[""img/mask66.png""],[""img/mask21.png""],[""img/mask87.png""],[""img/mask98.png""],[""img/mask11.png""],[""img/mask95.png""],[""img/mask32.png""],[""img/mask21.png""]]]","","[23,13,17,12,15,4,25,20,27,1,10,31,2,22,3,16,33,11,7,14,8,32,21,5,19,9,6,29,18,34,35,24,30,28,26,0]","main","249","many-guess-6"
"","","","","","html-keyboard-response","113","581541","0.0-10.0-0.47","60c119b30aa5205b493541b6","640759fa512f630a2bdc333d","6408c1721806d9b9e8039b00","null","","null","","","","","","","","","","","","","","","","","","","fixation","",""
"","","","","","many-guess-6","114","585100","0.0-10.0-1.47-0.47","60c119b30aa5205b493541b6","640759fa512f630a2bdc333d","6408c1721806d9b9e8039b00","[1544.8999999761581]","","","[12,19,17,22,23,27,7,30,2,5,4,33,32,31,34,1,21,0,11,16,25,6,28,26,24,9,3,20,18,29,8,15,10,35,14,13]","[9,338,179,149,69,269,249,139,89,39,79,239,59,348,328,29,119,199,259,219,129,189,109,99,289,358,159,169,318,49,209,299,19,229,309,279]","9","330","283.6409406466416","[283.6409406466416]","[313.6409406466416]","[314]","[210,210,120,210,30,210,300,210,210]","0","36","0","148.97499999997672","17.2769999881275","16","[[[""img/mask93.png""],[""img/mask41.png""],[""img/mask16.png""],[""img/mask72.png""],[""img/mask87.png""],[""img/mask94.png""],[""img/mask71.png""],[""img/mask5.png""],[""img/mask60.png""],[""img/mask46.png""],[""img/mask87.png""],[""img/mask92.png""],[""img/mask27.png""],[""img/mask78.png""],[""img/mask8.png""],[""img/mask9.png""],[""img/mask28.png""],[""img/mask31.png""],[""img/mask66.png""],[""img/mask85.png""],[""img/mask68.png""],[""img/mask73.png""],[""img/mask57.png""],[""img/mask86.png""],[""img/mask28.png""],[""img/mask36.png""],[""img/mask23.png""],[""img/mask66.png""],[""img/mask55.png""],[""img/mask70.png""],[""img/mask22.png""],[""img/mask52.png""],[""img/mask16.png""],[""img/mask54.png""],[""img/mask45.png""],[""img/mask52.png""]]]","","[12,19,17,22,23,27,7,30,2,5,4,33,32,31,34,1,21,0,11,16,25,6,28,26,24,9,3,20,18,29,8,15,10,35,14,13]","main","330","many-guess-6"
"","","","","","html-keyboard-response","115","585600","0.0-10.0-0.48","60c119b30aa5205b493541b6","640759fa512f630a2bdc333d","6408c1721806d9b9e8039b00","null","","null","","","","","","","","","","","","","","","","","","","fixation","",""
"","","","","","many-guess-6","116","590637","0.0-10.0-1.48-0.48","60c119b30aa5205b493541b6","640759fa512f630a2bdc333d","6408c1721806d9b9e8039b00","[3232.800000011921]","","","[7,13,35,10,1,16,23,34,28,27,25,31,9,11,2,33,29,6,32,30,0,17,12,5,22,14,19,21,15,18,8,4,20,3,24,26]","[41,61,251,231,211,121,141,51,12,131,111,2,311,161,31,101,21,171,351,71,321,271,191,181,201,341,281,81,221,301,331,241,261,91,151,291]","41","26","56.442429711101184","[56.442429711101184]","[30.442429711101184]","[29]","[30,300,210,30,120,210,120,120,120]","0","36","0","149.13100000005215","22.12299995229114","16","[[[""img/mask11.png""],[""img/mask58.png""],[""img/mask18.png""],[""img/mask50.png""],[""img/mask90.png""],[""img/mask97.png""],[""img/mask10.png""],[""img/mask59.png""],[""img/mask4.png""],[""img/mask23.png""],[""img/mask87.png""],[""img/mask58.png""],[""img/mask33.png""],[""img/mask49.png""],[""img/mask45.png""],[""img/mask45.png""],[""img/mask16.png""],[""img/mask99.png""],[""img/mask8.png""],[""img/mask5.png""],[""img/mask2.png""],[""img/mask95.png""],[""img/mask30.png""],[""img/mask56.png""],[""img/mask47.png""],[""img/mask54.png""],[""img/mask80.png""],[""img/mask62.png""],[""img/mask75.png""],[""img/mask84.png""],[""img/mask59.png""],[""img/mask56.png""],[""img/mask61.png""],[""img/mask49.png""],[""img/mask43.png""],[""img/mask81.png""]]]","","[7,13,35,10,1,16,23,34,28,27,25,31,9,11,2,33,29,6,32,30,0,17,12,5,22,14,19,21,15,18,8,4,20,3,24,26]","main","26","many-guess-6"
"","","","","","html-keyboard-response","117","591138","0.0-10.0-0.49","60c119b30aa5205b493541b6","640759fa512f630a2bdc333d","6408c1721806d9b9e8039b00","null","","null","","","","","","","","","","","","","","","","","","","fixation","",""
"","","","","","color-precision2","118","595542","0.0-10.0-1.49-0.49","60c119b30aa5205b493541b6","640759fa512f630a2bdc333d","6408c1721806d9b9e8039b00","[1370.699999988079]","","","[28]","[292]","292","313","237.07885137257037","[237.07885137257037]","[284.0788513725704]","[285]","0","0","1","0","149.294999964186","1004.2509999523172","1000","[[[""img/mask61.png""]]]","","","main","313","color-precision2"
"","","","","","html-keyboard-response","119","596052","0.0-10.0-0.50","60c119b30aa5205b493541b6","640759fa512f630a2bdc333d","6408c1721806d9b9e8039b00","null","","null","","","","","","","","","","","","","","","","","","","fixation","",""
"","","","","","many-guess-6","120","600081","0.0-10.0-1.50-0.50","60c119b30aa5205b493541b6","640759fa512f630a2bdc333d","6408c1721806d9b9e8039b00","[1793.199999988079]","","","[4,32,33,10,28,25,15,16,31,9,26,27,14,13,0,3,17,29,6,18,7,1,19,34,12,35,24,5,8,21,11,23,30,22,2,20]","[340,70,60,260,80,200,150,20,30,210,11,330,110,180,140,220,90,240,50,290,310,350,130,1,250,160,190,120,40,230,280,100,170,270,300,320]","340","37","184.1332756474343","[184.1332756474343]","[147.1332756474343]","[146]","[300,30,210,210,300,210,120,120,30]","0","36","0","148.66599998809397","20.85600000002887","16","[[[""img/mask75.png""],[""img/mask85.png""],[""img/mask19.png""],[""img/mask79.png""],[""img/mask83.png""],[""img/mask26.png""],[""img/mask86.png""],[""img/mask9.png""],[""img/mask48.png""],[""img/mask28.png""],[""img/mask81.png""],[""img/mask76.png""],[""img/mask51.png""],[""img/mask33.png""],[""img/mask45.png""],[""img/mask19.png""],[""img/mask11.png""],[""img/mask12.png""],[""img/mask69.png""],[""img/mask31.png""],[""img/mask1.png""],[""img/mask58.png""],[""img/mask33.png""],[""img/mask5.png""],[""img/mask15.png""],[""img/mask23.png""],[""img/mask21.png""],[""img/mask81.png""],[""img/mask91.png""],[""img/mask100.png""],[""img/mask95.png""],[""img/mask72.png""],[""img/mask32.png""],[""img/mask23.png""],[""img/mask40.png""],[""img/mask40.png""]]]","","[4,32,33,10,28,25,15,16,31,9,26,27,14,13,0,3,17,29,6,18,7,1,19,34,12,35,24,5,8,21,11,23,30,22,2,20]","main","37","many-guess-6"
"","","","","","html-keyboard-response","121","600582","0.0-10.0-0.51","60c119b30aa5205b493541b6","640759fa512f630a2bdc333d","6408c1721806d9b9e8039b00","null","","null","","","","","","","","","","","","","","","","","","","fixation","",""
"","","","","","many-guess-6","122","604331","0.0-10.0-1.51-0.51","60c119b30aa5205b493541b6","640759fa512f630a2bdc333d","6408c1721806d9b9e8039b00","[2259.599999964237]","","","[24,3,32,29,35,12,17,6,34,1,31,21,22,9,20,19,2,25,0,26,15,23,27,30,18,14,16,10,7,4,28,5,13,11,33,8]","[160,110,319,349,140,120,50,239,90,30,80,309,329,359,130,200,209,299,229,10,100,40,219,170,249,150,339,259,70,269,180,289,20,190,279,60]","160","120","308.98060797520213","[308.98060797520213]","[188.98060797520213]","[189]","[30,300,30,300,30,30,120,300,30]","0","36","0","149.66899997612927","9.235999952303246","16","[[[""img/mask19.png""],[""img/mask18.png""],[""img/mask66.png""],[""img/mask19.png""],[""img/mask65.png""],[""img/mask33.png""],[""img/mask54.png""],[""img/mask71.png""],[""img/mask88.png""],[""img/mask25.png""],[""img/mask70.png""],[""img/mask74.png""],[""img/mask15.png""],[""img/mask37.png""],[""img/mask74.png""],[""img/mask29.png""],[""img/mask12.png""],[""img/mask96.png""],[""img/mask57.png""],[""img/mask46.png""],[""img/mask71.png""],[""img/mask96.png""],[""img/mask6.png""],[""img/mask44.png""],[""img/mask40.png""],[""img/mask83.png""],[""img/mask29.png""],[""img/mask72.png""],[""img/mask87.png""],[""img/mask97.png""],[""img/mask94.png""],[""img/mask98.png""],[""img/mask3.png""],[""img/mask69.png""],[""img/mask57.png""],[""img/mask36.png""]]]","","[24,3,32,29,35,12,17,6,34,1,31,21,22,9,20,19,2,25,0,26,15,23,27,30,18,14,16,10,7,4,28,5,13,11,33,8]","main","120","many-guess-6"
"","","","","","html-keyboard-response","123","604832","0.0-10.0-0.52","60c119b30aa5205b493541b6","640759fa512f630a2bdc333d","6408c1721806d9b9e8039b00","null","","null","","","","","","","","","","","","","","","","","","","fixation","",""
"","","","","","color-precision2","124","610897","0.0-10.0-1.52-0.52","60c119b30aa5205b493541b6","640759fa512f630a2bdc333d","6408c1721806d9b9e8039b00","[3309.300000011921]","","","[16]","[185]","185","169","358.99707367693543","[358.99707367693543]","[189.99707367693543]","[189]","0","0","1","0","148.98499998811167","998.5379999761935","1000","[[[""img/mask44.png""]]]","","","main","169","color-precision2"
"","","","","","html-keyboard-response","125","611398","0.0-10.0-0.53","60c119b30aa5205b493541b6","640759fa512f630a2bdc333d","6408c1721806d9b9e8039b00","null","","null","","","","","","","","","","","","","","","","","","","fixation","",""
"","","","","","color-precision2","126","615775","0.0-10.0-1.53-0.53","60c119b30aa5205b493541b6","640759fa512f630a2bdc333d","6408c1721806d9b9e8039b00","[1520.800000011921]","","","[34]","[59]","59","52","123.43424651756693","[123.43424651756693]","[71.43424651756693]","[70]","0","0","1","0","148.71999996423256","1007.2519999761134","1000","[[[""img/mask54.png""]]]","","","main","52","color-precision2"
"","","","","","html-keyboard-response","127","616276","0.0-10.0-0.54","60c119b30aa5205b493541b6","640759fa512f630a2bdc333d","6408c1721806d9b9e8039b00","null","","null","","","","","","","","","","","","","","","","","","","fixation","",""
"","","","","","color-precision2","128","620528","0.0-10.0-1.54-0.54","60c119b30aa5205b493541b6","640759fa512f630a2bdc333d","6408c1721806d9b9e8039b00","[1473.699999988079]","","","[19]","[10]","10","211","188.78481888299086","[188.78481888299086]","[337.78481888299086]","[337]","0","0","1","0","149.14899995236192","1000.582999976119","1000","[[[""img/mask90.png""]]]","","","main","211","color-precision2"
"","","","","","html-keyboard-response","129","621030","0.0-10.0-0.55","60c119b30aa5205b493541b6","640759fa512f630a2bdc333d","6408c1721806d9b9e8039b00","null","","null","","","","","","","","","","","","","","","","","","","fixation","",""
"","","","","","many-guess-6","130","627481","0.0-10.0-1.55-0.55","60c119b30aa5205b493541b6","640759fa512f630a2bdc333d","6408c1721806d9b9e8039b00","[2443.800000011921]","","","[10,29,34,35,8,7,18,4,24,1,17,30,15,2,5,13,6,20,19,23,11,12,21,22,25,31,28,0,26,27,33,3,32,16,9,14]","[54,214,44,273,233,194,243,204,293,124,84,164,74,24,144,94,313,34,134,154,343,303,114,223,253,263,323,333,4,184,174,104,14,283,64,353]","54","116","80.62857471732428","[80.62857471732428]","[324.6285747173243]","[323]","[210,210,120,210,120,120,210,30,210]","0","36","0","149.14599998807535","20.517999952309765","16","[[[""img/mask33.png""],[""img/mask19.png""],[""img/mask59.png""],[""img/mask33.png""],[""img/mask100.png""],[""img/mask51.png""],[""img/mask43.png""],[""img/mask90.png""],[""img/mask84.png""],[""img/mask61.png""],[""img/mask61.png""],[""img/mask70.png""],[""img/mask59.png""],[""img/mask38.png""],[""img/mask39.png""],[""img/mask49.png""],[""img/mask23.png""],[""img/mask77.png""],[""img/mask98.png""],[""img/mask80.png""],[""img/mask21.png""],[""img/mask59.png""],[""img/mask59.png""],[""img/mask3.png""],[""img/mask70.png""],[""img/mask56.png""],[""img/mask77.png""],[""img/mask35.png""],[""img/mask22.png""],[""img/mask49.png""],[""img/mask40.png""],[""img/mask77.png""],[""img/mask50.png""],[""img/mask23.png""],[""img/mask6.png""],[""img/mask86.png""]]]","","[10,29,34,35,8,7,18,4,24,1,17,30,15,2,5,13,6,20,19,23,11,12,21,22,25,31,28,0,26,27,33,3,32,16,9,14]","main","116","many-guess-6"
"","","","","","html-keyboard-response","131","627982","0.0-10.0-0.56","60c119b30aa5205b493541b6","640759fa512f630a2bdc333d","6408c1721806d9b9e8039b00","null","","null","","","","","","","","","","","","","","","","","","","fixation","",""
"","","","","","many-guess-6","132","633137","0.0-10.0-1.56-0.56","60c119b30aa5205b493541b6","640759fa512f630a2bdc333d","6408c1721806d9b9e8039b00","[2800]","","","[24,19,5,31,22,17,18,8,35,14,10,7,25,15,32,23,13,27,9,2,20,26,4,1,21,33,30,28,34,29,16,0,3,6,12,11]","[57,326,257,177,7,346,317,167,287,77,37,307,277,47,227,27,17,207,67,157,87,217,336,187,247,237,107,97,356,197,267,117,127,147,137,297]","57","116","29.064108373475236","[29.064108373475236]","[273.0641083734752]","[272]","[210,120,300,120,120,210,120,210,300]","0","36","0","148.93299998808652","19.662999976193532","16","[[[""img/mask98.png""],[""img/mask55.png""],[""img/mask14.png""],[""img/mask94.png""],[""img/mask49.png""],[""img/mask12.png""],[""img/mask66.png""],[""img/mask79.png""],[""img/mask36.png""],[""img/mask69.png""],[""img/mask22.png""],[""img/mask47.png""],[""img/mask38.png""],[""img/mask73.png""],[""img/mask92.png""],[""img/mask77.png""],[""img/mask33.png""],[""img/mask29.png""],[""img/mask67.png""],[""img/mask92.png""],[""img/mask84.png""],[""img/mask21.png""],[""img/mask88.png""],[""img/mask20.png""],[""img/mask66.png""],[""img/mask63.png""],[""img/mask64.png""],[""img/mask8.png""],[""img/mask97.png""],[""img/mask9.png""],[""img/mask39.png""],[""img/mask15.png""],[""img/mask23.png""],[""img/mask49.png""],[""img/mask58.png""],[""img/mask77.png""]]]","","[24,19,5,31,22,17,18,8,35,14,10,7,25,15,32,23,13,27,9,2,20,26,4,1,21,33,30,28,34,29,16,0,3,6,12,11]","main","116","many-guess-6"
"","","","","","html-keyboard-response","133","633639","0.0-10.0-0.57","60c119b30aa5205b493541b6","640759fa512f630a2bdc333d","6408c1721806d9b9e8039b00","null","","null","","","","","","","","","","","","","","","","","","","fixation","",""
"","","","","","color-precision2","134","637545","0.0-10.0-1.57-0.57","60c119b30aa5205b493541b6","640759fa512f630a2bdc333d","6408c1721806d9b9e8039b00","[1091]","","","[3]","[250]","250","94","345.5381704939909","[345.5381704939909]","[251.5381704939909]","[251]","0","0","1","0","148.99800000002142","996.406999964267","1000","[[[""img/mask86.png""]]]","","","main","94","color-precision2"
"","","","","","html-keyboard-response","135","638047","0.0-10.0-0.58","60c119b30aa5205b493541b6","640759fa512f630a2bdc333d","6408c1721806d9b9e8039b00","null","","null","","","","","","","","","","","","","","","","","","","fixation","",""
"","","","","","color-precision2","136","643012","0.0-10.0-1.58-0.58","60c119b30aa5205b493541b6","640759fa512f630a2bdc333d","6408c1721806d9b9e8039b00","[2175.399999976158]","","","[16]","[300]","300","313","244.20511637027613","[244.20511637027613]","[291.20511637027613]","[292]","0","0","1","0","149.26399999996647","995.045999999973","1000","[[[""img/mask70.png""]]]","","","main","313","color-precision2"
"","","","","","html-keyboard-response","137","648928","0.0-10.0-0.59","60c119b30aa5205b493541b6","640759fa512f630a2bdc333d","6408c1721806d9b9e8039b00","5914.800000011921","Wow! You've completed 60 out of 180 trials! </p> <p>  </p><p> Take a quick break, then press any key when you're ready to continue."," ","","","","","","","","","","","","","","","","","","","fixation","",""
"","","","","","many-guess-6","138","655641","0.0-10.0-1.59-0.59","60c119b30aa5205b493541b6","640759fa512f630a2bdc333d","6408c1721806d9b9e8039b00","[2070.100000023842]","","","[23,7,6,24,35,28,27,3,11,29,21,34,22,17,18,25,30,13,20,16,0,14,2,8,12,5,32,4,9,15,10,31,26,33,1,19]","[15,254,35,304,185,324,125,65,165,224,25,314,274,284,214,354,5,344,294,135,85,105,234,95,155,204,45,334,175,55,75,244,264,194,115,145]","15","345","353.67342611272824","[353.67342611272824]","[8.673426112728237]","[8]","[300,300,30,300,30,300,30,210,120]","0","36","0","148.82899998803623","22.42399999999907","16","[[[""img/mask91.png""],[""img/mask8.png""],[""img/mask38.png""],[""img/mask99.png""],[""img/mask83.png""],[""img/mask6.png""],[""img/mask24.png""],[""img/mask31.png""],[""img/mask2.png""],[""img/mask76.png""],[""img/mask4.png""],[""img/mask10.png""],[""img/mask19.png""],[""img/mask3.png""],[""img/mask4.png""],[""img/mask57.png""],[""img/mask72.png""],[""img/mask77.png""],[""img/mask63.png""],[""img/mask60.png""],[""img/mask20.png""],[""img/mask84.png""],[""img/mask60.png""],[""img/mask30.png""],[""img/mask61.png""],[""img/mask54.png""],[""img/mask97.png""],[""img/mask54.png""],[""img/mask73.png""],[""img/mask81.png""],[""img/mask88.png""],[""img/mask12.png""],[""img/mask99.png""],[""img/mask80.png""],[""img/mask71.png""],[""img/mask82.png""]]]","","[23,7,6,24,35,28,27,3,11,29,21,34,22,17,18,25,30,13,20,16,0,14,2,8,12,5,32,4,9,15,10,31,26,33,1,19]","main","345","many-guess-6"
"","","","","","html-keyboard-response","139","656142","0.0-10.0-0.60","60c119b30aa5205b493541b6","640759fa512f630a2bdc333d","6408c1721806d9b9e8039b00","null","","null","","","","","","","","","","","","","","","","","","","fixation","",""
"","","","","","many-guess-6","140","660911","0.0-10.0-1.60-0.60","60c119b30aa5205b493541b6","640759fa512f630a2bdc333d","6408c1721806d9b9e8039b00","[2590.699999988079]","","","[0,35,32,31,20,34,24,13,30,10,2,19,23,26,22,14,7,5,28,12,9,27,33,11,3,4,15,16,29,17,1,25,18,8,6,21]","[10,219,140,170,289,279,40,30,319,229,50,359,20,60,130,349,80,190,309,70,200,180,90,150,160,239,209,269,339,299,110,259,249,329,100,120]","10","94","263.5634895029466","[263.5634895029466]","[169.5634895029466]","[170]","[210,210,210,210,210,210,120,300,300]","0","36","0","149.43299998808652","21.49399997619912","16","[[[""img/mask5.png""],[""img/mask3.png""],[""img/mask95.png""],[""img/mask4.png""],[""img/mask47.png""],[""img/mask36.png""],[""img/mask49.png""],[""img/mask50.png""],[""img/mask95.png""],[""img/mask62.png""],[""img/mask28.png""],[""img/mask10.png""],[""img/mask54.png""],[""img/mask91.png""],[""img/mask34.png""],[""img/mask5.png""],[""img/mask23.png""],[""img/mask91.png""],[""img/mask51.png""],[""img/mask58.png""],[""img/mask29.png""],[""img/mask1.png""],[""img/mask94.png""],[""img/mask60.png""],[""img/mask76.png""],[""img/mask76.png""],[""img/mask49.png""],[""img/mask61.png""],[""img/mask7.png""],[""img/mask84.png""],[""img/mask7.png""],[""img/mask1.png""],[""img/mask84.png""],[""img/mask6.png""],[""img/mask100.png""],[""img/mask39.png""]]]","","[0,35,32,31,20,34,24,13,30,10,2,19,23,26,22,14,7,5,28,12,9,27,33,11,3,4,15,16,29,17,1,25,18,8,6,21]","main","94","many-guess-6"
"","","","","","html-keyboard-response","141","661418","0.0-10.0-0.61","60c119b30aa5205b493541b6","640759fa512f630a2bdc333d","6408c1721806d9b9e8039b00","null","","null","","","","","","","","","","","","","","","","","","","fixation","",""
"","","","","","many-guess-6","142","677365","0.0-10.0-1.61-0.61","60c119b30aa5205b493541b6","640759fa512f630a2bdc333d","6408c1721806d9b9e8039b00","[13878.199999988079]","","","[23,32,28,21,22,17,19,18,35,4,31,1,34,29,13,25,11,14,0,20,27,33,2,30,15,3,10,7,24,9,6,5,8,12,16,26]","[47,167,317,327,257,307,187,287,337,27,177,297,37,127,247,97,67,137,77,227,357,8,18,207,57,117,267,87,237,147,197,277,347,157,107,217]","47","279","178.6167826928388","[178.6167826928388]","[259.6167826928388]","[259]","[300,30,120,210,120,120,30,300,120]","0","36","0","149.4779999522725","14.050999976112507","16","[[[""img/mask96.png""],[""img/mask71.png""],[""img/mask58.png""],[""img/mask28.png""],[""img/mask82.png""],[""img/mask69.png""],[""img/mask93.png""],[""img/mask34.png""],[""img/mask30.png""],[""img/mask88.png""],[""img/mask79.png""],[""img/mask21.png""],[""img/mask65.png""],[""img/mask12.png""],[""img/mask53.png""],[""img/mask57.png""],[""img/mask65.png""],[""img/mask5.png""],[""img/mask83.png""],[""img/mask1.png""],[""img/mask69.png""],[""img/mask22.png""],[""img/mask94.png""],[""img/mask30.png""],[""img/mask17.png""],[""img/mask45.png""],[""img/mask18.png""],[""img/mask90.png""],[""img/mask30.png""],[""img/mask10.png""],[""img/mask87.png""],[""img/mask7.png""],[""img/mask80.png""],[""img/mask37.png""],[""img/mask74.png""],[""img/mask10.png""]]]","","[23,32,28,21,22,17,19,18,35,4,31,1,34,29,13,25,11,14,0,20,27,33,2,30,15,3,10,7,24,9,6,5,8,12,16,26]","main","279","many-guess-6"
"","","","","","html-keyboard-response","143","677867","0.0-10.0-0.62","60c119b30aa5205b493541b6","640759fa512f630a2bdc333d","6408c1721806d9b9e8039b00","null","","null","","","","","","","","","","","","","","","","","","","fixation","",""
"","","","","","color-precision2","144","683630","0.0-10.0-1.62-0.62","60c119b30aa5205b493541b6","640759fa512f630a2bdc333d","6408c1721806d9b9e8039b00","[2592.900000035763]","","","[26]","[56]","56","249","297.42229040573653","[297.42229040573653]","[48.42229040573653]","[49]","0","0","1","0","149.17599995236378","1007.7560000000522","1000","[[[""img/mask92.png""]]]","","","main","249","color-precision2"
"","","","","","html-keyboard-response","145","684134","0.0-10.0-0.63","60c119b30aa5205b493541b6","640759fa512f630a2bdc333d","6408c1721806d9b9e8039b00","null","","null","","","","","","","","","","","","","","","","","","","fixation","",""
"","","","","","many-guess-6","146","689251","0.0-10.0-1.63-0.63","60c119b30aa5205b493541b6","640759fa512f630a2bdc333d","6408c1721806d9b9e8039b00","[3280.7999999523163]","","","[19,12,2,9,28,23,0,10,14,26,22,16,20,24,17,34,29,32,31,8,13,33,6,7,35,5,1,11,27,30,3,21,15,18,4,25]","[199,80,20,90,70,120,239,279,299,60,309,349,30,209,110,359,259,219,10,40,160,329,289,140,339,269,249,130,179,169,189,229,50,319,100,150]","199","172","126.02273739036507","[126.02273739036507]","[314.0227373903651]","[312]","[30,120,30,210,120,120,30,210,210]","0","36","0","148.44099995226134","19.55099999997765","16","[[[""img/mask66.png""],[""img/mask65.png""],[""img/mask90.png""],[""img/mask27.png""],[""img/mask92.png""],[""img/mask65.png""],[""img/mask29.png""],[""img/mask9.png""],[""img/mask20.png""],[""img/mask23.png""],[""img/mask42.png""],[""img/mask73.png""],[""img/mask19.png""],[""img/mask21.png""],[""img/mask88.png""],[""img/mask51.png""],[""img/mask82.png""],[""img/mask10.png""],[""img/mask87.png""],[""img/mask63.png""],[""img/mask16.png""],[""img/mask3.png""],[""img/mask70.png""],[""img/mask80.png""],[""img/mask29.png""],[""img/mask70.png""],[""img/mask5.png""],[""img/mask96.png""],[""img/mask87.png""],[""img/mask67.png""],[""img/mask6.png""],[""img/mask4.png""],[""img/mask1.png""],[""img/mask2.png""],[""img/mask39.png""],[""img/mask28.png""]]]","","[19,12,2,9,28,23,0,10,14,26,22,16,20,24,17,34,29,32,31,8,13,33,6,7,35,5,1,11,27,30,3,21,15,18,4,25]","main","172","many-guess-6"
"","","","","","html-keyboard-response","147","689753","0.0-10.0-0.64","60c119b30aa5205b493541b6","640759fa512f630a2bdc333d","6408c1721806d9b9e8039b00","null","","null","","","","","","","","","","","","","","","","","","","fixation","",""
"","","","","","many-guess-6","148","693499","0.0-10.0-1.64-0.64","60c119b30aa5205b493541b6","640759fa512f630a2bdc333d","6408c1721806d9b9e8039b00","[1845.300000011921]","","","[35,31,8,21,2,7,22,5,16,4,10,9,3,18,6,14,28,24,33,11,32,15,34,19,29,1,17,0,13,12,26,23,27,30,20,25]","[15,124,164,5,244,214,264,294,254,104,304,314,324,134,114,144,84,34,344,54,44,94,274,194,284,74,64,354,204,174,184,224,334,234,154,25]","15","346","74.63958297875776","[74.63958297875776]","[88.63958297875774]","[87]","[30,120,210,30,210,300,120,300,300]","0","36","0","148.97399995231535","15.628999976208434","16","[[[""img/mask93.png""],[""img/mask76.png""],[""img/mask99.png""],[""img/mask31.png""],[""img/mask69.png""],[""img/mask36.png""],[""img/mask33.png""],[""img/mask31.png""],[""img/mask64.png""],[""img/mask68.png""],[""img/mask38.png""],[""img/mask62.png""],[""img/mask34.png""],[""img/mask25.png""],[""img/mask14.png""],[""img/mask5.png""],[""img/mask50.png""],[""img/mask48.png""],[""img/mask87.png""],[""img/mask20.png""],[""img/mask83.png""],[""img/mask39.png""],[""img/mask3.png""],[""img/mask38.png""],[""img/mask18.png""],[""img/mask20.png""],[""img/mask99.png""],[""img/mask77.png""],[""img/mask40.png""],[""img/mask40.png""],[""img/mask37.png""],[""img/mask48.png""],[""img/mask93.png""],[""img/mask43.png""],[""img/mask67.png""],[""img/mask36.png""]]]","","[35,31,8,21,2,7,22,5,16,4,10,9,3,18,6,14,28,24,33,11,32,15,34,19,29,1,17,0,13,12,26,23,27,30,20,25]","main","346","many-guess-6"
"","","","","","html-keyboard-response","149","694000","0.0-10.0-0.65","60c119b30aa5205b493541b6","640759fa512f630a2bdc333d","6408c1721806d9b9e8039b00","null","","null","","","","","","","","","","","","","","","","","","","fixation","",""
"","","","","","color-precision2","150","700032","0.0-10.0-1.65-0.65","60c119b30aa5205b493541b6","640759fa512f630a2bdc333d","6408c1721806d9b9e8039b00","[2844.399999976158]","","","[13]","[262]","262","159","53.60160699519344","[53.60160699519344]","[254.60160699519344]","[253]","0","0","1","0","148.83699996420182","1005.6269999761134","1000","[[[""img/mask27.png""]]]","","","main","159","color-precision2"
"","","","","","html-keyboard-response","151","700534","0.0-10.0-0.66","60c119b30aa5205b493541b6","640759fa512f630a2bdc333d","6408c1721806d9b9e8039b00","null","","null","","","","","","","","","","","","","","","","","","","fixation","",""
"","","","","","many-guess-6","152","705043","0.0-10.0-1.66-0.66","60c119b30aa5205b493541b6","640759fa512f630a2bdc333d","6408c1721806d9b9e8039b00","[2272.399999976158]","","","[31,26,3,22,17,1,30,32,0,15,11,13,8,14,24,28,9,21,18,19,16,20,10,33,4,35,7,5,2,23,12,34,29,6,25,27]","[94,34,223,233,184,203,84,253,194,4,64,24,144,303,313,263,213,74,333,154,104,14,54,114,243,164,124,283,134,293,44,323,353,174,343,273]","94","340","285.90746829485096","[285.90746829485096]","[305.90746829485096]","[306]","[300,300,30,210,30,300,300,30,300]","0","36","0","149.04499997617677","13.580999976140447","16","[[[""img/mask96.png""],[""img/mask58.png""],[""img/mask31.png""],[""img/mask70.png""],[""img/mask29.png""],[""img/mask59.png""],[""img/mask17.png""],[""img/mask22.png""],[""img/mask41.png""],[""img/mask88.png""],[""img/mask74.png""],[""img/mask74.png""],[""img/mask81.png""],[""img/mask52.png""],[""img/mask89.png""],[""img/mask16.png""],[""img/mask53.png""],[""img/mask34.png""],[""img/mask26.png""],[""img/mask52.png""],[""img/mask62.png""],[""img/mask97.png""],[""img/mask29.png""],[""img/mask8.png""],[""img/mask2.png""],[""img/mask3.png""],[""img/mask83.png""],[""img/mask12.png""],[""img/mask61.png""],[""img/mask87.png""],[""img/mask5.png""],[""img/mask11.png""],[""img/mask78.png""],[""img/mask5.png""],[""img/mask9.png""],[""img/mask7.png""]]]","","[31,26,3,22,17,1,30,32,0,15,11,13,8,14,24,28,9,21,18,19,16,20,10,33,4,35,7,5,2,23,12,34,29,6,25,27]","main","340","many-guess-6"
"","","","","","html-keyboard-response","153","705544","0.0-10.0-0.67","60c119b30aa5205b493541b6","640759fa512f630a2bdc333d","6408c1721806d9b9e8039b00","null","","null","","","","","","","","","","","","","","","","","","","fixation","",""
"","","","","","color-precision2","154","710789","0.0-10.0-1.67-0.67","60c119b30aa5205b493541b6","640759fa512f630a2bdc333d","6408c1721806d9b9e8039b00","[2318.399999976158]","","","[30]","[8]","8","264","279.2617936443256","[279.2617936443256]","[15.261793644325621]","[16]","0","0","1","0","148.93999998806976","997.3239999522921","1000","[[[""img/mask56.png""]]]","","","main","264","color-precision2"
"","","","","","html-keyboard-response","155","711289","0.0-10.0-0.68","60c119b30aa5205b493541b6","640759fa512f630a2bdc333d","6408c1721806d9b9e8039b00","null","","null","","","","","","","","","","","","","","","","","","","fixation","",""
"","","","","","many-guess-6","156","715188","0.0-10.0-1.68-0.68","60c119b30aa5205b493541b6","640759fa512f630a2bdc333d","6408c1721806d9b9e8039b00","[2117.2999999523163]","","","[21,20,17,23,8,0,11,13,5,26,16,1,15,35,25,19,30,10,9,34,31,6,33,12,3,18,29,22,2,4,14,24,32,7,27,28]","[8,278,158,138,28,327,168,297,48,78,258,88,188,58,18,38,287,68,228,317,108,118,128,178,337,307,208,357,347,238,198,218,248,98,268,148]","8","231","201.51371567703285","[201.51371567703285]","[330.51371567703285]","[330]","[210,30,30,120,30,300,120,210,300]","0","36","0","149.11800000001676","22.3329999523703","16","[[[""img/mask67.png""],[""img/mask17.png""],[""img/mask12.png""],[""img/mask83.png""],[""img/mask91.png""],[""img/mask14.png""],[""img/mask89.png""],[""img/mask51.png""],[""img/mask86.png""],[""img/mask86.png""],[""img/mask65.png""],[""img/mask70.png""],[""img/mask3.png""],[""img/mask81.png""],[""img/mask16.png""],[""img/mask100.png""],[""img/mask30.png""],[""img/mask80.png""],[""img/mask58.png""],[""img/mask80.png""],[""img/mask65.png""],[""img/mask39.png""],[""img/mask98.png""],[""img/mask72.png""],[""img/mask60.png""],[""img/mask47.png""],[""img/mask37.png""],[""img/mask63.png""],[""img/mask64.png""],[""img/mask83.png""],[""img/mask82.png""],[""img/mask23.png""],[""img/mask71.png""],[""img/mask71.png""],[""img/mask89.png""],[""img/mask42.png""]]]","","[21,20,17,23,8,0,11,13,5,26,16,1,15,35,25,19,30,10,9,34,31,6,33,12,3,18,29,22,2,4,14,24,32,7,27,28]","main","231","many-guess-6"
"","","","","","html-keyboard-response","157","715691","0.0-10.0-0.69","60c119b30aa5205b493541b6","640759fa512f630a2bdc333d","6408c1721806d9b9e8039b00","null","","null","","","","","","","","","","","","","","","","","","","fixation","",""
"","","","","","many-guess-6","158","720191","0.0-10.0-1.69-0.69","60c119b30aa5205b493541b6","640759fa512f630a2bdc333d","6408c1721806d9b9e8039b00","[2520.600000023842]","","","[33,20,26,24,34,22,16,2,35,5,23,3,29,18,10,19,8,11,17,9,4,7,30,21,1,6,28,13,0,12,27,31,15,32,25,14]","[41,221,251,241,310,330,280,141,290,260,111,81,161,121,61,201,171,101,340,21,191,270,1,300,51,350,151,71,181,320,211,231,91,131,31,11]","41","342","89.87721076025323","[89.87721076025323]","[107.87721076025323]","[106]","[210,210,210,30,120,300,30,210,30]","0","36","0","149.4169999761507","17.48699999996461","16","[[[""img/mask71.png""],[""img/mask60.png""],[""img/mask18.png""],[""img/mask37.png""],[""img/mask63.png""],[""img/mask51.png""],[""img/mask29.png""],[""img/mask100.png""],[""img/mask1.png""],[""img/mask9.png""],[""img/mask7.png""],[""img/mask20.png""],[""img/mask90.png""],[""img/mask33.png""],[""img/mask10.png""],[""img/mask38.png""],[""img/mask75.png""],[""img/mask46.png""],[""img/mask95.png""],[""img/mask75.png""],[""img/mask29.png""],[""img/mask19.png""],[""img/mask1.png""],[""img/mask24.png""],[""img/mask17.png""],[""img/mask28.png""],[""img/mask90.png""],[""img/mask10.png""],[""img/mask4.png""],[""img/mask35.png""],[""img/mask84.png""],[""img/mask61.png""],[""img/mask73.png""],[""img/mask22.png""],[""img/mask45.png""],[""img/mask70.png""]]]","","[33,20,26,24,34,22,16,2,35,5,23,3,29,18,10,19,8,11,17,9,4,7,30,21,1,6,28,13,0,12,27,31,15,32,25,14]","main","342","many-guess-6"
"","","","","","html-keyboard-response","159","720692","0.0-10.0-0.70","60c119b30aa5205b493541b6","640759fa512f630a2bdc333d","6408c1721806d9b9e8039b00","null","","null","","","","","","","","","","","","","","","","","","","fixation","",""
"","","","","","color-precision2","160","727897","0.0-10.0-1.70-0.70","60c119b30aa5205b493541b6","640759fa512f630a2bdc333d","6408c1721806d9b9e8039b00","[4409.399999976158]","","","[22]","[66]","66","143","192.62912800564243","[192.62912800564243]","[49.62912800564243]","[49]","0","0","1","0","149.0039999880828","1001.081999976188","1000","[[[""img/mask51.png""]]]","","","main","143","color-precision2"
"","","","","","html-keyboard-response","161","728398","0.0-10.0-0.71","60c119b30aa5205b493541b6","640759fa512f630a2bdc333d","6408c1721806d9b9e8039b00","null","","null","","","","","","","","","","","","","","","","","","","fixation","",""
"","","","","","color-precision2","162","734897","0.0-10.0-1.71-0.71","60c119b30aa5205b493541b6","640759fa512f630a2bdc333d","6408c1721806d9b9e8039b00","[3759.300000011921]","","","[20]","[52]","52","61","109.93082869586242","[109.93082869586242]","[48.93082869586242]","[47]","0","0","1","0","149.2069999880623","1006.5259999762056","1000","[[[""img/mask72.png""]]]","","","main","61","color-precision2"
"","","","","","html-keyboard-response","163","735397","0.0-10.0-0.72","60c119b30aa5205b493541b6","640759fa512f630a2bdc333d","6408c1721806d9b9e8039b00","null","","null","","","","","","","","","","","","","","","","","","","fixation","",""
"","","","","","color-precision2","164","740597","0.0-10.0-1.72-0.72","60c119b30aa5205b493541b6","640759fa512f630a2bdc333d","6408c1721806d9b9e8039b00","[2192.899999976158]","","","[24]","[201]","201","212","35.565995094377215","[35.565995094377215]","[183.56599509437723]","[182]","0","0","1","0","149.0339999999851","1005.0359999523498","1000","[[[""img/mask9.png""]]]","","","main","212","color-precision2"
"","","","","","html-keyboard-response","165","741099","0.0-10.0-0.73","60c119b30aa5205b493541b6","640759fa512f630a2bdc333d","6408c1721806d9b9e8039b00","null","","null","","","","","","","","","","","","","","","","","","","fixation","",""
