"success","timeout","failed_images","failed_audio","failed_video","trial_type","trial_index","time_elapsed","internal_node_id","subject_id","study_id","session_id","rt","stimulus","response","position_of_items","colors_of_items","color_of_target","wheel_spin","response_angle","physical_response_angle","reported_color_angle","reported_color_discrete","locs","which_test","set_size","wheel_num_options","actual_mask_duration","actual_stim_duration","CMDispTime","maskArray","maskRotation","item_positions","task","randomSpinAmount","mainTask"
"true","false","[]","[]","[]","preload","0","7664","0.0-0.0","60ea75cf7853c36527784467","640759fa512f630a2bdc333d","6408c183797f61c183ab9a3e","","","","","","","","","","","","","","","","","","","","","","","",""
"true","","","","","fullscreen","1","10598","0.0-1.0","60ea75cf7853c36527784467","640759fa512f630a2bdc333d","6408c183797f61c183ab9a3e","","","","","","","","","","","","","","","","","","","","","","","",""
"","","","","","html-keyboard-response","2","16009","0.0-2.0","60ea75cf7853c36527784467","640759fa512f630a2bdc333d","6408c183797f61c183ab9a3e","5411","What a beautiful Wednesday to do some awesome science! </p> <p>  </p><p> </p>
    By completing this survey or questionnaire, you are consenting to be in this research study. </p>
    Your participation is voluntary and you can stop at any time.<p> [Press any key to continue] </p>","j","","","","","","","","","","","","","","","","","","","","",""
"","","","","","html-keyboard-response","3","26021","0.0-3.0","60ea75cf7853c36527784467","640759fa512f630a2bdc333d","6408c183797f61c183ab9a3e","6165","
    <div style='width: 1000px;'>
    <div style='float: center;'><img src='img/TaskInstructions1.png'></img>
    </div>
    ","n","","","","","","","","","","","","","","","","","","","","",""
"","","","","","html-keyboard-response","4","26424","0.0-4.0","60ea75cf7853c36527784467","640759fa512f630a2bdc333d","6408c183797f61c183ab9a3e","402","
    <div style='width: 1000px;'>
    <div style='float: center;'><img src='img/TaskInstructions1.png'></img>
    </div>
    ","l","","","","","","","","","","","","","","","","","","","","",""
"","","","","","html-keyboard-response","5","36431","0.0-5.0","60ea75cf7853c36527784467","640759fa512f630a2bdc333d","6408c183797f61c183ab9a3e","null","
    <div style='width: 1000px;'>
    <div style='float: center;'><img src='img/TaskInstructions2.png'></img>
    </div>
    ","null","","","","","","","","","","","","","","","","","","","","",""
"","","","","","html-keyboard-response","6","48557","0.0-6.0","60ea75cf7853c36527784467","640759fa512f630a2bdc333d","6408c183797f61c183ab9a3e","12127","
    <div style='width: 1000px;'>
    <div style='float: center;'><img src='img/TaskInstructions2.png'></img>
    </div>
    ","l","","","","","","","","","","","","","","","","","","","","",""
"","","","","","video-keyboard-response","7","61446","0.0-7.0","60ea75cf7853c36527784467","640759fa512f630a2bdc333d","6408c183797f61c183ab9a3e","12879","[""video/TaskInstructions3.mp4""]","l","","","","","","","","","","","","","","","","","","","","",""
"","","","","","image-keyboard-response","8","65287","0.0-8.0-0.0","60ea75cf7853c36527784467","640759fa512f630a2bdc333d","6408c183797f61c183ab9a3e","3839","img/training1.png","l","","","","","","","","","","","","","","","","","","","","",""
"","","","","","color-precision2","9","73150","0.0-8.0-1.0-0.0","60ea75cf7853c36527784467","640759fa512f630a2bdc333d","6408c183797f61c183ab9a3e","[1398]","","","[34]","[249]","249","222","110.5592932752644","[110.5592932752644]","[248.5592932752644]","[249]","0","0","1","0","499.3000000000029","997.3000000000029","1000","","","0","training","",""
"","","","","","image-keyboard-response","10","78622","0.0-8.0-0.1","60ea75cf7853c36527784467","640759fa512f630a2bdc333d","6408c183797f61c183ab9a3e","5471","img/training2.png","l","","","","","","","","","","","","","","","","","","","","",""
"","","","","","many-guess-6","11","86463","0.0-8.0-1.1-0.1","60ea75cf7853c36527784467","640759fa512f630a2bdc333d","6408c183797f61c183ab9a3e","[2969]","","","[35,16,19]","[5,307,41]","5","277","290.65008776576747","[290.65008776576747]","[13.650087765767466]","[14]","[120,30,300,210,210,300,30,300,210,30,300,30,300,30,120,210,120,30,30,30,300,300,300,300,300,120,210,300,120,120,120,300,30,210,120,30]","0","3","0","999.8399999999965","1004.5399999999936","1000","[[[""img/mask22.png""],[""img/mask28.png""],[""img/mask52.png""]]]","","[35,16,19]","training","",""
"","","","","","image-keyboard-response","12","91118","0.0-8.0-0.2","60ea75cf7853c36527784467","640759fa512f630a2bdc333d","6408c183797f61c183ab9a3e","4654","img/training3.png","l","","","","","","","","","","","","","","","","","","","","",""
"","","","","","[""many-guess-6""]","13","97010","0.0-8.0-1.2-0.2","60ea75cf7853c36527784467","640759fa512f630a2bdc333d","6408c183797f61c183ab9a3e","[1657]","","","[11,6,15,0,30]","[112,75,49,24,86]","112","245","298.7050601189948","[298.7050601189948]","[53.70506011899482]","[54]","[120,300,30,300,210,300,30,120,210,210,120,300,30,210,30,30,300,30,30,300,120,210,30,210,300,300,120,30,210,30,300,120,120,120,300,30]","0","5","0","499.38000000000466","494.3999999999942","500","[[[""img/mask83.png""],[""img/mask46.png""],[""img/mask56.png""],[""img/mask61.png""],[""img/mask5.png""]]]","","[11,6,15,0,30]","training","",""
"","","","","","image-keyboard-response","14","110758","0.0-8.0-0.3","60ea75cf7853c36527784467","640759fa512f630a2bdc333d","6408c183797f61c183ab9a3e","13748","img/training4.png",";","","","","","","","","","","","","","","","","","","","","",""
"","","","","","[""many-guess-6""]","15","122798","0.0-8.0-1.3-0.3","60ea75cf7853c36527784467","640759fa512f630a2bdc333d","6408c183797f61c183ab9a3e","[3874]","","","[34,32,17,11,8,10,20,23,29,6]","[61,227,250,196,278,291,31,343,2,323]","61","60","45.309653177739975","[45.309653177739975]","[345.30965317773996]","[344]","[120,120,30,30,120,300,300,210,120,300,120,210,120,300,30,30,30,120,300,210,300,120,30,210,30,120,300,210,30,30,30,210,300,300,300,210]","0","10","0","133","137.89999999999418","132","[[[""img/mask17.png""],[""img/mask47.png""],[""img/mask73.png""],[""img/mask33.png""],[""img/mask87.png""],[""img/mask68.png""],[""img/mask71.png""],[""img/mask82.png""],[""img/mask5.png""],[""img/mask82.png""]]]","","[34,32,17,11,8,10,20,23,29,6]","training","",""
"","","","","","image-keyboard-response","16","126927","0.0-8.0-0.4","60ea75cf7853c36527784467","640759fa512f630a2bdc333d","6408c183797f61c183ab9a3e","4128","img/training5.png"," ","","","","","","","","","","","","","","","","","","","","",""
"","","","","","[""many-guess-6""]","17","177739","0.0-8.0-1.4-0.4","60ea75cf7853c36527784467","640759fa512f630a2bdc333d","6408c183797f61c183ab9a3e","[2354]","","","[35,1,22,27,11,8,30,26,6,7,24,12,5,15,33,0,4,25,20,19,21,2,17,34,13,3,29,10,31,14,9,28,23,18,16,32]","[225,205,185,295,175,305,315,95,155,265,145,245,325,195,115,355,135,275,25,235,55,105,15,285,215,125,335,65,255,165,45,35,345,5,75,85]","225","28","75.67742821416304","[75.67742821416304]","[47.677428214163044]","[46]","[120,210,300,30,300,120,300,210,30,210,300,300,120,30,120,210,120,120,120,210,210,30,30,30,30,30,30,210,120,120,120,210,120,120,30,120]","0","36","0","133.1600000000035","23.079999999987194","16","[[[""img/mask92.png""],[""img/mask13.png""],[""img/mask47.png""],[""img/mask54.png""],[""img/mask5.png""],[""img/mask2.png""],[""img/mask46.png""],[""img/mask77.png""],[""img/mask90.png""],[""img/mask21.png""],[""img/mask80.png""],[""img/mask17.png""],[""img/mask4.png""],[""img/mask31.png""],[""img/mask67.png""],[""img/mask5.png""],[""img/mask64.png""],[""img/mask70.png""],[""img/mask1.png""],[""img/mask68.png""],[""img/mask91.png""],[""img/mask69.png""],[""img/mask98.png""],[""img/mask99.png""],[""img/mask97.png""],[""img/mask51.png""],[""img/mask6.png""],[""img/mask89.png""],[""img/mask6.png""],[""img/mask47.png""],[""img/mask45.png""],[""img/mask27.png""],[""img/mask88.png""],[""img/mask54.png""],[""img/mask81.png""],[""img/mask38.png""]]]","","[35,1,22,27,11,8,30,26,6,7,24,12,5,15,33,0,4,25,20,19,21,2,17,34,13,3,29,10,31,14,9,28,23,18,16,32]","training","",""
"","","","","","image-keyboard-response","18","180273","0.0-9.0","60ea75cf7853c36527784467","640759fa512f630a2bdc333d","6408c183797f61c183ab9a3e","2524","[""img/endTraining.png""]","shift","","","","","","","","","","","","","","","","","","","","",""
"","","","","","html-keyboard-response","19","180786","0.0-10.0-0.0","60ea75cf7853c36527784467","640759fa512f630a2bdc333d","6408c183797f61c183ab9a3e","null","","null","","","","","","","","","","","","","","","","","","","fixation","",""
"","","","","","color-precision2","20","185492","0.0-10.0-1.0-0.0","60ea75cf7853c36527784467","640759fa512f630a2bdc333d","6408c183797f61c183ab9a3e","[849]","","","[30]","[65]","65","212","270.2591566514125","[270.2591566514125]","[58.259156651412525]","[58]","0","0","1","0","149.35999999998603","994.5799999999872","1000","[[[""img/mask45.png""]]]","","","main","212","color-precision2"
"","","","","","html-keyboard-response","21","185996","0.0-10.0-0.1","60ea75cf7853c36527784467","640759fa512f630a2bdc333d","6408c183797f61c183ab9a3e","null","","null","","","","","","","","","","","","","","","","","","","fixation","",""
"","","","","","many-guess-6","22","190708","0.0-10.0-1.1-0.1","60ea75cf7853c36527784467","640759fa512f630a2bdc333d","6408c183797f61c183ab9a3e","[2363]","","","[18,22,27,25,9,1,29,3,12,10,23,19,30,35,4,11,31,24,13,15,28,32,34,6,5,16,14,8,33,0,7,17,2,20,21,26]","[14,114,214,84,74,234,314,294,284,144,34,244,64,194,5,94,354,44,164,204,344,304,154,174,124,24,264,334,104,274,134,54,254,224,324,184]","14","235","59.17487177096098","[59.17487177096098]","[184.17487177096098]","[182]","[120,120,210,300,30,300,30,300,210]","0","36","0","149.29999999998836","13.519999999989523","16","[[[""img/mask81.png""],[""img/mask62.png""],[""img/mask55.png""],[""img/mask43.png""],[""img/mask70.png""],[""img/mask8.png""],[""img/mask57.png""],[""img/mask66.png""],[""img/mask52.png""],[""img/mask54.png""],[""img/mask73.png""],[""img/mask77.png""],[""img/mask61.png""],[""img/mask31.png""],[""img/mask75.png""],[""img/mask55.png""],[""img/mask33.png""],[""img/mask41.png""],[""img/mask17.png""],[""img/mask86.png""],[""img/mask73.png""],[""img/mask28.png""],[""img/mask60.png""],[""img/mask63.png""],[""img/mask83.png""],[""img/mask31.png""],[""img/mask31.png""],[""img/mask59.png""],[""img/mask62.png""],[""img/mask40.png""],[""img/mask24.png""],[""img/mask17.png""],[""img/mask97.png""],[""img/mask81.png""],[""img/mask37.png""],[""img/mask95.png""]]]","","[18,22,27,25,9,1,29,3,12,10,23,19,30,35,4,11,31,24,13,15,28,32,34,6,5,16,14,8,33,0,7,17,2,20,21,26]","main","235","many-guess-6"
"","","","","","html-keyboard-response","23","191216","0.0-10.0-0.2","60ea75cf7853c36527784467","640759fa512f630a2bdc333d","6408c183797f61c183ab9a3e","null","","null","","","","","","","","","","","","","","","","","","","fixation","",""
"","","","","","many-guess-6","24","195845","0.0-10.0-1.2-0.2","60ea75cf7853c36527784467","640759fa512f630a2bdc333d","6408c183797f61c183ab9a3e","[1929]","","","[4,21,18,23,27,12,30,22,14,2,13,11,9,24,33,17,25,32,8,26,19,15,28,31,34,0,1,10,16,6,29,7,5,20,35,3]","[18,118,208,68,217,287,8,297,168,48,307,237,198,327,138,257,28,247,58,98,357,277,38,148,337,267,88,78,317,188,108,158,128,347,178,227]","18","326","263.4185955768789","[263.4185955768789]","[297.4185955768789]","[298]","[30,120,300,300,120,300,120,300,120]","0","36","0","149.48000000001048","18.70000000001164","16","[[[""img/mask10.png""],[""img/mask83.png""],[""img/mask46.png""],[""img/mask43.png""],[""img/mask41.png""],[""img/mask64.png""],[""img/mask98.png""],[""img/mask11.png""],[""img/mask32.png""],[""img/mask35.png""],[""img/mask93.png""],[""img/mask60.png""],[""img/mask70.png""],[""img/mask25.png""],[""img/mask20.png""],[""img/mask41.png""],[""img/mask16.png""],[""img/mask42.png""],[""img/mask97.png""],[""img/mask55.png""],[""img/mask94.png""],[""img/mask63.png""],[""img/mask62.png""],[""img/mask22.png""],[""img/mask16.png""],[""img/mask71.png""],[""img/mask44.png""],[""img/mask21.png""],[""img/mask17.png""],[""img/mask65.png""],[""img/mask51.png""],[""img/mask69.png""],[""img/mask37.png""],[""img/mask23.png""],[""img/mask77.png""],[""img/mask86.png""]]]","","[4,21,18,23,27,12,30,22,14,2,13,11,9,24,33,17,25,32,8,26,19,15,28,31,34,0,1,10,16,6,29,7,5,20,35,3]","main","326","many-guess-6"
"","","","","","html-keyboard-response","25","196350","0.0-10.0-0.3","60ea75cf7853c36527784467","640759fa512f630a2bdc333d","6408c183797f61c183ab9a3e","null","","null","","","","","","","","","","","","","","","","","","","fixation","",""
"","","","","","color-precision2","26","200374","0.0-10.0-1.3-0.3","60ea75cf7853c36527784467","640759fa512f630a2bdc333d","6408c183797f61c183ab9a3e","[1102]","","","[20]","[307]","307","188","128.9397447741325","[128.9397447741325]","[300.93974477413246]","[300]","0","0","1","0","149.51999999998952","998.7399999999907","1000","[[[""img/mask57.png""]]]","","","main","188","color-precision2"
"","","","","","html-keyboard-response","27","200883","0.0-10.0-0.4","60ea75cf7853c36527784467","640759fa512f630a2bdc333d","6408c183797f61c183ab9a3e","null","","null","","","","","","","","","","","","","","","","","","","fixation","",""
"","","","","","many-guess-6","28","205295","0.0-10.0-1.4-0.4","60ea75cf7853c36527784467","640759fa512f630a2bdc333d","6408c183797f61c183ab9a3e","[1822]","","","[20,7,30,18,32,8,19,14,1,25,22,9,21,34,16,33,26,12,0,28,27,6,31,29,11,4,5,15,23,17,35,24,10,13,3,2]","[251,340,51,91,241,161,350,330,21,11,111,101,131,211,201,310,300,1,181,151,61,221,171,290,271,31,41,231,81,121,71,280,191,141,261,320]","251","329","16.03035408416853","[16.03035408416853]","[47.03035408416855]","[46]","[210,210,30,120,300,300,300,210,30]","0","36","0","149.95999999999185","24.179999999993015","16","[[[""img/mask5.png""],[""img/mask24.png""],[""img/mask41.png""],[""img/mask81.png""],[""img/mask4.png""],[""img/mask58.png""],[""img/mask98.png""],[""img/mask35.png""],[""img/mask28.png""],[""img/mask30.png""],[""img/mask53.png""],[""img/mask39.png""],[""img/mask61.png""],[""img/mask10.png""],[""img/mask56.png""],[""img/mask30.png""],[""img/mask61.png""],[""img/mask10.png""],[""img/mask11.png""],[""img/mask34.png""],[""img/mask56.png""],[""img/mask52.png""],[""img/mask51.png""],[""img/mask91.png""],[""img/mask37.png""],[""img/mask69.png""],[""img/mask81.png""],[""img/mask74.png""],[""img/mask44.png""],[""img/mask73.png""],[""img/mask21.png""],[""img/mask94.png""],[""img/mask58.png""],[""img/mask92.png""],[""img/mask9.png""],[""img/mask67.png""]]]","","[20,7,30,18,32,8,19,14,1,25,22,9,21,34,16,33,26,12,0,28,27,6,31,29,11,4,5,15,23,17,35,24,10,13,3,2]","main","329","many-guess-6"
"","","","","","html-keyboard-response","29","205806","0.0-10.0-0.5","60ea75cf7853c36527784467","640759fa512f630a2bdc333d","6408c183797f61c183ab9a3e","null","","null","","","","","","","","","","","","","","","","","","","fixation","",""
"","","","","","many-guess-6","30","209327","0.0-10.0-1.5-0.5","60ea75cf7853c36527784467","640759fa512f630a2bdc333d","6408c183797f61c183ab9a3e","[1483]","","","[5,13,7,35,34,32,30,10,19,31,33,18,23,27,17,21,20,14,4,16,1,11,22,8,24,12,6,3,26,0,28,25,15,29,2,9]","[225,325,345,145,65,285,95,125,75,175,195,265,295,315,205,275,305,85,45,55,245,5,215,255,355,335,105,185,35,25,155,235,115,15,165,135]","225","226","109.54356744392122","[109.54356744392122]","[243.54356744392123]","[242]","[120,210,120,300,210,300,120,30,210]","0","36","0","150.05999999999767","18.279999999998836","16","[[[""img/mask11.png""],[""img/mask34.png""],[""img/mask83.png""],[""img/mask54.png""],[""img/mask65.png""],[""img/mask25.png""],[""img/mask87.png""],[""img/mask97.png""],[""img/mask1.png""],[""img/mask50.png""],[""img/mask29.png""],[""img/mask52.png""],[""img/mask4.png""],[""img/mask97.png""],[""img/mask34.png""],[""img/mask54.png""],[""img/mask20.png""],[""img/mask89.png""],[""img/mask82.png""],[""img/mask57.png""],[""img/mask99.png""],[""img/mask29.png""],[""img/mask93.png""],[""img/mask44.png""],[""img/mask85.png""],[""img/mask2.png""],[""img/mask59.png""],[""img/mask44.png""],[""img/mask55.png""],[""img/mask93.png""],[""img/mask52.png""],[""img/mask93.png""],[""img/mask49.png""],[""img/mask54.png""],[""img/mask67.png""],[""img/mask49.png""]]]","","[5,13,7,35,34,32,30,10,19,31,33,18,23,27,17,21,20,14,4,16,1,11,22,8,24,12,6,3,26,0,28,25,15,29,2,9]","main","226","many-guess-6"
"","","","","","html-keyboard-response","31","209834","0.0-10.0-0.6","60ea75cf7853c36527784467","640759fa512f630a2bdc333d","6408c183797f61c183ab9a3e","null","","null","","","","","","","","","","","","","","","","","","","fixation","",""
"","","","","","color-precision2","32","215671","0.0-10.0-1.6-0.6","60ea75cf7853c36527784467","640759fa512f630a2bdc333d","6408c183797f61c183ab9a3e","[2306]","","","[8]","[255]","255","123","11.784103853938822","[11.784103853938822]","[248.7841038539388]","[248]","0","0","1","0","149","1008.2200000000012","1000","[[[""img/mask64.png""]]]","","","main","123","color-precision2"
"","","","","","html-keyboard-response","33","216180","0.0-10.0-0.7","60ea75cf7853c36527784467","640759fa512f630a2bdc333d","6408c183797f61c183ab9a3e","null","","null","","","","","","","","","","","","","","","","","","","fixation","",""
"","","","","","color-precision2","34","220385","0.0-10.0-1.7-0.7","60ea75cf7853c36527784467","640759fa512f630a2bdc333d","6408c183797f61c183ab9a3e","[997]","","","[19]","[313]","313","359","314.7838260146993","[314.7838260146993]","[315.7838260146993]","[316]","0","0","1","0","149.38000000000466","1003.6000000000058","1000","[[[""img/mask50.png""]]]","","","main","359","color-precision2"
"","","","","","html-keyboard-response","35","220898","0.0-10.0-0.8","60ea75cf7853c36527784467","640759fa512f630a2bdc333d","6408c183797f61c183ab9a3e","null","","null","","","","","","","","","","","","","","","","","","","fixation","",""
"","","","","","many-guess-6","36","225464","0.0-10.0-1.8-0.8","60ea75cf7853c36527784467","640759fa512f630a2bdc333d","6408c183797f61c183ab9a3e","[2325]","","","[35,0,12,19,9,24,34,22,32,21,11,26,25,18,8,1,14,23,17,20,31,6,4,10,7,29,13,15,27,5,33,2,28,30,3,16]","[81,261,141,301,71,41,201,330,31,211,271,191,61,251,151,241,11,91,1,350,121,161,131,221,21,291,320,111,340,181,171,101,231,51,281,311]","81","16","4.497230513732409","[4.497230513732409]","[348.4972305137324]","[348]","[120,300,300,210,210,120,300,30,300]","0","36","0","149.44000000000233","21.679999999993015","16","[[[""img/mask15.png""],[""img/mask11.png""],[""img/mask83.png""],[""img/mask98.png""],[""img/mask58.png""],[""img/mask11.png""],[""img/mask80.png""],[""img/mask64.png""],[""img/mask85.png""],[""img/mask6.png""],[""img/mask15.png""],[""img/mask59.png""],[""img/mask82.png""],[""img/mask48.png""],[""img/mask26.png""],[""img/mask17.png""],[""img/mask94.png""],[""img/mask5.png""],[""img/mask39.png""],[""img/mask86.png""],[""img/mask58.png""],[""img/mask47.png""],[""img/mask86.png""],[""img/mask5.png""],[""img/mask4.png""],[""img/mask40.png""],[""img/mask90.png""],[""img/mask93.png""],[""img/mask57.png""],[""img/mask91.png""],[""img/mask80.png""],[""img/mask5.png""],[""img/mask25.png""],[""img/mask27.png""],[""img/mask32.png""],[""img/mask51.png""]]]","","[35,0,12,19,9,24,34,22,32,21,11,26,25,18,8,1,14,23,17,20,31,6,4,10,7,29,13,15,27,5,33,2,28,30,3,16]","main","16","many-guess-6"
"","","","","","html-keyboard-response","37","225969","0.0-10.0-0.9","60ea75cf7853c36527784467","640759fa512f630a2bdc333d","6408c183797f61c183ab9a3e","null","","null","","","","","","","","","","","","","","","","","","","fixation","",""
"","","","","","color-precision2","38","230369","0.0-10.0-1.9-0.9","60ea75cf7853c36527784467","640759fa512f630a2bdc333d","6408c183797f61c183ab9a3e","[1174]","","","[12]","[226]","226","109","340.3007997427087","[340.3007997427087]","[231.3007997427087]","[231]","0","0","1","0","150.11999999999534","997.3399999999965","1000","[[[""img/mask62.png""]]]","","","main","109","color-precision2"
"","","","","","html-keyboard-response","39","230885","0.0-10.0-0.10","60ea75cf7853c36527784467","640759fa512f630a2bdc333d","6408c183797f61c183ab9a3e","null","","null","","","","","","","","","","","","","","","","","","","fixation","",""
"","","","","","color-precision2","40","234387","0.0-10.0-1.10-0.10","60ea75cf7853c36527784467","640759fa512f630a2bdc333d","6408c183797f61c183ab9a3e","[572]","","","[1]","[97]","97","347","74.57023067925924","[74.57023067925924]","[87.57023067925923]","[86]","0","0","1","0","149.32000000000698","998.5599999999977","1000","[[[""img/mask35.png""]]]","","","main","347","color-precision2"
"","","","","","html-keyboard-response","41","234901","0.0-10.0-0.11","60ea75cf7853c36527784467","640759fa512f630a2bdc333d","6408c183797f61c183ab9a3e","null","","null","","","","","","","","","","","","","","","","","","","fixation","",""
"","","","","","many-guess-6","42","238794","0.0-10.0-1.11-0.11","60ea75cf7853c36527784467","640759fa512f630a2bdc333d","6408c183797f61c183ab9a3e","[1810]","","","[10,22,21,1,13,28,27,17,16,29,11,33,19,20,25,4,23,14,6,31,0,35,34,7,30,26,2,32,18,3,24,12,15,5,9,8]","[17,286,336,47,206,326,306,216,346,256,57,27,127,316,226,156,236,246,87,176,137,186,356,276,7,117,296,166,146,107,196,77,67,97,37,266]","17","287","125.03112847142933","[125.03112847142933]","[198.03112847142933]","[197]","[30,300,30,120,30,210,120,210,300]","0","36","0","149.7399999999907","16.95999999999185","16","[[[""img/mask18.png""],[""img/mask61.png""],[""img/mask74.png""],[""img/mask79.png""],[""img/mask21.png""],[""img/mask50.png""],[""img/mask53.png""],[""img/mask51.png""],[""img/mask33.png""],[""img/mask29.png""],[""img/mask83.png""],[""img/mask98.png""],[""img/mask94.png""],[""img/mask97.png""],[""img/mask40.png""],[""img/mask50.png""],[""img/mask82.png""],[""img/mask47.png""],[""img/mask70.png""],[""img/mask32.png""],[""img/mask89.png""],[""img/mask28.png""],[""img/mask46.png""],[""img/mask3.png""],[""img/mask8.png""],[""img/mask34.png""],[""img/mask27.png""],[""img/mask19.png""],[""img/mask24.png""],[""img/mask15.png""],[""img/mask54.png""],[""img/mask68.png""],[""img/mask45.png""],[""img/mask28.png""],[""img/mask53.png""],[""img/mask95.png""]]]","","[10,22,21,1,13,28,27,17,16,29,11,33,19,20,25,4,23,14,6,31,0,35,34,7,30,26,2,32,18,3,24,12,15,5,9,8]","main","287","many-guess-6"
"","","","","","html-keyboard-response","43","239298","0.0-10.0-0.12","60ea75cf7853c36527784467","640759fa512f630a2bdc333d","6408c183797f61c183ab9a3e","null","","null","","","","","","","","","","","","","","","","","","","fixation","",""
"","","","","","many-guess-6","44","243434","0.0-10.0-1.12-0.12","60ea75cf7853c36527784467","640759fa512f630a2bdc333d","6408c183797f61c183ab9a3e","[2146]","","","[35,14,27,3,5,16,25,24,9,20,32,15,2,18,30,6,11,29,23,31,33,10,22,26,0,21,8,28,17,34,7,12,19,13,4,1]","[65,195,215,105,245,354,304,255,275,334,135,205,145,185,235,265,314,295,5,55,75,155,344,85,95,35,45,225,115,165,125,15,25,324,285,175]","65","355","214.51097972529865","[214.51097972529865]","[219.51097972529865]","[219]","[300,210,300,120,210,210,30,120,120]","0","36","0","149.14000000001397","17.35999999998603","16","[[[""img/mask22.png""],[""img/mask20.png""],[""img/mask66.png""],[""img/mask60.png""],[""img/mask37.png""],[""img/mask44.png""],[""img/mask53.png""],[""img/mask14.png""],[""img/mask20.png""],[""img/mask13.png""],[""img/mask24.png""],[""img/mask88.png""],[""img/mask76.png""],[""img/mask53.png""],[""img/mask55.png""],[""img/mask80.png""],[""img/mask28.png""],[""img/mask83.png""],[""img/mask71.png""],[""img/mask45.png""],[""img/mask27.png""],[""img/mask84.png""],[""img/mask65.png""],[""img/mask89.png""],[""img/mask41.png""],[""img/mask25.png""],[""img/mask3.png""],[""img/mask77.png""],[""img/mask50.png""],[""img/mask98.png""],[""img/mask6.png""],[""img/mask73.png""],[""img/mask60.png""],[""img/mask44.png""],[""img/mask34.png""],[""img/mask50.png""]]]","","[35,14,27,3,5,16,25,24,9,20,32,15,2,18,30,6,11,29,23,31,33,10,22,26,0,21,8,28,17,34,7,12,19,13,4,1]","main","355","many-guess-6"
"","","","","","html-keyboard-response","45","243944","0.0-10.0-0.13","60ea75cf7853c36527784467","640759fa512f630a2bdc333d","6408c183797f61c183ab9a3e","null","","null","","","","","","","","","","","","","","","","","","","fixation","",""
"","","","","","color-precision2","46","248171","0.0-10.0-1.13-0.13","60ea75cf7853c36527784467","640759fa512f630a2bdc333d","6408c183797f61c183ab9a3e","[1261]","","","[12]","[309]","309","114","47.40982577597723","[47.40982577597723]","[293.4098257759772]","[292]","0","0","1","0","147.95999999999185","1006.2000000000116","1000","[[[""img/mask92.png""]]]","","","main","114","color-precision2"
"","","","","","html-keyboard-response","47","248679","0.0-10.0-0.14","60ea75cf7853c36527784467","640759fa512f630a2bdc333d","6408c183797f61c183ab9a3e","null","","null","","","","","","","","","","","","","","","","","","","fixation","",""
"","","","","","many-guess-6","48","252627","0.0-10.0-1.14-0.14","60ea75cf7853c36527784467","640759fa512f630a2bdc333d","6408c183797f61c183ab9a3e","[2282]","","","[7,14,16,10,4,9,8,26,13,5,27,0,32,23,25,31,19,22,33,28,34,20,24,3,35,21,12,6,11,2,29,18,17,15,1,30]","[205,135,305,45,265,255,315,285,6,325,95,105,125,185,175,115,145,85,335,195,295,245,75,225,235,65,55,155,275,215,165,35,15,25,355,345]","205","9","132.56824122912047","[132.56824122912047]","[123.56824122912047]","[122]","[210,300,30,300,30,120,120,30,210]","0","36","0","149.28000000002794","26.520000000018626","16","[[[""img/mask96.png""],[""img/mask99.png""],[""img/mask35.png""],[""img/mask53.png""],[""img/mask22.png""],[""img/mask25.png""],[""img/mask19.png""],[""img/mask83.png""],[""img/mask31.png""],[""img/mask50.png""],[""img/mask90.png""],[""img/mask53.png""],[""img/mask63.png""],[""img/mask66.png""],[""img/mask34.png""],[""img/mask72.png""],[""img/mask77.png""],[""img/mask67.png""],[""img/mask97.png""],[""img/mask4.png""],[""img/mask88.png""],[""img/mask65.png""],[""img/mask41.png""],[""img/mask52.png""],[""img/mask38.png""],[""img/mask74.png""],[""img/mask49.png""],[""img/mask72.png""],[""img/mask42.png""],[""img/mask75.png""],[""img/mask60.png""],[""img/mask65.png""],[""img/mask23.png""],[""img/mask96.png""],[""img/mask84.png""],[""img/mask88.png""]]]","","[7,14,16,10,4,9,8,26,13,5,27,0,32,23,25,31,19,22,33,28,34,20,24,3,35,21,12,6,11,2,29,18,17,15,1,30]","main","9","many-guess-6"
"","","","","","html-keyboard-response","49","253133","0.0-10.0-0.15","60ea75cf7853c36527784467","640759fa512f630a2bdc333d","6408c183797f61c183ab9a3e","null","","null","","","","","","","","","","","","","","","","","","","fixation","",""
"","","","","","many-guess-6","50","257276","0.0-10.0-1.15-0.15","60ea75cf7853c36527784467","640759fa512f630a2bdc333d","6408c183797f61c183ab9a3e","[2061]","","","[33,10,35,6,18,1,32,21,11,16,9,17,12,28,27,20,4,25,26,19,14,29,0,8,24,5,3,7,2,23,34,13,15,22,31,30]","[335,136,256,306,355,345,6,236,96,266,196,126,146,16,156,286,106,186,76,36,296,46,56,326,86,166,176,226,206,116,26,316,246,66,276,216]","335","152","319.9254643383506","[319.9254643383506]","[167.9254643383506]","[168]","[120,300,30,120,210,30,30,210,30]","0","36","0","149.7399999999907","16.979999999981374","16","[[[""img/mask34.png""],[""img/mask12.png""],[""img/mask16.png""],[""img/mask9.png""],[""img/mask45.png""],[""img/mask49.png""],[""img/mask22.png""],[""img/mask41.png""],[""img/mask7.png""],[""img/mask34.png""],[""img/mask14.png""],[""img/mask3.png""],[""img/mask62.png""],[""img/mask92.png""],[""img/mask19.png""],[""img/mask95.png""],[""img/mask57.png""],[""img/mask60.png""],[""img/mask14.png""],[""img/mask19.png""],[""img/mask22.png""],[""img/mask83.png""],[""img/mask70.png""],[""img/mask88.png""],[""img/mask10.png""],[""img/mask61.png""],[""img/mask11.png""],[""img/mask15.png""],[""img/mask65.png""],[""img/mask25.png""],[""img/mask14.png""],[""img/mask84.png""],[""img/mask39.png""],[""img/mask61.png""],[""img/mask42.png""],[""img/mask95.png""]]]","","[33,10,35,6,18,1,32,21,11,16,9,17,12,28,27,20,4,25,26,19,14,29,0,8,24,5,3,7,2,23,34,13,15,22,31,30]","main","152","many-guess-6"
"","","","","","html-keyboard-response","51","257782","0.0-10.0-0.16","60ea75cf7853c36527784467","640759fa512f630a2bdc333d","6408c183797f61c183ab9a3e","null","","null","","","","","","","","","","","","","","","","","","","fixation","",""
"","","","","","color-precision2","52","261652","0.0-10.0-1.16-0.16","60ea75cf7853c36527784467","640759fa512f630a2bdc333d","6408c183797f61c183ab9a3e","[1033]","","","[16]","[346]","346","218","202.9386503288227","[202.9386503288227]","[344.9386503288227]","[346]","0","0","1","0","148.82000000000698","996.039999999979","1000","[[[""img/mask61.png""]]]","","","main","218","color-precision2"
"","","","","","html-keyboard-response","53","262160","0.0-10.0-0.17","60ea75cf7853c36527784467","640759fa512f630a2bdc333d","6408c183797f61c183ab9a3e","null","","null","","","","","","","","","","","","","","","","","","","fixation","",""
"","","","","","many-guess-6","54","265111","0.0-10.0-1.17-0.17","60ea75cf7853c36527784467","640759fa512f630a2bdc333d","6408c183797f61c183ab9a3e","[1472]","","","[22,20,34,12,14,7,21,29,23,17,27,0,30,11,18,25,10,16,4,8,33,24,13,3,31,9,2,15,5,19,6,26,35,28,32,1]","[105,235,325,75,245,255,115,125,5,205,165,285,45,305,55,265,135,145,15,25,215,65,175,225,195,295,85,275,344,185,155,354,335,315,95,35]","105","78","295.6016554181537","[295.6016554181537]","[217.6016554181537]","[218]","[210,120,30,30,210,120,210,210,300]","0","36","0","150.02000000001863","19.239999999990687","16","[[[""img/mask17.png""],[""img/mask7.png""],[""img/mask71.png""],[""img/mask51.png""],[""img/mask100.png""],[""img/mask92.png""],[""img/mask98.png""],[""img/mask67.png""],[""img/mask75.png""],[""img/mask69.png""],[""img/mask82.png""],[""img/mask63.png""],[""img/mask7.png""],[""img/mask25.png""],[""img/mask81.png""],[""img/mask84.png""],[""img/mask94.png""],[""img/mask79.png""],[""img/mask5.png""],[""img/mask73.png""],[""img/mask30.png""],[""img/mask57.png""],[""img/mask16.png""],[""img/mask47.png""],[""img/mask100.png""],[""img/mask20.png""],[""img/mask43.png""],[""img/mask71.png""],[""img/mask94.png""],[""img/mask11.png""],[""img/mask33.png""],[""img/mask54.png""],[""img/mask90.png""],[""img/mask48.png""],[""img/mask66.png""],[""img/mask77.png""]]]","","[22,20,34,12,14,7,21,29,23,17,27,0,30,11,18,25,10,16,4,8,33,24,13,3,31,9,2,15,5,19,6,26,35,28,32,1]","main","78","many-guess-6"
"","","","","","html-keyboard-response","55","265615","0.0-10.0-0.18","60ea75cf7853c36527784467","640759fa512f630a2bdc333d","6408c183797f61c183ab9a3e","null","","null","","","","","","","","","","","","","","","","","","","fixation","",""
"","","","","","color-precision2","56","270310","0.0-10.0-1.18-0.18","60ea75cf7853c36527784467","640759fa512f630a2bdc333d","6408c183797f61c183ab9a3e","[2083]","","","[6]","[20]","20","111","136.94238658396912","[136.94238658396912]","[25.942386583969125]","[25]","0","0","1","0","149.88000000000466","997.0999999999767","1000","[[[""img/mask77.png""]]]","","","main","111","color-precision2"
"","","","","","html-keyboard-response","57","273105","0.0-10.0-0.19","60ea75cf7853c36527784467","640759fa512f630a2bdc333d","6408c183797f61c183ab9a3e","2795","Wow! You've completed 20 out of 180 trials! </p> <p>  </p><p> Take a quick break, then press any key when you're ready to continue.","shift","","","","","","","","","","","","","","","","","","","fixation","",""
"","","","","","many-guess-6","58","276920","0.0-10.0-1.19-0.19","60ea75cf7853c36527784467","640759fa512f630a2bdc333d","6408c183797f61c183ab9a3e","[2005]","","","[18,23,26,3,8,29,31,21,11,24,19,28,10,0,13,17,4,34,35,27,15,20,6,9,22,12,30,1,33,7,2,25,14,16,32,5]","[232,182,12,32,281,351,22,291,42,152,72,162,52,242,132,251,321,172,2,202,341,212,222,112,62,271,261,192,142,92,331,301,122,82,102,311]","232","201","193.3372662238936","[193.3372662238936]","[352.3372662238936]","[352]","[120,300,300,30,30,120,300,300,30]","0","36","0","149.55999999999767","24.78000000002794","16","[[[""img/mask33.png""],[""img/mask94.png""],[""img/mask53.png""],[""img/mask29.png""],[""img/mask15.png""],[""img/mask93.png""],[""img/mask25.png""],[""img/mask30.png""],[""img/mask79.png""],[""img/mask21.png""],[""img/mask66.png""],[""img/mask28.png""],[""img/mask8.png""],[""img/mask4.png""],[""img/mask100.png""],[""img/mask31.png""],[""img/mask29.png""],[""img/mask56.png""],[""img/mask45.png""],[""img/mask59.png""],[""img/mask34.png""],[""img/mask9.png""],[""img/mask2.png""],[""img/mask14.png""],[""img/mask32.png""],[""img/mask60.png""],[""img/mask63.png""],[""img/mask88.png""],[""img/mask76.png""],[""img/mask54.png""],[""img/mask56.png""],[""img/mask58.png""],[""img/mask18.png""],[""img/mask66.png""],[""img/mask18.png""],[""img/mask28.png""]]]","","[18,23,26,3,8,29,31,21,11,24,19,28,10,0,13,17,4,34,35,27,15,20,6,9,22,12,30,1,33,7,2,25,14,16,32,5]","main","201","many-guess-6"
"","","","","","html-keyboard-response","59","277424","0.0-10.0-0.20","60ea75cf7853c36527784467","640759fa512f630a2bdc333d","6408c183797f61c183ab9a3e","null","","null","","","","","","","","","","","","","","","","","","","fixation","",""
"","","","","","many-guess-6","60","281575","0.0-10.0-1.20-0.20","60ea75cf7853c36527784467","640759fa512f630a2bdc333d","6408c183797f61c183ab9a3e","[2342]","","","[25,0,35,1,7,4,18,34,2,13,27,3,26,12,24,28,17,6,23,22,21,10,16,8,19,33,9,5,32,15,14,31,20,29,30,11]","[260,60,290,50,349,70,170,120,309,180,160,359,230,90,10,140,30,339,130,300,110,329,319,100,190,150,250,200,210,220,240,40,280,80,270,20]","260","65","240.1316864472463","[240.1316864472463]","[175.1316864472463]","[176]","[300,120,300,30,30,120,30,30,210]","0","36","0","149.6599999999744","22.880000000004657","16","[[[""img/mask21.png""],[""img/mask38.png""],[""img/mask68.png""],[""img/mask85.png""],[""img/mask41.png""],[""img/mask16.png""],[""img/mask7.png""],[""img/mask75.png""],[""img/mask51.png""],[""img/mask21.png""],[""img/mask23.png""],[""img/mask2.png""],[""img/mask33.png""],[""img/mask85.png""],[""img/mask69.png""],[""img/mask99.png""],[""img/mask62.png""],[""img/mask97.png""],[""img/mask47.png""],[""img/mask18.png""],[""img/mask14.png""],[""img/mask37.png""],[""img/mask92.png""],[""img/mask14.png""],[""img/mask79.png""],[""img/mask66.png""],[""img/mask36.png""],[""img/mask77.png""],[""img/mask86.png""],[""img/mask34.png""],[""img/mask70.png""],[""img/mask90.png""],[""img/mask84.png""],[""img/mask16.png""],[""img/mask54.png""],[""img/mask34.png""]]]","","[25,0,35,1,7,4,18,34,2,13,27,3,26,12,24,28,17,6,23,22,21,10,16,8,19,33,9,5,32,15,14,31,20,29,30,11]","main","65","many-guess-6"
"","","","","","html-keyboard-response","61","282077","0.0-10.0-0.21","60ea75cf7853c36527784467","640759fa512f630a2bdc333d","6408c183797f61c183ab9a3e","null","","null","","","","","","","","","","","","","","","","","","","fixation","",""
"","","","","","many-guess-6","62","285456","0.0-10.0-1.21-0.21","60ea75cf7853c36527784467","640759fa512f630a2bdc333d","6408c183797f61c183ab9a3e","[1618]","","","[21,19,3,9,5,8,15,25,23,7,20,26,30,16,29,34,10,27,35,2,13,18,12,24,1,31,4,28,32,17,11,22,33,14,0,6]","[241,211,51,21,231,91,11,171,221,310,290,350,81,71,1,181,280,101,320,41,300,131,251,61,271,161,330,111,340,151,201,31,261,141,121,191]","241","335","293.1608752335733","[293.1608752335733]","[318.1608752335733]","[318]","[120,210,300,120,120,300,300,120,30]","0","36","0","149.35999999998603","22.580000000016298","16","[[[""img/mask45.png""],[""img/mask94.png""],[""img/mask12.png""],[""img/mask17.png""],[""img/mask55.png""],[""img/mask32.png""],[""img/mask58.png""],[""img/mask19.png""],[""img/mask49.png""],[""img/mask7.png""],[""img/mask43.png""],[""img/mask21.png""],[""img/mask45.png""],[""img/mask62.png""],[""img/mask51.png""],[""img/mask84.png""],[""img/mask10.png""],[""img/mask97.png""],[""img/mask59.png""],[""img/mask30.png""],[""img/mask92.png""],[""img/mask20.png""],[""img/mask5.png""],[""img/mask9.png""],[""img/mask23.png""],[""img/mask81.png""],[""img/mask23.png""],[""img/mask13.png""],[""img/mask7.png""],[""img/mask24.png""],[""img/mask1.png""],[""img/mask93.png""],[""img/mask62.png""],[""img/mask43.png""],[""img/mask51.png""],[""img/mask62.png""]]]","","[21,19,3,9,5,8,15,25,23,7,20,26,30,16,29,34,10,27,35,2,13,18,12,24,1,31,4,28,32,17,11,22,33,14,0,6]","main","335","many-guess-6"
"","","","","","html-keyboard-response","63","285960","0.0-10.0-0.22","60ea75cf7853c36527784467","640759fa512f630a2bdc333d","6408c183797f61c183ab9a3e","null","","null","","","","","","","","","","","","","","","","","","","fixation","",""
"","","","","","many-guess-6","64","292033","0.0-10.0-1.22-0.22","60ea75cf7853c36527784467","640759fa512f630a2bdc333d","6408c183797f61c183ab9a3e","[4374]","","","[12,16,2,27,32,26,25,1,22,5,0,29,11,7,13,30,33,24,21,35,19,18,34,9,10,28,8,6,23,20,17,31,15,3,4,14]","[27,57,246,296,316,17,67,286,87,236,147,47,346,266,356,186,157,37,107,117,196,336,206,276,137,216,176,97,306,326,7,226,256,166,77,127]","27","189","196.2003265315511","[196.2003265315511]","[7.200326531551099]","[7]","[30,30,210,210,30,300,210,300,210]","0","36","0","149.94000000000233","21.179999999993015","16","[[[""img/mask56.png""],[""img/mask78.png""],[""img/mask63.png""],[""img/mask90.png""],[""img/mask80.png""],[""img/mask7.png""],[""img/mask99.png""],[""img/mask35.png""],[""img/mask59.png""],[""img/mask67.png""],[""img/mask67.png""],[""img/mask48.png""],[""img/mask40.png""],[""img/mask57.png""],[""img/mask93.png""],[""img/mask95.png""],[""img/mask22.png""],[""img/mask27.png""],[""img/mask98.png""],[""img/mask79.png""],[""img/mask33.png""],[""img/mask82.png""],[""img/mask91.png""],[""img/mask89.png""],[""img/mask8.png""],[""img/mask10.png""],[""img/mask83.png""],[""img/mask1.png""],[""img/mask7.png""],[""img/mask84.png""],[""img/mask48.png""],[""img/mask54.png""],[""img/mask75.png""],[""img/mask20.png""],[""img/mask68.png""],[""img/mask17.png""]]]","","[12,16,2,27,32,26,25,1,22,5,0,29,11,7,13,30,33,24,21,35,19,18,34,9,10,28,8,6,23,20,17,31,15,3,4,14]","main","189","many-guess-6"
"","","","","","html-keyboard-response","65","292536","0.0-10.0-0.23","60ea75cf7853c36527784467","640759fa512f630a2bdc333d","6408c183797f61c183ab9a3e","null","","null","","","","","","","","","","","","","","","","","","","fixation","",""
"","","","","","color-precision2","66","296066","0.0-10.0-1.23-0.23","60ea75cf7853c36527784467","640759fa512f630a2bdc333d","6408c183797f61c183ab9a3e","[652]","","","[19]","[169]","169","334","137.59873019630493","[137.59873019630493]","[163.59873019630493]","[162]","0","0","1","0","148.88000000000466","1002.0999999999767","1000","[[[""img/mask41.png""]]]","","","main","334","color-precision2"
"","","","","","html-keyboard-response","67","296574","0.0-10.0-0.24","60ea75cf7853c36527784467","640759fa512f630a2bdc333d","6408c183797f61c183ab9a3e","null","","null","","","","","","","","","","","","","","","","","","","fixation","",""
"","","","","","many-guess-6","68","299922","0.0-10.0-1.24-0.24","60ea75cf7853c36527784467","640759fa512f630a2bdc333d","6408c183797f61c183ab9a3e","[1538]","","","[17,0,24,33,35,31,13,10,15,29,19,11,7,12,9,3,8,28,5,20,34,6,14,25,2,4,1,23,22,30,27,21,26,16,32,18]","[48,277,158,258,178,238,88,188,98,337,198,208,218,297,357,38,58,248,118,108,18,268,8,307,287,148,78,138,327,317,228,68,28,168,128,347]","48","271","158.9113675761494","[158.9113675761494]","[247.9113675761494]","[247]","[30,120,300,210,30,120,300,210,120]","0","36","0","150.05999999999767","14.28000000002794","16","[[[""img/mask7.png""],[""img/mask40.png""],[""img/mask81.png""],[""img/mask96.png""],[""img/mask8.png""],[""img/mask6.png""],[""img/mask38.png""],[""img/mask24.png""],[""img/mask68.png""],[""img/mask62.png""],[""img/mask29.png""],[""img/mask33.png""],[""img/mask13.png""],[""img/mask96.png""],[""img/mask52.png""],[""img/mask94.png""],[""img/mask73.png""],[""img/mask13.png""],[""img/mask4.png""],[""img/mask38.png""],[""img/mask87.png""],[""img/mask64.png""],[""img/mask17.png""],[""img/mask10.png""],[""img/mask65.png""],[""img/mask44.png""],[""img/mask9.png""],[""img/mask44.png""],[""img/mask56.png""],[""img/mask96.png""],[""img/mask36.png""],[""img/mask48.png""],[""img/mask49.png""],[""img/mask74.png""],[""img/mask56.png""],[""img/mask4.png""]]]","","[17,0,24,33,35,31,13,10,15,29,19,11,7,12,9,3,8,28,5,20,34,6,14,25,2,4,1,23,22,30,27,21,26,16,32,18]","main","271","many-guess-6"
"","","","","","html-keyboard-response","69","300433","0.0-10.0-0.25","60ea75cf7853c36527784467","640759fa512f630a2bdc333d","6408c183797f61c183ab9a3e","null","","null","","","","","","","","","","","","","","","","","","","fixation","",""
"","","","","","color-precision2","70","304802","0.0-10.0-1.25-0.25","60ea75cf7853c36527784467","640759fa512f630a2bdc333d","6408c183797f61c183ab9a3e","[1915]","","","[19]","[202]","202","306","147.44374308347867","[147.44374308347867]","[201.44374308347867]","[202]","0","0","1","0","150.47999999998137","991.7000000000116","1000","[[[""img/mask34.png""]]]","","","main","306","color-precision2"
"","","","","","html-keyboard-response","71","305304","0.0-10.0-0.26","60ea75cf7853c36527784467","640759fa512f630a2bdc333d","6408c183797f61c183ab9a3e","null","","null","","","","","","","","","","","","","","","","","","","fixation","",""
"","","","","","color-precision2","72","310251","0.0-10.0-1.26-0.26","60ea75cf7853c36527784467","640759fa512f630a2bdc333d","6408c183797f61c183ab9a3e","[1677]","","","[13]","[66]","66","332","37.11132114818276","[37.11132114818276]","[65.11132114818275]","[64]","0","0","1","0","149.29999999998836","998.5200000000186","1000","[[[""img/mask56.png""]]]","","","main","332","color-precision2"
"","","","","","html-keyboard-response","73","310765","0.0-10.0-0.27","60ea75cf7853c36527784467","640759fa512f630a2bdc333d","6408c183797f61c183ab9a3e","null","","null","","","","","","","","","","","","","","","","","","","fixation","",""
"","","","","","color-precision2","74","314492","0.0-10.0-1.27-0.27","60ea75cf7853c36527784467","640759fa512f630a2bdc333d","6408c183797f61c183ab9a3e","[746]","","","[30]","[74]","74","242","315.38305821840584","[315.38305821840584]","[73.38305821840584]","[74]","0","0","1","0","149.03999999997905","1005.2600000000093","1000","[[[""img/mask95.png""]]]","","","main","242","color-precision2"
"","","","","","html-keyboard-response","75","314999","0.0-10.0-0.28","60ea75cf7853c36527784467","640759fa512f630a2bdc333d","6408c183797f61c183ab9a3e","null","","null","","","","","","","","","","","","","","","","","","","fixation","",""
"","","","","","many-guess-6","76","318853","0.0-10.0-1.28-0.28","60ea75cf7853c36527784467","640759fa512f630a2bdc333d","6408c183797f61c183ab9a3e","[2089]","","","[21,1,30,24,28,10,19,9,0,22,33,26,29,13,35,11,4,31,7,2,16,27,20,3,5,25,23,8,32,18,17,15,6,12,34,14]","[248,308,318,99,79,69,148,109,138,59,328,198,39,158,218,238,188,208,49,168,19,348,338,118,278,89,178,358,258,9,268,29,298,228,128,288]","248","112","131.67219909128147","[131.67219909128147]","[19.67219909128147]","[18]","[300,30,210,30,210,120,300,300,210]","0","36","0","149.21999999997206","11.440000000002328","16","[[[""img/mask46.png""],[""img/mask56.png""],[""img/mask95.png""],[""img/mask14.png""],[""img/mask14.png""],[""img/mask39.png""],[""img/mask92.png""],[""img/mask49.png""],[""img/mask34.png""],[""img/mask98.png""],[""img/mask13.png""],[""img/mask34.png""],[""img/mask82.png""],[""img/mask28.png""],[""img/mask61.png""],[""img/mask15.png""],[""img/mask42.png""],[""img/mask71.png""],[""img/mask32.png""],[""img/mask50.png""],[""img/mask63.png""],[""img/mask42.png""],[""img/mask49.png""],[""img/mask2.png""],[""img/mask78.png""],[""img/mask52.png""],[""img/mask73.png""],[""img/mask73.png""],[""img/mask44.png""],[""img/mask94.png""],[""img/mask55.png""],[""img/mask77.png""],[""img/mask66.png""],[""img/mask1.png""],[""img/mask70.png""],[""img/mask69.png""]]]","","[21,1,30,24,28,10,19,9,0,22,33,26,29,13,35,11,4,31,7,2,16,27,20,3,5,25,23,8,32,18,17,15,6,12,34,14]","main","112","many-guess-6"
"","","","","","html-keyboard-response","77","319368","0.0-10.0-0.29","60ea75cf7853c36527784467","640759fa512f630a2bdc333d","6408c183797f61c183ab9a3e","null","","null","","","","","","","","","","","","","","","","","","","fixation","",""
"","","","","","color-precision2","78","323028","0.0-10.0-1.29-0.29","60ea75cf7853c36527784467","640759fa512f630a2bdc333d","6408c183797f61c183ab9a3e","[944]","","","[7]","[198]","198","236","78.65546950080011","[78.65546950080011]","[202.6554695008001]","[201]","0","0","1","0","149.94000000000233","995.179999999993","1000","[[[""img/mask85.png""]]]","","","main","236","color-precision2"
"","","","","","html-keyboard-response","79","323542","0.0-10.0-0.30","60ea75cf7853c36527784467","640759fa512f630a2bdc333d","6408c183797f61c183ab9a3e","null","","null","","","","","","","","","","","","","","","","","","","fixation","",""
"","","","","","color-precision2","80","327669","0.0-10.0-1.30-0.30","60ea75cf7853c36527784467","640759fa512f630a2bdc333d","6408c183797f61c183ab9a3e","[1080]","","","[16]","[112]","112","155","278.2476195029826","[278.2476195029826]","[123.24761950298262]","[123]","0","0","1","0","149.46000000002095","998.679999999993","1000","[[[""img/mask85.png""]]]","","","main","155","color-precision2"
"","","","","","html-keyboard-response","81","328180","0.0-10.0-0.31","60ea75cf7853c36527784467","640759fa512f630a2bdc333d","6408c183797f61c183ab9a3e","null","","null","","","","","","","","","","","","","","","","","","","fixation","",""
"","","","","","color-precision2","82","331901","0.0-10.0-1.31-0.31","60ea75cf7853c36527784467","640759fa512f630a2bdc333d","6408c183797f61c183ab9a3e","[892]","","","[2]","[244]","244","22","270.25540985826035","[270.25540985826035]","[248.25540985826035]","[249]","0","0","1","0","148.59999999997672","998.8400000000256","1000","[[[""img/mask39.png""]]]","","","main","22","color-precision2"
"","","","","","html-keyboard-response","83","332413","0.0-10.0-0.32","60ea75cf7853c36527784467","640759fa512f630a2bdc333d","6408c183797f61c183ab9a3e","null","","null","","","","","","","","","","","","","","","","","","","fixation","",""
"","","","","","color-precision2","84","335391","0.0-10.0-1.32-0.32","60ea75cf7853c36527784467","640759fa512f630a2bdc333d","6408c183797f61c183ab9a3e","[529]","","","[9]","[13]","13","86","84.31016531891457","[84.31016531891457]","[358.3101653189146]","[356]","0","0","1","0","149.71999999997206","1006.9400000000023","1000","[[[""img/mask84.png""]]]","","","main","86","color-precision2"
"","","","","","html-keyboard-response","85","335903","0.0-10.0-0.33","60ea75cf7853c36527784467","640759fa512f630a2bdc333d","6408c183797f61c183ab9a3e","null","","null","","","","","","","","","","","","","","","","","","","fixation","",""
"","","","","","many-guess-6","86","340790","0.0-10.0-1.33-0.33","60ea75cf7853c36527784467","640759fa512f630a2bdc333d","6408c183797f61c183ab9a3e","[3160]","","","[26,10,19,4,11,29,25,20,1,27,33,21,5,34,0,16,32,22,23,35,31,13,30,3,24,18,15,2,28,14,6,8,7,17,9,12]","[32,301,331,52,201,191,171,82,102,142,231,341,221,211,261,62,42,351,162,271,22,181,152,132,122,112,72,291,281,12,251,2,241,92,311,321]","32","41","349.6026658534465","[349.6026658534465]","[308.6026658534465]","[308]","[120,30,120,300,30,300,30,300,300]","0","36","0","149.67999999999302","25.900000000023283","16","[[[""img/mask50.png""],[""img/mask26.png""],[""img/mask89.png""],[""img/mask11.png""],[""img/mask41.png""],[""img/mask43.png""],[""img/mask76.png""],[""img/mask84.png""],[""img/mask21.png""],[""img/mask35.png""],[""img/mask51.png""],[""img/mask66.png""],[""img/mask20.png""],[""img/mask92.png""],[""img/mask1.png""],[""img/mask47.png""],[""img/mask88.png""],[""img/mask83.png""],[""img/mask3.png""],[""img/mask5.png""],[""img/mask73.png""],[""img/mask5.png""],[""img/mask75.png""],[""img/mask69.png""],[""img/mask29.png""],[""img/mask88.png""],[""img/mask44.png""],[""img/mask48.png""],[""img/mask53.png""],[""img/mask97.png""],[""img/mask98.png""],[""img/mask25.png""],[""img/mask5.png""],[""img/mask65.png""],[""img/mask69.png""],[""img/mask95.png""]]]","","[26,10,19,4,11,29,25,20,1,27,33,21,5,34,0,16,32,22,23,35,31,13,30,3,24,18,15,2,28,14,6,8,7,17,9,12]","main","41","many-guess-6"
"","","","","","html-keyboard-response","87","341301","0.0-10.0-0.34","60ea75cf7853c36527784467","640759fa512f630a2bdc333d","6408c183797f61c183ab9a3e","null","","null","","","","","","","","","","","","","","","","","","","fixation","",""
"","","","","","color-precision2","88","346074","0.0-10.0-1.34-0.34","60ea75cf7853c36527784467","640759fa512f630a2bdc333d","6408c183797f61c183ab9a3e","[1935]","","","[0]","[203]","203","216","71.54037444847384","[71.54037444847384]","[215.54037444847384]","[214]","0","0","1","0","149.64000000001397","1000.8800000000047","1000","[[[""img/mask16.png""]]]","","","main","216","color-precision2"
"","","","","","html-keyboard-response","89","346587","0.0-10.0-0.35","60ea75cf7853c36527784467","640759fa512f630a2bdc333d","6408c183797f61c183ab9a3e","null","","null","","","","","","","","","","","","","","","","","","","fixation","",""
"","","","","","color-precision2","90","350087","0.0-10.0-1.35-0.35","60ea75cf7853c36527784467","640759fa512f630a2bdc333d","6408c183797f61c183ab9a3e","[1047]","","","[13]","[316]","316","229","168.61389657913844","[168.61389657913844]","[299.61389657913844]","[299]","0","0","1","0","149.53999999997905","1006.7600000000093","1000","[[[""img/mask19.png""]]]","","","main","229","color-precision2"
"","","","","","html-keyboard-response","91","350600","0.0-10.0-0.36","60ea75cf7853c36527784467","640759fa512f630a2bdc333d","6408c183797f61c183ab9a3e","null","","null","","","","","","","","","","","","","","","","","","","fixation","",""
"","","","","","many-guess-6","92","354158","0.0-10.0-1.36-0.36","60ea75cf7853c36527784467","640759fa512f630a2bdc333d","6408c183797f61c183ab9a3e","[1893]","","","[0,13,12,27,2,6,35,3,9,10,7,32,17,34,5,15,31,28,25,16,4,21,8,33,29,11,14,22,24,30,19,18,1,20,23,26]","[151,271,141,11,301,111,121,101,221,61,191,131,21,71,241,41,331,291,161,81,281,1,251,351,91,51,341,181,261,31,211,201,321,171,231,311]","151","111","209.17701927296275","[209.17701927296275]","[98.17701927296275]","[98]","[210,120,300,210,210,30,300,300,120]","0","36","0","149.9199999999837","11.14000000001397","16","[[[""img/mask32.png""],[""img/mask29.png""],[""img/mask55.png""],[""img/mask45.png""],[""img/mask45.png""],[""img/mask51.png""],[""img/mask87.png""],[""img/mask89.png""],[""img/mask53.png""],[""img/mask73.png""],[""img/mask18.png""],[""img/mask85.png""],[""img/mask89.png""],[""img/mask84.png""],[""img/mask98.png""],[""img/mask7.png""],[""img/mask63.png""],[""img/mask53.png""],[""img/mask3.png""],[""img/mask80.png""],[""img/mask78.png""],[""img/mask45.png""],[""img/mask51.png""],[""img/mask26.png""],[""img/mask2.png""],[""img/mask7.png""],[""img/mask32.png""],[""img/mask80.png""],[""img/mask16.png""],[""img/mask24.png""],[""img/mask56.png""],[""img/mask37.png""],[""img/mask44.png""],[""img/mask20.png""],[""img/mask42.png""],[""img/mask40.png""]]]","","[0,13,12,27,2,6,35,3,9,10,7,32,17,34,5,15,31,28,25,16,4,21,8,33,29,11,14,22,24,30,19,18,1,20,23,26]","main","111","many-guess-6"
"","","","","","html-keyboard-response","93","354659","0.0-10.0-0.37","60ea75cf7853c36527784467","640759fa512f630a2bdc333d","6408c183797f61c183ab9a3e","null","","null","","","","","","","","","","","","","","","","","","","fixation","",""
"","","","","","many-guess-6","94","357353","0.0-10.0-1.37-0.37","60ea75cf7853c36527784467","640759fa512f630a2bdc333d","6408c183797f61c183ab9a3e","[1090]","","","[17,34,19,30,23,26,11,1,10,25,32,35,27,15,12,24,29,2,4,3,33,16,21,7,22,28,14,18,13,6,0,5,8,9,31,20]","[56,86,316,196,96,126,136,116,336,146,156,266,166,276,36,46,346,246,216,226,66,356,26,256,206,7,186,76,326,106,306,286,236,296,16,176]","56","96","297.29696292757524","[297.29696292757524]","[201.29696292757524]","[201]","[120,210,210,210,210,210,300,120,300]","0","36","0","150.03999999997905","18.29999999998836","16","[[[""img/mask31.png""],[""img/mask77.png""],[""img/mask18.png""],[""img/mask86.png""],[""img/mask24.png""],[""img/mask47.png""],[""img/mask26.png""],[""img/mask50.png""],[""img/mask95.png""],[""img/mask15.png""],[""img/mask35.png""],[""img/mask23.png""],[""img/mask45.png""],[""img/mask55.png""],[""img/mask70.png""],[""img/mask46.png""],[""img/mask43.png""],[""img/mask56.png""],[""img/mask45.png""],[""img/mask24.png""],[""img/mask29.png""],[""img/mask55.png""],[""img/mask61.png""],[""img/mask63.png""],[""img/mask84.png""],[""img/mask52.png""],[""img/mask55.png""],[""img/mask94.png""],[""img/mask61.png""],[""img/mask98.png""],[""img/mask50.png""],[""img/mask98.png""],[""img/mask66.png""],[""img/mask32.png""],[""img/mask50.png""],[""img/mask44.png""]]]","","[17,34,19,30,23,26,11,1,10,25,32,35,27,15,12,24,29,2,4,3,33,16,21,7,22,28,14,18,13,6,0,5,8,9,31,20]","main","96","many-guess-6"
"","","","","","html-keyboard-response","95","357858","0.0-10.0-0.38","60ea75cf7853c36527784467","640759fa512f630a2bdc333d","6408c183797f61c183ab9a3e","null","","null","","","","","","","","","","","","","","","","","","","fixation","",""
"","","","","","many-guess-6","96","361497","0.0-10.0-1.38-0.38","60ea75cf7853c36527784467","640759fa512f630a2bdc333d","6408c183797f61c183ab9a3e","[2182]","","","[31,1,11,16,26,32,23,15,10,6,5,33,2,25,29,28,0,4,18,14,20,34,9,30,7,13,3,8,12,17,35,22,21,27,19,24]","[115,125,35,185,344,354,135,155,255,314,304,225,25,205,235,145,294,15,195,215,75,245,265,95,284,165,324,65,175,45,275,5,334,55,85,105]","115","299","26.701064316106564","[26.701064316106564]","[87.70106431610657]","[86]","[120,210,30,120,30,30,30,300,30]","0","36","0","149.46000000002095","26.70000000001164","16","[[[""img/mask74.png""],[""img/mask39.png""],[""img/mask34.png""],[""img/mask74.png""],[""img/mask91.png""],[""img/mask44.png""],[""img/mask42.png""],[""img/mask88.png""],[""img/mask3.png""],[""img/mask12.png""],[""img/mask99.png""],[""img/mask38.png""],[""img/mask24.png""],[""img/mask96.png""],[""img/mask84.png""],[""img/mask1.png""],[""img/mask15.png""],[""img/mask66.png""],[""img/mask90.png""],[""img/mask54.png""],[""img/mask90.png""],[""img/mask44.png""],[""img/mask74.png""],[""img/mask97.png""],[""img/mask27.png""],[""img/mask71.png""],[""img/mask49.png""],[""img/mask23.png""],[""img/mask46.png""],[""img/mask86.png""],[""img/mask85.png""],[""img/mask71.png""],[""img/mask35.png""],[""img/mask14.png""],[""img/mask90.png""],[""img/mask45.png""]]]","","[31,1,11,16,26,32,23,15,10,6,5,33,2,25,29,28,0,4,18,14,20,34,9,30,7,13,3,8,12,17,35,22,21,27,19,24]","main","299","many-guess-6"
"","","","","","html-keyboard-response","97","452429","0.0-10.0-0.39","60ea75cf7853c36527784467","640759fa512f630a2bdc333d","6408c183797f61c183ab9a3e","90930","Wow! You've completed 40 out of 180 trials! </p> <p>  </p><p> Take a quick break, then press any key when you're ready to continue.","f","","","","","","","","","","","","","","","","","","","fixation","",""
"","","","","","color-precision2","98","457710","0.0-10.0-1.39-0.39","60ea75cf7853c36527784467","640759fa512f630a2bdc333d","6408c183797f61c183ab9a3e","[384]","","","[29]","[345]","345","205","209.01785170935202","[209.01785170935202]","[4.017851709352016]","[4]","0","0","1","0","149.70000000001164","1002.9199999999837","1000","[[[""img/mask62.png""]]]","","","main","205","color-precision2"
"","","","","","html-keyboard-response","99","458222","0.0-10.0-0.40","60ea75cf7853c36527784467","640759fa512f630a2bdc333d","6408c183797f61c183ab9a3e","null","","null","","","","","","","","","","","","","","","","","","","fixation","",""
"","","","","","color-precision2","100","462487","0.0-10.0-1.40-0.40","60ea75cf7853c36527784467","640759fa512f630a2bdc333d","6408c183797f61c183ab9a3e","[1240]","","","[3]","[323]","323","64","40.13214895252791","[40.13214895252791]","[336.1321489525279]","[335]","0","0","1","0","149.53999999997905","991.7600000000093","1000","[[[""img/mask9.png""]]]","","","main","64","color-precision2"
"","","","","","html-keyboard-response","101","462987","0.0-10.0-0.41","60ea75cf7853c36527784467","640759fa512f630a2bdc333d","6408c183797f61c183ab9a3e","null","","null","","","","","","","","","","","","","","","","","","","fixation","",""
"","","","","","color-precision2","102","466022","0.0-10.0-1.41-0.41","60ea75cf7853c36527784467","640759fa512f630a2bdc333d","6408c183797f61c183ab9a3e","[605]","","","[3]","[174]","174","332","133.4563173979714","[133.4563173979714]","[161.4563173979714]","[160]","0","0","1","0","148.47999999998137","994.7199999999721","1000","[[[""img/mask50.png""]]]","","","main","332","color-precision2"
"","","","","","html-keyboard-response","103","466525","0.0-10.0-0.42","60ea75cf7853c36527784467","640759fa512f630a2bdc333d","6408c183797f61c183ab9a3e","null","","null","","","","","","","","","","","","","","","","","","","fixation","",""
"","","","","","many-guess-6","104","472160","0.0-10.0-1.42-0.42","60ea75cf7853c36527784467","640759fa512f630a2bdc333d","6408c183797f61c183ab9a3e","[3441]","","","[3,16,29,34,7,26,35,31,17,33,15,20,11,9,27,18,13,5,24,28,22,12,19,14,25,32,8,4,21,1,23,6,10,2,30,0]","[39,318,298,109,199,9,89,189,218,139,308,328,348,258,99,119,149,288,248,29,208,59,278,238,228,79,159,268,49,129,338,179,19,358,69,169]","39","355","323.69455110998274","[323.69455110998274]","[328.69455110998274]","[329]","[30,30,120,120,120,300,30,210,300]","0","36","0","150.28000000002794","16.520000000018626","16","[[[""img/mask77.png""],[""img/mask9.png""],[""img/mask87.png""],[""img/mask24.png""],[""img/mask54.png""],[""img/mask62.png""],[""img/mask85.png""],[""img/mask10.png""],[""img/mask78.png""],[""img/mask9.png""],[""img/mask65.png""],[""img/mask10.png""],[""img/mask9.png""],[""img/mask3.png""],[""img/mask36.png""],[""img/mask84.png""],[""img/mask81.png""],[""img/mask90.png""],[""img/mask90.png""],[""img/mask91.png""],[""img/mask2.png""],[""img/mask81.png""],[""img/mask62.png""],[""img/mask31.png""],[""img/mask30.png""],[""img/mask90.png""],[""img/mask37.png""],[""img/mask62.png""],[""img/mask66.png""],[""img/mask40.png""],[""img/mask27.png""],[""img/mask1.png""],[""img/mask97.png""],[""img/mask1.png""],[""img/mask88.png""],[""img/mask5.png""]]]","","[3,16,29,34,7,26,35,31,17,33,15,20,11,9,27,18,13,5,24,28,22,12,19,14,25,32,8,4,21,1,23,6,10,2,30,0]","main","355","many-guess-6"
"","","","","","html-keyboard-response","105","472674","0.0-10.0-0.43","60ea75cf7853c36527784467","640759fa512f630a2bdc333d","6408c183797f61c183ab9a3e","null","","null","","","","","","","","","","","","","","","","","","","fixation","",""
"","","","","","color-precision2","106","476104","0.0-10.0-1.43-0.43","60ea75cf7853c36527784467","640759fa512f630a2bdc333d","6408c183797f61c183ab9a3e","[745]","","","[1]","[135]","135","213","356.37714296605515","[356.37714296605515]","[143.37714296605515]","[143]","0","0","1","0","148.71999999997206","1002.9400000000023","1000","[[[""img/mask16.png""]]]","","","main","213","color-precision2"
"","","","","","html-keyboard-response","107","476606","0.0-10.0-0.44","60ea75cf7853c36527784467","640759fa512f630a2bdc333d","6408c183797f61c183ab9a3e","null","","null","","","","","","","","","","","","","","","","","","","fixation","",""
"","","","","","color-precision2","108","480256","0.0-10.0-1.44-0.44","60ea75cf7853c36527784467","640759fa512f630a2bdc333d","6408c183797f61c183ab9a3e","[962]","","","[24]","[41]","41","10","44.12104274326133","[44.12104274326133]","[34.12104274326133]","[33]","0","0","1","0","149.11999999999534","1007.359999999986","1000","[[[""img/mask68.png""]]]","","","main","10","color-precision2"
"","","","","","html-keyboard-response","109","480762","0.0-10.0-0.45","60ea75cf7853c36527784467","640759fa512f630a2bdc333d","6408c183797f61c183ab9a3e","null","","null","","","","","","","","","","","","","","","","","","","fixation","",""
"","","","","","many-guess-6","110","485618","0.0-10.0-1.45-0.45","60ea75cf7853c36527784467","640759fa512f630a2bdc333d","6408c183797f61c183ab9a3e","[3120]","","","[27,18,2,33,4,20,23,28,7,25,19,5,30,10,34,15,21,14,6,11,13,0,31,1,24,26,8,35,29,17,16,32,22,9,12,3]","[95,155,354,25,175,195,285,5,145,105,205,85,15,344,65,304,225,45,185,165,235,75,295,255,314,125,55,334,115,324,265,245,35,275,135,215]","95","117","88.05100970220025","[88.05100970220025]","[331.05100970220025]","[329]","[30,300,300,30,210,120,120,120,30]","0","36","0","149.82000000000698","11.039999999979045","16","[[[""img/mask63.png""],[""img/mask77.png""],[""img/mask20.png""],[""img/mask42.png""],[""img/mask42.png""],[""img/mask59.png""],[""img/mask12.png""],[""img/mask75.png""],[""img/mask25.png""],[""img/mask40.png""],[""img/mask84.png""],[""img/mask29.png""],[""img/mask80.png""],[""img/mask97.png""],[""img/mask86.png""],[""img/mask50.png""],[""img/mask27.png""],[""img/mask94.png""],[""img/mask94.png""],[""img/mask1.png""],[""img/mask55.png""],[""img/mask9.png""],[""img/mask4.png""],[""img/mask53.png""],[""img/mask45.png""],[""img/mask29.png""],[""img/mask27.png""],[""img/mask80.png""],[""img/mask50.png""],[""img/mask14.png""],[""img/mask61.png""],[""img/mask100.png""],[""img/mask19.png""],[""img/mask12.png""],[""img/mask43.png""],[""img/mask13.png""]]]","","[27,18,2,33,4,20,23,28,7,25,19,5,30,10,34,15,21,14,6,11,13,0,31,1,24,26,8,35,29,17,16,32,22,9,12,3]","main","117","many-guess-6"
"","","","","","html-keyboard-response","111","486126","0.0-10.0-0.46","60ea75cf7853c36527784467","640759fa512f630a2bdc333d","6408c183797f61c183ab9a3e","null","","null","","","","","","","","","","","","","","","","","","","fixation","",""
"","","","","","color-precision2","112","489513","0.0-10.0-1.46-0.46","60ea75cf7853c36527784467","640759fa512f630a2bdc333d","6408c183797f61c183ab9a3e","[895]","","","[33]","[281]","281","320","244.09615230862585","[244.09615230862585]","[284.09615230862585]","[284]","0","0","1","0","149.11999999999534","1003.359999999986","1000","[[[""img/mask15.png""]]]","","","main","320","color-precision2"
"","","","","","html-keyboard-response","113","490026","0.0-10.0-0.47","60ea75cf7853c36527784467","640759fa512f630a2bdc333d","6408c183797f61c183ab9a3e","null","","null","","","","","","","","","","","","","","","","","","","fixation","",""
"","","","","","color-precision2","114","494234","0.0-10.0-1.47-0.47","60ea75cf7853c36527784467","640759fa512f630a2bdc333d","6408c183797f61c183ab9a3e","[1613]","","","[28]","[18]","18","10","29.009394076231622","[29.009394076231622]","[19.009394076231622]","[18]","0","0","1","0","149.2399999999907","993.460000000021","1000","[[[""img/mask48.png""]]]","","","main","10","color-precision2"
"","","","","","html-keyboard-response","115","494737","0.0-10.0-0.48","60ea75cf7853c36527784467","640759fa512f630a2bdc333d","6408c183797f61c183ab9a3e","null","","null","","","","","","","","","","","","","","","","","","","fixation","",""
"","","","","","color-precision2","116","498434","0.0-10.0-1.48-0.48","60ea75cf7853c36527784467","640759fa512f630a2bdc333d","6408c183797f61c183ab9a3e","[992]","","","[18]","[327]","327","341","286.907390558938","[286.907390558938]","[305.907390558938]","[306]","0","0","1","0","149.71999999997206","995.9400000000023","1000","[[[""img/mask46.png""]]]","","","main","341","color-precision2"
"","","","","","html-keyboard-response","117","498945","0.0-10.0-0.49","60ea75cf7853c36527784467","640759fa512f630a2bdc333d","6408c183797f61c183ab9a3e","null","","null","","","","","","","","","","","","","","","","","","","fixation","",""
"","","","","","color-precision2","118","502187","0.0-10.0-1.49-0.49","60ea75cf7853c36527784467","640759fa512f630a2bdc333d","6408c183797f61c183ab9a3e","[507]","","","[5]","[337]","337","57","38.05045758995362","[38.05045758995362]","[341.0504575899536]","[340]","0","0","1","0","149.46000000002095","999.7000000000116","1000","[[[""img/mask84.png""]]]","","","main","57","color-precision2"
"","","","","","html-keyboard-response","119","502701","0.0-10.0-0.50","60ea75cf7853c36527784467","640759fa512f630a2bdc333d","6408c183797f61c183ab9a3e","null","","null","","","","","","","","","","","","","","","","","","","fixation","",""
"","","","","","many-guess-6","120","506541","0.0-10.0-1.50-0.50","60ea75cf7853c36527784467","640759fa512f630a2bdc333d","6408c183797f61c183ab9a3e","[2126]","","","[32,0,2,12,33,18,3,13,26,31,29,11,15,9,24,8,6,10,21,27,34,35,30,5,14,1,7,28,19,22,16,20,4,17,23,25]","[281,191,1,141,211,171,231,221,310,61,181,131,161,320,91,251,111,11,151,241,330,71,300,41,121,271,261,350,201,31,340,51,81,21,291,101]","281","91","77.82760111473974","[77.82760111473974]","[346.82760111473976]","[345]","[300,30,300,300,210,30,120,300,210]","0","36","0","150.05999999999767","20.28000000002794","16","[[[""img/mask23.png""],[""img/mask38.png""],[""img/mask87.png""],[""img/mask56.png""],[""img/mask60.png""],[""img/mask37.png""],[""img/mask92.png""],[""img/mask76.png""],[""img/mask2.png""],[""img/mask82.png""],[""img/mask47.png""],[""img/mask9.png""],[""img/mask65.png""],[""img/mask16.png""],[""img/mask81.png""],[""img/mask6.png""],[""img/mask76.png""],[""img/mask11.png""],[""img/mask14.png""],[""img/mask100.png""],[""img/mask100.png""],[""img/mask99.png""],[""img/mask53.png""],[""img/mask61.png""],[""img/mask57.png""],[""img/mask81.png""],[""img/mask23.png""],[""img/mask51.png""],[""img/mask47.png""],[""img/mask35.png""],[""img/mask90.png""],[""img/mask92.png""],[""img/mask38.png""],[""img/mask98.png""],[""img/mask91.png""],[""img/mask56.png""]]]","","[32,0,2,12,33,18,3,13,26,31,29,11,15,9,24,8,6,10,21,27,34,35,30,5,14,1,7,28,19,22,16,20,4,17,23,25]","main","91","many-guess-6"
"","","","","","html-keyboard-response","121","507042","0.0-10.0-0.51","60ea75cf7853c36527784467","640759fa512f630a2bdc333d","6408c183797f61c183ab9a3e","null","","null","","","","","","","","","","","","","","","","","","","fixation","",""
"","","","","","color-precision2","122","510292","0.0-10.0-1.51-0.51","60ea75cf7853c36527784467","640759fa512f630a2bdc333d","6408c183797f61c183ab9a3e","[673]","","","[3]","[207]","207","70","270.25726961387426","[270.25726961387426]","[200.25726961387426]","[200]","0","0","1","0","149.04000000003725","1004.2600000000093","1000","[[[""img/mask31.png""]]]","","","main","70","color-precision2"
"","","","","","html-keyboard-response","123","510793","0.0-10.0-0.52","60ea75cf7853c36527784467","640759fa512f630a2bdc333d","6408c183797f61c183ab9a3e","null","","null","","","","","","","","","","","","","","","","","","","fixation","",""
"","","","","","color-precision2","124","516436","0.0-10.0-1.52-0.52","60ea75cf7853c36527784467","640759fa512f630a2bdc333d","6408c183797f61c183ab9a3e","[880]","","","[11]","[37]","37","22","38.98338048986501","[38.98338048986501]","[16.983380489865013]","[15]","0","0","1","0","149","996.2199999999721","1000","[[[""img/mask92.png""]]]","","","main","22","color-precision2"
"","","","","","html-keyboard-response","125","516942","0.0-10.0-0.53","60ea75cf7853c36527784467","640759fa512f630a2bdc333d","6408c183797f61c183ab9a3e","null","","null","","","","","","","","","","","","","","","","","","","fixation","",""
"","","","","","many-guess-6","126","521780","0.0-10.0-1.53-0.53","60ea75cf7853c36527784467","640759fa512f630a2bdc333d","6408c183797f61c183ab9a3e","[2881]","","","[18,33,32,24,35,29,12,10,16,34,14,17,19,20,9,4,5,21,22,13,26,31,6,11,3,2,23,1,7,25,15,27,0,8,30,28]","[196,86,76,96,316,306,116,336,186,236,136,216,7,226,156,356,206,246,57,286,296,126,346,176,17,27,146,326,106,266,276,166,47,37,256,67]","196","49","248.56515393416794","[248.56515393416794]","[199.56515393416794]","[200]","[30,210,120,30,30,210,30,120,120]","0","36","0","149.11999999999534","12.400000000023283","16","[[[""img/mask22.png""],[""img/mask6.png""],[""img/mask73.png""],[""img/mask11.png""],[""img/mask65.png""],[""img/mask45.png""],[""img/mask30.png""],[""img/mask69.png""],[""img/mask35.png""],[""img/mask47.png""],[""img/mask35.png""],[""img/mask60.png""],[""img/mask7.png""],[""img/mask13.png""],[""img/mask25.png""],[""img/mask38.png""],[""img/mask4.png""],[""img/mask32.png""],[""img/mask27.png""],[""img/mask10.png""],[""img/mask24.png""],[""img/mask89.png""],[""img/mask36.png""],[""img/mask60.png""],[""img/mask35.png""],[""img/mask18.png""],[""img/mask21.png""],[""img/mask89.png""],[""img/mask17.png""],[""img/mask68.png""],[""img/mask74.png""],[""img/mask9.png""],[""img/mask99.png""],[""img/mask98.png""],[""img/mask87.png""],[""img/mask6.png""]]]","","[18,33,32,24,35,29,12,10,16,34,14,17,19,20,9,4,5,21,22,13,26,31,6,11,3,2,23,1,7,25,15,27,0,8,30,28]","main","49","many-guess-6"
"","","","","","html-keyboard-response","127","522291","0.0-10.0-0.54","60ea75cf7853c36527784467","640759fa512f630a2bdc333d","6408c183797f61c183ab9a3e","null","","null","","","","","","","","","","","","","","","","","","","fixation","",""
"","","","","","many-guess-6","128","525197","0.0-10.0-1.54-0.54","60ea75cf7853c36527784467","640759fa512f630a2bdc333d","6408c183797f61c183ab9a3e","[1268]","","","[26,4,18,32,30,27,0,17,28,20,2,6,12,21,22,13,25,31,33,7,3,14,29,23,5,34,1,16,10,19,8,24,35,15,11,9]","[212,282,312,202,3,332,123,172,162,262,192,23,152,83,63,272,232,53,222,43,342,33,103,292,93,142,302,133,13,322,352,113,242,73,252,182]","212","302","332.8630710005891","[332.8630710005891]","[30.863071000589116]","[31]","[300,300,300,120,300,300,120,30,120]","0","36","0","149.47999999998137","24.699999999953434","16","[[[""img/mask86.png""],[""img/mask37.png""],[""img/mask26.png""],[""img/mask93.png""],[""img/mask47.png""],[""img/mask69.png""],[""img/mask85.png""],[""img/mask58.png""],[""img/mask47.png""],[""img/mask38.png""],[""img/mask58.png""],[""img/mask3.png""],[""img/mask20.png""],[""img/mask60.png""],[""img/mask40.png""],[""img/mask53.png""],[""img/mask3.png""],[""img/mask27.png""],[""img/mask43.png""],[""img/mask92.png""],[""img/mask1.png""],[""img/mask7.png""],[""img/mask53.png""],[""img/mask94.png""],[""img/mask37.png""],[""img/mask93.png""],[""img/mask85.png""],[""img/mask13.png""],[""img/mask67.png""],[""img/mask76.png""],[""img/mask55.png""],[""img/mask38.png""],[""img/mask87.png""],[""img/mask7.png""],[""img/mask62.png""],[""img/mask95.png""]]]","","[26,4,18,32,30,27,0,17,28,20,2,6,12,21,22,13,25,31,33,7,3,14,29,23,5,34,1,16,10,19,8,24,35,15,11,9]","main","302","many-guess-6"
"","","","","","html-keyboard-response","129","525700","0.0-10.0-0.55","60ea75cf7853c36527784467","640759fa512f630a2bdc333d","6408c183797f61c183ab9a3e","null","","null","","","","","","","","","","","","","","","","","","","fixation","",""
"","","","","","many-guess-6","130","529038","0.0-10.0-1.55-0.55","60ea75cf7853c36527784467","640759fa512f630a2bdc333d","6408c183797f61c183ab9a3e","[1739]","","","[16,9,3,15,1,18,34,30,11,28,12,7,4,32,19,0,26,33,20,10,22,6,5,21,13,31,27,24,17,2,35,14,8,29,25,23]","[241,111,151,81,181,201,261,91,121,211,1,101,271,11,231,191,251,291,281,141,41,71,350,31,340,171,320,51,61,301,131,330,21,221,161,310]","241","118","333.23741965701436","[333.23741965701436]","[215.23741965701436]","[215]","[210,300,30,300,30,210,120,300,300]","0","36","0","149.7399999999907","15.959999999962747","16","[[[""img/mask89.png""],[""img/mask49.png""],[""img/mask83.png""],[""img/mask54.png""],[""img/mask68.png""],[""img/mask17.png""],[""img/mask83.png""],[""img/mask38.png""],[""img/mask58.png""],[""img/mask52.png""],[""img/mask9.png""],[""img/mask49.png""],[""img/mask47.png""],[""img/mask84.png""],[""img/mask12.png""],[""img/mask13.png""],[""img/mask83.png""],[""img/mask90.png""],[""img/mask82.png""],[""img/mask1.png""],[""img/mask39.png""],[""img/mask100.png""],[""img/mask86.png""],[""img/mask25.png""],[""img/mask34.png""],[""img/mask61.png""],[""img/mask57.png""],[""img/mask85.png""],[""img/mask36.png""],[""img/mask22.png""],[""img/mask48.png""],[""img/mask60.png""],[""img/mask27.png""],[""img/mask2.png""],[""img/mask95.png""],[""img/mask30.png""]]]","","[16,9,3,15,1,18,34,30,11,28,12,7,4,32,19,0,26,33,20,10,22,6,5,21,13,31,27,24,17,2,35,14,8,29,25,23]","main","118","many-guess-6"
"","","","","","html-keyboard-response","131","529552","0.0-10.0-0.56","60ea75cf7853c36527784467","640759fa512f630a2bdc333d","6408c183797f61c183ab9a3e","null","","null","","","","","","","","","","","","","","","","","","","fixation","",""
"","","","","","many-guess-6","132","533094","0.0-10.0-1.56-0.56","60ea75cf7853c36527784467","640759fa512f630a2bdc333d","6408c183797f61c183ab9a3e","[2125]","","","[30,3,17,29,33,20,6,1,10,13,27,19,24,35,4,15,32,16,31,14,8,7,9,28,25,26,12,2,21,5,0,11,34,23,18,22]","[106,336,326,156,316,36,226,196,116,236,176,66,86,345,56,6,216,126,276,256,26,355,186,286,76,16,306,46,146,96,246,296,206,166,136,266]","106","82","35.17592259628918","[35.17592259628918]","[313.1759225962892]","[312]","[210,210,120,210,30,30,210,210,300]","0","36","0","150.2600000000093","22.5","16","[[[""img/mask70.png""],[""img/mask21.png""],[""img/mask86.png""],[""img/mask2.png""],[""img/mask22.png""],[""img/mask5.png""],[""img/mask86.png""],[""img/mask77.png""],[""img/mask16.png""],[""img/mask70.png""],[""img/mask28.png""],[""img/mask36.png""],[""img/mask70.png""],[""img/mask25.png""],[""img/mask10.png""],[""img/mask48.png""],[""img/mask66.png""],[""img/mask55.png""],[""img/mask56.png""],[""img/mask65.png""],[""img/mask75.png""],[""img/mask96.png""],[""img/mask44.png""],[""img/mask43.png""],[""img/mask31.png""],[""img/mask43.png""],[""img/mask11.png""],[""img/mask64.png""],[""img/mask54.png""],[""img/mask51.png""],[""img/mask42.png""],[""img/mask64.png""],[""img/mask60.png""],[""img/mask86.png""],[""img/mask78.png""],[""img/mask11.png""]]]","","[30,3,17,29,33,20,6,1,10,13,27,19,24,35,4,15,32,16,31,14,8,7,9,28,25,26,12,2,21,5,0,11,34,23,18,22]","main","82","many-guess-6"
"","","","","","html-keyboard-response","133","533607","0.0-10.0-0.57","60ea75cf7853c36527784467","640759fa512f630a2bdc333d","6408c183797f61c183ab9a3e","null","","null","","","","","","","","","","","","","","","","","","","fixation","",""
"","","","","","color-precision2","134","537511","0.0-10.0-1.57-0.57","60ea75cf7853c36527784467","640759fa512f630a2bdc333d","6408c183797f61c183ab9a3e","[1136]","","","[25]","[79]","79","181","255.9435329864586","[255.9435329864586]","[74.94353298645859]","[75]","0","0","1","0","149.40000000002328","993.6199999999953","1000","[[[""img/mask23.png""]]]","","","main","181","color-precision2"
"","","","","","html-keyboard-response","135","538026","0.0-10.0-0.58","60ea75cf7853c36527784467","640759fa512f630a2bdc333d","6408c183797f61c183ab9a3e","null","","null","","","","","","","","","","","","","","","","","","","fixation","",""
"","","","","","color-precision2","136","541047","0.0-10.0-1.58-0.58","60ea75cf7853c36527784467","640759fa512f630a2bdc333d","6408c183797f61c183ab9a3e","[521]","","","[27]","[134]","134","65","222.95786242789234","[222.95786242789234]","[157.95786242789234]","[158]","0","0","1","0","149.68000000005122","994.9200000000419","1000","[[[""img/mask62.png""]]]","","","main","65","color-precision2"
"","","","","","html-keyboard-response","137","546814","0.0-10.0-0.59","60ea75cf7853c36527784467","640759fa512f630a2bdc333d","6408c183797f61c183ab9a3e","5766","Wow! You've completed 60 out of 180 trials! </p> <p>  </p><p> Take a quick break, then press any key when you're ready to continue.","3","","","","","","","","","","","","","","","","","","","fixation","",""
"","","","","","color-precision2","138","551818","0.0-10.0-1.59-0.59","60ea75cf7853c36527784467","640759fa512f630a2bdc333d","6408c183797f61c183ab9a3e","[1333]","","","[0]","[84]","84","19","105.04195853502749","[105.04195853502749]","[86.04195853502749]","[84]","0","0","1","0","149.56000000005588","997.7800000000279","1000","[[[""img/mask58.png""]]]","","","main","19","color-precision2"
"","","","","","html-keyboard-response","139","552322","0.0-10.0-0.60","60ea75cf7853c36527784467","640759fa512f630a2bdc333d","6408c183797f61c183ab9a3e","null","","null","","","","","","","","","","","","","","","","","","","fixation","",""
"","","","","","color-precision2","140","557698","0.0-10.0-1.60-0.60","60ea75cf7853c36527784467","640759fa512f630a2bdc333d","6408c183797f61c183ab9a3e","[958]","","","[34]","[339]","339","10","348.09203510068915","[348.09203510068915]","[338.09203510068915]","[339]","0","0","1","0","149.45999999996275","1005.6999999999534","1000","[[[""img/mask87.png""]]]","","","main","10","color-precision2"
"","","","","","html-keyboard-response","141","558206","0.0-10.0-0.61","60ea75cf7853c36527784467","640759fa512f630a2bdc333d","6408c183797f61c183ab9a3e","null","","null","","","","","","","","","","","","","","","","","","","fixation","",""
"","","","","","color-precision2","142","561548","0.0-10.0-1.61-0.61","60ea75cf7853c36527784467","640759fa512f630a2bdc333d","6408c183797f61c183ab9a3e","[638]","","","[23]","[231]","231","198","75.78099339937201","[75.78099339937201]","[237.780993399372]","[236]","0","0","1","0","149.2600000000093","998.5","1000","[[[""img/mask75.png""]]]","","","main","198","color-precision2"
"","","","","","html-keyboard-response","143","562061","0.0-10.0-0.62","60ea75cf7853c36527784467","640759fa512f630a2bdc333d","6408c183797f61c183ab9a3e","null","","null","","","","","","","","","","","","","","","","","","","fixation","",""
"","","","","","color-precision2","144","566739","0.0-10.0-1.62-0.62","60ea75cf7853c36527784467","640759fa512f630a2bdc333d","6408c183797f61c183ab9a3e","[525]","","","[32]","[162]","162","255","56.597240941466175","[56.597240941466175]","[161.59724094146617]","[160]","0","0","1","0","149.38000000000466","1003.5999999999767","1000","[[[""img/mask76.png""]]]","","","main","255","color-precision2"
"","","","","","html-keyboard-response","145","567251","0.0-10.0-0.63","60ea75cf7853c36527784467","640759fa512f630a2bdc333d","6408c183797f61c183ab9a3e","null","","null","","","","","","","","","","","","","","","","","","","fixation","",""
"","","","","","many-guess-6","146","572532","0.0-10.0-1.63-0.63","60ea75cf7853c36527784467","640759fa512f630a2bdc333d","6408c183797f61c183ab9a3e","[2314]","","","[19,2,35,1,6,5,22,4,9,15,29,0,30,17,24,26,14,8,16,23,13,10,7,11,21,18,3,33,27,20,31,32,25,12,34,28]","[155,275,86,96,175,165,355,26,215,235,106,56,126,305,6,265,345,295,136,46,335,116,16,36,195,255,315,325,245,205,76,225,185,66,145,285]","155","156","19.68936908805742","[19.68936908805742]","[223.68936908805742]","[223]","[30,30,300,210,30,30,30,30,120]","0","36","0","149.88000000000466","13.099999999976717","16","[[[""img/mask52.png""],[""img/mask8.png""],[""img/mask80.png""],[""img/mask76.png""],[""img/mask70.png""],[""img/mask29.png""],[""img/mask27.png""],[""img/mask100.png""],[""img/mask52.png""],[""img/mask82.png""],[""img/mask42.png""],[""img/mask70.png""],[""img/mask16.png""],[""img/mask12.png""],[""img/mask65.png""],[""img/mask68.png""],[""img/mask69.png""],[""img/mask76.png""],[""img/mask58.png""],[""img/mask33.png""],[""img/mask95.png""],[""img/mask88.png""],[""img/mask88.png""],[""img/mask75.png""],[""img/mask96.png""],[""img/mask36.png""],[""img/mask50.png""],[""img/mask11.png""],[""img/mask79.png""],[""img/mask82.png""],[""img/mask88.png""],[""img/mask70.png""],[""img/mask93.png""],[""img/mask58.png""],[""img/mask10.png""],[""img/mask37.png""]]]","","[19,2,35,1,6,5,22,4,9,15,29,0,30,17,24,26,14,8,16,23,13,10,7,11,21,18,3,33,27,20,31,32,25,12,34,28]","main","156","many-guess-6"
"","","","","","html-keyboard-response","147","573042","0.0-10.0-0.64","60ea75cf7853c36527784467","640759fa512f630a2bdc333d","6408c183797f61c183ab9a3e","null","","null","","","","","","","","","","","","","","","","","","","fixation","",""
"","","","","","color-precision2","148","576204","0.0-10.0-1.64-0.64","60ea75cf7853c36527784467","640759fa512f630a2bdc333d","6408c183797f61c183ab9a3e","[533]","","","[22]","[321]","321","221","182.1912840133999","[182.1912840133999]","[321.1912840133999]","[321]","0","0","1","0","149","997.2199999999721","1000","[[[""img/mask92.png""]]]","","","main","221","color-precision2"
"","","","","","html-keyboard-response","149","576710","0.0-10.0-0.65","60ea75cf7853c36527784467","640759fa512f630a2bdc333d","6408c183797f61c183ab9a3e","null","","null","","","","","","","","","","","","","","","","","","","fixation","",""
"","","","","","many-guess-6","150","580604","0.0-10.0-1.65-0.65","60ea75cf7853c36527784467","640759fa512f630a2bdc333d","6408c183797f61c183ab9a3e","[1531]","","","[20,31,35,24,29,15,14,8,28,11,32,16,22,19,17,34,30,27,6,5,25,0,18,3,21,13,12,23,9,26,4,7,1,33,10,2]","[209,79,309,349,129,149,10,89,99,40,109,70,139,219,259,329,50,169,239,30,20,279,60,269,119,229,179,189,339,319,199,249,299,289,359,159]","209","175","152.16873335065182","[152.16873335065182]","[337.1687333506518]","[336]","[30,120,300,210,30,30,210,120,30]","0","36","0","149.64000000001397","15.85999999998603","16","[[[""img/mask48.png""],[""img/mask4.png""],[""img/mask32.png""],[""img/mask38.png""],[""img/mask60.png""],[""img/mask19.png""],[""img/mask71.png""],[""img/mask68.png""],[""img/mask97.png""],[""img/mask31.png""],[""img/mask22.png""],[""img/mask21.png""],[""img/mask15.png""],[""img/mask30.png""],[""img/mask22.png""],[""img/mask8.png""],[""img/mask5.png""],[""img/mask24.png""],[""img/mask24.png""],[""img/mask89.png""],[""img/mask71.png""],[""img/mask45.png""],[""img/mask12.png""],[""img/mask14.png""],[""img/mask11.png""],[""img/mask79.png""],[""img/mask93.png""],[""img/mask37.png""],[""img/mask46.png""],[""img/mask9.png""],[""img/mask46.png""],[""img/mask97.png""],[""img/mask55.png""],[""img/mask41.png""],[""img/mask17.png""],[""img/mask71.png""]]]","","[20,31,35,24,29,15,14,8,28,11,32,16,22,19,17,34,30,27,6,5,25,0,18,3,21,13,12,23,9,26,4,7,1,33,10,2]","main","175","many-guess-6"
"","","","","","html-keyboard-response","151","581115","0.0-10.0-0.66","60ea75cf7853c36527784467","640759fa512f630a2bdc333d","6408c183797f61c183ab9a3e","null","","null","","","","","","","","","","","","","","","","","","","fixation","",""
"","","","","","color-precision2","152","583933","0.0-10.0-1.66-0.66","60ea75cf7853c36527784467","640759fa512f630a2bdc333d","6408c183797f61c183ab9a3e","[539]","","","[30]","[37]","37","200","228.20225616944174","[228.20225616944174]","[28.20225616944174]","[28]","0","0","1","0","148.7600000000093","998.9799999999814","1000","[[[""img/mask20.png""]]]","","","main","200","color-precision2"
"","","","","","html-keyboard-response","153","584441","0.0-10.0-0.67","60ea75cf7853c36527784467","640759fa512f630a2bdc333d","6408c183797f61c183ab9a3e","null","","null","","","","","","","","","","","","","","","","","","","fixation","",""
"","","","","","color-precision2","154","588862","0.0-10.0-1.67-0.67","60ea75cf7853c36527784467","640759fa512f630a2bdc333d","6408c183797f61c183ab9a3e","[1732]","","","[28]","[245]","245","186","61.05962779452314","[61.05962779452314]","[235.05962779452312]","[233]","0","0","1","0","149.90000000002328","996.140000000014","1000","[[[""img/mask88.png""]]]","","","main","186","color-precision2"
"","","","","","html-keyboard-response","155","589364","0.0-10.0-0.68","60ea75cf7853c36527784467","640759fa512f630a2bdc333d","6408c183797f61c183ab9a3e","null","","null","","","","","","","","","","","","","","","","","","","fixation","",""
"","","","","","many-guess-6","156","593159","0.0-10.0-1.68-0.68","60ea75cf7853c36527784467","640759fa512f630a2bdc333d","6408c183797f61c183ab9a3e","[1574]","","","[1,5,7,0,21,25,20,13,10,33,31,27,9,11,8,14,6,24,3,19,23,4,2,29,28,22,12,26,16,18,30,35,17,32,15,34]","[152,13,352,212,192,33,222,23,3,342,252,172,282,53,182,202,123,83,292,113,162,142,232,43,93,322,133,103,272,262,242,63,332,73,302,312]","152","336","231.36682743828428","[231.36682743828428]","[255.36682743828428]","[255]","[30,210,30,30,120,300,30,120,30]","0","36","0","149.61999999999534","14.839999999967404","16","[[[""img/mask94.png""],[""img/mask98.png""],[""img/mask35.png""],[""img/mask20.png""],[""img/mask6.png""],[""img/mask62.png""],[""img/mask7.png""],[""img/mask83.png""],[""img/mask51.png""],[""img/mask80.png""],[""img/mask83.png""],[""img/mask79.png""],[""img/mask73.png""],[""img/mask59.png""],[""img/mask92.png""],[""img/mask88.png""],[""img/mask93.png""],[""img/mask30.png""],[""img/mask11.png""],[""img/mask69.png""],[""img/mask12.png""],[""img/mask48.png""],[""img/mask60.png""],[""img/mask46.png""],[""img/mask25.png""],[""img/mask18.png""],[""img/mask11.png""],[""img/mask70.png""],[""img/mask69.png""],[""img/mask52.png""],[""img/mask22.png""],[""img/mask95.png""],[""img/mask83.png""],[""img/mask36.png""],[""img/mask62.png""],[""img/mask51.png""]]]","","[1,5,7,0,21,25,20,13,10,33,31,27,9,11,8,14,6,24,3,19,23,4,2,29,28,22,12,26,16,18,30,35,17,32,15,34]","main","336","many-guess-6"
"","","","","","html-keyboard-response","157","593672","0.0-10.0-0.69","60ea75cf7853c36527784467","640759fa512f630a2bdc333d","6408c183797f61c183ab9a3e","null","","null","","","","","","","","","","","","","","","","","","","fixation","",""
"","","","","","color-precision2","158","597959","0.0-10.0-1.69-0.69","60ea75cf7853c36527784467","640759fa512f630a2bdc333d","6408c183797f61c183ab9a3e","[1438]","","","[9]","[155]","155","109","254.22534492038588","[254.22534492038588]","[145.22534492038588]","[145]","0","0","1","0","149.78000000002794","999","1000","[[[""img/mask98.png""]]]","","","main","109","color-precision2"
"","","","","","html-keyboard-response","159","598461","0.0-10.0-0.70","60ea75cf7853c36527784467","640759fa512f630a2bdc333d","6408c183797f61c183ab9a3e","null","","null","","","","","","","","","","","","","","","","","","","fixation","",""
"","","","","","many-guess-6","160","602064","0.0-10.0-1.70-0.70","60ea75cf7853c36527784467","640759fa512f630a2bdc333d","6408c183797f61c183ab9a3e","[2306]","","","[4,16,12,22,13,24,30,28,8,32,33,19,34,6,3,18,10,21,25,27,15,2,23,14,9,1,7,11,0,26,31,29,35,5,20,17]","[345,75,36,225,235,255,275,185,16,295,315,145,305,205,215,165,115,265,325,6,26,105,65,135,125,285,355,95,245,46,175,335,85,195,155,55]","345","280","75.16187351228005","[75.16187351228005]","[155.16187351228007]","[153]","[120,210,30,210,120,30,300,300,210]","0","36","0","145.8399999999674","27.07999999995809","16","[[[""img/mask87.png""],[""img/mask9.png""],[""img/mask95.png""],[""img/mask39.png""],[""img/mask21.png""],[""img/mask10.png""],[""img/mask28.png""],[""img/mask73.png""],[""img/mask12.png""],[""img/mask26.png""],[""img/mask12.png""],[""img/mask66.png""],[""img/mask54.png""],[""img/mask58.png""],[""img/mask13.png""],[""img/mask72.png""],[""img/mask51.png""],[""img/mask60.png""],[""img/mask44.png""],[""img/mask51.png""],[""img/mask98.png""],[""img/mask75.png""],[""img/mask86.png""],[""img/mask74.png""],[""img/mask72.png""],[""img/mask2.png""],[""img/mask22.png""],[""img/mask84.png""],[""img/mask66.png""],[""img/mask56.png""],[""img/mask19.png""],[""img/mask59.png""],[""img/mask62.png""],[""img/mask96.png""],[""img/mask73.png""],[""img/mask10.png""]]]","","[4,16,12,22,13,24,30,28,8,32,33,19,34,6,3,18,10,21,25,27,15,2,23,14,9,1,7,11,0,26,31,29,35,5,20,17]","main","280","many-guess-6"
"","","","","","html-keyboard-response","161","602568","0.0-10.0-0.71","60ea75cf7853c36527784467","640759fa512f630a2bdc333d","6408c183797f61c183ab9a3e","null","","null","","","","","","","","","","","","","","","","","","","fixation","",""
"","","","","","color-precision2","162","606304","0.0-10.0-1.71-0.71","60ea75cf7853c36527784467","640759fa512f630a2bdc333d","6408c183797f61c183ab9a3e","[841]","","","[10]","[225]","225","200","77.91598028212326","[77.91598028212326]","[237.91598028212326]","[236]","0","0","1","0","149.14000000001397","1001.3800000000047","1000","[[[""img/mask13.png""]]]","","","main","200","color-precision2"
"","","","","","html-keyboard-response","163","606810","0.0-10.0-0.72","60ea75cf7853c36527784467","640759fa512f630a2bdc333d","6408c183797f61c183ab9a3e","null","","null","","","","","","","","","","","","","","","","","","","fixation","",""
"","","","","","many-guess-6","164","609616","0.0-10.0-1.72-0.72","60ea75cf7853c36527784467","640759fa512f630a2bdc333d","6408c183797f61c183ab9a3e","[1202]","","","[1,8,20,14,23,27,32,30,0,29,7,10,12,24,26,4,35,9,13,22,18,33,2,6,19,3,17,21,16,5,25,11,28,34,15,31]","[226,106,166,116,17,356,296,186,236,246,256,346,7,276,36,286,196,126,266,156,306,136,146,336,56,216,326,96,66,176,26,316,86,206,46,76]","226","150","324.54973865693484","[324.54973865693484]","[174.54973865693484]","[174]","[120,120,210,210,300,120,210,30,300]","0","36","0","149.56000000005588","19.800000000046566","16","[[[""img/mask81.png""],[""img/mask9.png""],[""img/mask62.png""],[""img/mask5.png""],[""img/mask94.png""],[""img/mask82.png""],[""img/mask97.png""],[""img/mask9.png""],[""img/mask75.png""],[""img/mask77.png""],[""img/mask32.png""],[""img/mask47.png""],[""img/mask11.png""],[""img/mask46.png""],[""img/mask52.png""],[""img/mask1.png""],[""img/mask18.png""],[""img/mask26.png""],[""img/mask9.png""],[""img/mask28.png""],[""img/mask65.png""],[""img/mask42.png""],[""img/mask85.png""],[""img/mask45.png""],[""img/mask88.png""],[""img/mask92.png""],[""img/mask96.png""],[""img/mask45.png""],[""img/mask13.png""],[""img/mask79.png""],[""img/mask49.png""],[""img/mask99.png""],[""img/mask56.png""],[""img/mask77.png""],[""img/mask7.png""],[""img/mask12.png""]]]","","[1,8,20,14,23,27,32,30,0,29,7,10,12,24,26,4,35,9,13,22,18,33,2,6,19,3,17,21,16,5,25,11,28,34,15,31]","main","150","many-guess-6"
"","","","","","html-keyboard-response","165","610126","0.0-10.0-0.73","60ea75cf7853c36527784467","640759fa512f630a2bdc333d","6408c183797f61c183ab9a3e","null","","null","","","","","","","","","","","","","","","","","","","fixation","",""
"","","","","","many-guess-6","166","614169","0.0-10.0-1.73-0.73","60ea75cf7853c36527784467","640759fa512f630a2bdc333d","6408c183797f61c183ab9a3e","[2052]","","","[1,21,6,2,34,20,7,18,28,27,19,16,8,26,25,0,35,13,29,15,33,30,11,9,5,24,17,14,23,22,32,12,10,4,3,31]","[313,114,24,74,194,34,323,14,54,273,64,154,184,174,243,134,124,44,343,353,223,283,164,233,84,303,104,213,203,94,144,263,4,293,333,253]","313","130","32.83240631013593","[32.83240631013593]","[262.8324063101359]","[261]","[300,210,300,120,30,120,210,300,120]","0","36","0","150.52000000001863","26.739999999990687","16","[[[""img/mask74.png""],[""img/mask64.png""],[""img/mask99.png""],[""img/mask15.png""],[""img/mask16.png""],[""img/mask56.png""],[""img/mask13.png""],[""img/mask74.png""],[""img/mask9.png""],[""img/mask73.png""],[""img/mask97.png""],[""img/mask60.png""],[""img/mask93.png""],[""img/mask85.png""],[""img/mask6.png""],[""img/mask37.png""],[""img/mask90.png""],[""img/mask33.png""],[""img/mask70.png""],[""img/mask54.png""],[""img/mask99.png""],[""img/mask42.png""],[""img/mask38.png""],[""img/mask16.png""],[""img/mask47.png""],[""img/mask26.png""],[""img/mask68.png""],[""img/mask64.png""],[""img/mask67.png""],[""img/mask69.png""],[""img/mask23.png""],[""img/mask75.png""],[""img/mask53.png""],[""img/mask8.png""],[""img/mask28.png""],[""img/mask36.png""]]]","","[1,21,6,2,34,20,7,18,28,27,19,16,8,26,25,0,35,13,29,15,33,30,11,9,5,24,17,14,23,22,32,12,10,4,3,31]","main","130","many-guess-6"
"","","","","","html-keyboard-response","167","614681","0.0-10.0-0.74","60ea75cf7853c36527784467","640759fa512f630a2bdc333d","6408c183797f61c183ab9a3e","null","","null","","","","","","","","","","","","","","","","","","","fixation","",""
"","","","","","many-guess-6","168","618443","0.0-10.0-1.74-0.74","60ea75cf7853c36527784467","640759fa512f630a2bdc333d","6408c183797f61c183ab9a3e","[1789]","","","[35,16,6,27,33,7,3,21,11,14,31,18,26,9,1,10,4,24,19,0,13,25,30,28,20,2,8,29,34,12,5,15,23,17,32,22]","[197,137,87,167,287,337,327,207,237,217,297,257,77,27,67,107,307,47,17,227,357,127,267,147,97,117,187,247,317,347,157,57,37,177,8,277]","197","11","152.7059496660818","[152.7059496660818]","[141.7059496660818]","[140]","[300,120,30,210,120,30,120,120,210]","0","36","0","150.38000000000466","17.599999999976717","16","[[[""img/mask38.png""],[""img/mask91.png""],[""img/mask6.png""],[""img/mask37.png""],[""img/mask42.png""],[""img/mask55.png""],[""img/mask9.png""],[""img/mask92.png""],[""img/mask46.png""],[""img/mask85.png""],[""img/mask51.png""],[""img/mask46.png""],[""img/mask99.png""],[""img/mask49.png""],[""img/mask67.png""],[""img/mask100.png""],[""img/mask71.png""],[""img/mask85.png""],[""img/mask6.png""],[""img/mask48.png""],[""img/mask7.png""],[""img/mask70.png""],[""img/mask46.png""],[""img/mask79.png""],[""img/mask78.png""],[""img/mask70.png""],[""img/mask87.png""],[""img/mask66.png""],[""img/mask95.png""],[""img/mask69.png""],[""img/mask73.png""],[""img/mask75.png""],[""img/mask30.png""],[""img/mask76.png""],[""img/mask5.png""],[""img/mask68.png""]]]","","[35,16,6,27,33,7,3,21,11,14,31,18,26,9,1,10,4,24,19,0,13,25,30,28,20,2,8,29,34,12,5,15,23,17,32,22]","main","11","many-guess-6"
"","","","","","html-keyboard-response","169","618953","0.0-10.0-0.75","60ea75cf7853c36527784467","640759fa512f630a2bdc333d","6408c183797f61c183ab9a3e","null","","null","","","","","","","","","","","","","","","","","","","fixation","",""
"","","","","","color-precision2","170","623994","0.0-10.0-1.75-0.75","60ea75cf7853c36527784467","640759fa512f630a2bdc333d","6408c183797f61c183ab9a3e","[2218]","","","[0]","[228]","228","277","149.02330762469563","[149.02330762469563]","[232.02330762469563]","[231]","0","0","1","0","149.02000000001863","1005.2600000000093","1000","[[[""img/mask52.png""]]]","","","main","277","color-precision2"
"","","","","","html-keyboard-response","171","624506","0.0-10.0-0.76","60ea75cf7853c36527784467","640759fa512f630a2bdc333d","6408c183797f61c183ab9a3e","null","","null","","","","","","","","","","","","","","","","","","","fixation","",""
"","","","","","many-guess-6","172","627331","0.0-10.0-1.76-0.76","60ea75cf7853c36527784467","640759fa512f630a2bdc333d","6408c183797f61c183ab9a3e","[1302]","","","[33,32,27,28,11,2,16,5,10,30,20,9,8,25,12,21,23,1,3,18,34,15,0,13,19,24,17,31,26,22,29,14,7,35,4,6]","[304,314,175,125,35,155,344,264,244,284,25,15,145,5,324,354,135,105,45,85,55,205,185,215,254,95,195,274,165,334,225,115,234,294,65,75]","304","55","29.96853060649156","[29.96853060649156]","[334.9685306064916]","[334]","[30,210,30,120,120,30,120,210,300]","0","36","0","149.43999999994412","15.660000000032596","16","[[[""img/mask75.png""],[""img/mask52.png""],[""img/mask57.png""],[""img/mask3.png""],[""img/mask12.png""],[""img/mask93.png""],[""img/mask1.png""],[""img/mask7.png""],[""img/mask11.png""],[""img/mask31.png""],[""img/mask20.png""],[""img/mask54.png""],[""img/mask13.png""],[""img/mask27.png""],[""img/mask88.png""],[""img/mask17.png""],[""img/mask4.png""],[""img/mask51.png""],[""img/mask47.png""],[""img/mask12.png""],[""img/mask27.png""],[""img/mask67.png""],[""img/mask91.png""],[""img/mask39.png""],[""img/mask85.png""],[""img/mask38.png""],[""img/mask33.png""],[""img/mask17.png""],[""img/mask42.png""],[""img/mask63.png""],[""img/mask74.png""],[""img/mask6.png""],[""img/mask3.png""],[""img/mask41.png""],[""img/mask35.png""],[""img/mask65.png""]]]","","[33,32,27,28,11,2,16,5,10,30,20,9,8,25,12,21,23,1,3,18,34,15,0,13,19,24,17,31,26,22,29,14,7,35,4,6]","main","55","many-guess-6"
"","","","","","html-keyboard-response","173","627839","0.0-10.0-0.77","60ea75cf7853c36527784467","640759fa512f630a2bdc333d","6408c183797f61c183ab9a3e","null","","null","","","","","","","","","","","","","","","","","","","fixation","",""
"","","","","","color-precision2","174","631828","0.0-10.0-1.77-0.77","60ea75cf7853c36527784467","640759fa512f630a2bdc333d","6408c183797f61c183ab9a3e","[1446]","","","[10]","[287]","287","52","340.0457363932774","[340.0457363932774]","[288.0457363932774]","[288]","0","0","1","0","149.69999999995343","1005.9200000000419","1000","[[[""img/mask99.png""]]]","","","main","52","color-precision2"
"","","","","","html-keyboard-response","175","632335","0.0-10.0-0.78","60ea75cf7853c36527784467","640759fa512f630a2bdc333d","6408c183797f61c183ab9a3e","null","","null","","","","","","","","","","","","","","","","","","","fixation","",""
"","","","","","many-guess-6","176","636332","0.0-10.0-1.78-0.78","60ea75cf7853c36527784467","640759fa512f630a2bdc333d","6408c183797f61c183ab9a3e","[2447]","","","[7,2,8,28,11,25,9,20,1,6,27,19,16,35,5,3,30,23,21,29,10,24,14,4,32,0,15,17,12,18,33,13,22,26,34,31]","[93,262,162,133,73,272,292,302,192,232,172,123,312,222,202,342,182,113,143,212,53,33,352,3,322,13,43,252,152,63,332,242,282,23,103,83]","93","304","301.926545061458","[301.926545061458]","[357.926545061458]","[358]","[210,120,210,120,210,120,30,120,30]","0","36","0","150.71999999997206","12.979999999981374","16","[[[""img/mask27.png""],[""img/mask20.png""],[""img/mask32.png""],[""img/mask61.png""],[""img/mask12.png""],[""img/mask33.png""],[""img/mask65.png""],[""img/mask58.png""],[""img/mask10.png""],[""img/mask90.png""],[""img/mask89.png""],[""img/mask37.png""],[""img/mask71.png""],[""img/mask3.png""],[""img/mask8.png""],[""img/mask88.png""],[""img/mask17.png""],[""img/mask44.png""],[""img/mask41.png""],[""img/mask17.png""],[""img/mask84.png""],[""img/mask56.png""],[""img/mask83.png""],[""img/mask36.png""],[""img/mask80.png""],[""img/mask36.png""],[""img/mask56.png""],[""img/mask75.png""],[""img/mask36.png""],[""img/mask77.png""],[""img/mask46.png""],[""img/mask34.png""],[""img/mask73.png""],[""img/mask23.png""],[""img/mask92.png""],[""img/mask1.png""]]]","","[7,2,8,28,11,25,9,20,1,6,27,19,16,35,5,3,30,23,21,29,10,24,14,4,32,0,15,17,12,18,33,13,22,26,34,31]","main","304","many-guess-6"
"","","","","","html-keyboard-response","177","640061","0.0-10.0-0.79","60ea75cf7853c36527784467","640759fa512f630a2bdc333d","6408c183797f61c183ab9a3e","3729","Wow! You've completed 80 out of 180 trials! </p> <p>  </p><p> Take a quick break, then press any key when you're ready to continue.","f","","","","","","","","","","","","","","","","","","","fixation","",""
"","","","","","many-guess-6","178","646734","0.0-10.0-1.79-0.79","60ea75cf7853c36527784467","640759fa512f630a2bdc333d","6408c183797f61c183ab9a3e","[2007]","","","[16,18,3,12,6,5,1,13,10,24,9,23,17,28,11,27,26,8,19,15,21,29,31,2,30,22,25,32,7,34,0,14,33,35,4,20]","[314,34,64,214,24,14,224,353,94,333,184,194,4,44,154,284,254,54,104,74,323,274,134,234,304,204,244,343,144,174,164,124,264,84,114,294]","314","60","354.7263217665486","[354.7263217665486]","[294.7263217665486]","[294]","[30,300,300,210,30,120,300,120,210]","0","36","0","150.54000000003725","25.760000000009313","16","[[[""img/mask5.png""],[""img/mask69.png""],[""img/mask28.png""],[""img/mask39.png""],[""img/mask51.png""],[""img/mask53.png""],[""img/mask32.png""],[""img/mask30.png""],[""img/mask9.png""],[""img/mask71.png""],[""img/mask95.png""],[""img/mask86.png""],[""img/mask52.png""],[""img/mask83.png""],[""img/mask63.png""],[""img/mask17.png""],[""img/mask12.png""],[""img/mask51.png""],[""img/mask91.png""],[""img/mask52.png""],[""img/mask38.png""],[""img/mask15.png""],[""img/mask54.png""],[""img/mask31.png""],[""img/mask37.png""],[""img/mask32.png""],[""img/mask70.png""],[""img/mask60.png""],[""img/mask38.png""],[""img/mask82.png""],[""img/mask99.png""],[""img/mask52.png""],[""img/mask54.png""],[""img/mask39.png""],[""img/mask73.png""],[""img/mask7.png""]]]","","[16,18,3,12,6,5,1,13,10,24,9,23,17,28,11,27,26,8,19,15,21,29,31,2,30,22,25,32,7,34,0,14,33,35,4,20]","main","60","many-guess-6"
"","","","","","html-keyboard-response","179","647240","0.0-10.0-0.80","60ea75cf7853c36527784467","640759fa512f630a2bdc333d","6408c183797f61c183ab9a3e","null","","null","","","","","","","","","","","","","","","","","","","fixation","",""
