"success","timeout","failed_images","failed_audio","failed_video","trial_type","trial_index","time_elapsed","internal_node_id","subject_id","study_id","session_id","rt","stimulus","response","position_of_items","colors_of_items","color_of_target","wheel_spin","response_angle","physical_response_angle","reported_color_angle","reported_color_discrete","locs","which_test","set_size","wheel_num_options","actual_mask_duration","actual_stim_duration","CMDispTime","maskArray","maskRotation","item_positions","task","randomSpinAmount","mainTask"
"true","false","[]","[]","[]","preload","0","11867","0.0-0.0","616cf9ae07c1c6bd05d95beb","640759fa512f630a2bdc333d","6408c17f2326cb64f0150108","","","","","","","","","","","","","","","","","","","","","","","",""
"true","","","","","fullscreen","1","20470","0.0-1.0","616cf9ae07c1c6bd05d95beb","640759fa512f630a2bdc333d","6408c17f2326cb64f0150108","","","","","","","","","","","","","","","","","","","","","","","",""
"","","","","","html-keyboard-response","2","31365","0.0-2.0","616cf9ae07c1c6bd05d95beb","640759fa512f630a2bdc333d","6408c17f2326cb64f0150108","10892.799999982119","What a beautiful Wednesday to do some awesome science! </p> <p>  </p><p> </p>
    By completing this survey or questionnaire, you are consenting to be in this research study. </p>
    Your participation is voluntary and you can stop at any time.<p> [Press any key to continue] </p>"," ","","","","","","","","","","","","","","","","","","","","",""
"","","","","","html-keyboard-response","3","41371","0.0-3.0","616cf9ae07c1c6bd05d95beb","640759fa512f630a2bdc333d","6408c17f2326cb64f0150108","null","
    <div style='width: 1000px;'>
    <div style='float: center;'><img src='img/TaskInstructions1.png'></img>
    </div>
    ","null","","","","","","","","","","","","","","","","","","","","",""
"","","","","","html-keyboard-response","4","52738","0.0-4.0","616cf9ae07c1c6bd05d95beb","640759fa512f630a2bdc333d","6408c17f2326cb64f0150108","11365.799999982119","
    <div style='width: 1000px;'>
    <div style='float: center;'><img src='img/TaskInstructions1.png'></img>
    </div>
    "," ","","","","","","","","","","","","","","","","","","","","",""
"","","","","","html-keyboard-response","5","62749","0.0-5.0","616cf9ae07c1c6bd05d95beb","640759fa512f630a2bdc333d","6408c17f2326cb64f0150108","null","
    <div style='width: 1000px;'>
    <div style='float: center;'><img src='img/TaskInstructions2.png'></img>
    </div>
    ","null","","","","","","","","","","","","","","","","","","","","",""
"","","","","","html-keyboard-response","6","83334","0.0-6.0","616cf9ae07c1c6bd05d95beb","640759fa512f630a2bdc333d","6408c17f2326cb64f0150108","20583.70000001788","
    <div style='width: 1000px;'>
    <div style='float: center;'><img src='img/TaskInstructions2.png'></img>
    </div>
    "," ","","","","","","","","","","","","","","","","","","","","",""
"","","","","","video-keyboard-response","7","104514","0.0-7.0","616cf9ae07c1c6bd05d95beb","640759fa512f630a2bdc333d","6408c17f2326cb64f0150108","21160.59999999404","[""video/TaskInstructions3.mp4""]"," ","","","","","","","","","","","","","","","","","","","","",""
"","","","","","image-keyboard-response","8","144849","0.0-8.0-0.0","616cf9ae07c1c6bd05d95beb","640759fa512f630a2bdc333d","6408c17f2326cb64f0150108","40332.29999998212","img/training1.png","n","","","","","","","","","","","","","","","","","","","","",""
"","","","","","color-precision2","9","177527","0.0-8.0-1.0-0.0","616cf9ae07c1c6bd05d95beb","640759fa512f630a2bdc333d","6408c17f2326cb64f0150108","[22524.80000001192]","","","[7]","[356]","356","183","159.12789587707383","[159.12789587707383]","[336.1278958770738]","[335]","0","0","1","0","499.10800000000745","999.7669999880891","1000","","","0","training","",""
"","","","","","image-keyboard-response","10","191712","0.0-8.0-0.1","616cf9ae07c1c6bd05d95beb","640759fa512f630a2bdc333d","6408c17f2326cb64f0150108","14183.199999988079","img/training2.png"," ","","","","","","","","","","","","","","","","","","","","",""
"","","","","","many-guess-6","11","203115","0.0-8.0-1.1-0.1","616cf9ae07c1c6bd05d95beb","640759fa512f630a2bdc333d","6408c17f2326cb64f0150108","[5667]","","","[31,35,8]","[19,292,36]","19","221","237.9337847082182","[237.9337847082182]","[16.933784708218212]","[19]","[120,30,210,300,300,120,300,30,300,30,30,300,210,300,300,210,300,30,210,210,300,210,300,210,30,120,210,30,120,30,300,210,30,210,300,300]","0","3","0","1000.2479999761563","995.9770000000135","1000","[[[""img/mask22.png""],[""img/mask30.png""],[""img/mask77.png""]]]","","[31,35,8]","training","",""
"","","","","","image-keyboard-response","12","210484","0.0-8.0-0.2","616cf9ae07c1c6bd05d95beb","640759fa512f630a2bdc333d","6408c17f2326cb64f0150108","7367.199999988079","img/training3.png"," ","","","","","","","","","","","","","","","","","","","","",""
"","","","","","[""many-guess-6""]","13","219135","0.0-8.0-1.2-0.2","616cf9ae07c1c6bd05d95beb","640759fa512f630a2bdc333d","6408c17f2326cb64f0150108","[4807]","","","[8,0,25,3,15]","[31,152,17,95,112]","31","47","40.767350177519425","[40.767350177519425]","[353.7673501775194]","[352]","[30,120,30,120,30,210,30,30,120,120,120,210,120,300,120,300,210,300,210,210,120,30,120,210,120,30,300,300,210,210,120,300,210,120,210,30]","0","5","0","498.9919999940321","503.1509999821137","500","[[[""img/mask55.png""],[""img/mask62.png""],[""img/mask51.png""],[""img/mask3.png""],[""img/mask77.png""]]]","","[8,0,25,3,15]","training","",""
"","","","","","image-keyboard-response","14","224363","0.0-8.0-0.3","616cf9ae07c1c6bd05d95beb","640759fa512f630a2bdc333d","6408c17f2326cb64f0150108","5226.799999982119","img/training4.png","o","","","","","","","","","","","","","","","","","","","","",""
"","","","","","[""many-guess-6""]","15","234509","0.0-8.0-1.3-0.3","616cf9ae07c1c6bd05d95beb","640759fa512f630a2bdc333d","6408c17f2326cb64f0150108","[6693.5999999940395]","","","[34,0,11,33,12,6,13,32,4,31]","[167,276,190,336,151,247,310,219,131,9]","167","184","341.58112410020465","[341.58112410020465]","[157.58112410020465]","[157]","[210,30,30,120,30,300,120,30,300,300,210,120,120,210,300,30,120,300,300,210,120,120,300,210,30,210,300,30,300,120,30,210,120,300,210,120]","0","10","0","131.0389999880863","124.94000000000233","132","[[[""img/mask36.png""],[""img/mask98.png""],[""img/mask85.png""],[""img/mask74.png""],[""img/mask22.png""],[""img/mask50.png""],[""img/mask79.png""],[""img/mask66.png""],[""img/mask62.png""],[""img/mask66.png""]]]","","[34,0,11,33,12,6,13,32,4,31]","training","",""
"","","","","","image-keyboard-response","16","244618","0.0-8.0-0.4","616cf9ae07c1c6bd05d95beb","640759fa512f630a2bdc333d","6408c17f2326cb64f0150108","10107.200000017881","img/training5.png"," ","","","","","","","","","","","","","","","","","","","","",""
"","","","","","[""many-guess-6""]","17","250243","0.0-8.0-1.4-0.4","616cf9ae07c1c6bd05d95beb","640759fa512f630a2bdc333d","6408c17f2326cb64f0150108","[2460.300000011921]","","","[27,0,29,35,9,15,18,4,24,11,22,34,21,8,1,14,32,7,30,20,19,2,13,26,16,3,6,17,10,33,23,5,25,28,31,12]","[85,174,65,114,124,274,154,324,204,224,294,94,134,45,55,334,184,35,25,354,15,284,194,144,344,314,264,254,164,75,304,104,214,234,244,5]","85","14","123.764305142501","[123.764305142501]","[109.764305142501]","[108]","[120,300,210,120,300,120,30,120,210,210,300,30,30,120,210,210,30,210,300,30,120,210,210,210,210,120,300,30,30,30,30,120,210,30,300,120]","0","36","0","132.6759999821079","18.876999976171646","16","[[[""img/mask62.png""],[""img/mask97.png""],[""img/mask36.png""],[""img/mask94.png""],[""img/mask49.png""],[""img/mask84.png""],[""img/mask14.png""],[""img/mask85.png""],[""img/mask57.png""],[""img/mask13.png""],[""img/mask41.png""],[""img/mask20.png""],[""img/mask23.png""],[""img/mask59.png""],[""img/mask47.png""],[""img/mask7.png""],[""img/mask33.png""],[""img/mask18.png""],[""img/mask38.png""],[""img/mask88.png""],[""img/mask90.png""],[""img/mask73.png""],[""img/mask66.png""],[""img/mask90.png""],[""img/mask93.png""],[""img/mask47.png""],[""img/mask58.png""],[""img/mask21.png""],[""img/mask50.png""],[""img/mask74.png""],[""img/mask8.png""],[""img/mask89.png""],[""img/mask14.png""],[""img/mask61.png""],[""img/mask61.png""],[""img/mask52.png""]]]","","[27,0,29,35,9,15,18,4,24,11,22,34,21,8,1,14,32,7,30,20,19,2,13,26,16,3,6,17,10,33,23,5,25,28,31,12]","training","",""
"","","","","","image-keyboard-response","18","259656","0.0-9.0","616cf9ae07c1c6bd05d95beb","640759fa512f630a2bdc333d","6408c17f2326cb64f0150108","9411.800000011921","[""img/endTraining.png""]"," ","","","","","","","","","","","","","","","","","","","","",""
"","","","","","color-precision2","19","264745","0.0-10.0-0.0-0.0","616cf9ae07c1c6bd05d95beb","640759fa512f630a2bdc333d","6408c17f2326cb64f0150108","[1387.199999988079]","","","[3]","[82]","82","77","151.53093423285767","[151.53093423285767]","[74.53093423285767]","[73]","0","0","1","0","147.69499997614184","995.3849999880767","1000","[[[""img/mask73.png""]]]","","","main","77","color-precision2"
"","","","","","html-keyboard-response","20","265247","0.0-10.0-1.0","616cf9ae07c1c6bd05d95beb","640759fa512f630a2bdc333d","6408c17f2326cb64f0150108","null","","null","","","","","","","","","","","","","","","","","","","fixation","",""
"","","","","","color-precision2","21","270467","0.0-10.0-0.1-0.1","616cf9ae07c1c6bd05d95beb","640759fa512f630a2bdc333d","6408c17f2326cb64f0150108","[1226.0999999940395]","","","[15]","[77]","77","232","319.2011518878422","[319.2011518878422]","[87.20115188784217]","[87]","0","0","1","0","148.16699999402044","996.656999988074","1000","[[[""img/mask78.png""]]]","","","main","232","color-precision2"
"","","","","","html-keyboard-response","22","270976","0.0-10.0-1.1","616cf9ae07c1c6bd05d95beb","640759fa512f630a2bdc333d","6408c17f2326cb64f0150108","null","","null","","","","","","","","","","","","","","","","","","","fixation","",""
"","","","","","many-guess-6","23","277317","0.0-10.0-0.2-0.2","616cf9ae07c1c6bd05d95beb","640759fa512f630a2bdc333d","6408c17f2326cb64f0150108","[3864.800000011921]","","","[11,33,6,5,34,18,35,16,29,19,25,27,4,26,21,7,28,17,3,32,0,9,23,15,13,31,24,2,22,1,30,8,20,12,10,14]","[225,116,185,205,355,315,305,295,265,195,255,245,175,76,166,16,26,126,156,66,46,215,146,96,86,36,345,275,235,136,335,285,56,6,325,106]","225","130","24.94333997703682","[24.94333997703682]","[254.94333997703683]","[254]","[210,30,300,30,30,210,300,120,30]","0","36","0","147.8379999761819","18.82799999997951","16","[[[""img/mask44.png""],[""img/mask25.png""],[""img/mask47.png""],[""img/mask37.png""],[""img/mask26.png""],[""img/mask95.png""],[""img/mask53.png""],[""img/mask70.png""],[""img/mask56.png""],[""img/mask35.png""],[""img/mask50.png""],[""img/mask73.png""],[""img/mask78.png""],[""img/mask79.png""],[""img/mask14.png""],[""img/mask9.png""],[""img/mask68.png""],[""img/mask34.png""],[""img/mask66.png""],[""img/mask70.png""],[""img/mask59.png""],[""img/mask14.png""],[""img/mask83.png""],[""img/mask62.png""],[""img/mask58.png""],[""img/mask12.png""],[""img/mask74.png""],[""img/mask53.png""],[""img/mask99.png""],[""img/mask69.png""],[""img/mask39.png""],[""img/mask26.png""],[""img/mask20.png""],[""img/mask15.png""],[""img/mask50.png""],[""img/mask72.png""]]]","","[11,33,6,5,34,18,35,16,29,19,25,27,4,26,21,7,28,17,3,32,0,9,23,15,13,31,24,2,22,1,30,8,20,12,10,14]","main","130","many-guess-6"
"","","","","","html-keyboard-response","24","277821","0.0-10.0-1.2","616cf9ae07c1c6bd05d95beb","640759fa512f630a2bdc333d","6408c17f2326cb64f0150108","null","","null","","","","","","","","","","","","","","","","","","","fixation","",""
"","","","","","many-guess-6","25","282323","0.0-10.0-0.3-0.3","616cf9ae07c1c6bd05d95beb","640759fa512f630a2bdc333d","6408c17f2326cb64f0150108","[2420.7000000178814]","","","[32,11,5,27,30,13,31,6,19,21,7,20,14,4,18,0,1,29,33,35,10,25,24,3,22,23,15,28,34,26,12,9,2,16,8,17]","[328,198,69,168,19,148,258,278,138,118,248,188,49,208,9,158,298,79,29,268,99,218,59,89,228,318,238,308,358,288,39,338,109,128,178,348]","328","152","199.72679532066485","[199.72679532066485]","[47.72679532066485]","[47]","[30,30,30,210,120,210,120,210,120]","0","36","0","149.38400000002002","17.473999988054857","16","[[[""img/mask40.png""],[""img/mask4.png""],[""img/mask32.png""],[""img/mask9.png""],[""img/mask39.png""],[""img/mask69.png""],[""img/mask47.png""],[""img/mask7.png""],[""img/mask14.png""],[""img/mask71.png""],[""img/mask26.png""],[""img/mask74.png""],[""img/mask95.png""],[""img/mask51.png""],[""img/mask90.png""],[""img/mask56.png""],[""img/mask30.png""],[""img/mask20.png""],[""img/mask17.png""],[""img/mask11.png""],[""img/mask99.png""],[""img/mask66.png""],[""img/mask33.png""],[""img/mask61.png""],[""img/mask77.png""],[""img/mask14.png""],[""img/mask2.png""],[""img/mask86.png""],[""img/mask56.png""],[""img/mask94.png""],[""img/mask9.png""],[""img/mask39.png""],[""img/mask68.png""],[""img/mask35.png""],[""img/mask93.png""],[""img/mask74.png""]]]","","[32,11,5,27,30,13,31,6,19,21,7,20,14,4,18,0,1,29,33,35,10,25,24,3,22,23,15,28,34,26,12,9,2,16,8,17]","main","152","many-guess-6"
"","","","","","html-keyboard-response","26","282825","0.0-10.0-1.3","616cf9ae07c1c6bd05d95beb","640759fa512f630a2bdc333d","6408c17f2326cb64f0150108","null","","null","","","","","","","","","","","","","","","","","","","fixation","",""
"","","","","","many-guess-6","27","289210","0.0-10.0-0.4-0.4","616cf9ae07c1c6bd05d95beb","640759fa512f630a2bdc333d","6408c17f2326cb64f0150108","[3743.4000000059605]","","","[5,17,26,7,22,35,21,8,33,28,31,12,0,14,15,32,9,23,6,20,13,29,10,24,34,18,2,4,1,25,27,3,30,11,16,19]","[69,348,219,209,269,119,259,358,169,109,189,299,29,9,289,99,309,89,19,79,249,199,159,328,139,39,59,149,49,229,239,179,338,279,129,319]","69","318","350.7588887893569","[350.7588887893569]","[32.75888878935689]","[32]","[120,300,30,300,30,120,300,300,30]","0","36","0","147.66399998212","16.353999994054902","16","[[[""img/mask71.png""],[""img/mask4.png""],[""img/mask80.png""],[""img/mask50.png""],[""img/mask19.png""],[""img/mask16.png""],[""img/mask100.png""],[""img/mask27.png""],[""img/mask50.png""],[""img/mask100.png""],[""img/mask69.png""],[""img/mask65.png""],[""img/mask61.png""],[""img/mask92.png""],[""img/mask27.png""],[""img/mask75.png""],[""img/mask88.png""],[""img/mask34.png""],[""img/mask7.png""],[""img/mask75.png""],[""img/mask13.png""],[""img/mask84.png""],[""img/mask78.png""],[""img/mask4.png""],[""img/mask66.png""],[""img/mask28.png""],[""img/mask48.png""],[""img/mask85.png""],[""img/mask25.png""],[""img/mask63.png""],[""img/mask93.png""],[""img/mask71.png""],[""img/mask88.png""],[""img/mask35.png""],[""img/mask96.png""],[""img/mask42.png""]]]","","[5,17,26,7,22,35,21,8,33,28,31,12,0,14,15,32,9,23,6,20,13,29,10,24,34,18,2,4,1,25,27,3,30,11,16,19]","main","318","many-guess-6"
"","","","","","html-keyboard-response","28","289719","0.0-10.0-1.4","616cf9ae07c1c6bd05d95beb","640759fa512f630a2bdc333d","6408c17f2326cb64f0150108","null","","null","","","","","","","","","","","","","","","","","","","fixation","",""
"","","","","","color-precision2","29","295242","0.0-10.0-0.5-0.5","616cf9ae07c1c6bd05d95beb","640759fa512f630a2bdc333d","6408c17f2326cb64f0150108","[2304.699999988079]","","","[2]","[95]","95","262","344.24342688336196","[344.24342688336196]","[82.24342688336196]","[82]","0","0","1","0","148.07599998806836","996.3709999821149","1000","[[[""img/mask34.png""]]]","","","main","262","color-precision2"
"","","","","","html-keyboard-response","30","295751","0.0-10.0-1.5","616cf9ae07c1c6bd05d95beb","640759fa512f630a2bdc333d","6408c17f2326cb64f0150108","null","","null","","","","","","","","","","","","","","","","","","","fixation","",""
"","","","","","many-guess-6","31","300716","0.0-10.0-0.6-0.6","616cf9ae07c1c6bd05d95beb","640759fa512f630a2bdc333d","6408c17f2326cb64f0150108","[2713.9000000059605]","","","[2,34,11,22,31,1,29,12,24,17,30,25,8,7,21,18,26,23,10,15,16,33,20,3,4,19,35,28,32,6,27,5,14,0,13,9]","[254,84,114,104,94,25,214,224,134,55,274,234,184,264,5,314,124,45,35,304,15,144,154,64,324,164,174,354,284,334,204,244,344,194,294,74]","254","351","307.27497227269527","[307.27497227269527]","[316.27497227269527]","[316]","[30,210,210,300,210,300,120,210,30]","0","36","0","148.608999982127","21.898999988101423","16","[[[""img/mask39.png""],[""img/mask51.png""],[""img/mask14.png""],[""img/mask66.png""],[""img/mask84.png""],[""img/mask51.png""],[""img/mask22.png""],[""img/mask60.png""],[""img/mask22.png""],[""img/mask82.png""],[""img/mask15.png""],[""img/mask88.png""],[""img/mask61.png""],[""img/mask40.png""],[""img/mask55.png""],[""img/mask44.png""],[""img/mask46.png""],[""img/mask84.png""],[""img/mask46.png""],[""img/mask81.png""],[""img/mask25.png""],[""img/mask74.png""],[""img/mask48.png""],[""img/mask95.png""],[""img/mask58.png""],[""img/mask12.png""],[""img/mask94.png""],[""img/mask79.png""],[""img/mask68.png""],[""img/mask38.png""],[""img/mask85.png""],[""img/mask14.png""],[""img/mask85.png""],[""img/mask91.png""],[""img/mask52.png""],[""img/mask62.png""]]]","","[2,34,11,22,31,1,29,12,24,17,30,25,8,7,21,18,26,23,10,15,16,33,20,3,4,19,35,28,32,6,27,5,14,0,13,9]","main","351","many-guess-6"
"","","","","","html-keyboard-response","32","301225","0.0-10.0-1.6","616cf9ae07c1c6bd05d95beb","640759fa512f630a2bdc333d","6408c17f2326cb64f0150108","null","","null","","","","","","","","","","","","","","","","","","","fixation","",""
"","","","","","many-guess-6","33","307168","0.0-10.0-0.7-0.7","616cf9ae07c1c6bd05d95beb","640759fa512f630a2bdc333d","6408c17f2326cb64f0150108","[3351.699999988079]","","","[8,18,27,34,33,19,7,22,4,35,2,5,16,10,24,3,28,1,23,31,13,11,29,26,9,6,25,21,30,0,14,32,15,12,20,17]","[108,228,248,158,118,188,128,38,208,168,218,298,357,178,98,138,337,268,18,347,327,317,78,148,238,8,58,28,258,88,307,288,278,48,198,68]","108","232","217.4481166856422","[217.4481166856422]","[345.44811668564216]","[345]","[300,120,210,30,30,30,30,30,300]","0","36","0","147.71199998212978","22.40199999406468","16","[[[""img/mask8.png""],[""img/mask34.png""],[""img/mask61.png""],[""img/mask89.png""],[""img/mask69.png""],[""img/mask38.png""],[""img/mask9.png""],[""img/mask4.png""],[""img/mask76.png""],[""img/mask52.png""],[""img/mask45.png""],[""img/mask22.png""],[""img/mask2.png""],[""img/mask48.png""],[""img/mask65.png""],[""img/mask78.png""],[""img/mask3.png""],[""img/mask26.png""],[""img/mask85.png""],[""img/mask93.png""],[""img/mask66.png""],[""img/mask8.png""],[""img/mask50.png""],[""img/mask25.png""],[""img/mask2.png""],[""img/mask14.png""],[""img/mask17.png""],[""img/mask75.png""],[""img/mask79.png""],[""img/mask37.png""],[""img/mask17.png""],[""img/mask4.png""],[""img/mask46.png""],[""img/mask53.png""],[""img/mask16.png""],[""img/mask89.png""]]]","","[8,18,27,34,33,19,7,22,4,35,2,5,16,10,24,3,28,1,23,31,13,11,29,26,9,6,25,21,30,0,14,32,15,12,20,17]","main","232","many-guess-6"
"","","","","","html-keyboard-response","34","307669","0.0-10.0-1.7","616cf9ae07c1c6bd05d95beb","640759fa512f630a2bdc333d","6408c17f2326cb64f0150108","null","","null","","","","","","","","","","","","","","","","","","","fixation","",""
"","","","","","color-precision2","35","312584","0.0-10.0-0.8-0.8","616cf9ae07c1c6bd05d95beb","640759fa512f630a2bdc333d","6408c17f2326cb64f0150108","[2049.7999999821186]","","","[31]","[236]","236","162","33.85928699651618","[33.85928699651618]","[231.85928699651618]","[230]","0","0","1","0","148.13399997615488","1002.7239999940502","1000","[[[""img/mask76.png""]]]","","","main","162","color-precision2"
"","","","","","html-keyboard-response","36","313089","0.0-10.0-1.8","616cf9ae07c1c6bd05d95beb","640759fa512f630a2bdc333d","6408c17f2326cb64f0150108","null","","null","","","","","","","","","","","","","","","","","","","fixation","",""
"","","","","","color-precision2","37","317883","0.0-10.0-0.9-0.9","616cf9ae07c1c6bd05d95beb","640759fa512f630a2bdc333d","6408c17f2326cb64f0150108","[1732.699999988079]","","","[13]","[55]","55","316","14.601694405160629","[14.601694405160629]","[58.60169440516063]","[58]","0","0","1","0","148.4319999940344","992.5219999821275","1000","[[[""img/mask12.png""]]]","","","main","316","color-precision2"
"","","","","","html-keyboard-response","38","318388","0.0-10.0-1.9","616cf9ae07c1c6bd05d95beb","640759fa512f630a2bdc333d","6408c17f2326cb64f0150108","null","","null","","","","","","","","","","","","","","","","","","","fixation","",""
"","","","","","color-precision2","39","323578","0.0-10.0-0.10-0.10","616cf9ae07c1c6bd05d95beb","640759fa512f630a2bdc333d","6408c17f2326cb64f0150108","[1763.300000011921]","","","[20]","[175]","175","256","72.57981198248447","[72.57981198248447]","[176.57981198248447]","[175]","0","0","1","0","147.96099999401486","993.0509999821079","1000","[[[""img/mask75.png""]]]","","","main","256","color-precision2"
"","","","","","html-keyboard-response","40","324088","0.0-10.0-1.10","616cf9ae07c1c6bd05d95beb","640759fa512f630a2bdc333d","6408c17f2326cb64f0150108","null","","null","","","","","","","","","","","","","","","","","","","fixation","",""
"","","","","","color-precision2","41","329700","0.0-10.0-0.11-0.11","616cf9ae07c1c6bd05d95beb","640759fa512f630a2bdc333d","6408c17f2326cb64f0150108","[2153.2000000178814]","","","[3]","[262]","262","319","226.4596741132649","[226.4596741132649]","[267.4596741132649]","[267]","0","0","1","0","147.6889999821433","1000.6789999761386","1000","[[[""img/mask33.png""]]]","","","main","319","color-precision2"
"","","","","","html-keyboard-response","42","330202","0.0-10.0-1.11","616cf9ae07c1c6bd05d95beb","640759fa512f630a2bdc333d","6408c17f2326cb64f0150108","null","","null","","","","","","","","","","","","","","","","","","","fixation","",""
"","","","","","many-guess-6","43","335831","0.0-10.0-0.12-0.12","616cf9ae07c1c6bd05d95beb","640759fa512f630a2bdc333d","6408c17f2326cb64f0150108","[3281.5999999940395]","","","[15,12,22,8,24,3,2,30,4,25,14,29,31,13,26,35,19,10,5,21,16,0,6,34,18,27,9,32,11,1,28,7,23,17,33,20]","[243,213,143,343,43,183,333,33,173,263,103,283,293,223,253,313,23,353,53,93,133,123,303,203,233,273,113,73,83,163,153,323,193,13,63,3]","243","343","314.93553264445507","[314.93553264445507]","[331.93553264445507]","[332]","[210,210,300,120,210,300,300,30,30]","0","36","0","149.37899998214561","19.368999976140913","16","[[[""img/mask67.png""],[""img/mask91.png""],[""img/mask83.png""],[""img/mask52.png""],[""img/mask11.png""],[""img/mask33.png""],[""img/mask23.png""],[""img/mask93.png""],[""img/mask11.png""],[""img/mask26.png""],[""img/mask40.png""],[""img/mask43.png""],[""img/mask56.png""],[""img/mask40.png""],[""img/mask86.png""],[""img/mask30.png""],[""img/mask91.png""],[""img/mask12.png""],[""img/mask68.png""],[""img/mask56.png""],[""img/mask24.png""],[""img/mask77.png""],[""img/mask96.png""],[""img/mask22.png""],[""img/mask92.png""],[""img/mask70.png""],[""img/mask66.png""],[""img/mask85.png""],[""img/mask79.png""],[""img/mask38.png""],[""img/mask88.png""],[""img/mask84.png""],[""img/mask87.png""],[""img/mask44.png""],[""img/mask20.png""],[""img/mask42.png""]]]","","[15,12,22,8,24,3,2,30,4,25,14,29,31,13,26,35,19,10,5,21,16,0,6,34,18,27,9,32,11,1,28,7,23,17,33,20]","main","343","many-guess-6"
"","","","","","html-keyboard-response","44","336339","0.0-10.0-1.12","616cf9ae07c1c6bd05d95beb","640759fa512f630a2bdc333d","6408c17f2326cb64f0150108","null","","null","","","","","","","","","","","","","","","","","","","fixation","",""
"","","","","","color-precision2","45","340853","0.0-10.0-0.13-0.13","616cf9ae07c1c6bd05d95beb","640759fa512f630a2bdc333d","6408c17f2326cb64f0150108","[1636.7000000178814]","","","[23]","[274]","274","307","222.5228816380513","[222.5228816380513]","[275.52288163805133]","[275]","0","0","1","0","147.60899999405956","1007.2989999761339","1000","[[[""img/mask60.png""]]]","","","main","307","color-precision2"
"","","","","","html-keyboard-response","46","341354","0.0-10.0-1.13","616cf9ae07c1c6bd05d95beb","640759fa512f630a2bdc333d","6408c17f2326cb64f0150108","null","","null","","","","","","","","","","","","","","","","","","","fixation","",""
"","","","","","many-guess-6","47","345947","0.0-10.0-0.14-0.14","616cf9ae07c1c6bd05d95beb","640759fa512f630a2bdc333d","6408c17f2326cb64f0150108","[2636.4000000059605]","","","[14,16,2,12,31,10,29,18,33,1,15,21,6,4,34,5,35,32,26,23,24,30,11,7,28,27,8,13,9,25,3,0,19,20,22,17]","[53,332,192,112,262,162,302,122,73,252,92,152,202,342,172,13,352,63,182,282,82,322,132,242,23,142,272,102,3,292,312,43,222,33,232,212]","53","351","248.19336521703093","[248.19336521703093]","[257.19336521703093]","[257]","[120,210,300,120,30,300,120,300,30]","0","36","0","147.60399997618515","15.793999988061842","16","[[[""img/mask100.png""],[""img/mask73.png""],[""img/mask10.png""],[""img/mask51.png""],[""img/mask68.png""],[""img/mask91.png""],[""img/mask15.png""],[""img/mask50.png""],[""img/mask46.png""],[""img/mask10.png""],[""img/mask18.png""],[""img/mask77.png""],[""img/mask75.png""],[""img/mask20.png""],[""img/mask43.png""],[""img/mask37.png""],[""img/mask31.png""],[""img/mask56.png""],[""img/mask44.png""],[""img/mask100.png""],[""img/mask74.png""],[""img/mask27.png""],[""img/mask21.png""],[""img/mask98.png""],[""img/mask16.png""],[""img/mask64.png""],[""img/mask65.png""],[""img/mask19.png""],[""img/mask42.png""],[""img/mask48.png""],[""img/mask78.png""],[""img/mask51.png""],[""img/mask10.png""],[""img/mask4.png""],[""img/mask66.png""],[""img/mask58.png""]]]","","[14,16,2,12,31,10,29,18,33,1,15,21,6,4,34,5,35,32,26,23,24,30,11,7,28,27,8,13,9,25,3,0,19,20,22,17]","main","351","many-guess-6"
"","","","","","html-keyboard-response","48","346451","0.0-10.0-1.14","616cf9ae07c1c6bd05d95beb","640759fa512f630a2bdc333d","6408c17f2326cb64f0150108","null","","null","","","","","","","","","","","","","","","","","","","fixation","",""
"","","","","","many-guess-6","49","351913","0.0-10.0-0.15-0.15","616cf9ae07c1c6bd05d95beb","640759fa512f630a2bdc333d","6408c17f2326cb64f0150108","[3387.5999999940395]","","","[21,4,25,26,12,6,34,9,11,16,31,27,22,17,32,1,20,2,8,23,29,10,18,35,15,28,0,24,14,13,30,5,33,19,3,7]","[57,27,107,197,7,287,316,187,157,147,267,167,247,177,207,37,326,227,217,17,117,97,257,346,306,297,77,47,356,336,137,87,277,67,237,127]","57","267","173.83556524604202","[173.83556524604202]","[266.83556524604205]","[266]","[30,300,210,210,120,30,120,210,210]","0","36","0","148.1689999999944","21.758999988087453","16","[[[""img/mask20.png""],[""img/mask71.png""],[""img/mask99.png""],[""img/mask24.png""],[""img/mask73.png""],[""img/mask70.png""],[""img/mask3.png""],[""img/mask2.png""],[""img/mask11.png""],[""img/mask48.png""],[""img/mask23.png""],[""img/mask62.png""],[""img/mask40.png""],[""img/mask59.png""],[""img/mask3.png""],[""img/mask69.png""],[""img/mask28.png""],[""img/mask24.png""],[""img/mask93.png""],[""img/mask42.png""],[""img/mask88.png""],[""img/mask31.png""],[""img/mask21.png""],[""img/mask65.png""],[""img/mask4.png""],[""img/mask90.png""],[""img/mask77.png""],[""img/mask92.png""],[""img/mask42.png""],[""img/mask74.png""],[""img/mask16.png""],[""img/mask80.png""],[""img/mask59.png""],[""img/mask99.png""],[""img/mask80.png""],[""img/mask4.png""]]]","","[21,4,25,26,12,6,34,9,11,16,31,27,22,17,32,1,20,2,8,23,29,10,18,35,15,28,0,24,14,13,30,5,33,19,3,7]","main","267","many-guess-6"
"","","","","","html-keyboard-response","50","352416","0.0-10.0-1.15","616cf9ae07c1c6bd05d95beb","640759fa512f630a2bdc333d","6408c17f2326cb64f0150108","null","","null","","","","","","","","","","","","","","","","","","","fixation","",""
"","","","","","many-guess-6","51","357505","0.0-10.0-0.16-0.16","616cf9ae07c1c6bd05d95beb","640759fa512f630a2bdc333d","6408c17f2326cb64f0150108","[3198.4000000059605]","","","[3,31,12,20,14,10,33,35,30,18,34,5,25,1,7,15,28,17,32,11,22,16,21,8,13,6,4,23,27,9,0,24,19,29,26,2]","[223,93,73,323,24,183,63,333,103,173,193,133,123,253,313,113,353,4,283,143,303,213,83,34,233,163,343,44,263,14,243,153,273,203,54,293]","223","13","33.114470996440836","[33.114470996440836]","[20.114470996440836]","[19]","[300,30,300,210,30,210,300,120,30]","0","36","0","147.87499998806743","17.46499997616047","16","[[[""img/mask6.png""],[""img/mask16.png""],[""img/mask56.png""],[""img/mask82.png""],[""img/mask22.png""],[""img/mask7.png""],[""img/mask93.png""],[""img/mask14.png""],[""img/mask29.png""],[""img/mask43.png""],[""img/mask98.png""],[""img/mask91.png""],[""img/mask68.png""],[""img/mask41.png""],[""img/mask7.png""],[""img/mask98.png""],[""img/mask89.png""],[""img/mask99.png""],[""img/mask25.png""],[""img/mask67.png""],[""img/mask52.png""],[""img/mask19.png""],[""img/mask79.png""],[""img/mask17.png""],[""img/mask34.png""],[""img/mask97.png""],[""img/mask15.png""],[""img/mask35.png""],[""img/mask96.png""],[""img/mask52.png""],[""img/mask17.png""],[""img/mask50.png""],[""img/mask11.png""],[""img/mask30.png""],[""img/mask21.png""],[""img/mask33.png""]]]","","[3,31,12,20,14,10,33,35,30,18,34,5,25,1,7,15,28,17,32,11,22,16,21,8,13,6,4,23,27,9,0,24,19,29,26,2]","main","13","many-guess-6"
"","","","","","html-keyboard-response","52","358014","0.0-10.0-1.16","616cf9ae07c1c6bd05d95beb","640759fa512f630a2bdc333d","6408c17f2326cb64f0150108","null","","null","","","","","","","","","","","","","","","","","","","fixation","",""
"","","","","","many-guess-6","53","365259","0.0-10.0-0.17-0.17","616cf9ae07c1c6bd05d95beb","640759fa512f630a2bdc333d","6408c17f2326cb64f0150108","[2613.7000000178814]","","","[35,29,28,3,15,30,13,27,10,1,26,8,25,22,17,31,0,14,11,9,21,24,18,5,20,32,34,6,33,23,4,7,16,19,12,2]","[57,306,126,136,256,7,67,27,216,336,296,17,166,97,107,176,146,206,316,47,236,226,326,87,186,37,356,276,196,77,286,266,346,246,117,156]","57","118","289.1920505635917","[289.1920505635917]","[171.1920505635917]","[171]","[30,210,210,210,30,210,300,210,300]","0","36","0","149.5049999821349","15.794999988051131","16","[[[""img/mask72.png""],[""img/mask45.png""],[""img/mask18.png""],[""img/mask78.png""],[""img/mask50.png""],[""img/mask58.png""],[""img/mask97.png""],[""img/mask78.png""],[""img/mask28.png""],[""img/mask90.png""],[""img/mask57.png""],[""img/mask92.png""],[""img/mask41.png""],[""img/mask29.png""],[""img/mask5.png""],[""img/mask14.png""],[""img/mask47.png""],[""img/mask48.png""],[""img/mask46.png""],[""img/mask96.png""],[""img/mask71.png""],[""img/mask10.png""],[""img/mask98.png""],[""img/mask20.png""],[""img/mask16.png""],[""img/mask90.png""],[""img/mask83.png""],[""img/mask97.png""],[""img/mask13.png""],[""img/mask87.png""],[""img/mask65.png""],[""img/mask77.png""],[""img/mask70.png""],[""img/mask69.png""],[""img/mask60.png""],[""img/mask73.png""]]]","","[35,29,28,3,15,30,13,27,10,1,26,8,25,22,17,31,0,14,11,9,21,24,18,5,20,32,34,6,33,23,4,7,16,19,12,2]","main","118","many-guess-6"
"","","","","","html-keyboard-response","54","365762","0.0-10.0-1.17","616cf9ae07c1c6bd05d95beb","640759fa512f630a2bdc333d","6408c17f2326cb64f0150108","null","","null","","","","","","","","","","","","","","","","","","","fixation","",""
"","","","","","color-precision2","55","371186","0.0-10.0-0.18-0.18","616cf9ae07c1c6bd05d95beb","640759fa512f630a2bdc333d","6408c17f2326cb64f0150108","[1687]","","","[18]","[107]","107","133","248.35992237122167","[248.35992237122167]","[115.35992237122167]","[116]","0","0","1","0","148.05099998810329","1001.3409999940195","1000","[[[""img/mask28.png""]]]","","","main","133","color-precision2"
"","","","","","html-keyboard-response","56","371688","0.0-10.0-1.18","616cf9ae07c1c6bd05d95beb","640759fa512f630a2bdc333d","6408c17f2326cb64f0150108","null","","null","","","","","","","","","","","","","","","","","","","fixation","",""
"","","","","","many-guess-6","57","377287","0.0-10.0-0.19-0.19","616cf9ae07c1c6bd05d95beb","640759fa512f630a2bdc333d","6408c17f2326cb64f0150108","[3560.5]","","","[25,14,0,26,33,24,10,28,7,27,29,8,32,18,30,23,11,5,34,35,3,21,13,2,31,1,20,15,22,17,9,12,19,6,4,16]","[297,257,48,227,38,78,317,187,197,357,88,267,237,147,58,217,68,167,137,247,127,277,327,337,307,157,117,287,107,347,177,97,28,8,18,207]","297","187","213.60321524542468","[213.60321524542468]","[26.60321524542468]","[26]","[300,30,300,300,30,210,120,300,300]","0","36","0","149.4339999880758","22.023999976168852","16","[[[""img/mask61.png""],[""img/mask79.png""],[""img/mask17.png""],[""img/mask26.png""],[""img/mask89.png""],[""img/mask44.png""],[""img/mask35.png""],[""img/mask51.png""],[""img/mask11.png""],[""img/mask59.png""],[""img/mask73.png""],[""img/mask72.png""],[""img/mask19.png""],[""img/mask3.png""],[""img/mask72.png""],[""img/mask38.png""],[""img/mask47.png""],[""img/mask75.png""],[""img/mask62.png""],[""img/mask20.png""],[""img/mask54.png""],[""img/mask59.png""],[""img/mask22.png""],[""img/mask17.png""],[""img/mask48.png""],[""img/mask52.png""],[""img/mask45.png""],[""img/mask97.png""],[""img/mask85.png""],[""img/mask28.png""],[""img/mask100.png""],[""img/mask15.png""],[""img/mask89.png""],[""img/mask56.png""],[""img/mask49.png""],[""img/mask78.png""]]]","","[25,14,0,26,33,24,10,28,7,27,29,8,32,18,30,23,11,5,34,35,3,21,13,2,31,1,20,15,22,17,9,12,19,6,4,16]","main","187","many-guess-6"
"","","","","","html-keyboard-response","58","421258","0.0-10.0-1.19","616cf9ae07c1c6bd05d95beb","640759fa512f630a2bdc333d","6408c17f2326cb64f0150108","43969.19999998808","Wow! You've completed 20 out of 180 trials! </p> <p>  </p><p> Take a quick break, then press any key when you're ready to continue.","h","","","","","","","","","","","","","","","","","","","fixation","",""
"","","","","","many-guess-6","59","426846","0.0-10.0-0.20-0.20","616cf9ae07c1c6bd05d95beb","640759fa512f630a2bdc333d","6408c17f2326cb64f0150108","[1947.4000000059605]","","","[29,30,10,22,4,18,16,20,21,13,24,17,3,35,15,31,0,1,12,34,23,6,2,28,32,8,9,19,7,11,33,25,14,26,5,27]","[224,35,104,264,194,5,94,254,124,44,334,144,74,204,164,134,274,54,184,234,84,174,244,354,15,284,314,294,344,114,214,154,64,25,324,304]","224","278","283.54439645357553","[283.54439645357553]","[5.54439645357553]","[6]","[30,30,120,30,120,30,210,30,300]","0","36","0","147.63599998212885","15.425999988103285","16","[[[""img/mask91.png""],[""img/mask35.png""],[""img/mask5.png""],[""img/mask31.png""],[""img/mask6.png""],[""img/mask17.png""],[""img/mask27.png""],[""img/mask7.png""],[""img/mask41.png""],[""img/mask49.png""],[""img/mask83.png""],[""img/mask49.png""],[""img/mask40.png""],[""img/mask19.png""],[""img/mask25.png""],[""img/mask81.png""],[""img/mask9.png""],[""img/mask92.png""],[""img/mask73.png""],[""img/mask75.png""],[""img/mask10.png""],[""img/mask9.png""],[""img/mask38.png""],[""img/mask7.png""],[""img/mask70.png""],[""img/mask26.png""],[""img/mask21.png""],[""img/mask35.png""],[""img/mask82.png""],[""img/mask21.png""],[""img/mask28.png""],[""img/mask60.png""],[""img/mask43.png""],[""img/mask73.png""],[""img/mask28.png""],[""img/mask9.png""]]]","","[29,30,10,22,4,18,16,20,21,13,24,17,3,35,15,31,0,1,12,34,23,6,2,28,32,8,9,19,7,11,33,25,14,26,5,27]","main","278","many-guess-6"
"","","","","","html-keyboard-response","60","427347","0.0-10.0-1.20","616cf9ae07c1c6bd05d95beb","640759fa512f630a2bdc333d","6408c17f2326cb64f0150108","null","","null","","","","","","","","","","","","","","","","","","","fixation","",""
"","","","","","color-precision2","61","432180","0.0-10.0-0.21-0.21","616cf9ae07c1c6bd05d95beb","640759fa512f630a2bdc333d","6408c17f2326cb64f0150108","[2335.5999999940395]","","","[15]","[86]","86","36","111.24710367689022","[111.24710367689022]","[75.24710367689022]","[73]","0","0","1","0","146.59199998213444","994.8819999880507","1000","[[[""img/mask61.png""]]]","","","main","36","color-precision2"
"","","","","","html-keyboard-response","62","432684","0.0-10.0-1.21","616cf9ae07c1c6bd05d95beb","640759fa512f630a2bdc333d","6408c17f2326cb64f0150108","null","","null","","","","","","","","","","","","","","","","","","","fixation","",""
"","","","","","many-guess-6","63","436436","0.0-10.0-0.22-0.22","616cf9ae07c1c6bd05d95beb","640759fa512f630a2bdc333d","6408c17f2326cb64f0150108","[1895]","","","[11,22,7,24,17,16,23,27,32,1,3,12,6,28,0,26,13,35,10,14,20,5,33,4,34,18,21,19,29,25,15,31,9,8,2,30]","[322,212,53,192,342,292,43,73,142,352,202,242,33,152,23,302,312,252,63,133,332,3,103,83,282,162,13,272,93,113,232,222,182,123,262,172]","322","217","12.424348792047459","[12.424348792047459]","[155.42434879204745]","[154]","[120,30,30,210,210,30,300,120,300]","0","36","0","147.66899997612927","16.958999982103705","16","[[[""img/mask28.png""],[""img/mask21.png""],[""img/mask17.png""],[""img/mask55.png""],[""img/mask11.png""],[""img/mask11.png""],[""img/mask84.png""],[""img/mask84.png""],[""img/mask92.png""],[""img/mask66.png""],[""img/mask10.png""],[""img/mask88.png""],[""img/mask81.png""],[""img/mask68.png""],[""img/mask18.png""],[""img/mask41.png""],[""img/mask54.png""],[""img/mask81.png""],[""img/mask8.png""],[""img/mask59.png""],[""img/mask60.png""],[""img/mask83.png""],[""img/mask65.png""],[""img/mask97.png""],[""img/mask58.png""],[""img/mask66.png""],[""img/mask52.png""],[""img/mask100.png""],[""img/mask2.png""],[""img/mask75.png""],[""img/mask43.png""],[""img/mask64.png""],[""img/mask96.png""],[""img/mask91.png""],[""img/mask50.png""],[""img/mask22.png""]]]","","[11,22,7,24,17,16,23,27,32,1,3,12,6,28,0,26,13,35,10,14,20,5,33,4,34,18,21,19,29,25,15,31,9,8,2,30]","main","217","many-guess-6"
"","","","","","html-keyboard-response","64","436944","0.0-10.0-1.22","616cf9ae07c1c6bd05d95beb","640759fa512f630a2bdc333d","6408c17f2326cb64f0150108","null","","null","","","","","","","","","","","","","","","","","","","fixation","",""
"","","","","","color-precision2","65","440670","0.0-10.0-0.23-0.23","616cf9ae07c1c6bd05d95beb","640759fa512f630a2bdc333d","6408c17f2326cb64f0150108","[865.0999999940395]","","","[24]","[166]","166","37","210.41416743018144","[210.41416743018144]","[173.41416743018144]","[173]","0","0","1","0","147.33399999403628","996.5239999761689","1000","[[[""img/mask13.png""]]]","","","main","37","color-precision2"
"","","","","","html-keyboard-response","66","441173","0.0-10.0-1.23","616cf9ae07c1c6bd05d95beb","640759fa512f630a2bdc333d","6408c17f2326cb64f0150108","null","","null","","","","","","","","","","","","","","","","","","","fixation","",""
"","","","","","many-guess-6","67","445482","0.0-10.0-0.24-0.24","616cf9ae07c1c6bd05d95beb","640759fa512f630a2bdc333d","6408c17f2326cb64f0150108","[2134.9000000059605]","","","[3,14,26,22,21,1,2,33,31,10,18,23,15,34,9,20,16,25,8,17,35,6,12,7,11,30,29,28,19,13,0,27,5,32,24,4]","[17,346,57,256,77,246,176,216,126,306,206,146,296,136,27,97,356,156,196,326,336,107,47,67,226,276,316,117,186,236,37,166,266,87,286,7]","17","350","285.5879326981683","[285.5879326981683]","[295.5879326981683]","[296]","[120,300,300,120,120,30,120,300,120]","0","36","0","147.7519999940414","16.741999988094904","16","[[[""img/mask71.png""],[""img/mask83.png""],[""img/mask55.png""],[""img/mask44.png""],[""img/mask40.png""],[""img/mask44.png""],[""img/mask72.png""],[""img/mask100.png""],[""img/mask28.png""],[""img/mask73.png""],[""img/mask10.png""],[""img/mask45.png""],[""img/mask12.png""],[""img/mask59.png""],[""img/mask18.png""],[""img/mask9.png""],[""img/mask15.png""],[""img/mask22.png""],[""img/mask90.png""],[""img/mask57.png""],[""img/mask34.png""],[""img/mask90.png""],[""img/mask25.png""],[""img/mask13.png""],[""img/mask97.png""],[""img/mask68.png""],[""img/mask13.png""],[""img/mask91.png""],[""img/mask12.png""],[""img/mask1.png""],[""img/mask27.png""],[""img/mask91.png""],[""img/mask48.png""],[""img/mask95.png""],[""img/mask98.png""],[""img/mask33.png""]]]","","[3,14,26,22,21,1,2,33,31,10,18,23,15,34,9,20,16,25,8,17,35,6,12,7,11,30,29,28,19,13,0,27,5,32,24,4]","main","350","many-guess-6"
"","","","","","html-keyboard-response","68","445986","0.0-10.0-1.24","616cf9ae07c1c6bd05d95beb","640759fa512f630a2bdc333d","6408c17f2326cb64f0150108","null","","null","","","","","","","","","","","","","","","","","","","fixation","",""
"","","","","","color-precision2","69","449872","0.0-10.0-0.25-0.25","616cf9ae07c1c6bd05d95beb","640759fa512f630a2bdc333d","6408c17f2326cb64f0150108","[925.6000000238419]","","","[27]","[297]","297","201","137.44352237323895","[137.44352237323895]","[296.4435223732389]","[297]","0","0","1","0","148.13699998211814","1008.0269999821321","1000","[[[""img/mask59.png""]]]","","","main","201","color-precision2"
"","","","","","html-keyboard-response","70","450380","0.0-10.0-1.25","616cf9ae07c1c6bd05d95beb","640759fa512f630a2bdc333d","6408c17f2326cb64f0150108","null","","null","","","","","","","","","","","","","","","","","","","fixation","",""
"","","","","","many-guess-6","71","456927","0.0-10.0-0.26-0.26","616cf9ae07c1c6bd05d95beb","640759fa512f630a2bdc333d","6408c17f2326cb64f0150108","[4186.800000011921]","","","[5,31,12,26,7,25,32,4,30,24,11,10,20,16,33,23,1,34,22,14,13,27,15,0,2,6,3,28,17,21,9,35,18,19,8,29]","[319,140,70,100,60,199,50,189,90,359,30,10,229,249,239,130,169,160,289,110,329,179,279,309,20,299,349,209,269,219,150,339,120,80,259,40]","319","36","32.941194765216736","[32.941194765216736]","[356.9411947652167]","[356]","[30,210,300,300,30,300,210,120,300]","0","36","0","149.33399999403628","18.923999982129317","16","[[[""img/mask68.png""],[""img/mask98.png""],[""img/mask98.png""],[""img/mask77.png""],[""img/mask6.png""],[""img/mask15.png""],[""img/mask75.png""],[""img/mask5.png""],[""img/mask36.png""],[""img/mask7.png""],[""img/mask31.png""],[""img/mask25.png""],[""img/mask73.png""],[""img/mask17.png""],[""img/mask46.png""],[""img/mask71.png""],[""img/mask29.png""],[""img/mask6.png""],[""img/mask26.png""],[""img/mask67.png""],[""img/mask40.png""],[""img/mask69.png""],[""img/mask20.png""],[""img/mask100.png""],[""img/mask16.png""],[""img/mask13.png""],[""img/mask17.png""],[""img/mask88.png""],[""img/mask40.png""],[""img/mask12.png""],[""img/mask80.png""],[""img/mask86.png""],[""img/mask5.png""],[""img/mask60.png""],[""img/mask37.png""],[""img/mask66.png""]]]","","[5,31,12,26,7,25,32,4,30,24,11,10,20,16,33,23,1,34,22,14,13,27,15,0,2,6,3,28,17,21,9,35,18,19,8,29]","main","36","many-guess-6"
"","","","","","html-keyboard-response","72","457428","0.0-10.0-1.26","616cf9ae07c1c6bd05d95beb","640759fa512f630a2bdc333d","6408c17f2326cb64f0150108","null","","null","","","","","","","","","","","","","","","","","","","fixation","",""
"","","","","","many-guess-6","73","461993","0.0-10.0-0.27-0.27","616cf9ae07c1c6bd05d95beb","640759fa512f630a2bdc333d","6408c17f2326cb64f0150108","[2400.800000011921]","","","[4,20,14,26,8,23,18,28,5,22,2,17,32,35,24,11,33,0,10,30,21,1,3,31,25,29,6,9,12,27,16,19,7,15,13,34]","[309,239,329,299,60,139,129,319,119,30,289,359,109,99,10,259,50,249,349,219,279,70,159,169,90,229,149,20,80,199,209,339,269,179,189,40]","309","279","318.9545217528361","[318.9545217528361]","[39.954521752836115]","[40]","[210,120,210,300,300,300,30,30,300]","0","36","0","147.87699999997858","14.366999994032085","16","[[[""img/mask31.png""],[""img/mask62.png""],[""img/mask86.png""],[""img/mask3.png""],[""img/mask21.png""],[""img/mask9.png""],[""img/mask81.png""],[""img/mask2.png""],[""img/mask91.png""],[""img/mask44.png""],[""img/mask13.png""],[""img/mask69.png""],[""img/mask14.png""],[""img/mask22.png""],[""img/mask1.png""],[""img/mask97.png""],[""img/mask24.png""],[""img/mask45.png""],[""img/mask96.png""],[""img/mask88.png""],[""img/mask85.png""],[""img/mask34.png""],[""img/mask91.png""],[""img/mask31.png""],[""img/mask32.png""],[""img/mask17.png""],[""img/mask98.png""],[""img/mask90.png""],[""img/mask15.png""],[""img/mask73.png""],[""img/mask41.png""],[""img/mask3.png""],[""img/mask79.png""],[""img/mask13.png""],[""img/mask96.png""],[""img/mask24.png""]]]","","[4,20,14,26,8,23,18,28,5,22,2,17,32,35,24,11,33,0,10,30,21,1,3,31,25,29,6,9,12,27,16,19,7,15,13,34]","main","279","many-guess-6"
"","","","","","html-keyboard-response","74","462497","0.0-10.0-1.27","616cf9ae07c1c6bd05d95beb","640759fa512f630a2bdc333d","6408c17f2326cb64f0150108","null","","null","","","","","","","","","","","","","","","","","","","fixation","",""
"","","","","","color-precision2","75","466673","0.0-10.0-0.28-0.28","616cf9ae07c1c6bd05d95beb","640759fa512f630a2bdc333d","6408c17f2326cb64f0150108","[1516.5999999940395]","","","[21]","[30]","30","20","51.95409612369642","[51.95409612369642]","[31.954096123696416]","[30]","0","0","1","0","148.38199999998324","1007.9719999880763","1000","[[[""img/mask68.png""]]]","","","main","20","color-precision2"
"","","","","","html-keyboard-response","76","467174","0.0-10.0-1.28","616cf9ae07c1c6bd05d95beb","640759fa512f630a2bdc333d","6408c17f2326cb64f0150108","null","","null","","","","","","","","","","","","","","","","","","","fixation","",""
"","","","","","many-guess-6","77","471507","0.0-10.0-0.29-0.29","616cf9ae07c1c6bd05d95beb","640759fa512f630a2bdc333d","6408c17f2326cb64f0150108","[2724.2000000178814]","","","[31,16,27,4,1,13,2,10,28,8,23,32,29,25,7,11,3,0,15,21,24,6,18,17,19,33,5,30,22,20,9,35,26,34,12,14]","[310,300,141,290,1,171,61,51,111,101,131,200,161,280,121,270,230,330,11,210,340,21,91,181,81,71,320,220,190,151,350,41,250,240,31,260]","310","292","263.14620045928314","[263.14620045928314]","[331.14620045928314]","[331]","[30,210,120,210,300,300,210,300,30]","0","36","0","148.96899998211302","10.258999988087453","16","[[[""img/mask29.png""],[""img/mask36.png""],[""img/mask50.png""],[""img/mask52.png""],[""img/mask16.png""],[""img/mask64.png""],[""img/mask84.png""],[""img/mask91.png""],[""img/mask56.png""],[""img/mask35.png""],[""img/mask58.png""],[""img/mask65.png""],[""img/mask32.png""],[""img/mask81.png""],[""img/mask40.png""],[""img/mask100.png""],[""img/mask25.png""],[""img/mask7.png""],[""img/mask34.png""],[""img/mask81.png""],[""img/mask85.png""],[""img/mask34.png""],[""img/mask86.png""],[""img/mask9.png""],[""img/mask1.png""],[""img/mask89.png""],[""img/mask9.png""],[""img/mask1.png""],[""img/mask1.png""],[""img/mask9.png""],[""img/mask55.png""],[""img/mask52.png""],[""img/mask71.png""],[""img/mask43.png""],[""img/mask11.png""],[""img/mask15.png""]]]","","[31,16,27,4,1,13,2,10,28,8,23,32,29,25,7,11,3,0,15,21,24,6,18,17,19,33,5,30,22,20,9,35,26,34,12,14]","main","292","many-guess-6"
"","","","","","html-keyboard-response","78","472018","0.0-10.0-1.29","616cf9ae07c1c6bd05d95beb","640759fa512f630a2bdc333d","6408c17f2326cb64f0150108","null","","null","","","","","","","","","","","","","","","","","","","fixation","",""
"","","","","","color-precision2","79","476039","0.0-10.0-0.30-0.30","616cf9ae07c1c6bd05d95beb","640759fa512f630a2bdc333d","6408c17f2326cb64f0150108","[1022.9000000059605]","","","[9]","[134]","134","215","359.5722778757779","[359.5722778757779]","[144.5722778757779]","[144]","0","0","1","0","146.95899997616652","998.1489999881014","1000","[[[""img/mask21.png""]]]","","","main","215","color-precision2"
"","","","","","html-keyboard-response","80","476546","0.0-10.0-1.30","616cf9ae07c1c6bd05d95beb","640759fa512f630a2bdc333d","6408c17f2326cb64f0150108","null","","null","","","","","","","","","","","","","","","","","","","fixation","",""
"","","","","","color-precision2","81","481133","0.0-10.0-0.31-0.31","616cf9ae07c1c6bd05d95beb","640759fa512f630a2bdc333d","6408c17f2326cb64f0150108","[1302]","","","[23]","[309]","309","154","106.90560902846498","[106.90560902846498]","[312.905609028465]","[311]","0","0","1","0","148.0269999880693","1001.9169999880833","1000","[[[""img/mask14.png""]]]","","","main","154","color-precision2"
"","","","","","html-keyboard-response","82","481635","0.0-10.0-1.31","616cf9ae07c1c6bd05d95beb","640759fa512f630a2bdc333d","6408c17f2326cb64f0150108","null","","null","","","","","","","","","","","","","","","","","","","fixation","",""
"","","","","","many-guess-6","83","490644","0.0-10.0-0.32-0.32","616cf9ae07c1c6bd05d95beb","640759fa512f630a2bdc333d","6408c17f2326cb64f0150108","[6887.5]","","","[25,0,10,5,2,12,20,19,13,1,33,26,34,17,16,22,21,29,6,28,15,32,9,27,4,8,3,18,30,35,23,31,7,14,24,11]","[59,338,169,239,308,69,119,209,49,139,358,199,318,229,189,219,179,109,328,39,19,298,149,288,268,89,278,79,249,348,29,259,129,159,9,99]","59","89","93.28403981233795","[93.28403981233795]","[4.2840398123379515]","[2]","[30,210,300,300,30,210,30,30,210]","0","36","0","148.41200000001118","19.101999982143752","16","[[[""img/mask40.png""],[""img/mask1.png""],[""img/mask18.png""],[""img/mask41.png""],[""img/mask99.png""],[""img/mask41.png""],[""img/mask23.png""],[""img/mask39.png""],[""img/mask99.png""],[""img/mask3.png""],[""img/mask46.png""],[""img/mask76.png""],[""img/mask86.png""],[""img/mask68.png""],[""img/mask26.png""],[""img/mask67.png""],[""img/mask51.png""],[""img/mask52.png""],[""img/mask78.png""],[""img/mask18.png""],[""img/mask15.png""],[""img/mask15.png""],[""img/mask8.png""],[""img/mask21.png""],[""img/mask42.png""],[""img/mask24.png""],[""img/mask7.png""],[""img/mask65.png""],[""img/mask29.png""],[""img/mask59.png""],[""img/mask89.png""],[""img/mask63.png""],[""img/mask58.png""],[""img/mask15.png""],[""img/mask97.png""],[""img/mask26.png""]]]","","[25,0,10,5,2,12,20,19,13,1,33,26,34,17,16,22,21,29,6,28,15,32,9,27,4,8,3,18,30,35,23,31,7,14,24,11]","main","89","many-guess-6"
"","","","","","html-keyboard-response","84","491150","0.0-10.0-1.32","616cf9ae07c1c6bd05d95beb","640759fa512f630a2bdc333d","6408c17f2326cb64f0150108","null","","null","","","","","","","","","","","","","","","","","","","fixation","",""
"","","","","","color-precision2","85","496598","0.0-10.0-0.33-0.33","616cf9ae07c1c6bd05d95beb","640759fa512f630a2bdc333d","6408c17f2326cb64f0150108","[2513.199999988079]","","","[21]","[245]","245","206","86.08418042403004","[86.08418042403004]","[240.08418042403002]","[238]","0","0","1","0","147.6130000000121","1008.3029999821447","1000","[[[""img/mask47.png""]]]","","","main","206","color-precision2"
"","","","","","html-keyboard-response","86","497104","0.0-10.0-1.33","616cf9ae07c1c6bd05d95beb","640759fa512f630a2bdc333d","6408c17f2326cb64f0150108","null","","null","","","","","","","","","","","","","","","","","","","fixation","",""
"","","","","","color-precision2","87","501696","0.0-10.0-0.34-0.34","616cf9ae07c1c6bd05d95beb","640759fa512f630a2bdc333d","6408c17f2326cb64f0150108","[1562.300000011921]","","","[28]","[129]","129","276","42.01104150160016","[42.01104150160016]","[126.01104150160018]","[124]","0","0","1","0","148.99499999999534","1002.5849999880884","1000","[[[""img/mask42.png""]]]","","","main","276","color-precision2"
"","","","","","html-keyboard-response","88","502198","0.0-10.0-1.34","616cf9ae07c1c6bd05d95beb","640759fa512f630a2bdc333d","6408c17f2326cb64f0150108","null","","null","","","","","","","","","","","","","","","","","","","fixation","",""
"","","","","","color-precision2","89","506071","0.0-10.0-0.35-0.35","616cf9ae07c1c6bd05d95beb","640759fa512f630a2bdc333d","6408c17f2326cb64f0150108","[1073.300000011921]","","","[0]","[307]","307","75","15.285386915932042","[15.285386915932042]","[300.28538691593207]","[299]","0","0","1","0","147.86299998214236","993.6529999880586","1000","[[[""img/mask13.png""]]]","","","main","75","color-precision2"
"","","","","","html-keyboard-response","90","506574","0.0-10.0-1.35","616cf9ae07c1c6bd05d95beb","640759fa512f630a2bdc333d","6408c17f2326cb64f0150108","null","","null","","","","","","","","","","","","","","","","","","","fixation","",""
"","","","","","many-guess-6","91","510826","0.0-10.0-0.36-0.36","616cf9ae07c1c6bd05d95beb","640759fa512f630a2bdc333d","6408c17f2326cb64f0150108","[2487.199999988079]","","","[4,12,9,10,33,35,26,15,5,23,14,21,11,29,32,25,19,3,18,16,13,1,2,22,34,6,0,27,7,30,24,31,20,28,17,8]","[85,305,35,275,65,325,235,345,265,335,155,145,195,45,15,295,55,25,185,75,255,215,6,175,205,355,225,165,315,105,245,135,285,125,95,115]","85","182","145.20641408742586","[145.20641408742586]","[323.20641408742586]","[322]","[210,210,210,210,300,210,300,120,120]","0","36","0","149.16299997613532","15.652999999991152","16","[[[""img/mask23.png""],[""img/mask95.png""],[""img/mask73.png""],[""img/mask76.png""],[""img/mask57.png""],[""img/mask10.png""],[""img/mask66.png""],[""img/mask60.png""],[""img/mask55.png""],[""img/mask79.png""],[""img/mask61.png""],[""img/mask35.png""],[""img/mask4.png""],[""img/mask22.png""],[""img/mask31.png""],[""img/mask36.png""],[""img/mask32.png""],[""img/mask20.png""],[""img/mask51.png""],[""img/mask73.png""],[""img/mask56.png""],[""img/mask42.png""],[""img/mask79.png""],[""img/mask57.png""],[""img/mask1.png""],[""img/mask29.png""],[""img/mask50.png""],[""img/mask33.png""],[""img/mask83.png""],[""img/mask90.png""],[""img/mask67.png""],[""img/mask8.png""],[""img/mask31.png""],[""img/mask34.png""],[""img/mask93.png""],[""img/mask55.png""]]]","","[4,12,9,10,33,35,26,15,5,23,14,21,11,29,32,25,19,3,18,16,13,1,2,22,34,6,0,27,7,30,24,31,20,28,17,8]","main","182","many-guess-6"
"","","","","","html-keyboard-response","92","511330","0.0-10.0-1.36","616cf9ae07c1c6bd05d95beb","640759fa512f630a2bdc333d","6408c17f2326cb64f0150108","null","","null","","","","","","","","","","","","","","","","","","","fixation","",""
"","","","","","color-precision2","93","515562","0.0-10.0-0.37-0.37","616cf9ae07c1c6bd05d95beb","640759fa512f630a2bdc333d","6408c17f2326cb64f0150108","[1256.5]","","","[10]","[215]","215","188","26.00276253442049","[26.00276253442049]","[198.0027625344205]","[197]","0","0","1","0","148.32400000002235","998.0139999820967","1000","[[[""img/mask5.png""]]]","","","main","188","color-precision2"
"","","","","","html-keyboard-response","94","516070","0.0-10.0-1.37","616cf9ae07c1c6bd05d95beb","640759fa512f630a2bdc333d","6408c17f2326cb64f0150108","null","","null","","","","","","","","","","","","","","","","","","","fixation","",""
"","","","","","color-precision2","95","520601","0.0-10.0-0.38-0.38","616cf9ae07c1c6bd05d95beb","640759fa512f630a2bdc333d","6408c17f2326cb64f0150108","[1364.5]","","","[13]","[1]","1","318","335.0088953866885","[335.0088953866885]","[17.008895386688494]","[17]","0","0","1","0","148.46899997617584","1007.6589999881107","1000","[[[""img/mask54.png""]]]","","","main","318","color-precision2"
"","","","","","html-keyboard-response","96","521106","0.0-10.0-1.38","616cf9ae07c1c6bd05d95beb","640759fa512f630a2bdc333d","6408c17f2326cb64f0150108","null","","null","","","","","","","","","","","","","","","","","","","fixation","",""
"","","","","","many-guess-6","97","525779","0.0-10.0-0.39-0.39","616cf9ae07c1c6bd05d95beb","640759fa512f630a2bdc333d","6408c17f2326cb64f0150108","[2364.4000000059605]","","","[34,8,21,14,7,3,35,6,9,28,0,25,22,10,32,26,13,31,33,18,19,12,17,30,2,15,11,1,24,5,16,27,4,20,29,23]","[43,252,192,222,242,162,62,312,172,342,182,53,72,132,33,102,13,82,232,152,352,272,92,212,142,262,3,122,202,322,292,302,112,332,23,282]","43","255","150.81377821031074","[150.81377821031074]","[255.81377821031074]","[254]","[120,300,210,210,210,120,300,30,300]","0","36","0","147.79399998206645","9.583999988040887","16","[[[""img/mask54.png""],[""img/mask15.png""],[""img/mask38.png""],[""img/mask79.png""],[""img/mask33.png""],[""img/mask96.png""],[""img/mask46.png""],[""img/mask8.png""],[""img/mask54.png""],[""img/mask10.png""],[""img/mask55.png""],[""img/mask83.png""],[""img/mask16.png""],[""img/mask66.png""],[""img/mask37.png""],[""img/mask46.png""],[""img/mask70.png""],[""img/mask85.png""],[""img/mask97.png""],[""img/mask82.png""],[""img/mask40.png""],[""img/mask40.png""],[""img/mask36.png""],[""img/mask35.png""],[""img/mask33.png""],[""img/mask12.png""],[""img/mask42.png""],[""img/mask65.png""],[""img/mask12.png""],[""img/mask6.png""],[""img/mask76.png""],[""img/mask75.png""],[""img/mask79.png""],[""img/mask55.png""],[""img/mask13.png""],[""img/mask18.png""]]]","","[34,8,21,14,7,3,35,6,9,28,0,25,22,10,32,26,13,31,33,18,19,12,17,30,2,15,11,1,24,5,16,27,4,20,29,23]","main","255","many-guess-6"
"","","","","","html-keyboard-response","98","554286","0.0-10.0-1.39","616cf9ae07c1c6bd05d95beb","640759fa512f630a2bdc333d","6408c17f2326cb64f0150108","28505.40000000596","Wow! You've completed 40 out of 180 trials! </p> <p>  </p><p> Take a quick break, then press any key when you're ready to continue.","n","","","","","","","","","","","","","","","","","","","fixation","",""
"","","","","","color-precision2","99","559299","0.0-10.0-0.40-0.40","616cf9ae07c1c6bd05d95beb","640759fa512f630a2bdc333d","6408c17f2326cb64f0150108","[590.7999999821186]","","","[17]","[162]","162","78","247.5642791832543","[247.5642791832543]","[169.5642791832543]","[170]","0","0","1","0","147.89399998809677","1007.5840000000317","1000","[[[""img/mask79.png""]]]","","","main","78","color-precision2"
"","","","","","html-keyboard-response","100","559802","0.0-10.0-1.40","616cf9ae07c1c6bd05d95beb","640759fa512f630a2bdc333d","6408c17f2326cb64f0150108","null","","null","","","","","","","","","","","","","","","","","","","fixation","",""
"","","","","","many-guess-6","101","564478","0.0-10.0-0.41-0.41","616cf9ae07c1c6bd05d95beb","640759fa512f630a2bdc333d","6408c17f2326cb64f0150108","[2560.199999988079]","","","[35,33,27,21,23,31,24,18,0,15,25,32,7,3,16,13,34,1,14,6,19,4,28,30,2,22,20,9,12,8,5,11,17,29,10,26]","[92,142,322,202,132,312,192,112,102,302,62,282,252,351,242,222,332,262,172,272,2,341,162,82,292,232,72,212,52,32,122,42,22,182,152,12]","92","148","26.60566680290449","[26.60566680290449]","[238.6056668029045]","[237]","[120,30,210,210,120,210,210,210,120]","0","36","0","149.2060000000056","16.29599998809863","16","[[[""img/mask55.png""],[""img/mask83.png""],[""img/mask90.png""],[""img/mask8.png""],[""img/mask97.png""],[""img/mask99.png""],[""img/mask30.png""],[""img/mask18.png""],[""img/mask56.png""],[""img/mask33.png""],[""img/mask75.png""],[""img/mask10.png""],[""img/mask96.png""],[""img/mask78.png""],[""img/mask45.png""],[""img/mask78.png""],[""img/mask70.png""],[""img/mask85.png""],[""img/mask23.png""],[""img/mask58.png""],[""img/mask96.png""],[""img/mask40.png""],[""img/mask27.png""],[""img/mask93.png""],[""img/mask30.png""],[""img/mask78.png""],[""img/mask43.png""],[""img/mask94.png""],[""img/mask9.png""],[""img/mask67.png""],[""img/mask95.png""],[""img/mask49.png""],[""img/mask41.png""],[""img/mask37.png""],[""img/mask68.png""],[""img/mask8.png""]]]","","[35,33,27,21,23,31,24,18,0,15,25,32,7,3,16,13,34,1,14,6,19,4,28,30,2,22,20,9,12,8,5,11,17,29,10,26]","main","148","many-guess-6"
"","","","","","html-keyboard-response","102","564984","0.0-10.0-1.41","616cf9ae07c1c6bd05d95beb","640759fa512f630a2bdc333d","6408c17f2326cb64f0150108","null","","null","","","","","","","","","","","","","","","","","","","fixation","",""
"","","","","","color-precision2","103","568506","0.0-10.0-0.42-0.42","616cf9ae07c1c6bd05d95beb","640759fa512f630a2bdc333d","6408c17f2326cb64f0150108","[722.5]","","","[14]","[294]","294","200","132.96530566854983","[132.96530566854983]","[292.96530566854983]","[291]","0","0","1","0","147.6499999880325","995.0399999880465","1000","[[[""img/mask88.png""]]]","","","main","200","color-precision2"
"","","","","","html-keyboard-response","104","569013","0.0-10.0-1.42","616cf9ae07c1c6bd05d95beb","640759fa512f630a2bdc333d","6408c17f2326cb64f0150108","null","","null","","","","","","","","","","","","","","","","","","","fixation","",""
"","","","","","color-precision2","105","572860","0.0-10.0-0.43-0.43","616cf9ae07c1c6bd05d95beb","640759fa512f630a2bdc333d","6408c17f2326cb64f0150108","[1115.4000000059605]","","","[3]","[111]","111","92","210.85961127348986","[210.85961127348986]","[118.85961127348986]","[118]","0","0","1","0","146.85699997621123","1002.5469999880297","1000","[[[""img/mask73.png""]]]","","","main","92","color-precision2"
"","","","","","html-keyboard-response","106","573363","0.0-10.0-1.43","616cf9ae07c1c6bd05d95beb","640759fa512f630a2bdc333d","6408c17f2326cb64f0150108","null","","null","","","","","","","","","","","","","","","","","","","fixation","",""
"","","","","","many-guess-6","107","578614","0.0-10.0-0.44-0.44","616cf9ae07c1c6bd05d95beb","640759fa512f630a2bdc333d","6408c17f2326cb64f0150108","[3409.2999999821186]","","","[14,16,17,23,1,11,34,32,35,19,5,4,24,28,3,12,7,33,2,29,15,13,18,10,27,25,21,0,30,8,6,20,22,31,9,26]","[299,289,70,20,180,100,199,30,90,209,349,40,359,110,140,80,150,329,50,249,10,189,309,279,259,170,269,120,229,239,339,219,130,160,319,60]","299","212","188.69183992496647","[188.69183992496647]","[336.6918399249665]","[336]","[210,300,30,120,30,300,30,30,210]","0","36","0","147.863999994006","13.853999988059513","16","[[[""img/mask32.png""],[""img/mask4.png""],[""img/mask82.png""],[""img/mask91.png""],[""img/mask22.png""],[""img/mask67.png""],[""img/mask71.png""],[""img/mask66.png""],[""img/mask64.png""],[""img/mask23.png""],[""img/mask53.png""],[""img/mask56.png""],[""img/mask21.png""],[""img/mask21.png""],[""img/mask88.png""],[""img/mask65.png""],[""img/mask34.png""],[""img/mask47.png""],[""img/mask76.png""],[""img/mask63.png""],[""img/mask74.png""],[""img/mask97.png""],[""img/mask63.png""],[""img/mask60.png""],[""img/mask23.png""],[""img/mask45.png""],[""img/mask22.png""],[""img/mask10.png""],[""img/mask21.png""],[""img/mask12.png""],[""img/mask12.png""],[""img/mask37.png""],[""img/mask92.png""],[""img/mask72.png""],[""img/mask89.png""],[""img/mask94.png""]]]","","[14,16,17,23,1,11,34,32,35,19,5,4,24,28,3,12,7,33,2,29,15,13,18,10,27,25,21,0,30,8,6,20,22,31,9,26]","main","212","many-guess-6"
"","","","","","html-keyboard-response","108","579124","0.0-10.0-1.44","616cf9ae07c1c6bd05d95beb","640759fa512f630a2bdc333d","6408c17f2326cb64f0150108","null","","null","","","","","","","","","","","","","","","","","","","fixation","",""
"","","","","","many-guess-6","109","583618","0.0-10.0-0.45-0.45","616cf9ae07c1c6bd05d95beb","640759fa512f630a2bdc333d","6408c17f2326cb64f0150108","[2632.100000023842]","","","[35,32,24,18,28,34,17,26,23,22,27,1,7,12,14,31,5,30,4,16,33,13,21,20,6,8,0,11,10,25,9,2,15,29,19,3]","[100,40,180,309,259,10,120,289,239,269,30,20,319,190,130,359,200,50,349,160,219,329,80,249,210,90,60,339,299,140,70,170,110,150,229,279]","100","177","137.6930145638164","[137.6930145638164]","[320.6930145638164]","[319]","[300,120,120,300,120,30,30,120,30]","0","36","0","149.36999999405816","19.859999988111667","16","[[[""img/mask75.png""],[""img/mask23.png""],[""img/mask76.png""],[""img/mask85.png""],[""img/mask35.png""],[""img/mask17.png""],[""img/mask91.png""],[""img/mask1.png""],[""img/mask47.png""],[""img/mask61.png""],[""img/mask11.png""],[""img/mask90.png""],[""img/mask62.png""],[""img/mask9.png""],[""img/mask98.png""],[""img/mask83.png""],[""img/mask88.png""],[""img/mask49.png""],[""img/mask92.png""],[""img/mask53.png""],[""img/mask25.png""],[""img/mask1.png""],[""img/mask8.png""],[""img/mask24.png""],[""img/mask91.png""],[""img/mask4.png""],[""img/mask36.png""],[""img/mask77.png""],[""img/mask21.png""],[""img/mask73.png""],[""img/mask93.png""],[""img/mask2.png""],[""img/mask46.png""],[""img/mask64.png""],[""img/mask72.png""],[""img/mask93.png""]]]","","[35,32,24,18,28,34,17,26,23,22,27,1,7,12,14,31,5,30,4,16,33,13,21,20,6,8,0,11,10,25,9,2,15,29,19,3]","main","177","many-guess-6"
"","","","","","html-keyboard-response","110","584125","0.0-10.0-1.45","616cf9ae07c1c6bd05d95beb","640759fa512f630a2bdc333d","6408c17f2326cb64f0150108","null","","null","","","","","","","","","","","","","","","","","","","fixation","",""
"","","","","","color-precision2","111","588344","0.0-10.0-0.46-0.46","616cf9ae07c1c6bd05d95beb","640759fa512f630a2bdc333d","6408c17f2326cb64f0150108","[1257.5999999940395]","","","[32]","[228]","228","117","346.9685658107979","[346.9685658107979]","[229.96856581079788]","[229]","0","0","1","0","147.68099998810794","993.4709999940824","1000","[[[""img/mask48.png""]]]","","","main","117","color-precision2"
"","","","","","html-keyboard-response","112","588848","0.0-10.0-1.46","616cf9ae07c1c6bd05d95beb","640759fa512f630a2bdc333d","6408c17f2326cb64f0150108","null","","null","","","","","","","","","","","","","","","","","","","fixation","",""
"","","","","","color-precision2","113","593680","0.0-10.0-0.47-0.47","616cf9ae07c1c6bd05d95beb","640759fa512f630a2bdc333d","6408c17f2326cb64f0150108","[1630.2999999821186]","","","[19]","[206]","206","134","313.50171526484576","[313.50171526484576]","[179.50171526484576]","[180]","0","0","1","0","148.24799999408424","1002.6379999939818","1000","[[[""img/mask60.png""]]]","","","main","134","color-precision2"
"","","","","","html-keyboard-response","114","594186","0.0-10.0-1.47","616cf9ae07c1c6bd05d95beb","640759fa512f630a2bdc333d","6408c17f2326cb64f0150108","null","","null","","","","","","","","","","","","","","","","","","","fixation","",""
"","","","","","many-guess-6","115","598611","0.0-10.0-0.48-0.48","616cf9ae07c1c6bd05d95beb","640759fa512f630a2bdc333d","6408c17f2326cb64f0150108","[2400.5999999940395]","","","[25,11,15,8,27,35,3,33,16,2,5,14,23,21,20,29,12,6,34,31,9,1,22,7,28,19,24,26,32,0,13,4,18,17,10,30]","[308,48,318,148,118,8,88,337,268,298,168,38,278,258,357,178,288,108,248,58,78,218,188,158,68,327,28,198,128,238,18,347,138,228,98,208]","308","186","56.582369189501364","[56.582369189501364]","[230.58236918950138]","[229]","[300,300,300,210,120,210,30,210,120]","0","36","0","147.96999999403488","22.659999976167455","16","[[[""img/mask14.png""],[""img/mask94.png""],[""img/mask75.png""],[""img/mask57.png""],[""img/mask26.png""],[""img/mask50.png""],[""img/mask34.png""],[""img/mask21.png""],[""img/mask10.png""],[""img/mask37.png""],[""img/mask93.png""],[""img/mask34.png""],[""img/mask68.png""],[""img/mask10.png""],[""img/mask51.png""],[""img/mask81.png""],[""img/mask67.png""],[""img/mask78.png""],[""img/mask38.png""],[""img/mask100.png""],[""img/mask36.png""],[""img/mask14.png""],[""img/mask68.png""],[""img/mask94.png""],[""img/mask51.png""],[""img/mask47.png""],[""img/mask11.png""],[""img/mask14.png""],[""img/mask48.png""],[""img/mask28.png""],[""img/mask41.png""],[""img/mask56.png""],[""img/mask75.png""],[""img/mask31.png""],[""img/mask3.png""],[""img/mask78.png""]]]","","[25,11,15,8,27,35,3,33,16,2,5,14,23,21,20,29,12,6,34,31,9,1,22,7,28,19,24,26,32,0,13,4,18,17,10,30]","main","186","many-guess-6"
"","","","","","html-keyboard-response","116","599115","0.0-10.0-1.48","616cf9ae07c1c6bd05d95beb","640759fa512f630a2bdc333d","6408c17f2326cb64f0150108","null","","null","","","","","","","","","","","","","","","","","","","fixation","",""
"","","","","","color-precision2","117","603085","0.0-10.0-0.49-0.49","616cf9ae07c1c6bd05d95beb","640759fa512f630a2bdc333d","6408c17f2326cb64f0150108","[1008.5]","","","[22]","[130]","130","133","272.2151767258288","[272.2151767258288]","[139.21517672582883]","[139]","0","0","1","0","148.83099997614045","1004.5209999880753","1000","[[[""img/mask50.png""]]]","","","main","133","color-precision2"
"","","","","","html-keyboard-response","118","603593","0.0-10.0-1.49","616cf9ae07c1c6bd05d95beb","640759fa512f630a2bdc333d","6408c17f2326cb64f0150108","null","","null","","","","","","","","","","","","","","","","","","","fixation","",""
"","","","","","many-guess-6","119","608417","0.0-10.0-0.50-0.50","616cf9ae07c1c6bd05d95beb","640759fa512f630a2bdc333d","6408c17f2326cb64f0150108","[2898.100000023842]","","","[33,7,10,30,9,31,28,22,23,3,25,4,14,16,24,35,11,15,34,8,1,2,32,5,18,27,29,19,20,13,6,17,21,26,0,12]","[94,34,24,343,323,14,203,174,154,313,164,223,134,114,293,283,84,54,263,243,193,4,104,213,74,353,253,303,233,44,144,64,333,124,273,183]","94","23","239.2206185786184","[239.2206185786184]","[216.2206185786184]","[216]","[30,30,300,30,300,120,30,120,120]","0","36","0","148.8969999999972","7.886999994050711","16","[[[""img/mask53.png""],[""img/mask2.png""],[""img/mask36.png""],[""img/mask41.png""],[""img/mask8.png""],[""img/mask65.png""],[""img/mask97.png""],[""img/mask31.png""],[""img/mask76.png""],[""img/mask20.png""],[""img/mask31.png""],[""img/mask25.png""],[""img/mask39.png""],[""img/mask100.png""],[""img/mask1.png""],[""img/mask22.png""],[""img/mask19.png""],[""img/mask42.png""],[""img/mask78.png""],[""img/mask53.png""],[""img/mask77.png""],[""img/mask51.png""],[""img/mask8.png""],[""img/mask67.png""],[""img/mask54.png""],[""img/mask46.png""],[""img/mask21.png""],[""img/mask90.png""],[""img/mask33.png""],[""img/mask7.png""],[""img/mask44.png""],[""img/mask22.png""],[""img/mask4.png""],[""img/mask7.png""],[""img/mask95.png""],[""img/mask27.png""]]]","","[33,7,10,30,9,31,28,22,23,3,25,4,14,16,24,35,11,15,34,8,1,2,32,5,18,27,29,19,20,13,6,17,21,26,0,12]","main","23","many-guess-6"
"","","","","","html-keyboard-response","120","608925","0.0-10.0-1.50","616cf9ae07c1c6bd05d95beb","640759fa512f630a2bdc333d","6408c17f2326cb64f0150108","null","","null","","","","","","","","","","","","","","","","","","","fixation","",""
"","","","","","many-guess-6","121","613523","0.0-10.0-0.51-0.51","616cf9ae07c1c6bd05d95beb","640759fa512f630a2bdc333d","6408c17f2326cb64f0150108","[2589.5]","","","[18,20,32,29,8,22,35,15,24,9,28,6,16,31,30,19,21,17,33,13,4,34,0,11,27,7,12,10,26,1,5,14,23,3,2,25]","[272,282,122,53,342,23,182,192,83,13,252,43,142,3,63,322,332,352,222,242,73,202,93,33,232,132,112,292,172,262,302,212,162,102,152,312]","272","340","354.87456067973176","[354.87456067973176]","[14.874560679731758]","[14]","[120,210,210,300,210,300,30,210,30]","0","36","0","148.1399999880232","22.52999998803716","16","[[[""img/mask31.png""],[""img/mask83.png""],[""img/mask20.png""],[""img/mask1.png""],[""img/mask63.png""],[""img/mask83.png""],[""img/mask89.png""],[""img/mask62.png""],[""img/mask16.png""],[""img/mask84.png""],[""img/mask4.png""],[""img/mask10.png""],[""img/mask78.png""],[""img/mask91.png""],[""img/mask58.png""],[""img/mask62.png""],[""img/mask37.png""],[""img/mask18.png""],[""img/mask41.png""],[""img/mask66.png""],[""img/mask46.png""],[""img/mask31.png""],[""img/mask13.png""],[""img/mask92.png""],[""img/mask35.png""],[""img/mask33.png""],[""img/mask6.png""],[""img/mask37.png""],[""img/mask36.png""],[""img/mask54.png""],[""img/mask78.png""],[""img/mask60.png""],[""img/mask7.png""],[""img/mask85.png""],[""img/mask82.png""],[""img/mask48.png""]]]","","[18,20,32,29,8,22,35,15,24,9,28,6,16,31,30,19,21,17,33,13,4,34,0,11,27,7,12,10,26,1,5,14,23,3,2,25]","main","340","many-guess-6"
"","","","","","html-keyboard-response","122","614025","0.0-10.0-1.51","616cf9ae07c1c6bd05d95beb","640759fa512f630a2bdc333d","6408c17f2326cb64f0150108","null","","null","","","","","","","","","","","","","","","","","","","fixation","",""
"","","","","","color-precision2","123","617949","0.0-10.0-0.52-0.52","616cf9ae07c1c6bd05d95beb","640759fa512f630a2bdc333d","6408c17f2326cb64f0150108","[899.5999999940395]","","","[31]","[109]","109","349","96.18974228141931","[96.18974228141931]","[107.18974228141931]","[105]","0","0","1","0","147.95999999402557","994.5499999821186","1000","[[[""img/mask4.png""]]]","","","main","349","color-precision2"
"","","","","","html-keyboard-response","124","618452","0.0-10.0-1.52","616cf9ae07c1c6bd05d95beb","640759fa512f630a2bdc333d","6408c17f2326cb64f0150108","null","","null","","","","","","","","","","","","","","","","","","","fixation","",""
"","","","","","color-precision2","125","622481","0.0-10.0-0.53-0.53","616cf9ae07c1c6bd05d95beb","640759fa512f630a2bdc333d","6408c17f2326cb64f0150108","[1103.300000011921]","","","[33]","[11]","11","328","342.0030933235331","[342.0030933235331]","[14.003093323533108]","[14]","0","0","1","0","146.40899997611996","1002.2989999761339","1000","[[[""img/mask96.png""]]]","","","main","328","color-precision2"
"","","","","","html-keyboard-response","126","622984","0.0-10.0-1.53","616cf9ae07c1c6bd05d95beb","640759fa512f630a2bdc333d","6408c17f2326cb64f0150108","null","","null","","","","","","","","","","","","","","","","","","","fixation","",""
"","","","","","color-precision2","127","628112","0.0-10.0-0.54-0.54","616cf9ae07c1c6bd05d95beb","640759fa512f630a2bdc333d","6408c17f2326cb64f0150108","[2104.7999999821186]","","","[31]","[183]","183","20","196.6804226565216","[196.6804226565216]","[176.6804226565216]","[176]","0","0","1","0","148.35599997616373","993.8460000000196","1000","[[[""img/mask2.png""]]]","","","main","20","color-precision2"
"","","","","","html-keyboard-response","128","628619","0.0-10.0-1.54","616cf9ae07c1c6bd05d95beb","640759fa512f630a2bdc333d","6408c17f2326cb64f0150108","null","","null","","","","","","","","","","","","","","","","","","","fixation","",""
"","","","","","many-guess-6","129","633314","0.0-10.0-0.55-0.55","616cf9ae07c1c6bd05d95beb","640759fa512f630a2bdc333d","6408c17f2326cb64f0150108","[2593.2000000178814]","","","[34,2,31,5,32,7,20,26,3,23,25,10,24,22,17,35,28,18,0,11,21,15,9,4,8,19,12,16,6,1,29,13,14,27,30,33]","[356,17,166,176,296,107,87,156,206,27,276,146,346,246,226,336,216,37,136,326,256,97,67,57,316,266,306,47,7,77,186,236,117,286,196,126]","356","170","198.58188704191244","[198.58188704191244]","[28.581887041912438]","[28]","[300,30,120,210,300,210,30,30,120]","0","36","0","149.07999997620936","9.769999988027848","16","[[[""img/mask23.png""],[""img/mask72.png""],[""img/mask17.png""],[""img/mask91.png""],[""img/mask50.png""],[""img/mask99.png""],[""img/mask10.png""],[""img/mask47.png""],[""img/mask70.png""],[""img/mask47.png""],[""img/mask87.png""],[""img/mask9.png""],[""img/mask50.png""],[""img/mask46.png""],[""img/mask29.png""],[""img/mask99.png""],[""img/mask23.png""],[""img/mask50.png""],[""img/mask52.png""],[""img/mask73.png""],[""img/mask11.png""],[""img/mask31.png""],[""img/mask57.png""],[""img/mask26.png""],[""img/mask86.png""],[""img/mask21.png""],[""img/mask30.png""],[""img/mask32.png""],[""img/mask50.png""],[""img/mask65.png""],[""img/mask77.png""],[""img/mask70.png""],[""img/mask22.png""],[""img/mask99.png""],[""img/mask46.png""],[""img/mask64.png""]]]","","[34,2,31,5,32,7,20,26,3,23,25,10,24,22,17,35,28,18,0,11,21,15,9,4,8,19,12,16,6,1,29,13,14,27,30,33]","main","170","many-guess-6"
"","","","","","html-keyboard-response","130","633817","0.0-10.0-1.55","616cf9ae07c1c6bd05d95beb","640759fa512f630a2bdc333d","6408c17f2326cb64f0150108","null","","null","","","","","","","","","","","","","","","","","","","fixation","",""
"","","","","","many-guess-6","131","638742","0.0-10.0-0.56-0.56","616cf9ae07c1c6bd05d95beb","640759fa512f630a2bdc333d","6408c17f2326cb64f0150108","[2589.7000000178814]","","","[33,2,11,13,18,22,24,21,26,29,19,14,8,10,9,23,0,15,31,17,16,7,32,6,25,28,30,5,34,1,20,27,35,12,4,3]","[35,224,304,354,264,334,184,314,165,274,244,75,204,65,175,85,294,234,45,284,55,194,344,5,324,135,254,95,105,115,25,145,125,155,214,15]","35","299","173.66952434345146","[173.66952434345146]","[234.66952434345146]","[233]","[30,210,120,30,210,120,300,30,30]","0","36","0","148.81799997610506","10.645000000018626","16","[[[""img/mask17.png""],[""img/mask61.png""],[""img/mask43.png""],[""img/mask74.png""],[""img/mask31.png""],[""img/mask28.png""],[""img/mask19.png""],[""img/mask43.png""],[""img/mask9.png""],[""img/mask12.png""],[""img/mask15.png""],[""img/mask79.png""],[""img/mask61.png""],[""img/mask19.png""],[""img/mask22.png""],[""img/mask27.png""],[""img/mask94.png""],[""img/mask20.png""],[""img/mask10.png""],[""img/mask17.png""],[""img/mask44.png""],[""img/mask71.png""],[""img/mask58.png""],[""img/mask6.png""],[""img/mask69.png""],[""img/mask43.png""],[""img/mask64.png""],[""img/mask90.png""],[""img/mask31.png""],[""img/mask22.png""],[""img/mask14.png""],[""img/mask62.png""],[""img/mask89.png""],[""img/mask29.png""],[""img/mask30.png""],[""img/mask10.png""]]]","","[33,2,11,13,18,22,24,21,26,29,19,14,8,10,9,23,0,15,31,17,16,7,32,6,25,28,30,5,34,1,20,27,35,12,4,3]","main","299","many-guess-6"
"","","","","","html-keyboard-response","132","639244","0.0-10.0-1.56","616cf9ae07c1c6bd05d95beb","640759fa512f630a2bdc333d","6408c17f2326cb64f0150108","null","","null","","","","","","","","","","","","","","","","","","","fixation","",""
"","","","","","color-precision2","133","643456","0.0-10.0-0.57-0.57","616cf9ae07c1c6bd05d95beb","640759fa512f630a2bdc333d","6408c17f2326cb64f0150108","[1471.9000000059605]","","","[6]","[260]","260","67","332.2849874195473","[332.2849874195473]","[265.2849874195473]","[265]","0","0","1","0","147.25699998810887","1006.2469999821624","1000","[[[""img/mask88.png""]]]","","","main","67","color-precision2"
"","","","","","html-keyboard-response","134","643958","0.0-10.0-1.57","616cf9ae07c1c6bd05d95beb","640759fa512f630a2bdc333d","6408c17f2326cb64f0150108","null","","null","","","","","","","","","","","","","","","","","","","fixation","",""
"","","","","","many-guess-6","135","648994","0.0-10.0-0.58-0.58","616cf9ae07c1c6bd05d95beb","640759fa512f630a2bdc333d","6408c17f2326cb64f0150108","[3333.4000000059605]","","","[0,34,19,33,5,7,18,12,22,6,32,10,23,25,30,15,4,1,9,31,11,17,28,2,29,8,21,16,14,20,3,24,35,13,26,27]","[127,176,236,137,17,356,346,107,47,77,316,147,206,156,37,166,216,87,276,306,266,336,57,97,226,286,326,7,196,256,186,117,296,67,246,27]","127","137","273.1139567060717","[273.1139567060717]","[136.1139567060717]","[136]","[120,210,120,210,210,30,30,300,120]","0","36","0","148.4769999999553","20.566999988048337","16","[[[""img/mask81.png""],[""img/mask63.png""],[""img/mask25.png""],[""img/mask52.png""],[""img/mask31.png""],[""img/mask66.png""],[""img/mask27.png""],[""img/mask14.png""],[""img/mask66.png""],[""img/mask25.png""],[""img/mask14.png""],[""img/mask93.png""],[""img/mask25.png""],[""img/mask62.png""],[""img/mask39.png""],[""img/mask63.png""],[""img/mask87.png""],[""img/mask4.png""],[""img/mask19.png""],[""img/mask94.png""],[""img/mask77.png""],[""img/mask17.png""],[""img/mask80.png""],[""img/mask85.png""],[""img/mask62.png""],[""img/mask52.png""],[""img/mask86.png""],[""img/mask91.png""],[""img/mask25.png""],[""img/mask92.png""],[""img/mask82.png""],[""img/mask55.png""],[""img/mask71.png""],[""img/mask49.png""],[""img/mask58.png""],[""img/mask45.png""]]]","","[0,34,19,33,5,7,18,12,22,6,32,10,23,25,30,15,4,1,9,31,11,17,28,2,29,8,21,16,14,20,3,24,35,13,26,27]","main","137","many-guess-6"
"","","","","","html-keyboard-response","136","649502","0.0-10.0-1.58","616cf9ae07c1c6bd05d95beb","640759fa512f630a2bdc333d","6408c17f2326cb64f0150108","null","","null","","","","","","","","","","","","","","","","","","","fixation","",""
"","","","","","color-precision2","137","653391","0.0-10.0-0.59-0.59","616cf9ae07c1c6bd05d95beb","640759fa512f630a2bdc333d","6408c17f2326cb64f0150108","[1061.300000011921]","","","[0]","[286]","286","0","286.73401858595764","[286.73401858595764]","[286.73401858595764]","[287]","0","0","1","0","148.16799998213537","992.4579999881098","1000","[[[""img/mask52.png""]]]","","","main","0","color-precision2"
"","","","","","html-keyboard-response","138","660781","0.0-10.0-1.59","616cf9ae07c1c6bd05d95beb","640759fa512f630a2bdc333d","6408c17f2326cb64f0150108","7387.300000011921","Wow! You've completed 60 out of 180 trials! </p> <p>  </p><p> Take a quick break, then press any key when you're ready to continue.","n","","","","","","","","","","","","","","","","","","","fixation","",""
"","","","","","many-guess-6","139","666503","0.0-10.0-0.60-0.60","616cf9ae07c1c6bd05d95beb","640759fa512f630a2bdc333d","6408c17f2326cb64f0150108","[1724.300000011921]","","","[16,6,4,10,23,33,20,1,21,17,29,0,26,35,12,15,28,25,30,11,2,5,7,19,18,8,24,3,32,22,13,27,31,34,14,9]","[325,335,354,115,95,315,205,345,155,85,35,15,305,165,25,295,195,105,135,185,275,75,225,215,55,265,245,145,5,45,65,285,175,255,235,125]","325","123","170.1955042438163","[170.1955042438163]","[47.19550424381629]","[46]","[120,30,30,300,30,210,210,120,30]","0","36","0","147.71899997617584","19.608999976189807","16","[[[""img/mask76.png""],[""img/mask23.png""],[""img/mask17.png""],[""img/mask13.png""],[""img/mask62.png""],[""img/mask17.png""],[""img/mask9.png""],[""img/mask1.png""],[""img/mask96.png""],[""img/mask14.png""],[""img/mask98.png""],[""img/mask86.png""],[""img/mask96.png""],[""img/mask12.png""],[""img/mask89.png""],[""img/mask21.png""],[""img/mask35.png""],[""img/mask3.png""],[""img/mask75.png""],[""img/mask78.png""],[""img/mask48.png""],[""img/mask99.png""],[""img/mask53.png""],[""img/mask97.png""],[""img/mask9.png""],[""img/mask21.png""],[""img/mask42.png""],[""img/mask60.png""],[""img/mask57.png""],[""img/mask40.png""],[""img/mask49.png""],[""img/mask28.png""],[""img/mask95.png""],[""img/mask8.png""],[""img/mask21.png""],[""img/mask76.png""]]]","","[16,6,4,10,23,33,20,1,21,17,29,0,26,35,12,15,28,25,30,11,2,5,7,19,18,8,24,3,32,22,13,27,31,34,14,9]","main","123","many-guess-6"
"","","","","","html-keyboard-response","140","667011","0.0-10.0-1.60","616cf9ae07c1c6bd05d95beb","640759fa512f630a2bdc333d","6408c17f2326cb64f0150108","null","","null","","","","","","","","","","","","","","","","","","","fixation","",""
"","","","","","color-precision2","141","671167","0.0-10.0-0.61-0.61","616cf9ae07c1c6bd05d95beb","640759fa512f630a2bdc333d","6408c17f2326cb64f0150108","[1408.2999999821186]","","","[27]","[346]","346","102","79.31366751360142","[79.31366751360142]","[337.31366751360144]","[335]","0","0","1","0","144.99699998216238","998.2869999881368","1000","[[[""img/mask58.png""]]]","","","main","102","color-precision2"
"","","","","","html-keyboard-response","142","671675","0.0-10.0-1.61","616cf9ae07c1c6bd05d95beb","640759fa512f630a2bdc333d","6408c17f2326cb64f0150108","null","","null","","","","","","","","","","","","","","","","","","","fixation","",""
"","","","","","color-precision2","143","676253","0.0-10.0-0.62-0.62","616cf9ae07c1c6bd05d95beb","640759fa512f630a2bdc333d","6408c17f2326cb64f0150108","[1948.5]","","","[15]","[261]","261","185","91.45222647246436","[91.45222647246436]","[266.45222647246436]","[265]","0","0","1","0","148.295999999973","1007.7859999940265","1000","[[[""img/mask78.png""]]]","","","main","185","color-precision2"
"","","","","","html-keyboard-response","144","676758","0.0-10.0-1.62","616cf9ae07c1c6bd05d95beb","640759fa512f630a2bdc333d","6408c17f2326cb64f0150108","null","","null","","","","","","","","","","","","","","","","","","","fixation","",""
"","","","","","many-guess-6","145","680639","0.0-10.0-0.63-0.63","616cf9ae07c1c6bd05d95beb","640759fa512f630a2bdc333d","6408c17f2326cb64f0150108","[2157.300000011921]","","","[35,17,14,33,31,6,26,20,34,7,18,0,25,16,24,8,22,28,3,11,4,27,2,13,30,29,21,23,1,10,5,15,32,9,12,19]","[161,260,1,11,151,211,340,320,330,250,270,121,240,71,191,41,310,51,221,21,111,91,131,201,171,350,300,280,290,181,31,141,81,230,61,101]","161","78","118.66733878272383","[118.66733878272383]","[40.66733878272383]","[39]","[30,300,120,120,120,120,210,300,120]","0","36","0","148.24599998805206","20.135999988066033","16","[[[""img/mask75.png""],[""img/mask76.png""],[""img/mask41.png""],[""img/mask37.png""],[""img/mask72.png""],[""img/mask9.png""],[""img/mask93.png""],[""img/mask100.png""],[""img/mask46.png""],[""img/mask72.png""],[""img/mask14.png""],[""img/mask78.png""],[""img/mask88.png""],[""img/mask66.png""],[""img/mask98.png""],[""img/mask6.png""],[""img/mask29.png""],[""img/mask92.png""],[""img/mask29.png""],[""img/mask21.png""],[""img/mask81.png""],[""img/mask75.png""],[""img/mask18.png""],[""img/mask59.png""],[""img/mask80.png""],[""img/mask74.png""],[""img/mask96.png""],[""img/mask100.png""],[""img/mask93.png""],[""img/mask99.png""],[""img/mask17.png""],[""img/mask68.png""],[""img/mask27.png""],[""img/mask38.png""],[""img/mask100.png""],[""img/mask92.png""]]]","","[35,17,14,33,31,6,26,20,34,7,18,0,25,16,24,8,22,28,3,11,4,27,2,13,30,29,21,23,1,10,5,15,32,9,12,19]","main","78","many-guess-6"
"","","","","","html-keyboard-response","146","681141","0.0-10.0-1.63","616cf9ae07c1c6bd05d95beb","640759fa512f630a2bdc333d","6408c17f2326cb64f0150108","null","","null","","","","","","","","","","","","","","","","","","","fixation","",""
"","","","","","many-guess-6","147","686259","0.0-10.0-0.64-0.64","616cf9ae07c1c6bd05d95beb","640759fa512f630a2bdc333d","6408c17f2326cb64f0150108","[2663.2999999821186]","","","[16,15,24,26,35,31,34,28,9,4,13,29,12,10,20,30,19,3,0,2,32,11,5,6,23,14,18,8,21,1,25,27,17,22,7,33]","[52,72,12,181,131,221,241,271,291,2,341,331,281,201,102,251,122,42,32,351,211,191,311,151,161,22,141,261,171,92,112,321,62,231,301,82]","52","256","202.79915759598344","[202.79915759598344]","[306.79915759598344]","[306]","[30,300,210,120,120,300,210,30,210]","0","36","0","147.85699999402277","11.046999976155348","16","[[[""img/mask72.png""],[""img/mask57.png""],[""img/mask43.png""],[""img/mask54.png""],[""img/mask32.png""],[""img/mask31.png""],[""img/mask6.png""],[""img/mask74.png""],[""img/mask19.png""],[""img/mask75.png""],[""img/mask67.png""],[""img/mask59.png""],[""img/mask92.png""],[""img/mask27.png""],[""img/mask69.png""],[""img/mask61.png""],[""img/mask50.png""],[""img/mask67.png""],[""img/mask55.png""],[""img/mask79.png""],[""img/mask76.png""],[""img/mask83.png""],[""img/mask8.png""],[""img/mask86.png""],[""img/mask46.png""],[""img/mask82.png""],[""img/mask83.png""],[""img/mask33.png""],[""img/mask99.png""],[""img/mask81.png""],[""img/mask19.png""],[""img/mask10.png""],[""img/mask33.png""],[""img/mask21.png""],[""img/mask62.png""],[""img/mask77.png""]]]","","[16,15,24,26,35,31,34,28,9,4,13,29,12,10,20,30,19,3,0,2,32,11,5,6,23,14,18,8,21,1,25,27,17,22,7,33]","main","256","many-guess-6"
"","","","","","html-keyboard-response","148","686768","0.0-10.0-1.64","616cf9ae07c1c6bd05d95beb","640759fa512f630a2bdc333d","6408c17f2326cb64f0150108","null","","null","","","","","","","","","","","","","","","","","","","fixation","",""
"","","","","","color-precision2","149","690830","0.0-10.0-0.65-0.65","616cf9ae07c1c6bd05d95beb","640759fa512f630a2bdc333d","6408c17f2326cb64f0150108","[1066.0999999940395]","","","[4]","[118]","118","312","55.21255359173406","[55.21255359173406]","[103.21255359173404]","[102]","0","0","1","0","148.11600000003818","1003.3059999821708","1000","[[[""img/mask98.png""]]]","","","main","312","color-precision2"
"","","","","","html-keyboard-response","150","691332","0.0-10.0-1.65","616cf9ae07c1c6bd05d95beb","640759fa512f630a2bdc333d","6408c17f2326cb64f0150108","null","","null","","","","","","","","","","","","","","","","","","","fixation","",""
"","","","","","color-precision2","151","695700","0.0-10.0-0.66-0.66","616cf9ae07c1c6bd05d95beb","640759fa512f630a2bdc333d","6408c17f2326cb64f0150108","[1675.8999999761581]","","","[26]","[340]","340","263","208.27305050993084","[208.27305050993084]","[305.27305050993084]","[305]","0","0","1","0","148.36899998807348","999.010999988066","1000","[[[""img/mask54.png""]]]","","","main","263","color-precision2"
"","","","","","html-keyboard-response","152","696202","0.0-10.0-1.66","616cf9ae07c1c6bd05d95beb","640759fa512f630a2bdc333d","6408c17f2326cb64f0150108","null","","null","","","","","","","","","","","","","","","","","","","fixation","",""
"","","","","","many-guess-6","153","700800","0.0-10.0-0.67-0.67","616cf9ae07c1c6bd05d95beb","640759fa512f630a2bdc333d","6408c17f2326cb64f0150108","[2397]","","","[16,35,14,19,22,30,20,13,7,26,33,27,2,0,10,12,25,32,3,6,18,11,23,24,5,28,31,17,4,9,34,29,21,8,1,15]","[228,69,119,298,29,189,328,149,248,308,99,209,268,169,109,358,199,288,238,89,39,219,278,159,79,318,139,59,338,348,49,129,19,258,179,9]","228","310","313.6442410682515","[313.6442410682515]","[3.6442410682515174]","[4]","[120,210,30,30,300,210,30,300,30]","0","36","0","147.75099998211954","15.140999982133508","16","[[[""img/mask21.png""],[""img/mask42.png""],[""img/mask9.png""],[""img/mask20.png""],[""img/mask79.png""],[""img/mask27.png""],[""img/mask85.png""],[""img/mask8.png""],[""img/mask6.png""],[""img/mask1.png""],[""img/mask36.png""],[""img/mask12.png""],[""img/mask21.png""],[""img/mask50.png""],[""img/mask71.png""],[""img/mask17.png""],[""img/mask88.png""],[""img/mask4.png""],[""img/mask40.png""],[""img/mask49.png""],[""img/mask43.png""],[""img/mask51.png""],[""img/mask72.png""],[""img/mask1.png""],[""img/mask19.png""],[""img/mask39.png""],[""img/mask27.png""],[""img/mask50.png""],[""img/mask88.png""],[""img/mask86.png""],[""img/mask17.png""],[""img/mask100.png""],[""img/mask76.png""],[""img/mask9.png""],[""img/mask95.png""],[""img/mask27.png""]]]","","[16,35,14,19,22,30,20,13,7,26,33,27,2,0,10,12,25,32,3,6,18,11,23,24,5,28,31,17,4,9,34,29,21,8,1,15]","main","310","many-guess-6"
"","","","","","html-keyboard-response","154","701309","0.0-10.0-1.67","616cf9ae07c1c6bd05d95beb","640759fa512f630a2bdc333d","6408c17f2326cb64f0150108","null","","null","","","","","","","","","","","","","","","","","","","fixation","",""
"","","","","","many-guess-6","155","705598","0.0-10.0-0.68-0.68","616cf9ae07c1c6bd05d95beb","640759fa512f630a2bdc333d","6408c17f2326cb64f0150108","[2231.5]","","","[32,28,16,5,0,29,8,2,7,20,15,17,14,3,34,25,27,13,4,22,26,31,11,10,12,1,19,9,30,35,21,23,24,6,33,18]","[86,26,275,265,76,66,56,315,205,345,6,185,235,355,245,195,125,165,96,215,175,285,225,106,16,135,116,46,145,255,325,335,36,155,305,295]","86","130","191.80652713451815","[191.80652713451815]","[61.80652713451815]","[61]","[210,210,300,120,210,30,120,210,300]","0","36","0","149.2179999940563","12.508000000030734","16","[[[""img/mask52.png""],[""img/mask19.png""],[""img/mask77.png""],[""img/mask96.png""],[""img/mask32.png""],[""img/mask92.png""],[""img/mask6.png""],[""img/mask57.png""],[""img/mask76.png""],[""img/mask16.png""],[""img/mask81.png""],[""img/mask61.png""],[""img/mask6.png""],[""img/mask25.png""],[""img/mask44.png""],[""img/mask21.png""],[""img/mask54.png""],[""img/mask61.png""],[""img/mask42.png""],[""img/mask85.png""],[""img/mask29.png""],[""img/mask55.png""],[""img/mask29.png""],[""img/mask62.png""],[""img/mask59.png""],[""img/mask76.png""],[""img/mask73.png""],[""img/mask43.png""],[""img/mask60.png""],[""img/mask30.png""],[""img/mask7.png""],[""img/mask99.png""],[""img/mask1.png""],[""img/mask90.png""],[""img/mask91.png""],[""img/mask21.png""]]]","","[32,28,16,5,0,29,8,2,7,20,15,17,14,3,34,25,27,13,4,22,26,31,11,10,12,1,19,9,30,35,21,23,24,6,33,18]","main","130","many-guess-6"
"","","","","","html-keyboard-response","156","706100","0.0-10.0-1.68","616cf9ae07c1c6bd05d95beb","640759fa512f630a2bdc333d","6408c17f2326cb64f0150108","null","","null","","","","","","","","","","","","","","","","","","","fixation","",""
"","","","","","color-precision2","157","710277","0.0-10.0-0.69-0.69","616cf9ae07c1c6bd05d95beb","640759fa512f630a2bdc333d","6408c17f2326cb64f0150108","[1263.0999999940395]","","","[23]","[135]","135","125","270.1200938741744","[270.1200938741744]","[145.12009387417442]","[145]","0","0","1","0","147.24799999408424","1005.2379999880213","1000","[[[""img/mask63.png""]]]","","","main","125","color-precision2"
"","","","","","html-keyboard-response","158","710780","0.0-10.0-1.69","616cf9ae07c1c6bd05d95beb","640759fa512f630a2bdc333d","6408c17f2326cb64f0150108","null","","null","","","","","","","","","","","","","","","","","","","fixation","",""
"","","","","","color-precision2","159","714820","0.0-10.0-0.70-0.70","616cf9ae07c1c6bd05d95beb","640759fa512f630a2bdc333d","6408c17f2326cb64f0150108","[857.8000000119209]","","","[35]","[313]","313","140","96.84567850759596","[96.84567850759596]","[316.84567850759595]","[315]","0","0","1","0","148.1040000000503","1005.2939999820665","1000","[[[""img/mask89.png""]]]","","","main","140","color-precision2"
"","","","","","html-keyboard-response","160","715324","0.0-10.0-1.70","616cf9ae07c1c6bd05d95beb","640759fa512f630a2bdc333d","6408c17f2326cb64f0150108","null","","null","","","","","","","","","","","","","","","","","","","fixation","",""
"","","","","","color-precision2","161","719182","0.0-10.0-0.71-0.71","616cf9ae07c1c6bd05d95beb","640759fa512f630a2bdc333d","6408c17f2326cb64f0150108","[959.3000000119209]","","","[20]","[281]","281","148","66.51985065239074","[66.51985065239074]","[278.51985065239074]","[277]","0","0","1","0","147.20099999406375","1006.6909999881173","1000","[[[""img/mask57.png""]]]","","","main","148","color-precision2"
"","","","","","html-keyboard-response","162","719685","0.0-10.0-1.71","616cf9ae07c1c6bd05d95beb","640759fa512f630a2bdc333d","6408c17f2326cb64f0150108","null","","null","","","","","","","","","","","","","","","","","","","fixation","",""
"","","","","","color-precision2","163","723018","0.0-10.0-0.72-0.72","616cf9ae07c1c6bd05d95beb","640759fa512f630a2bdc333d","6408c17f2326cb64f0150108","[482.80000001192093]","","","[27]","[13]","13","327","343.79647981471817","[343.79647981471817]","[16.796479814718168]","[16]","0","0","1","0","148.23899998806883","1004.6289999880828","1000","[[[""img/mask69.png""]]]","","","main","327","color-precision2"
"","","","","","html-keyboard-response","164","723521","0.0-10.0-1.72","616cf9ae07c1c6bd05d95beb","640759fa512f630a2bdc333d","6408c17f2326cb64f0150108","null","","null","","","","","","","","","","","","","","","","","","","fixation","",""
"","","","","","many-guess-6","165","728173","0.0-10.0-0.73-0.73","616cf9ae07c1c6bd05d95beb","640759fa512f630a2bdc333d","6408c17f2326cb64f0150108","[2746.199999988079]","","","[17,31,1,2,29,34,20,4,7,33,12,27,23,13,0,5,35,9,21,6,28,22,18,25,11,14,10,3,19,8,24,15,32,30,26,16]","[295,225,116,126,315,275,56,185,176,335,86,66,235,146,255,205,215,285,166,265,106,76,16,156,325,6,46,136,245,36,355,26,345,195,96,305]","295","93","323.55081026429593","[323.55081026429593]","[230.55081026429593]","[231]","[120,120,210,120,30,30,120,120,30]","0","36","0","147.7419999880949","17.23199998214841","16","[[[""img/mask68.png""],[""img/mask63.png""],[""img/mask87.png""],[""img/mask55.png""],[""img/mask74.png""],[""img/mask22.png""],[""img/mask34.png""],[""img/mask71.png""],[""img/mask73.png""],[""img/mask59.png""],[""img/mask44.png""],[""img/mask75.png""],[""img/mask51.png""],[""img/mask34.png""],[""img/mask17.png""],[""img/mask59.png""],[""img/mask39.png""],[""img/mask37.png""],[""img/mask40.png""],[""img/mask9.png""],[""img/mask50.png""],[""img/mask24.png""],[""img/mask82.png""],[""img/mask88.png""],[""img/mask19.png""],[""img/mask32.png""],[""img/mask2.png""],[""img/mask93.png""],[""img/mask46.png""],[""img/mask23.png""],[""img/mask78.png""],[""img/mask3.png""],[""img/mask68.png""],[""img/mask85.png""],[""img/mask82.png""],[""img/mask21.png""]]]","","[17,31,1,2,29,34,20,4,7,33,12,27,23,13,0,5,35,9,21,6,28,22,18,25,11,14,10,3,19,8,24,15,32,30,26,16]","main","93","many-guess-6"
"","","","","","html-keyboard-response","166","728676","0.0-10.0-1.73","616cf9ae07c1c6bd05d95beb","640759fa512f630a2bdc333d","6408c17f2326cb64f0150108","null","","null","","","","","","","","","","","","","","","","","","","fixation","",""
"","","","","","many-guess-6","167","731893","0.0-10.0-0.74-0.74","616cf9ae07c1c6bd05d95beb","640759fa512f630a2bdc333d","6408c17f2326cb64f0150108","[1587.5999999940395]","","","[34,0,24,35,4,27,23,18,22,8,16,6,9,28,29,30,19,33,12,14,3,25,2,7,15,26,1,13,17,32,11,20,10,31,21,5]","[3,222,342,123,282,322,83,312,163,33,212,173,23,13,262,193,242,43,133,352,153,103,203,183,272,252,53,232,332,292,63,143,73,113,93,302]","3","146","22.722266901579918","[22.722266901579918]","[236.72226690157993]","[236]","[120,210,300,210,30,30,210,30,30]","0","36","0","147.81599999999162","22.60599997616373","16","[[[""img/mask78.png""],[""img/mask44.png""],[""img/mask49.png""],[""img/mask17.png""],[""img/mask8.png""],[""img/mask63.png""],[""img/mask1.png""],[""img/mask32.png""],[""img/mask12.png""],[""img/mask40.png""],[""img/mask68.png""],[""img/mask23.png""],[""img/mask57.png""],[""img/mask58.png""],[""img/mask96.png""],[""img/mask80.png""],[""img/mask84.png""],[""img/mask85.png""],[""img/mask10.png""],[""img/mask55.png""],[""img/mask27.png""],[""img/mask54.png""],[""img/mask75.png""],[""img/mask50.png""],[""img/mask12.png""],[""img/mask1.png""],[""img/mask37.png""],[""img/mask67.png""],[""img/mask2.png""],[""img/mask81.png""],[""img/mask100.png""],[""img/mask68.png""],[""img/mask34.png""],[""img/mask47.png""],[""img/mask61.png""],[""img/mask69.png""]]]","","[34,0,24,35,4,27,23,18,22,8,16,6,9,28,29,30,19,33,12,14,3,25,2,7,15,26,1,13,17,32,11,20,10,31,21,5]","main","146","many-guess-6"
"","","","","","html-keyboard-response","168","732395","0.0-10.0-1.74","616cf9ae07c1c6bd05d95beb","640759fa512f630a2bdc333d","6408c17f2326cb64f0150108","null","","null","","","","","","","","","","","","","","","","","","","fixation","",""
"","","","","","color-precision2","169","735427","0.0-10.0-0.75-0.75","616cf9ae07c1c6bd05d95beb","640759fa512f630a2bdc333d","6408c17f2326cb64f0150108","[391.90000000596046]","","","[6]","[107]","107","76","175.1692777363723","[175.1692777363723]","[99.1692777363723]","[98]","0","0","1","0","146.32899998209905","992.518999994034","1000","[[[""img/mask7.png""]]]","","","main","76","color-precision2"
"","","","","","html-keyboard-response","170","735936","0.0-10.0-1.75","616cf9ae07c1c6bd05d95beb","640759fa512f630a2bdc333d","6408c17f2326cb64f0150108","null","","null","","","","","","","","","","","","","","","","","","","fixation","",""
"","","","","","color-precision2","171","739451","0.0-10.0-0.76-0.76","616cf9ae07c1c6bd05d95beb","640759fa512f630a2bdc333d","6408c17f2326cb64f0150108","[404.80000001192093]","","","[33]","[142]","142","86","243.29149596799311","[243.29149596799311]","[157.29149596799311]","[158]","0","0","1","0","148.62099998805206","995.2589999880875","1000","[[[""img/mask57.png""]]]","","","main","86","color-precision2"
"","","","","","html-keyboard-response","172","739953","0.0-10.0-1.76","616cf9ae07c1c6bd05d95beb","640759fa512f630a2bdc333d","6408c17f2326cb64f0150108","null","","null","","","","","","","","","","","","","","","","","","","fixation","",""
"","","","","","color-precision2","173","743957","0.0-10.0-0.77-0.77","616cf9ae07c1c6bd05d95beb","640759fa512f630a2bdc333d","6408c17f2326cb64f0150108","[1133.699999988079]","","","[6]","[359]","359","325","295.59753298339604","[295.59753298339604]","[330.59753298339604]","[331]","0","0","1","0","148.40699998207856","996.196999988053","1000","[[[""img/mask94.png""]]]","","","main","325","color-precision2"
"","","","","","html-keyboard-response","174","744459","0.0-10.0-1.77","616cf9ae07c1c6bd05d95beb","640759fa512f630a2bdc333d","6408c17f2326cb64f0150108","null","","null","","","","","","","","","","","","","","","","","","","fixation","",""
"","","","","","color-precision2","175","749242","0.0-10.0-0.78-0.78","616cf9ae07c1c6bd05d95beb","640759fa512f630a2bdc333d","6408c17f2326cb64f0150108","[2189.9000000059605]","","","[30]","[119]","119","320","75.1243179983612","[75.1243179983612]","[115.12431799836122]","[113]","0","0","1","0","147.9899999999907","1007.0799999880837","1000","[[[""img/mask46.png""]]]","","","main","320","color-precision2"
"","","","","","html-keyboard-response","176","749743","0.0-10.0-1.78","616cf9ae07c1c6bd05d95beb","640759fa512f630a2bdc333d","6408c17f2326cb64f0150108","null","","null","","","","","","","","","","","","","","","","","","","fixation","",""
