"success","timeout","failed_images","failed_audio","failed_video","trial_type","trial_index","time_elapsed","internal_node_id","subject_id","study_id","session_id","rt","stimulus","response","position_of_items","colors_of_items","color_of_target","wheel_spin","response_angle","physical_response_angle","reported_color_angle","reported_color_discrete","locs","which_test","set_size","wheel_num_options","actual_mask_duration","actual_stim_duration","CMDispTime","maskArray","maskRotation","item_positions","task","randomSpinAmount","mainTask"
"true","false","[]","[]","[]","preload","0","2895","0.0-0.0","62b06c1508dfc74f4f38efab","640759fa512f630a2bdc333d","6408c18285634716bf6568b8","","","","","","","","","","","","","","","","","","","","","","","",""
"true","","","","","fullscreen","1","5683","0.0-1.0","62b06c1508dfc74f4f38efab","640759fa512f630a2bdc333d","6408c18285634716bf6568b8","","","","","","","","","","","","","","","","","","","","","","","",""
"","","","","","html-keyboard-response","2","13302","0.0-2.0","62b06c1508dfc74f4f38efab","640759fa512f630a2bdc333d","6408c18285634716bf6568b8","7616.400000035763","What a beautiful Wednesday to do some awesome science! </p> <p>  </p><p> </p>
    By completing this survey or questionnaire, you are consenting to be in this research study. </p>
    Your participation is voluntary and you can stop at any time.<p> [Press any key to continue] </p>","enter","","","","","","","","","","","","","","","","","","","","",""
"","","","","","html-keyboard-response","3","23304","0.0-3.0","62b06c1508dfc74f4f38efab","640759fa512f630a2bdc333d","6408c18285634716bf6568b8","null","
    <div style='width: 1000px;'>
    <div style='float: center;'><img src='img/TaskInstructions1.png'></img>
    </div>
    ","null","","","","","","","","","","","","","","","","","","","","",""
"","","","","","html-keyboard-response","4","23672","0.0-4.0","62b06c1508dfc74f4f38efab","640759fa512f630a2bdc333d","6408c18285634716bf6568b8","365.5999999642372","
    <div style='width: 1000px;'>
    <div style='float: center;'><img src='img/TaskInstructions1.png'></img>
    </div>
    ","enter","","","","","","","","","","","","","","","","","","","","",""
"","","","","","html-keyboard-response","5","33674","0.0-5.0","62b06c1508dfc74f4f38efab","640759fa512f630a2bdc333d","6408c18285634716bf6568b8","null","
    <div style='width: 1000px;'>
    <div style='float: center;'><img src='img/TaskInstructions2.png'></img>
    </div>
    ","null","","","","","","","","","","","","","","","","","","","","",""
"","","","","","html-keyboard-response","6","43468","0.0-6.0","62b06c1508dfc74f4f38efab","640759fa512f630a2bdc333d","6408c18285634716bf6568b8","9792.100000023842","
    <div style='width: 1000px;'>
    <div style='float: center;'><img src='img/TaskInstructions2.png'></img>
    </div>
    ","enter","","","","","","","","","","","","","","","","","","","","",""
"","","","","","video-keyboard-response","7","72949","0.0-7.0","62b06c1508dfc74f4f38efab","640759fa512f630a2bdc333d","6408c18285634716bf6568b8","29474.30000001192","[""video/TaskInstructions3.mp4""]","enter","","","","","","","","","","","","","","","","","","","","",""
"","","","","","image-keyboard-response","8","80108","0.0-8.0-0.0","62b06c1508dfc74f4f38efab","640759fa512f630a2bdc333d","6408c18285634716bf6568b8","7156.899999976158","img/training1.png","enter","","","","","","","","","","","","","","","","","","","","",""
"","","","","","color-precision2","9","91682","0.0-8.0-1.0-0.0","62b06c1508dfc74f4f38efab","640759fa512f630a2bdc333d","6408c18285634716bf6568b8","[5200]","","","[22]","[43]","43","10","62.43476314659747","[62.43476314659747]","[52.43476314659747]","[51]","0","0","1","0","498.02599998808","995.8370000238356","1000","","","0","training","",""
"","","","","","image-keyboard-response","10","105398","0.0-8.0-0.1","62b06c1508dfc74f4f38efab","640759fa512f630a2bdc333d","6408c18285634716bf6568b8","13712.799999952316","img/training2.png","enter","","","","","","","","","","","","","","","","","","","","",""
"","","","","","many-guess-6","11","115323","0.0-8.0-1.1-0.1","62b06c1508dfc74f4f38efab","640759fa512f630a2bdc333d","6408c18285634716bf6568b8","[4883.699999988079]","","","[2,28,34]","[321,230,128]","321","43","117.19664319319759","[117.19664319319759]","[74.19664319319759]","[72]","[210,300,210,300,30,300,210,30,210,30,300,210,300,120,210,210,300,30,210,210,300,300,120,210,30,30,30,30,120,120,210,300,120,210,30,120]","0","3","0","996.7760000238486","1008.1640000119223","1000","[[[""img/mask26.png""],[""img/mask70.png""],[""img/mask46.png""]]]","","[2,28,34]","training","",""
"","","","","","image-keyboard-response","12","122957","0.0-8.0-0.2","62b06c1508dfc74f4f38efab","640759fa512f630a2bdc333d","6408c18285634716bf6568b8","7631.5","img/training3.png","enter","","","","","","","","","","","","","","","","","","","","",""
"","","","","","[""many-guess-6""]","13","129069","0.0-8.0-1.2-0.2","62b06c1508dfc74f4f38efab","640759fa512f630a2bdc333d","6408c18285634716bf6568b8","[2332.600000023842]","","","[28,10,1,34,12]","[40,98,335,285,359]","40","237","15.166493152303891","[15.166493152303891]","[138.1664931523039]","[137]","[30,30,30,210,300,210,30,120,120,300,210,120,30,300,300,120,210,210,210,210,120,210,300,120,30,300,30,120,210,300,120,30,30,210,120,210]","0","5","0","498.2480000238429","496.61400003577","500","[[[""img/mask53.png""],[""img/mask10.png""],[""img/mask90.png""],[""img/mask61.png""],[""img/mask90.png""]]]","","[28,10,1,34,12]","training","",""
"","","","","","image-keyboard-response","14","133343","0.0-8.0-0.3","62b06c1508dfc74f4f38efab","640759fa512f630a2bdc333d","6408c18285634716bf6568b8","4273","img/training4.png","enter","","","","","","","","","","","","","","","","","","","","",""
"","","","","","[""many-guess-6""]","15","138804","0.0-8.0-1.3-0.3","62b06c1508dfc74f4f38efab","640759fa512f630a2bdc333d","6408c18285634716bf6568b8","[2661.800000011921]","","","[31,34,19,14,26,23,11,22,27,7]","[105,116,133,82,151,31,355,184,10,54]","105","127","294.65363196962994","[294.65363196962994]","[167.65363196962994]","[168]","[300,120,120,120,210,120,30,300,300,300,120,210,300,210,120,300,210,120,120,30,120,210,30,30,210,300,120,120,30,210,210,120,210,300,30,300]","0","10","0","132.44199998807744","139.10099998809164","132","[[[""img/mask25.png""],[""img/mask21.png""],[""img/mask48.png""],[""img/mask86.png""],[""img/mask73.png""],[""img/mask58.png""],[""img/mask100.png""],[""img/mask82.png""],[""img/mask34.png""],[""img/mask83.png""]]]","","[31,34,19,14,26,23,11,22,27,7]","training","",""
"","","","","","image-keyboard-response","16","145712","0.0-8.0-0.4","62b06c1508dfc74f4f38efab","640759fa512f630a2bdc333d","6408c18285634716bf6568b8","6906.700000047684","img/training5.png","enter","","","","","","","","","","","","","","","","","","","","",""
"","","","","","[""many-guess-6""]","17","150338","0.0-8.0-1.4-0.4","62b06c1508dfc74f4f38efab","640759fa512f630a2bdc333d","6408c18285634716bf6568b8","[1833.3999999761581]","","","[8,25,18,12,30,0,33,23,20,13,35,11,32,5,24,27,2,4,10,14,31,28,1,6,3,22,7,17,29,15,34,16,26,19,9,21]","[330,61,141,271,211,201,151,310,41,101,51,131,261,121,320,81,181,241,1,91,231,171,191,350,300,161,31,251,21,11,281,291,340,71,111,221]","330","57","155.7708105515915","[155.7708105515915]","[98.7708105515915]","[98]","[120,30,210,300,300,120,210,210,30,120,30,300,300,30,30,30,120,30,210,120,300,300,300,30,120,30,30,30,210,300,300,120,300,30,120,30]","0","36","0","131.73799998807954","28.34999998807325","16","[[[""img/mask59.png""],[""img/mask9.png""],[""img/mask86.png""],[""img/mask36.png""],[""img/mask42.png""],[""img/mask69.png""],[""img/mask59.png""],[""img/mask99.png""],[""img/mask80.png""],[""img/mask100.png""],[""img/mask17.png""],[""img/mask84.png""],[""img/mask8.png""],[""img/mask89.png""],[""img/mask91.png""],[""img/mask27.png""],[""img/mask74.png""],[""img/mask32.png""],[""img/mask44.png""],[""img/mask94.png""],[""img/mask27.png""],[""img/mask40.png""],[""img/mask37.png""],[""img/mask95.png""],[""img/mask7.png""],[""img/mask48.png""],[""img/mask33.png""],[""img/mask20.png""],[""img/mask62.png""],[""img/mask35.png""],[""img/mask15.png""],[""img/mask74.png""],[""img/mask62.png""],[""img/mask18.png""],[""img/mask22.png""],[""img/mask34.png""]]]","","[8,25,18,12,30,0,33,23,20,13,35,11,32,5,24,27,2,4,10,14,31,28,1,6,3,22,7,17,29,15,34,16,26,19,9,21]","training","",""
"","","","","","image-keyboard-response","18","153760","0.0-9.0","62b06c1508dfc74f4f38efab","640759fa512f630a2bdc333d","6408c18285634716bf6568b8","3420.400000035763","[""img/endTraining.png""]","enter","","","","","","","","","","","","","","","","","","","","",""
"","","","","","many-guess-6","19","157979","0.0-10.0-0.0-0.0","62b06c1508dfc74f4f38efab","640759fa512f630a2bdc333d","6408c18285634716bf6568b8","[1910.300000011921]","","","[23,12,31,30,2,29,22,28,8,35,32,15,16,17,25,13,33,7,9,14,6,26,21,18,11,34,4,20,0,10,19,1,24,3,5,27]","[131,32,221,271,251,211,111,291,121,301,341,2,201,101,151,91,181,191,261,61,311,52,231,171,12,351,161,42,241,81,71,22,331,141,321,281]","131","330","324.9434107365297","[324.9434107365297]","[354.9434107365297]","[355]","[210,30,300,30,30,120,120,120,30]","0","36","0","148.5090000119235","17.275000035762787","16","[[[""img/mask11.png""],[""img/mask55.png""],[""img/mask23.png""],[""img/mask52.png""],[""img/mask31.png""],[""img/mask73.png""],[""img/mask60.png""],[""img/mask100.png""],[""img/mask45.png""],[""img/mask84.png""],[""img/mask67.png""],[""img/mask60.png""],[""img/mask84.png""],[""img/mask10.png""],[""img/mask60.png""],[""img/mask81.png""],[""img/mask72.png""],[""img/mask99.png""],[""img/mask75.png""],[""img/mask37.png""],[""img/mask6.png""],[""img/mask50.png""],[""img/mask38.png""],[""img/mask42.png""],[""img/mask42.png""],[""img/mask93.png""],[""img/mask3.png""],[""img/mask98.png""],[""img/mask31.png""],[""img/mask54.png""],[""img/mask21.png""],[""img/mask23.png""],[""img/mask68.png""],[""img/mask85.png""],[""img/mask19.png""],[""img/mask59.png""]]]","","[23,12,31,30,2,29,22,28,8,35,32,15,16,17,25,13,33,7,9,14,6,26,21,18,11,34,4,20,0,10,19,1,24,3,5,27]","main","330","many-guess-6"
"","","","","","html-keyboard-response","20","158483","0.0-10.0-1.0","62b06c1508dfc74f4f38efab","640759fa512f630a2bdc333d","6408c18285634716bf6568b8","null","","null","","","","","","","","","","","","","","","","","","","fixation","",""
"","","","","","many-guess-6","21","165087","0.0-10.0-0.1-0.1","62b06c1508dfc74f4f38efab","640759fa512f630a2bdc333d","6408c18285634716bf6568b8","[1862.199999988079]","","","[7,10,24,2,14,31,4,16,22,25,21,11,23,19,12,29,27,17,9,3,18,13,34,8,6,35,26,1,30,20,32,5,15,33,0,28]","[215,125,55,175,95,254,284,304,274,245,75,155,264,105,344,334,45,115,15,135,195,235,185,354,324,25,85,165,65,205,294,314,145,35,5,225]","215","224","59.185383387369754","[59.185383387369754]","[195.18538338736977]","[193]","[30,30,210,120,30,210,300,210,300]","0","36","0","149.20700003576349","12.690000035770936","16","[[[""img/mask98.png""],[""img/mask43.png""],[""img/mask20.png""],[""img/mask6.png""],[""img/mask33.png""],[""img/mask71.png""],[""img/mask17.png""],[""img/mask38.png""],[""img/mask88.png""],[""img/mask1.png""],[""img/mask6.png""],[""img/mask28.png""],[""img/mask39.png""],[""img/mask14.png""],[""img/mask1.png""],[""img/mask72.png""],[""img/mask56.png""],[""img/mask71.png""],[""img/mask55.png""],[""img/mask92.png""],[""img/mask34.png""],[""img/mask51.png""],[""img/mask35.png""],[""img/mask70.png""],[""img/mask87.png""],[""img/mask42.png""],[""img/mask37.png""],[""img/mask9.png""],[""img/mask55.png""],[""img/mask93.png""],[""img/mask30.png""],[""img/mask19.png""],[""img/mask87.png""],[""img/mask10.png""],[""img/mask64.png""],[""img/mask42.png""]]]","","[7,10,24,2,14,31,4,16,22,25,21,11,23,19,12,29,27,17,9,3,18,13,34,8,6,35,26,1,30,20,32,5,15,33,0,28]","main","224","many-guess-6"
"","","","","","html-keyboard-response","22","165589","0.0-10.0-1.1","62b06c1508dfc74f4f38efab","640759fa512f630a2bdc333d","6408c18285634716bf6568b8","null","","null","","","","","","","","","","","","","","","","","","","fixation","",""
"","","","","","color-precision2","23","175800","0.0-10.0-0.2-0.2","62b06c1508dfc74f4f38efab","640759fa512f630a2bdc333d","6408c18285634716bf6568b8","[6496.699999988079]","","","[16]","[46]","46","302","1.8738190323693453","[1.8738190323693453]","[59.87381903236934]","[59]","0","0","1","0","148.66699999998673","999.5070000357518","1000","[[[""img/mask96.png""]]]","","","main","302","color-precision2"
"","","","","","html-keyboard-response","24","176302","0.0-10.0-1.2","62b06c1508dfc74f4f38efab","640759fa512f630a2bdc333d","6408c18285634716bf6568b8","null","","null","","","","","","","","","","","","","","","","","","","fixation","",""
"","","","","","color-precision2","25","181631","0.0-10.0-0.3-0.3","62b06c1508dfc74f4f38efab","640759fa512f630a2bdc333d","6408c18285634716bf6568b8","[2525.300000011921]","","","[35]","[211]","211","112","325.9477110363433","[325.9477110363433]","[213.94771103634332]","[214]","0","0","1","0","148.42900003577233","993.6650000000081","1000","[[[""img/mask35.png""]]]","","","main","112","color-precision2"
"","","","","","html-keyboard-response","26","182132","0.0-10.0-1.3","62b06c1508dfc74f4f38efab","640759fa512f630a2bdc333d","6408c18285634716bf6568b8","null","","null","","","","","","","","","","","","","","","","","","","fixation","",""
"","","","","","color-precision2","27","187479","0.0-10.0-0.4-0.4","62b06c1508dfc74f4f38efab","640759fa512f630a2bdc333d","6408c18285634716bf6568b8","[2273.100000023842]","","","[7]","[56]","56","46","119.33679473741044","[119.33679473741044]","[73.33679473741044]","[71]","0","0","1","0","148.71500002383254","1007.0300000357674","1000","[[[""img/mask4.png""]]]","","","main","46","color-precision2"
"","","","","","html-keyboard-response","28","187995","0.0-10.0-1.4","62b06c1508dfc74f4f38efab","640759fa512f630a2bdc333d","6408c18285634716bf6568b8","null","","null","","","","","","","","","","","","","","","","","","","fixation","",""
"","","","","","many-guess-6","29","191828","0.0-10.0-0.5-0.5","62b06c1508dfc74f4f38efab","640759fa512f630a2bdc333d","6408c18285634716bf6568b8","[1548.1000000238419]","","","[18,23,0,17,19,8,30,1,3,21,27,22,6,35,13,16,5,20,2,31,15,26,24,11,32,33,28,25,12,9,34,29,4,14,7,10]","[181,171,121,211,91,201,151,231,1,31,81,161,310,141,270,11,340,101,280,330,61,51,191,41,250,71,131,350,221,260,290,240,320,111,21,300]","181","271","62.094771953521175","[62.094771953521175]","[151.09477195352116]","[150]","[30,120,300,300,30,120,30,120,120]","0","36","0","148.47400001192","14.252000000007683","16","[[[""img/mask79.png""],[""img/mask61.png""],[""img/mask17.png""],[""img/mask91.png""],[""img/mask100.png""],[""img/mask95.png""],[""img/mask84.png""],[""img/mask100.png""],[""img/mask88.png""],[""img/mask96.png""],[""img/mask55.png""],[""img/mask99.png""],[""img/mask83.png""],[""img/mask88.png""],[""img/mask78.png""],[""img/mask82.png""],[""img/mask26.png""],[""img/mask52.png""],[""img/mask46.png""],[""img/mask90.png""],[""img/mask73.png""],[""img/mask46.png""],[""img/mask96.png""],[""img/mask100.png""],[""img/mask27.png""],[""img/mask48.png""],[""img/mask44.png""],[""img/mask71.png""],[""img/mask96.png""],[""img/mask72.png""],[""img/mask5.png""],[""img/mask43.png""],[""img/mask71.png""],[""img/mask7.png""],[""img/mask97.png""],[""img/mask2.png""]]]","","[18,23,0,17,19,8,30,1,3,21,27,22,6,35,13,16,5,20,2,31,15,26,24,11,32,33,28,25,12,9,34,29,4,14,7,10]","main","271","many-guess-6"
"","","","","","html-keyboard-response","30","192330","0.0-10.0-1.5","62b06c1508dfc74f4f38efab","640759fa512f630a2bdc333d","6408c18285634716bf6568b8","null","","null","","","","","","","","","","","","","","","","","","","fixation","",""
"","","","","","color-precision2","31","196215","0.0-10.0-0.6-0.6","62b06c1508dfc74f4f38efab","640759fa512f630a2bdc333d","6408c18285634716bf6568b8","[741.2999999523163]","","","[1]","[243]","243","253","121.96329920497566","[121.96329920497566]","[228.96329920497567]","[227]","0","0","1","0","148.86299998807954","999.5689999999886","1000","[[[""img/mask50.png""]]]","","","main","253","color-precision2"
"","","","","","html-keyboard-response","32","196726","0.0-10.0-1.6","62b06c1508dfc74f4f38efab","640759fa512f630a2bdc333d","6408c18285634716bf6568b8","null","","null","","","","","","","","","","","","","","","","","","","fixation","",""
"","","","","","color-precision2","33","200987","0.0-10.0-0.7-0.7","62b06c1508dfc74f4f38efab","640759fa512f630a2bdc333d","6408c18285634716bf6568b8","[654.8999999761581]","","","[19]","[110]","110","108","217.67487174934976","[217.67487174934976]","[109.67487174934976]","[110]","0","0","1","0","147.6830000357586","1003.0950000357698","1000","[[[""img/mask92.png""]]]","","","main","108","color-precision2"
"","","","","","html-keyboard-response","34","201490","0.0-10.0-1.7","62b06c1508dfc74f4f38efab","640759fa512f630a2bdc333d","6408c18285634716bf6568b8","null","","null","","","","","","","","","","","","","","","","","","","fixation","",""
"","","","","","color-precision2","35","205576","0.0-10.0-0.8-0.8","62b06c1508dfc74f4f38efab","640759fa512f630a2bdc333d","6408c18285634716bf6568b8","[1294.5999999642372]","","","[7]","[359]","359","221","214.48676730086726","[214.48676730086726]","[353.48676730086726]","[353]","0","0","1","0","149.21300003575743","1002.6719999999914","1000","[[[""img/mask15.png""]]]","","","main","221","color-precision2"
"","","","","","html-keyboard-response","36","206078","0.0-10.0-1.8","62b06c1508dfc74f4f38efab","640759fa512f630a2bdc333d","6408c18285634716bf6568b8","null","","null","","","","","","","","","","","","","","","","","","","fixation","",""
"","","","","","many-guess-6","37","211394","0.0-10.0-0.9-0.9","62b06c1508dfc74f4f38efab","640759fa512f630a2bdc333d","6408c18285634716bf6568b8","[3435.300000011921]","","","[27,15,29,20,18,28,31,32,1,24,8,2,3,17,7,23,19,14,11,0,34,35,13,33,12,4,6,22,25,5,30,10,16,9,21,26]","[60,319,239,279,259,180,170,130,80,199,120,189,269,299,349,219,40,50,329,140,90,100,209,20,30,10,249,359,339,70,229,289,309,110,150,160]","60","77","89.66289109751452","[89.66289109751452]","[12.662891097514517]","[11]","[30,120,30,300,30,300,30,300,210]","0","36","0","148.4130000238365","19.91800003577373","16","[[[""img/mask18.png""],[""img/mask83.png""],[""img/mask70.png""],[""img/mask12.png""],[""img/mask45.png""],[""img/mask2.png""],[""img/mask2.png""],[""img/mask23.png""],[""img/mask52.png""],[""img/mask48.png""],[""img/mask47.png""],[""img/mask33.png""],[""img/mask74.png""],[""img/mask87.png""],[""img/mask71.png""],[""img/mask19.png""],[""img/mask10.png""],[""img/mask22.png""],[""img/mask67.png""],[""img/mask78.png""],[""img/mask70.png""],[""img/mask17.png""],[""img/mask43.png""],[""img/mask26.png""],[""img/mask68.png""],[""img/mask80.png""],[""img/mask51.png""],[""img/mask10.png""],[""img/mask80.png""],[""img/mask44.png""],[""img/mask47.png""],[""img/mask56.png""],[""img/mask17.png""],[""img/mask18.png""],[""img/mask72.png""],[""img/mask97.png""]]]","","[27,15,29,20,18,28,31,32,1,24,8,2,3,17,7,23,19,14,11,0,34,35,13,33,12,4,6,22,25,5,30,10,16,9,21,26]","main","77","many-guess-6"
"","","","","","html-keyboard-response","38","211896","0.0-10.0-1.9","62b06c1508dfc74f4f38efab","640759fa512f630a2bdc333d","6408c18285634716bf6568b8","null","","null","","","","","","","","","","","","","","","","","","","fixation","",""
"","","","","","color-precision2","39","217424","0.0-10.0-0.10-0.10","62b06c1508dfc74f4f38efab","640759fa512f630a2bdc333d","6408c18285634716bf6568b8","[2538.399999976158]","","","[5]","[49]","49","188","243.78365255590194","[243.78365255590194]","[55.78365255590194]","[56]","0","0","1","0","145.79300002384116","995.2250000357744","1000","[[[""img/mask11.png""]]]","","","main","188","color-precision2"
"","","","","","html-keyboard-response","40","217928","0.0-10.0-1.10","62b06c1508dfc74f4f38efab","640759fa512f630a2bdc333d","6408c18285634716bf6568b8","null","","null","","","","","","","","","","","","","","","","","","","fixation","",""
"","","","","","color-precision2","41","221761","0.0-10.0-0.11-0.11","62b06c1508dfc74f4f38efab","640759fa512f630a2bdc333d","6408c18285634716bf6568b8","[730.1999999880791]","","","[30]","[66]","66","141","206.34250175739655","[206.34250175739655]","[65.34250175739655]","[66]","0","0","1","0","147.45299998807604","1002.4660000119184","1000","[[[""img/mask12.png""]]]","","","main","141","color-precision2"
"","","","","","html-keyboard-response","42","222262","0.0-10.0-1.11","62b06c1508dfc74f4f38efab","640759fa512f630a2bdc333d","6408c18285634716bf6568b8","null","","null","","","","","","","","","","","","","","","","","","","fixation","",""
"","","","","","many-guess-6","43","226469","0.0-10.0-0.12-0.12","62b06c1508dfc74f4f38efab","640759fa512f630a2bdc333d","6408c18285634716bf6568b8","[2594.399999976158]","","","[26,4,5,6,19,24,9,35,20,3,14,12,11,1,13,22,28,29,32,7,18,31,21,23,10,0,33,2,8,15,17,16,34,27,30,25]","[11,20,160,300,1,80,140,150,260,350,240,180,90,200,170,280,110,50,70,330,310,340,320,220,190,40,130,270,290,230,250,120,60,100,30,210]","11","210","7.029885872610529","[7.029885872610529]","[157.02988587261052]","[156]","[300,30,120,210,300,30,30,300,300]","0","36","0","148.94800002384","21.237000011926284","16","[[[""img/mask71.png""],[""img/mask10.png""],[""img/mask44.png""],[""img/mask37.png""],[""img/mask9.png""],[""img/mask72.png""],[""img/mask37.png""],[""img/mask39.png""],[""img/mask21.png""],[""img/mask76.png""],[""img/mask38.png""],[""img/mask39.png""],[""img/mask85.png""],[""img/mask51.png""],[""img/mask57.png""],[""img/mask60.png""],[""img/mask23.png""],[""img/mask61.png""],[""img/mask92.png""],[""img/mask88.png""],[""img/mask7.png""],[""img/mask96.png""],[""img/mask52.png""],[""img/mask59.png""],[""img/mask58.png""],[""img/mask8.png""],[""img/mask62.png""],[""img/mask9.png""],[""img/mask45.png""],[""img/mask36.png""],[""img/mask71.png""],[""img/mask22.png""],[""img/mask35.png""],[""img/mask4.png""],[""img/mask26.png""],[""img/mask60.png""]]]","","[26,4,5,6,19,24,9,35,20,3,14,12,11,1,13,22,28,29,32,7,18,31,21,23,10,0,33,2,8,15,17,16,34,27,30,25]","main","210","many-guess-6"
"","","","","","html-keyboard-response","44","226973","0.0-10.0-1.12","62b06c1508dfc74f4f38efab","640759fa512f630a2bdc333d","6408c18285634716bf6568b8","null","","null","","","","","","","","","","","","","","","","","","","fixation","",""
"","","","","","many-guess-6","45","230949","0.0-10.0-0.13-0.13","62b06c1508dfc74f4f38efab","640759fa512f630a2bdc333d","6408c18285634716bf6568b8","[1761.699999988079]","","","[32,3,23,16,28,24,13,10,33,21,11,19,15,31,9,34,30,8,20,26,6,17,2,14,22,0,1,4,5,7,29,25,27,35,18,12]","[53,293,263,183,63,163,13,103,3,213,43,23,223,303,83,343,313,283,193,333,113,73,143,253,153,33,123,243,203,233,352,173,133,273,323,93]","53","263","194.2155470354815","[194.2155470354815]","[291.2155470354815]","[290]","[300,300,300,210,30,300,210,120,30]","0","36","0","149.31700001191348","21.562999999994645","16","[[[""img/mask46.png""],[""img/mask77.png""],[""img/mask97.png""],[""img/mask51.png""],[""img/mask10.png""],[""img/mask71.png""],[""img/mask51.png""],[""img/mask66.png""],[""img/mask62.png""],[""img/mask82.png""],[""img/mask82.png""],[""img/mask36.png""],[""img/mask6.png""],[""img/mask11.png""],[""img/mask78.png""],[""img/mask70.png""],[""img/mask27.png""],[""img/mask14.png""],[""img/mask52.png""],[""img/mask20.png""],[""img/mask94.png""],[""img/mask36.png""],[""img/mask62.png""],[""img/mask63.png""],[""img/mask23.png""],[""img/mask89.png""],[""img/mask83.png""],[""img/mask48.png""],[""img/mask82.png""],[""img/mask9.png""],[""img/mask44.png""],[""img/mask13.png""],[""img/mask8.png""],[""img/mask74.png""],[""img/mask26.png""],[""img/mask75.png""]]]","","[32,3,23,16,28,24,13,10,33,21,11,19,15,31,9,34,30,8,20,26,6,17,2,14,22,0,1,4,5,7,29,25,27,35,18,12]","main","263","many-guess-6"
"","","","","","html-keyboard-response","46","231461","0.0-10.0-1.13","62b06c1508dfc74f4f38efab","640759fa512f630a2bdc333d","6408c18285634716bf6568b8","null","","null","","","","","","","","","","","","","","","","","","","fixation","",""
"","","","","","many-guess-6","47","236699","0.0-10.0-0.14-0.14","62b06c1508dfc74f4f38efab","640759fa512f630a2bdc333d","6408c18285634716bf6568b8","[3302.399999976158]","","","[33,26,12,27,18,17,8,10,14,5,19,4,30,15,11,22,32,0,24,6,20,21,9,25,13,7,31,1,34,3,29,16,35,2,23,28]","[2,32,82,22,132,321,122,102,222,152,262,311,62,232,182,302,72,112,272,292,192,12,242,202,162,42,142,331,92,52,172,341,252,351,282,212]","2","353","133.0224513576269","[133.0224513576269]","[140.0224513576269]","[138]","[300,210,300,30,30,30,210,120,30]","0","36","0","148.81300003576325","14.535000000003492","16","[[[""img/mask39.png""],[""img/mask56.png""],[""img/mask33.png""],[""img/mask47.png""],[""img/mask44.png""],[""img/mask96.png""],[""img/mask94.png""],[""img/mask50.png""],[""img/mask41.png""],[""img/mask93.png""],[""img/mask8.png""],[""img/mask8.png""],[""img/mask11.png""],[""img/mask86.png""],[""img/mask35.png""],[""img/mask47.png""],[""img/mask19.png""],[""img/mask8.png""],[""img/mask35.png""],[""img/mask16.png""],[""img/mask53.png""],[""img/mask73.png""],[""img/mask76.png""],[""img/mask54.png""],[""img/mask98.png""],[""img/mask85.png""],[""img/mask65.png""],[""img/mask26.png""],[""img/mask84.png""],[""img/mask78.png""],[""img/mask4.png""],[""img/mask38.png""],[""img/mask53.png""],[""img/mask65.png""],[""img/mask12.png""],[""img/mask63.png""]]]","","[33,26,12,27,18,17,8,10,14,5,19,4,30,15,11,22,32,0,24,6,20,21,9,25,13,7,31,1,34,3,29,16,35,2,23,28]","main","353","many-guess-6"
"","","","","","html-keyboard-response","48","237202","0.0-10.0-1.14","62b06c1508dfc74f4f38efab","640759fa512f630a2bdc333d","6408c18285634716bf6568b8","null","","null","","","","","","","","","","","","","","","","","","","fixation","",""
"","","","","","color-precision2","49","240857","0.0-10.0-0.15-0.15","62b06c1508dfc74f4f38efab","640759fa512f630a2bdc333d","6408c18285634716bf6568b8","[1013]","","","[19]","[356]","356","37","34.29011704025272","[34.29011704025272]","[357.2901170402527]","[356]","0","0","1","0","146.0390000238549","999.643000023847","1000","[[[""img/mask79.png""]]]","","","main","37","color-precision2"
"","","","","","html-keyboard-response","50","241361","0.0-10.0-1.15","62b06c1508dfc74f4f38efab","640759fa512f630a2bdc333d","6408c18285634716bf6568b8","null","","null","","","","","","","","","","","","","","","","","","","fixation","",""
"","","","","","many-guess-6","51","244918","0.0-10.0-0.16-0.16","62b06c1508dfc74f4f38efab","640759fa512f630a2bdc333d","6408c18285634716bf6568b8","[1833.199999988079]","","","[12,18,33,11,29,1,14,24,22,20,8,10,6,19,21,0,28,16,3,25,15,13,31,5,27,32,9,26,2,35,34,7,30,17,23,4]","[296,356,257,306,67,17,7,37,87,57,47,137,227,127,97,157,197,167,326,316,117,77,207,187,107,336,237,177,346,287,247,27,217,147,277,267]","296","108","296.67286964097474","[296.67286964097474]","[188.67286964097474]","[189]","[300,30,120,210,30,30,300,210,30]","0","36","0","148.75500003577326","11.530999988084659","16","[[[""img/mask75.png""],[""img/mask2.png""],[""img/mask100.png""],[""img/mask25.png""],[""img/mask96.png""],[""img/mask100.png""],[""img/mask13.png""],[""img/mask52.png""],[""img/mask58.png""],[""img/mask68.png""],[""img/mask85.png""],[""img/mask69.png""],[""img/mask44.png""],[""img/mask93.png""],[""img/mask42.png""],[""img/mask21.png""],[""img/mask80.png""],[""img/mask15.png""],[""img/mask8.png""],[""img/mask88.png""],[""img/mask6.png""],[""img/mask30.png""],[""img/mask23.png""],[""img/mask35.png""],[""img/mask32.png""],[""img/mask59.png""],[""img/mask4.png""],[""img/mask95.png""],[""img/mask48.png""],[""img/mask55.png""],[""img/mask90.png""],[""img/mask41.png""],[""img/mask61.png""],[""img/mask2.png""],[""img/mask56.png""],[""img/mask88.png""]]]","","[12,18,33,11,29,1,14,24,22,20,8,10,6,19,21,0,28,16,3,25,15,13,31,5,27,32,9,26,2,35,34,7,30,17,23,4]","main","108","many-guess-6"
"","","","","","html-keyboard-response","52","245420","0.0-10.0-1.16","62b06c1508dfc74f4f38efab","640759fa512f630a2bdc333d","6408c18285634716bf6568b8","null","","null","","","","","","","","","","","","","","","","","","","fixation","",""
"","","","","","color-precision2","53","248856","0.0-10.0-0.17-0.17","62b06c1508dfc74f4f38efab","640759fa512f630a2bdc333d","6408c18285634716bf6568b8","[608.5]","","","[30]","[326]","326","307","265.170587726196","[265.170587726196]","[318.170587726196]","[318]","0","0","1","0","145.78200001191","1007.1819999880681","1000","[[[""img/mask70.png""]]]","","","main","307","color-precision2"
"","","","","","html-keyboard-response","54","249357","0.0-10.0-1.17","62b06c1508dfc74f4f38efab","640759fa512f630a2bdc333d","6408c18285634716bf6568b8","null","","null","","","","","","","","","","","","","","","","","","","fixation","",""
"","","","","","many-guess-6","55","253161","0.0-10.0-0.18-0.18","62b06c1508dfc74f4f38efab","640759fa512f630a2bdc333d","6408c18285634716bf6568b8","[1801.9000000357628]","","","[35,18,34,4,27,17,6,1,24,14,28,10,11,2,23,16,30,31,20,0,19,21,33,29,25,32,12,22,8,9,15,3,5,26,13,7]","[271,171,311,191,121,51,31,111,261,321,141,331,211,61,291,12,241,81,231,71,301,131,201,91,41,351,281,161,151,251,101,2,221,181,341,22]","271","108","213.49045822134673","[213.49045822134673]","[105.49045822134673]","[105]","[300,210,30,120,300,300,300,120,210]","0","36","0","148.97400001192","16.947999988071388","16","[[[""img/mask34.png""],[""img/mask73.png""],[""img/mask10.png""],[""img/mask61.png""],[""img/mask4.png""],[""img/mask13.png""],[""img/mask52.png""],[""img/mask48.png""],[""img/mask43.png""],[""img/mask65.png""],[""img/mask79.png""],[""img/mask18.png""],[""img/mask71.png""],[""img/mask78.png""],[""img/mask47.png""],[""img/mask24.png""],[""img/mask26.png""],[""img/mask10.png""],[""img/mask77.png""],[""img/mask89.png""],[""img/mask80.png""],[""img/mask91.png""],[""img/mask23.png""],[""img/mask41.png""],[""img/mask34.png""],[""img/mask69.png""],[""img/mask71.png""],[""img/mask83.png""],[""img/mask46.png""],[""img/mask14.png""],[""img/mask69.png""],[""img/mask7.png""],[""img/mask63.png""],[""img/mask66.png""],[""img/mask10.png""],[""img/mask65.png""]]]","","[35,18,34,4,27,17,6,1,24,14,28,10,11,2,23,16,30,31,20,0,19,21,33,29,25,32,12,22,8,9,15,3,5,26,13,7]","main","108","many-guess-6"
"","","","","","html-keyboard-response","56","253664","0.0-10.0-1.18","62b06c1508dfc74f4f38efab","640759fa512f630a2bdc333d","6408c18285634716bf6568b8","null","","null","","","","","","","","","","","","","","","","","","","fixation","",""
"","","","","","color-precision2","57","257578","0.0-10.0-0.19-0.19","62b06c1508dfc74f4f38efab","640759fa512f630a2bdc333d","6408c18285634716bf6568b8","[908.7000000476837]","","","[1]","[176]","176","38","216.84485949533826","[216.84485949533826]","[178.84485949533826]","[179]","0","0","1","0","148.78700000001118","998.7369999999937","1000","[[[""img/mask34.png""]]]","","","main","38","color-precision2"
"","","","","","html-keyboard-response","58","267030","0.0-10.0-1.19","62b06c1508dfc74f4f38efab","640759fa512f630a2bdc333d","6408c18285634716bf6568b8","9448.300000011921","Wow! You've completed 20 out of 180 trials! </p> <p>  </p><p> Take a quick break, then press any key when you're ready to continue.","enter","","","","","","","","","","","","","","","","","","","fixation","",""
"","","","","","many-guess-6","59","273572","0.0-10.0-0.20-0.20","62b06c1508dfc74f4f38efab","640759fa512f630a2bdc333d","6408c18285634716bf6568b8","[2300.800000011921]","","","[9,16,25,31,29,4,12,5,11,13,28,30,1,14,0,32,22,23,17,19,15,10,18,20,6,35,24,33,26,8,21,3,27,2,34,7]","[182,222,62,212,262,132,52,321,202,331,92,301,122,172,341,192,242,291,252,112,12,272,232,42,152,281,351,2,32,311,102,22,162,82,72,142]","182","47","229.4955239716891","[229.4955239716891]","[182.4955239716891]","[182]","[210,300,30,300,30,120,300,30,300]","0","36","0","148.68400000000838","8.197000023850705","16","[[[""img/mask12.png""],[""img/mask74.png""],[""img/mask79.png""],[""img/mask17.png""],[""img/mask43.png""],[""img/mask24.png""],[""img/mask13.png""],[""img/mask45.png""],[""img/mask65.png""],[""img/mask69.png""],[""img/mask4.png""],[""img/mask66.png""],[""img/mask84.png""],[""img/mask39.png""],[""img/mask71.png""],[""img/mask63.png""],[""img/mask32.png""],[""img/mask96.png""],[""img/mask29.png""],[""img/mask81.png""],[""img/mask40.png""],[""img/mask80.png""],[""img/mask65.png""],[""img/mask72.png""],[""img/mask62.png""],[""img/mask51.png""],[""img/mask98.png""],[""img/mask52.png""],[""img/mask48.png""],[""img/mask14.png""],[""img/mask67.png""],[""img/mask39.png""],[""img/mask15.png""],[""img/mask3.png""],[""img/mask11.png""],[""img/mask47.png""]]]","","[9,16,25,31,29,4,12,5,11,13,28,30,1,14,0,32,22,23,17,19,15,10,18,20,6,35,24,33,26,8,21,3,27,2,34,7]","main","47","many-guess-6"
"","","","","","html-keyboard-response","60","274085","0.0-10.0-1.20","62b06c1508dfc74f4f38efab","640759fa512f630a2bdc333d","6408c18285634716bf6568b8","null","","null","","","","","","","","","","","","","","","","","","","fixation","",""
"","","","","","color-precision2","61","278846","0.0-10.0-0.21-0.21","62b06c1508dfc74f4f38efab","640759fa512f630a2bdc333d","6408c18285634716bf6568b8","[1130.199999988079]","","","[32]","[45]","45","115","159.26379435025422","[159.26379435025422]","[44.263794350254216]","[45]","0","0","1","0","148.5870000119321","1004.9419999881065","1000","[[[""img/mask46.png""]]]","","","main","115","color-precision2"
"","","","","","html-keyboard-response","62","279358","0.0-10.0-1.21","62b06c1508dfc74f4f38efab","640759fa512f630a2bdc333d","6408c18285634716bf6568b8","null","","null","","","","","","","","","","","","","","","","","","","fixation","",""
"","","","","","many-guess-6","63","284211","0.0-10.0-0.22-0.22","62b06c1508dfc74f4f38efab","640759fa512f630a2bdc333d","6408c18285634716bf6568b8","[1803.5]","","","[27,34,0,32,5,28,14,12,21,4,17,15,1,16,33,26,18,25,19,31,35,9,29,30,3,20,6,11,24,23,7,8,2,10,22,13]","[275,334,245,354,135,315,255,35,105,324,235,75,185,85,295,175,5,125,115,155,215,55,195,145,265,305,205,15,285,344,45,225,25,95,165,65]","275","103","237.14967790978642","[237.14967790978642]","[134.14967790978642]","[134]","[300,300,120,120,30,120,210,30,210]","0","36","0","148.83200003573438","15.461999999999534","16","[[[""img/mask77.png""],[""img/mask80.png""],[""img/mask54.png""],[""img/mask72.png""],[""img/mask11.png""],[""img/mask57.png""],[""img/mask23.png""],[""img/mask69.png""],[""img/mask30.png""],[""img/mask61.png""],[""img/mask3.png""],[""img/mask11.png""],[""img/mask20.png""],[""img/mask92.png""],[""img/mask42.png""],[""img/mask19.png""],[""img/mask72.png""],[""img/mask15.png""],[""img/mask44.png""],[""img/mask43.png""],[""img/mask17.png""],[""img/mask35.png""],[""img/mask22.png""],[""img/mask57.png""],[""img/mask21.png""],[""img/mask15.png""],[""img/mask38.png""],[""img/mask52.png""],[""img/mask76.png""],[""img/mask19.png""],[""img/mask75.png""],[""img/mask46.png""],[""img/mask84.png""],[""img/mask8.png""],[""img/mask15.png""],[""img/mask4.png""]]]","","[27,34,0,32,5,28,14,12,21,4,17,15,1,16,33,26,18,25,19,31,35,9,29,30,3,20,6,11,24,23,7,8,2,10,22,13]","main","103","many-guess-6"
"","","","","","html-keyboard-response","64","284714","0.0-10.0-1.22","62b06c1508dfc74f4f38efab","640759fa512f630a2bdc333d","6408c18285634716bf6568b8","null","","null","","","","","","","","","","","","","","","","","","","fixation","",""
"","","","","","many-guess-6","65","287999","0.0-10.0-0.23-0.23","62b06c1508dfc74f4f38efab","640759fa512f630a2bdc333d","6408c18285634716bf6568b8","[1645.5]","","","[1,25,3,13,9,2,10,12,31,0,14,20,26,30,18,28,24,22,34,16,6,21,32,7,17,11,8,5,29,19,27,35,33,15,4,23]","[199,299,89,229,179,319,129,289,329,259,59,159,189,10,69,50,219,209,309,339,359,109,139,79,20,99,269,349,279,149,119,239,40,249,169,30]","199","3","20.242109450893494","[20.242109450893494]","[17.242109450893494]","[16]","[210,300,210,300,300,30,210,210,120]","0","36","0","148.56499998806976","18.94600003573578","16","[[[""img/mask30.png""],[""img/mask72.png""],[""img/mask26.png""],[""img/mask12.png""],[""img/mask97.png""],[""img/mask76.png""],[""img/mask66.png""],[""img/mask69.png""],[""img/mask47.png""],[""img/mask14.png""],[""img/mask91.png""],[""img/mask54.png""],[""img/mask60.png""],[""img/mask38.png""],[""img/mask30.png""],[""img/mask3.png""],[""img/mask52.png""],[""img/mask47.png""],[""img/mask39.png""],[""img/mask1.png""],[""img/mask9.png""],[""img/mask31.png""],[""img/mask10.png""],[""img/mask31.png""],[""img/mask42.png""],[""img/mask43.png""],[""img/mask9.png""],[""img/mask48.png""],[""img/mask15.png""],[""img/mask75.png""],[""img/mask19.png""],[""img/mask73.png""],[""img/mask74.png""],[""img/mask45.png""],[""img/mask74.png""],[""img/mask56.png""]]]","","[1,25,3,13,9,2,10,12,31,0,14,20,26,30,18,28,24,22,34,16,6,21,32,7,17,11,8,5,29,19,27,35,33,15,4,23]","main","3","many-guess-6"
"","","","","","html-keyboard-response","66","288507","0.0-10.0-1.23","62b06c1508dfc74f4f38efab","640759fa512f630a2bdc333d","6408c18285634716bf6568b8","null","","null","","","","","","","","","","","","","","","","","","","fixation","",""
"","","","","","many-guess-6","67","292632","0.0-10.0-0.24-0.24","62b06c1508dfc74f4f38efab","640759fa512f630a2bdc333d","6408c18285634716bf6568b8","[1935.3999999761581]","","","[32,23,35,0,1,34,9,28,17,27,11,14,30,10,4,3,13,25,26,5,2,24,16,12,21,29,31,8,15,6,19,20,33,18,7,22]","[63,183,123,83,93,153,13,342,103,193,73,322,212,173,202,3,292,352,272,133,33,163,113,222,43,282,232,262,53,302,312,332,242,23,252,143]","63","13","48.502156387546755","[48.502156387546755]","[35.502156387546755]","[34]","[120,120,300,120,120,210,300,120,30]","0","36","0","147.57400001189671","13.39199999999255","16","[[[""img/mask36.png""],[""img/mask55.png""],[""img/mask77.png""],[""img/mask79.png""],[""img/mask65.png""],[""img/mask37.png""],[""img/mask14.png""],[""img/mask4.png""],[""img/mask33.png""],[""img/mask83.png""],[""img/mask76.png""],[""img/mask47.png""],[""img/mask13.png""],[""img/mask13.png""],[""img/mask76.png""],[""img/mask43.png""],[""img/mask33.png""],[""img/mask87.png""],[""img/mask55.png""],[""img/mask78.png""],[""img/mask22.png""],[""img/mask29.png""],[""img/mask36.png""],[""img/mask75.png""],[""img/mask37.png""],[""img/mask19.png""],[""img/mask89.png""],[""img/mask40.png""],[""img/mask38.png""],[""img/mask44.png""],[""img/mask83.png""],[""img/mask28.png""],[""img/mask12.png""],[""img/mask57.png""],[""img/mask70.png""],[""img/mask30.png""]]]","","[32,23,35,0,1,34,9,28,17,27,11,14,30,10,4,3,13,25,26,5,2,24,16,12,21,29,31,8,15,6,19,20,33,18,7,22]","main","13","many-guess-6"
"","","","","","html-keyboard-response","68","293134","0.0-10.0-1.24","62b06c1508dfc74f4f38efab","640759fa512f630a2bdc333d","6408c18285634716bf6568b8","null","","null","","","","","","","","","","","","","","","","","","","fixation","",""
"","","","","","color-precision2","69","296428","0.0-10.0-0.25-0.25","62b06c1508dfc74f4f38efab","640759fa512f630a2bdc333d","6408c18285634716bf6568b8","[686.8999999761581]","","","[15]","[144]","144","344","130.1741413284871","[130.1741413284871]","[146.1741413284871]","[144]","0","0","1","0","147.65200000000186","999.7470000238391","1000","[[[""img/mask26.png""]]]","","","main","344","color-precision2"
"","","","","","html-keyboard-response","70","296931","0.0-10.0-1.25","62b06c1508dfc74f4f38efab","640759fa512f630a2bdc333d","6408c18285634716bf6568b8","null","","null","","","","","","","","","","","","","","","","","","","fixation","",""
"","","","","","many-guess-6","71","301717","0.0-10.0-0.26-0.26","62b06c1508dfc74f4f38efab","640759fa512f630a2bdc333d","6408c18285634716bf6568b8","[2960.600000023842]","","","[1,18,19,23,0,17,33,24,32,7,11,30,22,27,3,4,10,34,16,29,21,28,2,20,9,25,35,15,6,31,5,12,13,8,14,26]","[129,198,328,29,59,69,248,79,228,308,268,39,208,139,19,9,338,109,218,318,149,358,49,348,119,288,278,188,298,158,238,99,258,168,178,89]","129","296","4.688689681367148","[4.688689681367148]","[68.68868968136712]","[68]","[30,300,210,30,30,300,30,300,210]","0","36","0","148.27900003577815","18.694999988074414","16","[[[""img/mask8.png""],[""img/mask73.png""],[""img/mask13.png""],[""img/mask27.png""],[""img/mask44.png""],[""img/mask80.png""],[""img/mask62.png""],[""img/mask90.png""],[""img/mask76.png""],[""img/mask82.png""],[""img/mask28.png""],[""img/mask80.png""],[""img/mask21.png""],[""img/mask46.png""],[""img/mask18.png""],[""img/mask54.png""],[""img/mask42.png""],[""img/mask66.png""],[""img/mask71.png""],[""img/mask26.png""],[""img/mask9.png""],[""img/mask59.png""],[""img/mask67.png""],[""img/mask87.png""],[""img/mask43.png""],[""img/mask6.png""],[""img/mask81.png""],[""img/mask97.png""],[""img/mask54.png""],[""img/mask53.png""],[""img/mask39.png""],[""img/mask69.png""],[""img/mask9.png""],[""img/mask37.png""],[""img/mask69.png""],[""img/mask77.png""]]]","","[1,18,19,23,0,17,33,24,32,7,11,30,22,27,3,4,10,34,16,29,21,28,2,20,9,25,35,15,6,31,5,12,13,8,14,26]","main","296","many-guess-6"
"","","","","","html-keyboard-response","72","302219","0.0-10.0-1.26","62b06c1508dfc74f4f38efab","640759fa512f630a2bdc333d","6408c18285634716bf6568b8","null","","null","","","","","","","","","","","","","","","","","","","fixation","",""
"","","","","","color-precision2","73","305248","0.0-10.0-0.27-0.27","62b06c1508dfc74f4f38efab","640759fa512f630a2bdc333d","6408c18285634716bf6568b8","[217.19999998807907]","","","[22]","[297]","297","354","","[null]","[null]","[297]","0","0","1","0","148.47300003573764","995.8960000000079","1000","[[[""img/mask45.png""]]]","","","main","354","color-precision2"
"","","","","","html-keyboard-response","74","305749","0.0-10.0-1.27","62b06c1508dfc74f4f38efab","640759fa512f630a2bdc333d","6408c18285634716bf6568b8","null","","null","","","","","","","","","","","","","","","","","","","fixation","",""
"","","","","","many-guess-6","75","309221","0.0-10.0-0.28-0.28","62b06c1508dfc74f4f38efab","640759fa512f630a2bdc333d","6408c18285634716bf6568b8","[1894.2999999523163]","","","[10,7,20,30,18,32,3,23,22,19,12,34,15,1,21,27,6,25,9,24,4,2,28,31,14,29,5,33,11,17,0,8,35,16,26,13]","[312,272,252,352,242,23,73,83,123,173,43,163,322,3,113,262,332,193,53,103,232,222,183,342,153,212,282,302,292,33,63,202,133,143,93,13]","312","331","232.01980331931563","[232.01980331931563]","[261.01980331931566]","[261]","[120,300,300,210,210,210,120,210,120]","0","36","0","148.54900001193164","11.277000035741366","16","[[[""img/mask29.png""],[""img/mask85.png""],[""img/mask31.png""],[""img/mask46.png""],[""img/mask34.png""],[""img/mask94.png""],[""img/mask51.png""],[""img/mask37.png""],[""img/mask49.png""],[""img/mask87.png""],[""img/mask30.png""],[""img/mask66.png""],[""img/mask31.png""],[""img/mask27.png""],[""img/mask88.png""],[""img/mask73.png""],[""img/mask41.png""],[""img/mask75.png""],[""img/mask67.png""],[""img/mask66.png""],[""img/mask80.png""],[""img/mask89.png""],[""img/mask24.png""],[""img/mask62.png""],[""img/mask22.png""],[""img/mask9.png""],[""img/mask97.png""],[""img/mask96.png""],[""img/mask17.png""],[""img/mask17.png""],[""img/mask96.png""],[""img/mask26.png""],[""img/mask81.png""],[""img/mask90.png""],[""img/mask35.png""],[""img/mask54.png""]]]","","[10,7,20,30,18,32,3,23,22,19,12,34,15,1,21,27,6,25,9,24,4,2,28,31,14,29,5,33,11,17,0,8,35,16,26,13]","main","331","many-guess-6"
"","","","","","html-keyboard-response","76","309739","0.0-10.0-1.28","62b06c1508dfc74f4f38efab","640759fa512f630a2bdc333d","6408c18285634716bf6568b8","null","","null","","","","","","","","","","","","","","","","","","","fixation","",""
"","","","","","many-guess-6","77","312457","0.0-10.0-0.29-0.29","62b06c1508dfc74f4f38efab","640759fa512f630a2bdc333d","6408c18285634716bf6568b8","[1314.2000000476837]","","","[4,16,9,28,13,35,0,15,32,25,2,5,12,33,24,22,19,6,1,27,34,18,21,31,30,11,10,7,20,26,17,8,29,3,23,14]","[19,79,148,208,119,348,238,138,9,328,338,298,358,188,218,99,308,248,59,318,288,158,128,168,178,228,258,89,29,198,278,39,109,69,268,49]","19","289","293.0075303084421","[293.0075303084421]","[4.007530308442085]","[4]","[30,30,120,210,210,300,210,210,210]","0","36","0","148.78200002381345","14.367000023834407","16","[[[""img/mask53.png""],[""img/mask69.png""],[""img/mask92.png""],[""img/mask80.png""],[""img/mask89.png""],[""img/mask15.png""],[""img/mask94.png""],[""img/mask11.png""],[""img/mask49.png""],[""img/mask35.png""],[""img/mask35.png""],[""img/mask94.png""],[""img/mask59.png""],[""img/mask49.png""],[""img/mask35.png""],[""img/mask23.png""],[""img/mask37.png""],[""img/mask11.png""],[""img/mask24.png""],[""img/mask65.png""],[""img/mask76.png""],[""img/mask70.png""],[""img/mask83.png""],[""img/mask53.png""],[""img/mask100.png""],[""img/mask55.png""],[""img/mask9.png""],[""img/mask13.png""],[""img/mask68.png""],[""img/mask47.png""],[""img/mask25.png""],[""img/mask60.png""],[""img/mask68.png""],[""img/mask64.png""],[""img/mask31.png""],[""img/mask62.png""]]]","","[4,16,9,28,13,35,0,15,32,25,2,5,12,33,24,22,19,6,1,27,34,18,21,31,30,11,10,7,20,26,17,8,29,3,23,14]","main","289","many-guess-6"
"","","","","","html-keyboard-response","78","312967","0.0-10.0-1.29","62b06c1508dfc74f4f38efab","640759fa512f630a2bdc333d","6408c18285634716bf6568b8","null","","null","","","","","","","","","","","","","","","","","","","fixation","",""
"","","","","","many-guess-6","79","316186","0.0-10.0-0.30-0.30","62b06c1508dfc74f4f38efab","640759fa512f630a2bdc333d","6408c18285634716bf6568b8","[1612.300000011921]","","","[17,6,7,27,10,18,28,31,1,22,24,2,5,19,26,9,0,32,29,25,16,11,20,13,15,4,12,35,30,33,21,8,14,23,3,34]","[124,224,234,104,314,214,294,74,134,334,94,44,194,14,324,254,274,84,343,34,114,24,284,264,204,304,54,174,244,64,164,353,4,184,154,144]","124","359","154.20927244949664","[154.20927244949664]","[155.20927244949664]","[154]","[30,120,120,120,300,300,210,210,210]","0","36","0","148.77599998808","9.607000023825094","16","[[[""img/mask62.png""],[""img/mask72.png""],[""img/mask8.png""],[""img/mask38.png""],[""img/mask65.png""],[""img/mask90.png""],[""img/mask31.png""],[""img/mask67.png""],[""img/mask42.png""],[""img/mask70.png""],[""img/mask14.png""],[""img/mask36.png""],[""img/mask55.png""],[""img/mask65.png""],[""img/mask84.png""],[""img/mask57.png""],[""img/mask84.png""],[""img/mask44.png""],[""img/mask63.png""],[""img/mask5.png""],[""img/mask39.png""],[""img/mask12.png""],[""img/mask23.png""],[""img/mask86.png""],[""img/mask21.png""],[""img/mask24.png""],[""img/mask73.png""],[""img/mask83.png""],[""img/mask2.png""],[""img/mask53.png""],[""img/mask12.png""],[""img/mask53.png""],[""img/mask77.png""],[""img/mask34.png""],[""img/mask34.png""],[""img/mask57.png""]]]","","[17,6,7,27,10,18,28,31,1,22,24,2,5,19,26,9,0,32,29,25,16,11,20,13,15,4,12,35,30,33,21,8,14,23,3,34]","main","359","many-guess-6"
"","","","","","html-keyboard-response","80","316687","0.0-10.0-1.30","62b06c1508dfc74f4f38efab","640759fa512f630a2bdc333d","6408c18285634716bf6568b8","null","","null","","","","","","","","","","","","","","","","","","","fixation","",""
"","","","","","color-precision2","81","321292","0.0-10.0-0.31-0.31","62b06c1508dfc74f4f38efab","640759fa512f630a2bdc333d","6408c18285634716bf6568b8","[691.6999999880791]","","","[18]","[173]","173","65","246.06877694080157","[246.06877694080157]","[181.06877694080157]","[181]","0","0","1","0","144.55300002382137","1004.8920000357903","1000","[[[""img/mask99.png""]]]","","","main","65","color-precision2"
"","","","","","html-keyboard-response","82","321794","0.0-10.0-1.31","62b06c1508dfc74f4f38efab","640759fa512f630a2bdc333d","6408c18285634716bf6568b8","null","","null","","","","","","","","","","","","","","","","","","","fixation","",""
"","","","","","color-precision2","83","327260","0.0-10.0-0.32-0.32","62b06c1508dfc74f4f38efab","640759fa512f630a2bdc333d","6408c18285634716bf6568b8","[3050.900000035763]","","","[17]","[223]","223","224","62.1167113562822","[62.1167113562822]","[198.1167113562822]","[196]","0","0","1","0","148.33300003578188","1000.9440000000177","1000","[[[""img/mask70.png""]]]","","","main","224","color-precision2"
"","","","","","html-keyboard-response","84","327761","0.0-10.0-1.32","62b06c1508dfc74f4f38efab","640759fa512f630a2bdc333d","6408c18285634716bf6568b8","null","","null","","","","","","","","","","","","","","","","","","","fixation","",""
"","","","","","color-precision2","85","330912","0.0-10.0-0.33-0.33","62b06c1508dfc74f4f38efab","640759fa512f630a2bdc333d","6408c18285634716bf6568b8","[726.3000000119209]","","","[9]","[316]","316","214","153.59935101253168","[153.59935101253168]","[299.59935101253166]","[298]","0","0","1","0","148.77000003575813","995.7780000119237","1000","[[[""img/mask81.png""]]]","","","main","214","color-precision2"
"","","","","","html-keyboard-response","86","331413","0.0-10.0-1.33","62b06c1508dfc74f4f38efab","640759fa512f630a2bdc333d","6408c18285634716bf6568b8","null","","null","","","","","","","","","","","","","","","","","","","fixation","",""
"","","","","","many-guess-6","87","334521","0.0-10.0-0.34-0.34","62b06c1508dfc74f4f38efab","640759fa512f630a2bdc333d","6408c18285634716bf6568b8","[1819.5]","","","[33,18,8,11,24,23,26,14,21,1,28,22,27,4,25,9,5,12,13,3,19,15,10,16,29,30,6,2,35,34,32,17,7,0,20,31]","[127,326,117,346,177,197,17,266,246,77,276,97,137,87,286,316,57,167,107,47,306,7,296,37,356,226,67,147,187,27,236,256,207,217,157,336]","127","33","341.21680697027176","[341.21680697027176]","[308.21680697027176]","[308]","[120,210,120,210,30,30,210,210,210]","0","36","0","148.8800000238698","30.063000035763253","16","[[[""img/mask7.png""],[""img/mask91.png""],[""img/mask67.png""],[""img/mask26.png""],[""img/mask41.png""],[""img/mask55.png""],[""img/mask28.png""],[""img/mask82.png""],[""img/mask73.png""],[""img/mask99.png""],[""img/mask45.png""],[""img/mask84.png""],[""img/mask14.png""],[""img/mask42.png""],[""img/mask85.png""],[""img/mask70.png""],[""img/mask79.png""],[""img/mask38.png""],[""img/mask48.png""],[""img/mask52.png""],[""img/mask69.png""],[""img/mask55.png""],[""img/mask93.png""],[""img/mask37.png""],[""img/mask97.png""],[""img/mask40.png""],[""img/mask51.png""],[""img/mask25.png""],[""img/mask67.png""],[""img/mask8.png""],[""img/mask10.png""],[""img/mask80.png""],[""img/mask84.png""],[""img/mask94.png""],[""img/mask93.png""],[""img/mask13.png""]]]","","[33,18,8,11,24,23,26,14,21,1,28,22,27,4,25,9,5,12,13,3,19,15,10,16,29,30,6,2,35,34,32,17,7,0,20,31]","main","33","many-guess-6"
"","","","","","html-keyboard-response","88","335037","0.0-10.0-1.34","62b06c1508dfc74f4f38efab","640759fa512f630a2bdc333d","6408c18285634716bf6568b8","null","","null","","","","","","","","","","","","","","","","","","","fixation","",""
"","","","","","many-guess-6","89","338510","0.0-10.0-0.35-0.35","62b06c1508dfc74f4f38efab","640759fa512f630a2bdc333d","6408c18285634716bf6568b8","[1365.7999999523163]","","","[31,12,33,15,9,14,34,4,22,6,17,21,5,8,35,28,16,32,24,19,20,27,0,23,11,26,7,3,29,25,1,10,13,30,2,18]","[186,56,16,206,66,106,96,325,26,245,46,216,86,265,146,335,275,76,196,295,136,116,176,305,355,126,315,6,166,36,236,156,255,345,226,285]","186","37","231.40150616718486","[231.40150616718486]","[194.40150616718486]","[195]","[210,30,120,210,30,120,210,120,210]","0","36","0","148.80599998810794","12.523000011919066","16","[[[""img/mask74.png""],[""img/mask71.png""],[""img/mask70.png""],[""img/mask17.png""],[""img/mask60.png""],[""img/mask82.png""],[""img/mask100.png""],[""img/mask20.png""],[""img/mask32.png""],[""img/mask88.png""],[""img/mask3.png""],[""img/mask93.png""],[""img/mask92.png""],[""img/mask7.png""],[""img/mask36.png""],[""img/mask31.png""],[""img/mask89.png""],[""img/mask15.png""],[""img/mask50.png""],[""img/mask96.png""],[""img/mask61.png""],[""img/mask61.png""],[""img/mask17.png""],[""img/mask63.png""],[""img/mask49.png""],[""img/mask82.png""],[""img/mask93.png""],[""img/mask48.png""],[""img/mask95.png""],[""img/mask14.png""],[""img/mask15.png""],[""img/mask32.png""],[""img/mask12.png""],[""img/mask40.png""],[""img/mask6.png""],[""img/mask39.png""]]]","","[31,12,33,15,9,14,34,4,22,6,17,21,5,8,35,28,16,32,24,19,20,27,0,23,11,26,7,3,29,25,1,10,13,30,2,18]","main","37","many-guess-6"
"","","","","","html-keyboard-response","90","339012","0.0-10.0-1.35","62b06c1508dfc74f4f38efab","640759fa512f630a2bdc333d","6408c18285634716bf6568b8","null","","null","","","","","","","","","","","","","","","","","","","fixation","",""
"","","","","","many-guess-6","91","342456","0.0-10.0-0.36-0.36","62b06c1508dfc74f4f38efab","640759fa512f630a2bdc333d","6408c18285634716bf6568b8","[1830.800000011921]","","","[24,30,20,34,0,21,29,3,16,7,13,23,18,17,27,5,22,15,14,8,9,32,33,11,28,6,25,1,10,19,35,31,2,4,26,12]","[44,84,134,164,274,184,224,214,144,284,314,124,343,234,254,34,64,4,104,204,194,54,323,14,244,294,114,353,94,174,333,74,24,264,304,154]","44","8","132.82836486764697","[132.82836486764697]","[124.82836486764697]","[123]","[30,30,210,30,120,210,300,300,120]","0","36","0","148.8260000119335","14.691999999980908","16","[[[""img/mask81.png""],[""img/mask2.png""],[""img/mask44.png""],[""img/mask76.png""],[""img/mask19.png""],[""img/mask85.png""],[""img/mask29.png""],[""img/mask23.png""],[""img/mask75.png""],[""img/mask70.png""],[""img/mask4.png""],[""img/mask85.png""],[""img/mask66.png""],[""img/mask23.png""],[""img/mask23.png""],[""img/mask21.png""],[""img/mask76.png""],[""img/mask16.png""],[""img/mask1.png""],[""img/mask19.png""],[""img/mask45.png""],[""img/mask4.png""],[""img/mask13.png""],[""img/mask81.png""],[""img/mask28.png""],[""img/mask31.png""],[""img/mask77.png""],[""img/mask29.png""],[""img/mask40.png""],[""img/mask69.png""],[""img/mask43.png""],[""img/mask8.png""],[""img/mask86.png""],[""img/mask12.png""],[""img/mask77.png""],[""img/mask97.png""]]]","","[24,30,20,34,0,21,29,3,16,7,13,23,18,17,27,5,22,15,14,8,9,32,33,11,28,6,25,1,10,19,35,31,2,4,26,12]","main","8","many-guess-6"
"","","","","","html-keyboard-response","92","342959","0.0-10.0-1.36","62b06c1508dfc74f4f38efab","640759fa512f630a2bdc333d","6408c18285634716bf6568b8","null","","null","","","","","","","","","","","","","","","","","","","fixation","",""
"","","","","","many-guess-6","93","346513","0.0-10.0-0.37-0.37","62b06c1508dfc74f4f38efab","640759fa512f630a2bdc333d","6408c18285634716bf6568b8","[1844.300000011921]","","","[7,8,11,24,9,15,29,2,26,21,35,3,17,33,28,31,1,20,27,30,18,16,4,6,22,10,25,5,13,23,19,14,32,34,12,0]","[252,2,271,152,202,351,122,42,162,52,72,281,212,112,92,331,291,82,311,341,192,172,12,132,62,232,142,301,262,22,182,242,222,321,32,102]","252","37","245.9162738521198","[245.9162738521198]","[208.9162738521198]","[209]","[30,210,30,210,120,30,120,300,210]","0","36","0","148.3740000357502","20.348000011930708","16","[[[""img/mask60.png""],[""img/mask23.png""],[""img/mask5.png""],[""img/mask36.png""],[""img/mask45.png""],[""img/mask61.png""],[""img/mask7.png""],[""img/mask84.png""],[""img/mask59.png""],[""img/mask8.png""],[""img/mask25.png""],[""img/mask53.png""],[""img/mask41.png""],[""img/mask18.png""],[""img/mask42.png""],[""img/mask20.png""],[""img/mask4.png""],[""img/mask76.png""],[""img/mask47.png""],[""img/mask82.png""],[""img/mask72.png""],[""img/mask4.png""],[""img/mask58.png""],[""img/mask73.png""],[""img/mask56.png""],[""img/mask11.png""],[""img/mask95.png""],[""img/mask36.png""],[""img/mask74.png""],[""img/mask20.png""],[""img/mask28.png""],[""img/mask27.png""],[""img/mask62.png""],[""img/mask52.png""],[""img/mask79.png""],[""img/mask38.png""]]]","","[7,8,11,24,9,15,29,2,26,21,35,3,17,33,28,31,1,20,27,30,18,16,4,6,22,10,25,5,13,23,19,14,32,34,12,0]","main","37","many-guess-6"
"","","","","","html-keyboard-response","94","347015","0.0-10.0-1.37","62b06c1508dfc74f4f38efab","640759fa512f630a2bdc333d","6408c18285634716bf6568b8","null","","null","","","","","","","","","","","","","","","","","","","fixation","",""
"","","","","","many-guess-6","95","350533","0.0-10.0-0.38-0.38","62b06c1508dfc74f4f38efab","640759fa512f630a2bdc333d","6408c18285634716bf6568b8","[1818.300000011921]","","","[7,15,12,16,10,18,33,0,19,24,32,2,27,30,14,26,13,9,29,4,23,25,34,17,6,35,28,3,21,22,11,8,20,31,5,1]","[123,64,223,263,74,323,313,293,34,153,203,173,343,213,14,84,103,353,44,183,233,333,273,4,24,163,133,94,283,243,193,253,143,113,303,54]","123","177","296.61004042849794","[296.61004042849794]","[119.61004042849794]","[120]","[300,210,210,300,300,30,210,30,120]","0","36","0","148.83100002387073","20.824000011896715","16","[[[""img/mask15.png""],[""img/mask37.png""],[""img/mask63.png""],[""img/mask27.png""],[""img/mask77.png""],[""img/mask45.png""],[""img/mask71.png""],[""img/mask53.png""],[""img/mask78.png""],[""img/mask46.png""],[""img/mask55.png""],[""img/mask94.png""],[""img/mask8.png""],[""img/mask50.png""],[""img/mask62.png""],[""img/mask86.png""],[""img/mask33.png""],[""img/mask87.png""],[""img/mask90.png""],[""img/mask70.png""],[""img/mask84.png""],[""img/mask19.png""],[""img/mask73.png""],[""img/mask61.png""],[""img/mask21.png""],[""img/mask36.png""],[""img/mask27.png""],[""img/mask54.png""],[""img/mask11.png""],[""img/mask81.png""],[""img/mask84.png""],[""img/mask66.png""],[""img/mask60.png""],[""img/mask27.png""],[""img/mask41.png""],[""img/mask18.png""]]]","","[7,15,12,16,10,18,33,0,19,24,32,2,27,30,14,26,13,9,29,4,23,25,34,17,6,35,28,3,21,22,11,8,20,31,5,1]","main","177","many-guess-6"
"","","","","","html-keyboard-response","96","351035","0.0-10.0-1.38","62b06c1508dfc74f4f38efab","640759fa512f630a2bdc333d","6408c18285634716bf6568b8","null","","null","","","","","","","","","","","","","","","","","","","fixation","",""
"","","","","","many-guess-6","97","354657","0.0-10.0-0.39-0.39","62b06c1508dfc74f4f38efab","640759fa512f630a2bdc333d","6408c18285634716bf6568b8","[1780.6000000238419]","","","[30,23,24,12,26,5,8,16,34,25,18,15,13,2,0,6,35,33,27,17,4,21,32,31,11,22,1,28,3,9,10,19,7,14,29,20]","[201,52,241,91,301,181,12,211,121,71,151,311,101,131,42,161,351,321,271,22,291,171,331,81,32,261,221,341,281,111,251,141,231,62,191,2]","201","75","330.20988077434083","[330.20988077434083]","[255.20988077434083]","[255]","[120,300,30,210,30,30,210,210,300]","0","36","0","148.23400002386188","9.9850000119186","16","[[[""img/mask1.png""],[""img/mask30.png""],[""img/mask95.png""],[""img/mask37.png""],[""img/mask39.png""],[""img/mask15.png""],[""img/mask93.png""],[""img/mask90.png""],[""img/mask61.png""],[""img/mask44.png""],[""img/mask56.png""],[""img/mask68.png""],[""img/mask41.png""],[""img/mask69.png""],[""img/mask69.png""],[""img/mask94.png""],[""img/mask68.png""],[""img/mask96.png""],[""img/mask82.png""],[""img/mask23.png""],[""img/mask47.png""],[""img/mask81.png""],[""img/mask64.png""],[""img/mask56.png""],[""img/mask79.png""],[""img/mask92.png""],[""img/mask37.png""],[""img/mask31.png""],[""img/mask39.png""],[""img/mask94.png""],[""img/mask95.png""],[""img/mask15.png""],[""img/mask80.png""],[""img/mask2.png""],[""img/mask84.png""],[""img/mask40.png""]]]","","[30,23,24,12,26,5,8,16,34,25,18,15,13,2,0,6,35,33,27,17,4,21,32,31,11,22,1,28,3,9,10,19,7,14,29,20]","main","75","many-guess-6"
"","","","","","html-keyboard-response","98","356854","0.0-10.0-1.39","62b06c1508dfc74f4f38efab","640759fa512f630a2bdc333d","6408c18285634716bf6568b8","2195.5","Wow! You've completed 40 out of 180 trials! </p> <p>  </p><p> Take a quick break, then press any key when you're ready to continue.","enter","","","","","","","","","","","","","","","","","","","fixation","",""
"","","","","","color-precision2","99","361386","0.0-10.0-0.40-0.40","62b06c1508dfc74f4f38efab","640759fa512f630a2bdc333d","6408c18285634716bf6568b8","[517.5999999642372]","","","[13]","[240]","240","304","165.9182504907232","[165.9182504907232]","[221.9182504907232]","[221]","0","0","1","0","147.63400002382696","1000.8729999880888","1000","[[[""img/mask57.png""]]]","","","main","304","color-precision2"
"","","","","","html-keyboard-response","100","361898","0.0-10.0-1.40","62b06c1508dfc74f4f38efab","640759fa512f630a2bdc333d","6408c18285634716bf6568b8","null","","null","","","","","","","","","","","","","","","","","","","fixation","",""
"","","","","","many-guess-6","101","365588","0.0-10.0-0.41-0.41","62b06c1508dfc74f4f38efab","640759fa512f630a2bdc333d","6408c18285634716bf6568b8","[1158.1000000238419]","","","[33,7,5,11,3,30,25,21,35,6,34,1,13,4,26,29,18,0,32,15,22,23,24,31,12,27,19,16,14,9,8,17,10,28,20,2]","[262,163,222,213,203,33,252,322,143,43,103,153,342,123,292,272,282,83,63,183,242,73,332,53,113,232,302,133,93,173,193,13,352,3,312,23]","262","125","164.528506699616","[164.528506699616]","[39.528506699616]","[38]","[120,300,300,120,210,300,300,120,30]","0","36","0","148.7539999880828","30.724999988102354","16","[[[""img/mask85.png""],[""img/mask1.png""],[""img/mask68.png""],[""img/mask77.png""],[""img/mask8.png""],[""img/mask94.png""],[""img/mask75.png""],[""img/mask29.png""],[""img/mask70.png""],[""img/mask40.png""],[""img/mask27.png""],[""img/mask9.png""],[""img/mask58.png""],[""img/mask84.png""],[""img/mask92.png""],[""img/mask61.png""],[""img/mask4.png""],[""img/mask6.png""],[""img/mask31.png""],[""img/mask3.png""],[""img/mask81.png""],[""img/mask89.png""],[""img/mask13.png""],[""img/mask19.png""],[""img/mask76.png""],[""img/mask80.png""],[""img/mask79.png""],[""img/mask25.png""],[""img/mask84.png""],[""img/mask18.png""],[""img/mask29.png""],[""img/mask73.png""],[""img/mask9.png""],[""img/mask67.png""],[""img/mask9.png""],[""img/mask30.png""]]]","","[33,7,5,11,3,30,25,21,35,6,34,1,13,4,26,29,18,0,32,15,22,23,24,31,12,27,19,16,14,9,8,17,10,28,20,2]","main","125","many-guess-6"
"","","","","","html-keyboard-response","102","366089","0.0-10.0-1.41","62b06c1508dfc74f4f38efab","640759fa512f630a2bdc333d","6408c18285634716bf6568b8","null","","null","","","","","","","","","","","","","","","","","","","fixation","",""
"","","","","","color-precision2","103","368843","0.0-10.0-0.42-0.42","62b06c1508dfc74f4f38efab","640759fa512f630a2bdc333d","6408c18285634716bf6568b8","[371.5]","","","[17]","[268]","268","313","231.95424390164922","[231.95424390164922]","[278.9542439016492]","[280]","0","0","1","0","149.1220000119065","993.6290000119479","1000","[[[""img/mask89.png""]]]","","","main","313","color-precision2"
"","","","","","html-keyboard-response","104","369358","0.0-10.0-1.42","62b06c1508dfc74f4f38efab","640759fa512f630a2bdc333d","6408c18285634716bf6568b8","null","","null","","","","","","","","","","","","","","","","","","","fixation","",""
"","","","","","many-guess-6","105","371844","0.0-10.0-0.43-0.43","62b06c1508dfc74f4f38efab","640759fa512f630a2bdc333d","6408c18285634716bf6568b8","[1156.699999988079]","","","[29,7,10,15,11,25,2,8,16,31,3,9,33,14,12,32,18,34,28,30,4,6,17,26,19,21,20,35,1,24,22,13,23,27,5,0]","[344,244,34,144,24,134,124,84,74,174,164,264,354,5,314,54,204,184,284,224,194,274,294,14,304,44,114,214,234,154,104,324,334,64,254,94]","344","284","175.95888356546027","[175.95888356546027]","[251.95888356546027]","[251]","[300,300,120,30,300,120,210,300,210]","0","36","0","141.9050000119023","21.748000035760924","16","[[[""img/mask96.png""],[""img/mask55.png""],[""img/mask12.png""],[""img/mask25.png""],[""img/mask33.png""],[""img/mask76.png""],[""img/mask15.png""],[""img/mask84.png""],[""img/mask20.png""],[""img/mask70.png""],[""img/mask5.png""],[""img/mask82.png""],[""img/mask38.png""],[""img/mask48.png""],[""img/mask26.png""],[""img/mask13.png""],[""img/mask96.png""],[""img/mask21.png""],[""img/mask93.png""],[""img/mask19.png""],[""img/mask60.png""],[""img/mask68.png""],[""img/mask27.png""],[""img/mask52.png""],[""img/mask43.png""],[""img/mask21.png""],[""img/mask72.png""],[""img/mask24.png""],[""img/mask34.png""],[""img/mask76.png""],[""img/mask14.png""],[""img/mask75.png""],[""img/mask42.png""],[""img/mask67.png""],[""img/mask39.png""],[""img/mask25.png""]]]","","[29,7,10,15,11,25,2,8,16,31,3,9,33,14,12,32,18,34,28,30,4,6,17,26,19,21,20,35,1,24,22,13,23,27,5,0]","main","284","many-guess-6"
"","","","","","html-keyboard-response","106","372347","0.0-10.0-1.43","62b06c1508dfc74f4f38efab","640759fa512f630a2bdc333d","6408c18285634716bf6568b8","null","","null","","","","","","","","","","","","","","","","","","","fixation","",""
"","","","","","many-guess-6","107","374901","0.0-10.0-0.44-0.44","62b06c1508dfc74f4f38efab","640759fa512f630a2bdc333d","6408c18285634716bf6568b8","[1030.800000011921]","","","[27,1,26,32,16,31,22,8,6,4,9,29,5,10,0,21,33,13,11,18,20,34,19,30,7,35,3,25,15,17,2,14,24,28,23,12]","[338,198,148,108,308,39,48,128,258,238,298,118,208,318,248,168,178,138,158,218,268,88,358,228,58,348,9,19,29,68,78,98,288,328,188,278]","338","152","302.255878286021","[302.255878286021]","[150.25587828602102]","[150]","[120,300,300,210,210,210,210,120,300]","0","36","0","149.01700001192512","14.167000035755336","16","[[[""img/mask20.png""],[""img/mask17.png""],[""img/mask10.png""],[""img/mask26.png""],[""img/mask48.png""],[""img/mask25.png""],[""img/mask92.png""],[""img/mask58.png""],[""img/mask3.png""],[""img/mask29.png""],[""img/mask90.png""],[""img/mask64.png""],[""img/mask32.png""],[""img/mask52.png""],[""img/mask3.png""],[""img/mask19.png""],[""img/mask95.png""],[""img/mask42.png""],[""img/mask19.png""],[""img/mask82.png""],[""img/mask25.png""],[""img/mask39.png""],[""img/mask62.png""],[""img/mask42.png""],[""img/mask35.png""],[""img/mask19.png""],[""img/mask97.png""],[""img/mask2.png""],[""img/mask1.png""],[""img/mask91.png""],[""img/mask65.png""],[""img/mask27.png""],[""img/mask21.png""],[""img/mask47.png""],[""img/mask61.png""],[""img/mask69.png""]]]","","[27,1,26,32,16,31,22,8,6,4,9,29,5,10,0,21,33,13,11,18,20,34,19,30,7,35,3,25,15,17,2,14,24,28,23,12]","main","152","many-guess-6"
"","","","","","html-keyboard-response","108","375415","0.0-10.0-1.44","62b06c1508dfc74f4f38efab","640759fa512f630a2bdc333d","6408c18285634716bf6568b8","null","","null","","","","","","","","","","","","","","","","","","","fixation","",""
"","","","","","many-guess-6","109","378073","0.0-10.0-0.45-0.45","62b06c1508dfc74f4f38efab","640759fa512f630a2bdc333d","6408c18285634716bf6568b8","[1206.5]","","","[32,17,3,12,19,18,28,31,33,9,8,21,14,0,6,10,30,22,2,13,25,26,24,1,35,23,15,20,4,29,16,7,27,11,34,5]","[30,80,110,330,300,200,270,60,130,220,160,1,230,50,21,140,290,100,190,320,70,280,11,250,150,210,90,260,180,40,120,310,350,340,240,170]","30","194","229.0327978294649","[229.0327978294649]","[35.0327978294649]","[35]","[300,300,210,120,300,210,30,300,300]","0","36","0","148.82299999997485","22.95800003578188","16","[[[""img/mask81.png""],[""img/mask30.png""],[""img/mask54.png""],[""img/mask62.png""],[""img/mask49.png""],[""img/mask19.png""],[""img/mask76.png""],[""img/mask33.png""],[""img/mask60.png""],[""img/mask7.png""],[""img/mask83.png""],[""img/mask65.png""],[""img/mask48.png""],[""img/mask33.png""],[""img/mask42.png""],[""img/mask33.png""],[""img/mask59.png""],[""img/mask5.png""],[""img/mask51.png""],[""img/mask34.png""],[""img/mask70.png""],[""img/mask58.png""],[""img/mask17.png""],[""img/mask22.png""],[""img/mask70.png""],[""img/mask15.png""],[""img/mask100.png""],[""img/mask56.png""],[""img/mask49.png""],[""img/mask52.png""],[""img/mask38.png""],[""img/mask42.png""],[""img/mask73.png""],[""img/mask56.png""],[""img/mask100.png""],[""img/mask14.png""]]]","","[32,17,3,12,19,18,28,31,33,9,8,21,14,0,6,10,30,22,2,13,25,26,24,1,35,23,15,20,4,29,16,7,27,11,34,5]","main","194","many-guess-6"
"","","","","","html-keyboard-response","110","378580","0.0-10.0-1.45","62b06c1508dfc74f4f38efab","640759fa512f630a2bdc333d","6408c18285634716bf6568b8","null","","null","","","","","","","","","","","","","","","","","","","fixation","",""
"","","","","","many-guess-6","111","381529","0.0-10.0-0.46-0.46","62b06c1508dfc74f4f38efab","640759fa512f630a2bdc333d","6408c18285634716bf6568b8","[1483.800000011921]","","","[33,30,25,19,18,4,13,0,10,21,29,5,9,32,28,1,24,15,17,6,3,35,31,34,8,14,20,27,12,23,2,26,16,11,22,7]","[19,99,318,149,9,238,209,248,348,228,298,308,119,358,129,29,79,268,139,328,199,338,59,169,219,69,109,39,278,49,258,288,159,179,89,189]","19","118","331.75200537870165","[331.75200537870165]","[213.75200537870165]","[213]","[210,210,120,30,210,30,30,210,300]","0","36","0","147.6279999880935","12.684999999997672","16","[[[""img/mask34.png""],[""img/mask82.png""],[""img/mask62.png""],[""img/mask91.png""],[""img/mask55.png""],[""img/mask24.png""],[""img/mask50.png""],[""img/mask29.png""],[""img/mask74.png""],[""img/mask51.png""],[""img/mask55.png""],[""img/mask15.png""],[""img/mask44.png""],[""img/mask82.png""],[""img/mask85.png""],[""img/mask12.png""],[""img/mask80.png""],[""img/mask5.png""],[""img/mask37.png""],[""img/mask55.png""],[""img/mask60.png""],[""img/mask89.png""],[""img/mask29.png""],[""img/mask75.png""],[""img/mask16.png""],[""img/mask53.png""],[""img/mask39.png""],[""img/mask5.png""],[""img/mask77.png""],[""img/mask45.png""],[""img/mask19.png""],[""img/mask49.png""],[""img/mask2.png""],[""img/mask75.png""],[""img/mask76.png""],[""img/mask28.png""]]]","","[33,30,25,19,18,4,13,0,10,21,29,5,9,32,28,1,24,15,17,6,3,35,31,34,8,14,20,27,12,23,2,26,16,11,22,7]","main","118","many-guess-6"
"","","","","","html-keyboard-response","112","382032","0.0-10.0-1.46","62b06c1508dfc74f4f38efab","640759fa512f630a2bdc333d","6408c18285634716bf6568b8","null","","null","","","","","","","","","","","","","","","","","","","fixation","",""
"","","","","","many-guess-6","113","384821","0.0-10.0-0.47-0.47","62b06c1508dfc74f4f38efab","640759fa512f630a2bdc333d","6408c18285634716bf6568b8","[1150]","","","[34,11,31,14,23,32,33,21,17,7,19,18,3,5,6,10,30,22,13,25,8,24,15,1,20,2,0,26,12,9,28,29,4,27,35,16]","[19,209,179,199,159,338,9,29,219,318,278,169,288,189,298,229,49,79,259,269,69,99,149,308,239,249,89,129,139,109,348,358,39,59,328,119]","19","124","220.4423328952918","[220.4423328952918]","[96.4423328952918]","[97]","[300,300,30,30,300,210,120,120,300]","0","36","0","149.14700002386235","20.152000011934433","16","[[[""img/mask26.png""],[""img/mask85.png""],[""img/mask79.png""],[""img/mask66.png""],[""img/mask50.png""],[""img/mask99.png""],[""img/mask47.png""],[""img/mask69.png""],[""img/mask64.png""],[""img/mask93.png""],[""img/mask23.png""],[""img/mask26.png""],[""img/mask86.png""],[""img/mask6.png""],[""img/mask60.png""],[""img/mask78.png""],[""img/mask98.png""],[""img/mask45.png""],[""img/mask7.png""],[""img/mask45.png""],[""img/mask74.png""],[""img/mask99.png""],[""img/mask1.png""],[""img/mask60.png""],[""img/mask40.png""],[""img/mask81.png""],[""img/mask58.png""],[""img/mask21.png""],[""img/mask93.png""],[""img/mask56.png""],[""img/mask26.png""],[""img/mask82.png""],[""img/mask40.png""],[""img/mask57.png""],[""img/mask61.png""],[""img/mask98.png""]]]","","[34,11,31,14,23,32,33,21,17,7,19,18,3,5,6,10,30,22,13,25,8,24,15,1,20,2,0,26,12,9,28,29,4,27,35,16]","main","124","many-guess-6"
"","","","","","html-keyboard-response","114","385324","0.0-10.0-1.47","62b06c1508dfc74f4f38efab","640759fa512f630a2bdc333d","6408c18285634716bf6568b8","null","","null","","","","","","","","","","","","","","","","","","","fixation","",""
"","","","","","many-guess-6","115","387844","0.0-10.0-0.48-0.48","62b06c1508dfc74f4f38efab","640759fa512f630a2bdc333d","6408c18285634716bf6568b8","[1007]","","","[26,21,1,35,4,11,20,33,17,31,0,27,24,19,7,14,6,8,18,32,23,15,12,3,25,22,30,9,16,34,28,13,10,29,2,5]","[211,32,132,351,311,231,321,22,241,12,281,112,142,182,331,192,301,221,122,42,72,162,52,82,102,201,291,271,92,341,251,172,261,2,152,62]","211","332","301.30345008911956","[301.30345008911956]","[329.30345008911956]","[330]","[300,210,120,210,120,300,120,300,120]","0","36","0","147.72100000001956","10.791000000026543","16","[[[""img/mask2.png""],[""img/mask67.png""],[""img/mask66.png""],[""img/mask32.png""],[""img/mask30.png""],[""img/mask37.png""],[""img/mask27.png""],[""img/mask59.png""],[""img/mask1.png""],[""img/mask66.png""],[""img/mask98.png""],[""img/mask85.png""],[""img/mask77.png""],[""img/mask53.png""],[""img/mask99.png""],[""img/mask88.png""],[""img/mask52.png""],[""img/mask66.png""],[""img/mask2.png""],[""img/mask85.png""],[""img/mask62.png""],[""img/mask88.png""],[""img/mask65.png""],[""img/mask35.png""],[""img/mask36.png""],[""img/mask42.png""],[""img/mask40.png""],[""img/mask30.png""],[""img/mask54.png""],[""img/mask43.png""],[""img/mask94.png""],[""img/mask31.png""],[""img/mask18.png""],[""img/mask28.png""],[""img/mask24.png""],[""img/mask43.png""]]]","","[26,21,1,35,4,11,20,33,17,31,0,27,24,19,7,14,6,8,18,32,23,15,12,3,25,22,30,9,16,34,28,13,10,29,2,5]","main","332","many-guess-6"
"","","","","","html-keyboard-response","116","388348","0.0-10.0-1.48","62b06c1508dfc74f4f38efab","640759fa512f630a2bdc333d","6408c18285634716bf6568b8","null","","null","","","","","","","","","","","","","","","","","","","fixation","",""
"","","","","","many-guess-6","117","391302","0.0-10.0-0.49-0.49","62b06c1508dfc74f4f38efab","640759fa512f630a2bdc333d","6408c18285634716bf6568b8","[1201.4000000357628]","","","[8,32,23,13,31,33,27,5,24,34,0,14,19,11,1,6,2,7,28,22,29,9,20,18,4,21,15,35,10,3,16,12,17,25,26,30]","[98,248,228,188,318,288,128,108,158,59,69,338,89,9,308,178,49,208,138,29,148,268,278,168,358,79,218,298,348,19,198,39,258,238,328,118]","98","70","310.54804535077676","[310.54804535077676]","[240.54804535077676]","[240]","[300,300,210,210,120,120,120,30,30]","0","36","0","148.9130000238656","9.11099999997532","16","[[[""img/mask11.png""],[""img/mask20.png""],[""img/mask25.png""],[""img/mask96.png""],[""img/mask29.png""],[""img/mask51.png""],[""img/mask6.png""],[""img/mask18.png""],[""img/mask10.png""],[""img/mask78.png""],[""img/mask53.png""],[""img/mask21.png""],[""img/mask4.png""],[""img/mask94.png""],[""img/mask49.png""],[""img/mask62.png""],[""img/mask56.png""],[""img/mask76.png""],[""img/mask37.png""],[""img/mask37.png""],[""img/mask1.png""],[""img/mask81.png""],[""img/mask39.png""],[""img/mask38.png""],[""img/mask35.png""],[""img/mask13.png""],[""img/mask15.png""],[""img/mask9.png""],[""img/mask22.png""],[""img/mask46.png""],[""img/mask12.png""],[""img/mask76.png""],[""img/mask44.png""],[""img/mask97.png""],[""img/mask94.png""],[""img/mask15.png""]]]","","[8,32,23,13,31,33,27,5,24,34,0,14,19,11,1,6,2,7,28,22,29,9,20,18,4,21,15,35,10,3,16,12,17,25,26,30]","main","70","many-guess-6"
"","","","","","html-keyboard-response","118","391804","0.0-10.0-1.49","62b06c1508dfc74f4f38efab","640759fa512f630a2bdc333d","6408c18285634716bf6568b8","null","","null","","","","","","","","","","","","","","","","","","","fixation","",""
"","","","","","color-precision2","119","394617","0.0-10.0-0.50-0.50","62b06c1508dfc74f4f38efab","640759fa512f630a2bdc333d","6408c18285634716bf6568b8","[438.10000002384186]","","","[29]","[89]","89","292","2.859840109656108","[2.859840109656108]","[70.85984010965609]","[70]","0","0","1","0","145.3440000238479","1006.1700000119163","1000","[[[""img/mask52.png""]]]","","","main","292","color-precision2"
"","","","","","html-keyboard-response","120","395122","0.0-10.0-1.50","62b06c1508dfc74f4f38efab","640759fa512f630a2bdc333d","6408c18285634716bf6568b8","null","","null","","","","","","","","","","","","","","","","","","","fixation","",""
"","","","","","color-precision2","121","397899","0.0-10.0-0.51-0.51","62b06c1508dfc74f4f38efab","640759fa512f630a2bdc333d","6408c18285634716bf6568b8","[27.100000023841858]","","","[26]","[84]","84","289","","[null]","[null]","[66]","0","0","1","0","148.7780000238563","1004.8520000119461","1000","[[[""img/mask91.png""]]]","","","main","289","color-precision2"
"","","","","","html-keyboard-response","122","398406","0.0-10.0-1.51","62b06c1508dfc74f4f38efab","640759fa512f630a2bdc333d","6408c18285634716bf6568b8","null","","null","","","","","","","","","","","","","","","","","","","fixation","",""
"","","","","","color-precision2","123","401270","0.0-10.0-0.52-0.52","62b06c1508dfc74f4f38efab","640759fa512f630a2bdc333d","6408c18285634716bf6568b8","[280.89999997615814]","","","[16]","[100]","100","52","156.45390095998982","[156.45390095998982]","[104.45390095998982]","[103]","0","0","1","0","148.92500001192093","993.9690000119153","1000","[[[""img/mask64.png""]]]","","","main","52","color-precision2"
"","","","","","html-keyboard-response","124","401772","0.0-10.0-1.52","62b06c1508dfc74f4f38efab","640759fa512f630a2bdc333d","6408c18285634716bf6568b8","null","","null","","","","","","","","","","","","","","","","","","","fixation","",""
"","","","","","many-guess-6","125","404976","0.0-10.0-0.53-0.53","62b06c1508dfc74f4f38efab","640759fa512f630a2bdc333d","6408c18285634716bf6568b8","[1706.2999999523163]","","","[19,0,30,31,5,11,9,32,18,28,8,26,6,1,23,13,3,14,21,27,25,24,7,34,35,33,2,29,17,12,4,20,10,16,15,22]","[131,21,101,231,341,141,331,261,211,161,41,81,281,191,251,111,181,301,11,51,31,71,1,121,221,351,241,91,291,201,171,321,61,151,311,271]","131","216","241.09828181311025","[241.09828181311025]","[25.098281813110248]","[25]","[30,30,300,120,30,300,300,120,300]","0","36","0","148.61400001193397","9.833000035781879","16","[[[""img/mask61.png""],[""img/mask33.png""],[""img/mask47.png""],[""img/mask65.png""],[""img/mask62.png""],[""img/mask30.png""],[""img/mask79.png""],[""img/mask68.png""],[""img/mask13.png""],[""img/mask32.png""],[""img/mask100.png""],[""img/mask23.png""],[""img/mask77.png""],[""img/mask34.png""],[""img/mask91.png""],[""img/mask26.png""],[""img/mask37.png""],[""img/mask51.png""],[""img/mask6.png""],[""img/mask7.png""],[""img/mask52.png""],[""img/mask43.png""],[""img/mask74.png""],[""img/mask48.png""],[""img/mask78.png""],[""img/mask43.png""],[""img/mask47.png""],[""img/mask8.png""],[""img/mask9.png""],[""img/mask49.png""],[""img/mask30.png""],[""img/mask99.png""],[""img/mask65.png""],[""img/mask8.png""],[""img/mask71.png""],[""img/mask43.png""]]]","","[19,0,30,31,5,11,9,32,18,28,8,26,6,1,23,13,3,14,21,27,25,24,7,34,35,33,2,29,17,12,4,20,10,16,15,22]","main","216","many-guess-6"
"","","","","","html-keyboard-response","126","405477","0.0-10.0-1.53","62b06c1508dfc74f4f38efab","640759fa512f630a2bdc333d","6408c18285634716bf6568b8","null","","null","","","","","","","","","","","","","","","","","","","fixation","",""
"","","","","","color-precision2","127","409107","0.0-10.0-0.54-0.54","62b06c1508dfc74f4f38efab","640759fa512f630a2bdc333d","6408c18285634716bf6568b8","[143.69999998807907]","","","[6]","[278]","278","22","","[null]","[null]","[287]","0","0","1","0","146.48900002386654","1001.2010000119335","1000","[[[""img/mask23.png""]]]","","","main","22","color-precision2"
"","","","","","html-keyboard-response","128","409609","0.0-10.0-1.54","62b06c1508dfc74f4f38efab","640759fa512f630a2bdc333d","6408c18285634716bf6568b8","null","","null","","","","","","","","","","","","","","","","","","","fixation","",""
"","","","","","color-precision2","129","412998","0.0-10.0-0.55-0.55","62b06c1508dfc74f4f38efab","640759fa512f630a2bdc333d","6408c18285634716bf6568b8","[606.5999999642372]","","","[19]","[270]","270","127","59.04114773342983","[59.04114773342983]","[292.04114773342985]","[290]","0","0","1","0","147.50599998806138","1006.3640000238665","1000","[[[""img/mask20.png""]]]","","","main","127","color-precision2"
"","","","","","html-keyboard-response","130","413501","0.0-10.0-1.55","62b06c1508dfc74f4f38efab","640759fa512f630a2bdc333d","6408c18285634716bf6568b8","null","","null","","","","","","","","","","","","","","","","","","","fixation","",""
"","","","","","color-precision2","131","416523","0.0-10.0-0.56-0.56","62b06c1508dfc74f4f38efab","640759fa512f630a2bdc333d","6408c18285634716bf6568b8","[103.79999995231628]","","","[12]","[87]","87","69","","[null]","[null]","[87]","0","0","1","0","148.51400000002468","1002.7470000119065","1000","[[[""img/mask23.png""]]]","","","main","69","color-precision2"
"","","","","","html-keyboard-response","132","417026","0.0-10.0-1.56","62b06c1508dfc74f4f38efab","640759fa512f630a2bdc333d","6408c18285634716bf6568b8","null","","null","","","","","","","","","","","","","","","","","","","fixation","",""
"","","","","","color-precision2","133","420343","0.0-10.0-0.57-0.57","62b06c1508dfc74f4f38efab","640759fa512f630a2bdc333d","6408c18285634716bf6568b8","[690.5999999642372]","","","[1]","[39]","39","318","352.488346299201","[352.488346299201]","[34.488346299201]","[34]","0","0","1","0","145.05000003578607","994.570000000007","1000","[[[""img/mask15.png""]]]","","","main","318","color-precision2"
"","","","","","html-keyboard-response","134","420846","0.0-10.0-1.57","62b06c1508dfc74f4f38efab","640759fa512f630a2bdc333d","6408c18285634716bf6568b8","null","","null","","","","","","","","","","","","","","","","","","","fixation","",""
"","","","","","color-precision2","135","424461","0.0-10.0-0.58-0.58","62b06c1508dfc74f4f38efab","640759fa512f630a2bdc333d","6408c18285634716bf6568b8","[247.30000001192093]","","","[33]","[210]","210","292","137.6480184785994","[137.6480184785994]","[205.6480184785994]","[204]","0","0","1","0","148.52600003575208","995.2139999999781","1000","[[[""img/mask16.png""]]]","","","main","292","color-precision2"
"","","","","","html-keyboard-response","136","424964","0.0-10.0-1.58","62b06c1508dfc74f4f38efab","640759fa512f630a2bdc333d","6408c18285634716bf6568b8","null","","null","","","","","","","","","","","","","","","","","","","fixation","",""
"","","","","","many-guess-6","137","427826","0.0-10.0-0.59-0.59","62b06c1508dfc74f4f38efab","640759fa512f630a2bdc333d","6408c18285634716bf6568b8","[1201]","","","[21,19,4,25,32,30,12,3,6,23,14,22,8,35,11,1,20,7,18,10,31,27,15,17,9,28,34,24,29,13,26,16,33,2,0,5]","[317,337,297,208,98,78,357,218,248,28,238,158,188,198,347,138,327,268,168,148,228,108,48,287,307,258,128,178,38,18,118,277,58,8,68,88]","317","74","205.3154932922602","[205.3154932922602]","[131.3154932922602]","[131]","[300,210,30,300,30,210,210,120,300]","0","36","0","148.67199998808792","22.147999999986496","16","[[[""img/mask61.png""],[""img/mask15.png""],[""img/mask83.png""],[""img/mask6.png""],[""img/mask81.png""],[""img/mask3.png""],[""img/mask25.png""],[""img/mask43.png""],[""img/mask81.png""],[""img/mask66.png""],[""img/mask14.png""],[""img/mask19.png""],[""img/mask29.png""],[""img/mask48.png""],[""img/mask44.png""],[""img/mask4.png""],[""img/mask39.png""],[""img/mask35.png""],[""img/mask55.png""],[""img/mask96.png""],[""img/mask40.png""],[""img/mask91.png""],[""img/mask90.png""],[""img/mask9.png""],[""img/mask13.png""],[""img/mask48.png""],[""img/mask24.png""],[""img/mask23.png""],[""img/mask96.png""],[""img/mask51.png""],[""img/mask5.png""],[""img/mask63.png""],[""img/mask3.png""],[""img/mask38.png""],[""img/mask56.png""],[""img/mask33.png""]]]","","[21,19,4,25,32,30,12,3,6,23,14,22,8,35,11,1,20,7,18,10,31,27,15,17,9,28,34,24,29,13,26,16,33,2,0,5]","main","74","many-guess-6"
"","","","","","html-keyboard-response","138","429867","0.0-10.0-1.59","62b06c1508dfc74f4f38efab","640759fa512f630a2bdc333d","6408c18285634716bf6568b8","2038.3999999761581","Wow! You've completed 60 out of 180 trials! </p> <p>  </p><p> Take a quick break, then press any key when you're ready to continue.","enter","","","","","","","","","","","","","","","","","","","fixation","",""
"","","","","","color-precision2","139","433556","0.0-10.0-0.60-0.60","62b06c1508dfc74f4f38efab","640759fa512f630a2bdc333d","6408c18285634716bf6568b8","[287.5]","","","[7]","[319]","319","12","320.01083427430024","[320.01083427430024]","[308.01083427430024]","[308]","0","0","1","0","144.46400003577583","999.5599999880651","1000","[[[""img/mask1.png""]]]","","","main","12","color-precision2"
"","","","","","html-keyboard-response","140","434070","0.0-10.0-1.60","62b06c1508dfc74f4f38efab","640759fa512f630a2bdc333d","6408c18285634716bf6568b8","null","","null","","","","","","","","","","","","","","","","","","","fixation","",""
"","","","","","many-guess-6","141","437140","0.0-10.0-0.61-0.61","62b06c1508dfc74f4f38efab","640759fa512f630a2bdc333d","6408c18285634716bf6568b8","[1192.300000011921]","","","[0,29,6,17,32,13,7,22,4,35,16,24,28,10,26,2,8,30,19,23,15,33,21,5,31,12,9,1,27,20,34,14,11,18,25,3]","[256,7,316,77,236,67,27,57,137,87,37,157,127,356,276,177,306,167,197,17,226,97,246,117,147,47,326,107,187,336,346,207,296,217,286,266]","256","359","342.75494152305123","[342.75494152305123]","[343.75494152305123]","[343]","[300,30,120,300,30,120,300,30,30]","0","36","0","146.32000001193956","10.77100002381485","16","[[[""img/mask3.png""],[""img/mask44.png""],[""img/mask64.png""],[""img/mask10.png""],[""img/mask18.png""],[""img/mask9.png""],[""img/mask19.png""],[""img/mask35.png""],[""img/mask54.png""],[""img/mask91.png""],[""img/mask7.png""],[""img/mask85.png""],[""img/mask82.png""],[""img/mask68.png""],[""img/mask63.png""],[""img/mask33.png""],[""img/mask50.png""],[""img/mask64.png""],[""img/mask95.png""],[""img/mask30.png""],[""img/mask70.png""],[""img/mask28.png""],[""img/mask21.png""],[""img/mask7.png""],[""img/mask84.png""],[""img/mask54.png""],[""img/mask6.png""],[""img/mask8.png""],[""img/mask51.png""],[""img/mask83.png""],[""img/mask7.png""],[""img/mask96.png""],[""img/mask75.png""],[""img/mask73.png""],[""img/mask78.png""],[""img/mask69.png""]]]","","[0,29,6,17,32,13,7,22,4,35,16,24,28,10,26,2,8,30,19,23,15,33,21,5,31,12,9,1,27,20,34,14,11,18,25,3]","main","359","many-guess-6"
"","","","","","html-keyboard-response","142","437642","0.0-10.0-1.61","62b06c1508dfc74f4f38efab","640759fa512f630a2bdc333d","6408c18285634716bf6568b8","null","","null","","","","","","","","","","","","","","","","","","","fixation","",""
"","","","","","color-precision2","143","440412","0.0-10.0-0.62-0.62","62b06c1508dfc74f4f38efab","640759fa512f630a2bdc333d","6408c18285634716bf6568b8","[52.200000047683716]","","","[7]","[174]","174","63","","[null]","[null]","[185]","0","0","1","0","148.0630000118981","996.6840000357479","1000","[[[""img/mask54.png""]]]","","","main","63","color-precision2"
"","","","","","html-keyboard-response","144","440922","0.0-10.0-1.62","62b06c1508dfc74f4f38efab","640759fa512f630a2bdc333d","6408c18285634716bf6568b8","null","","null","","","","","","","","","","","","","","","","","","","fixation","",""
"","","","","","many-guess-6","145","442857","0.0-10.0-0.63-0.63","62b06c1508dfc74f4f38efab","640759fa512f630a2bdc333d","6408c18285634716bf6568b8","[531.7999999523163]","","","[30,23,10,6,35,1,11,22,20,32,24,28,9,21,16,27,7,18,17,0,13,12,2,8,29,25,26,19,33,5,34,15,31,4,14,3]","[166,36,325,335,26,6,156,96,206,355,176,285,76,186,235,255,126,56,106,46,295,345,116,225,136,66,275,305,245,196,146,16,315,265,216,86]","166","344","199.3509438361808","[199.3509438361808]","[215.3509438361808]","[215]","[120,210,300,30,210,120,30,120,120]","0","36","0","147.46299998805625","24.39600002381485","16","[[[""img/mask91.png""],[""img/mask88.png""],[""img/mask74.png""],[""img/mask48.png""],[""img/mask1.png""],[""img/mask54.png""],[""img/mask86.png""],[""img/mask27.png""],[""img/mask82.png""],[""img/mask57.png""],[""img/mask60.png""],[""img/mask64.png""],[""img/mask89.png""],[""img/mask39.png""],[""img/mask81.png""],[""img/mask94.png""],[""img/mask86.png""],[""img/mask8.png""],[""img/mask11.png""],[""img/mask1.png""],[""img/mask26.png""],[""img/mask97.png""],[""img/mask50.png""],[""img/mask100.png""],[""img/mask15.png""],[""img/mask84.png""],[""img/mask62.png""],[""img/mask47.png""],[""img/mask12.png""],[""img/mask97.png""],[""img/mask1.png""],[""img/mask51.png""],[""img/mask81.png""],[""img/mask25.png""],[""img/mask69.png""],[""img/mask93.png""]]]","","[30,23,10,6,35,1,11,22,20,32,24,28,9,21,16,27,7,18,17,0,13,12,2,8,29,25,26,19,33,5,34,15,31,4,14,3]","main","344","many-guess-6"
"","","","","","html-keyboard-response","146","443359","0.0-10.0-1.63","62b06c1508dfc74f4f38efab","640759fa512f630a2bdc333d","6408c18285634716bf6568b8","null","","null","","","","","","","","","","","","","","","","","","","fixation","",""
"","","","","","many-guess-6","147","445435","0.0-10.0-0.64-0.64","62b06c1508dfc74f4f38efab","640759fa512f630a2bdc333d","6408c18285634716bf6568b8","[714.8999999761581]","","","[15,33,20,29,16,7,32,35,31,13,22,26,17,23,11,28,3,14,6,0,2,1,27,9,18,25,34,21,10,30,12,5,24,19,8,4]","[335,86,285,36,106,196,96,166,305,205,46,26,146,345,265,66,255,245,76,126,215,136,16,225,116,6,275,355,295,186,325,56,315,156,235,176]","335","207","321.3053680516165","[321.3053680516165]","[114.30536805161648]","[114]","[300,30,120,210,30,300,30,120,30]","0","36","0","148.04600002383813","14.083999999973457","16","[[[""img/mask54.png""],[""img/mask55.png""],[""img/mask67.png""],[""img/mask22.png""],[""img/mask66.png""],[""img/mask45.png""],[""img/mask11.png""],[""img/mask28.png""],[""img/mask42.png""],[""img/mask33.png""],[""img/mask64.png""],[""img/mask78.png""],[""img/mask99.png""],[""img/mask71.png""],[""img/mask63.png""],[""img/mask60.png""],[""img/mask76.png""],[""img/mask47.png""],[""img/mask24.png""],[""img/mask64.png""],[""img/mask73.png""],[""img/mask10.png""],[""img/mask70.png""],[""img/mask69.png""],[""img/mask5.png""],[""img/mask18.png""],[""img/mask10.png""],[""img/mask16.png""],[""img/mask52.png""],[""img/mask78.png""],[""img/mask72.png""],[""img/mask81.png""],[""img/mask56.png""],[""img/mask38.png""],[""img/mask69.png""],[""img/mask74.png""]]]","","[15,33,20,29,16,7,32,35,31,13,22,26,17,23,11,28,3,14,6,0,2,1,27,9,18,25,34,21,10,30,12,5,24,19,8,4]","main","207","many-guess-6"
"","","","","","html-keyboard-response","148","445940","0.0-10.0-1.64","62b06c1508dfc74f4f38efab","640759fa512f630a2bdc333d","6408c18285634716bf6568b8","null","","null","","","","","","","","","","","","","","","","","","","fixation","",""
"","","","","","color-precision2","149","448857","0.0-10.0-0.65-0.65","62b06c1508dfc74f4f38efab","640759fa512f630a2bdc333d","6408c18285634716bf6568b8","[122.59999996423721]","","","[26]","[231]","231","327","","[null]","[null]","[227]","0","0","1","0","145.40399999998044","1004.9699999999721","1000","[[[""img/mask71.png""]]]","","","main","327","color-precision2"
"","","","","","html-keyboard-response","150","449359","0.0-10.0-1.65","62b06c1508dfc74f4f38efab","640759fa512f630a2bdc333d","6408c18285634716bf6568b8","null","","null","","","","","","","","","","","","","","","","","","","fixation","",""
"","","","","","many-guess-6","151","452060","0.0-10.0-0.66-0.66","62b06c1508dfc74f4f38efab","640759fa512f630a2bdc333d","6408c18285634716bf6568b8","[1160.5]","","","[2,6,32,30,35,20,25,31,14,7,4,28,0,21,34,26,3,15,11,29,22,13,5,8,17,9,23,33,16,24,27,10,18,12,1,19]","[49,39,99,79,249,358,209,269,299,309,149,159,29,259,69,318,229,328,219,9,169,189,19,289,279,179,348,338,239,109,129,199,139,119,89,59]","49","358","157.39279583067363","[157.39279583067363]","[159.39279583067363]","[158]","[120,300,30,300,210,30,30,120,120]","0","36","0","146.9410000119242","12.744000035745557","16","[[[""img/mask44.png""],[""img/mask72.png""],[""img/mask62.png""],[""img/mask1.png""],[""img/mask55.png""],[""img/mask70.png""],[""img/mask26.png""],[""img/mask39.png""],[""img/mask40.png""],[""img/mask38.png""],[""img/mask27.png""],[""img/mask10.png""],[""img/mask65.png""],[""img/mask51.png""],[""img/mask2.png""],[""img/mask86.png""],[""img/mask3.png""],[""img/mask29.png""],[""img/mask66.png""],[""img/mask9.png""],[""img/mask47.png""],[""img/mask62.png""],[""img/mask6.png""],[""img/mask66.png""],[""img/mask9.png""],[""img/mask75.png""],[""img/mask50.png""],[""img/mask88.png""],[""img/mask92.png""],[""img/mask13.png""],[""img/mask43.png""],[""img/mask83.png""],[""img/mask46.png""],[""img/mask23.png""],[""img/mask82.png""],[""img/mask1.png""]]]","","[2,6,32,30,35,20,25,31,14,7,4,28,0,21,34,26,3,15,11,29,22,13,5,8,17,9,23,33,16,24,27,10,18,12,1,19]","main","358","many-guess-6"
"","","","","","html-keyboard-response","152","452562","0.0-10.0-1.66","62b06c1508dfc74f4f38efab","640759fa512f630a2bdc333d","6408c18285634716bf6568b8","null","","null","","","","","","","","","","","","","","","","","","","fixation","",""
"","","","","","many-guess-6","153","455361","0.0-10.0-0.67-0.67","62b06c1508dfc74f4f38efab","640759fa512f630a2bdc333d","6408c18285634716bf6568b8","[1464.2000000476837]","","","[8,16,28,2,9,29,6,12,17,31,18,1,7,24,14,23,19,21,32,34,35,11,27,30,13,26,0,3,15,20,22,10,5,4,25,33]","[330,280,70,230,150,90,190,50,220,80,40,60,200,180,260,160,310,130,320,120,100,340,170,140,350,250,300,110,1,270,290,240,21,210,31,11]","330","271","326.0990784694455","[326.0990784694455]","[55.09907846944549]","[55]","[300,300,30,210,30,120,30,300,300]","0","36","0","145.94400001189206","13.47200002381578","16","[[[""img/mask79.png""],[""img/mask33.png""],[""img/mask29.png""],[""img/mask37.png""],[""img/mask77.png""],[""img/mask74.png""],[""img/mask99.png""],[""img/mask79.png""],[""img/mask43.png""],[""img/mask87.png""],[""img/mask52.png""],[""img/mask36.png""],[""img/mask60.png""],[""img/mask14.png""],[""img/mask93.png""],[""img/mask30.png""],[""img/mask40.png""],[""img/mask98.png""],[""img/mask23.png""],[""img/mask5.png""],[""img/mask33.png""],[""img/mask9.png""],[""img/mask80.png""],[""img/mask72.png""],[""img/mask53.png""],[""img/mask44.png""],[""img/mask18.png""],[""img/mask68.png""],[""img/mask29.png""],[""img/mask63.png""],[""img/mask72.png""],[""img/mask88.png""],[""img/mask90.png""],[""img/mask3.png""],[""img/mask66.png""],[""img/mask9.png""]]]","","[8,16,28,2,9,29,6,12,17,31,18,1,7,24,14,23,19,21,32,34,35,11,27,30,13,26,0,3,15,20,22,10,5,4,25,33]","main","271","many-guess-6"
"","","","","","html-keyboard-response","154","455877","0.0-10.0-1.67","62b06c1508dfc74f4f38efab","640759fa512f630a2bdc333d","6408c18285634716bf6568b8","null","","null","","","","","","","","","","","","","","","","","","","fixation","",""
"","","","","","color-precision2","155","459912","0.0-10.0-0.68-0.68","62b06c1508dfc74f4f38efab","640759fa512f630a2bdc333d","6408c18285634716bf6568b8","[1589]","","","[14]","[280]","280","46","332.1337570287742","[332.1337570287742]","[286.1337570287742]","[286]","0","0","1","0","148.10199998808093","995.5820000357344","1000","[[[""img/mask16.png""]]]","","","main","46","color-precision2"
"","","","","","html-keyboard-response","156","460416","0.0-10.0-1.68","62b06c1508dfc74f4f38efab","640759fa512f630a2bdc333d","6408c18285634716bf6568b8","null","","null","","","","","","","","","","","","","","","","","","","fixation","",""
"","","","","","color-precision2","157","463354","0.0-10.0-0.69-0.69","62b06c1508dfc74f4f38efab","640759fa512f630a2bdc333d","6408c18285634716bf6568b8","[384.10000002384186]","","","[17]","[15]","15","342","340.3727996817374","[340.3727996817374]","[358.3727996817374]","[358]","0","0","1","0","146.97599998809164","997.9780000119354","1000","[[[""img/mask42.png""]]]","","","main","342","color-precision2"
"","","","","","html-keyboard-response","158","463862","0.0-10.0-1.69","62b06c1508dfc74f4f38efab","640759fa512f630a2bdc333d","6408c18285634716bf6568b8","null","","null","","","","","","","","","","","","","","","","","","","fixation","",""
"","","","","","color-precision2","159","467651","0.0-10.0-0.70-0.70","62b06c1508dfc74f4f38efab","640759fa512f630a2bdc333d","6408c18285634716bf6568b8","[921.5]","","","[10]","[259]","259","122","35.67621909208147","[35.67621909208147]","[273.67621909208145]","[273]","0","0","1","0","147.68299998808652","999.9780000000028","1000","[[[""img/mask64.png""]]]","","","main","122","color-precision2"
"","","","","","html-keyboard-response","160","468155","0.0-10.0-1.70","62b06c1508dfc74f4f38efab","640759fa512f630a2bdc333d","6408c18285634716bf6568b8","null","","null","","","","","","","","","","","","","","","","","","","fixation","",""
"","","","","","many-guess-6","161","471180","0.0-10.0-0.71-0.71","62b06c1508dfc74f4f38efab","640759fa512f630a2bdc333d","6408c18285634716bf6568b8","[1388.9000000357628]","","","[0,8,10,34,12,2,11,1,26,30,16,33,24,15,32,13,7,31,27,21,3,20,25,19,14,23,35,22,5,17,18,4,29,28,9,6]","[261,351,321,92,251,102,341,142,42,122,241,201,172,311,12,112,231,32,82,271,152,181,281,162,72,132,62,331,211,191,291,22,52,221,2,301]","261","219","247.52243348333008","[247.52243348333008]","[28.522433483330076]","[29]","[210,210,210,30,300,30,30,210,300]","0","36","0","164.14700002386235","20.68900000001304","16","[[[""img/mask99.png""],[""img/mask61.png""],[""img/mask47.png""],[""img/mask38.png""],[""img/mask31.png""],[""img/mask58.png""],[""img/mask89.png""],[""img/mask34.png""],[""img/mask76.png""],[""img/mask49.png""],[""img/mask64.png""],[""img/mask50.png""],[""img/mask32.png""],[""img/mask41.png""],[""img/mask5.png""],[""img/mask33.png""],[""img/mask100.png""],[""img/mask20.png""],[""img/mask59.png""],[""img/mask3.png""],[""img/mask59.png""],[""img/mask46.png""],[""img/mask8.png""],[""img/mask25.png""],[""img/mask73.png""],[""img/mask70.png""],[""img/mask91.png""],[""img/mask97.png""],[""img/mask87.png""],[""img/mask46.png""],[""img/mask31.png""],[""img/mask57.png""],[""img/mask50.png""],[""img/mask46.png""],[""img/mask45.png""],[""img/mask78.png""]]]","","[0,8,10,34,12,2,11,1,26,30,16,33,24,15,32,13,7,31,27,21,3,20,25,19,14,23,35,22,5,17,18,4,29,28,9,6]","main","219","many-guess-6"
"","","","","","html-keyboard-response","162","471681","0.0-10.0-1.71","62b06c1508dfc74f4f38efab","640759fa512f630a2bdc333d","6408c18285634716bf6568b8","null","","null","","","","","","","","","","","","","","","","","","","fixation","",""
"","","","","","many-guess-6","163","474890","0.0-10.0-0.72-0.72","62b06c1508dfc74f4f38efab","640759fa512f630a2bdc333d","6408c18285634716bf6568b8","[1450.5]","","","[22,18,6,0,35,7,14,8,31,9,13,17,33,3,25,24,1,10,30,11,29,23,4,34,5,16,20,19,27,15,28,21,12,2,32,26]","[223,153,353,253,123,213,343,143,173,273,14,53,193,43,113,293,313,183,233,323,23,283,4,203,243,333,93,263,63,163,33,83,133,73,303,103]","223","238","195.97721933222118","[195.97721933222118]","[317.9772193322212]","[318]","[300,210,120,210,210,210,120,300,120]","0","36","0","148.53400002385024","14.205999988073017","16","[[[""img/mask2.png""],[""img/mask69.png""],[""img/mask82.png""],[""img/mask6.png""],[""img/mask72.png""],[""img/mask72.png""],[""img/mask81.png""],[""img/mask75.png""],[""img/mask59.png""],[""img/mask26.png""],[""img/mask57.png""],[""img/mask58.png""],[""img/mask32.png""],[""img/mask24.png""],[""img/mask14.png""],[""img/mask26.png""],[""img/mask38.png""],[""img/mask67.png""],[""img/mask23.png""],[""img/mask88.png""],[""img/mask60.png""],[""img/mask73.png""],[""img/mask98.png""],[""img/mask70.png""],[""img/mask53.png""],[""img/mask29.png""],[""img/mask67.png""],[""img/mask97.png""],[""img/mask27.png""],[""img/mask96.png""],[""img/mask6.png""],[""img/mask27.png""],[""img/mask3.png""],[""img/mask78.png""],[""img/mask45.png""],[""img/mask64.png""]]]","","[22,18,6,0,35,7,14,8,31,9,13,17,33,3,25,24,1,10,30,11,29,23,4,34,5,16,20,19,27,15,28,21,12,2,32,26]","main","238","many-guess-6"
"","","","","","html-keyboard-response","164","475406","0.0-10.0-1.72","62b06c1508dfc74f4f38efab","640759fa512f630a2bdc333d","6408c18285634716bf6568b8","null","","null","","","","","","","","","","","","","","","","","","","fixation","",""
