"success","timeout","failed_images","failed_audio","failed_video","trial_type","trial_index","time_elapsed","internal_node_id","subject_id","study_id","session_id","rt","stimulus","response","position_of_items","colors_of_items","color_of_target","wheel_spin","response_angle","physical_response_angle","reported_color_angle","reported_color_discrete","locs","which_test","set_size","wheel_num_options","actual_mask_duration","actual_stim_duration","CMDispTime","maskArray","maskRotation","item_positions","task","randomSpinAmount","mainTask"
"true","false","[]","[]","[]","preload","0","19","0.0-0.0","63bc6b49a80cc5496df4c897","640759fa512f630a2bdc333d","6408c1830f12c18c00e9e8f1","","","","","","","","","","","","","","","","","","","","","","","",""
"true","","","","","fullscreen","1","3824","0.0-1.0","63bc6b49a80cc5496df4c897","640759fa512f630a2bdc333d","6408c1830f12c18c00e9e8f1","","","","","","","","","","","","","","","","","","","","","","","",""
"","","","","","html-keyboard-response","2","6160","0.0-2.0","63bc6b49a80cc5496df4c897","640759fa512f630a2bdc333d","6408c1830f12c18c00e9e8f1","2334","What a beautiful Wednesday to do some awesome science! </p> <p>  </p><p> </p>
    By completing this survey or questionnaire, you are consenting to be in this research study. </p>
    Your participation is voluntary and you can stop at any time.<p> [Press any key to continue] </p>"," ","","","","","","","","","","","","","","","","","","","","",""
"","","","","","html-keyboard-response","3","16162","0.0-3.0","63bc6b49a80cc5496df4c897","640759fa512f630a2bdc333d","6408c1830f12c18c00e9e8f1","2030","
    <div style='width: 1000px;'>
    <div style='float: center;'><img src='img/TaskInstructions1.png'></img>
    </div>
    "," ","","","","","","","","","","","","","","","","","","","","",""
"","","","","","html-keyboard-response","4","20552","0.0-4.0","63bc6b49a80cc5496df4c897","640759fa512f630a2bdc333d","6408c1830f12c18c00e9e8f1","4388","
    <div style='width: 1000px;'>
    <div style='float: center;'><img src='img/TaskInstructions1.png'></img>
    </div>
    "," ","","","","","","","","","","","","","","","","","","","","",""
"","","","","","html-keyboard-response","5","30554","0.0-5.0","63bc6b49a80cc5496df4c897","640759fa512f630a2bdc333d","6408c1830f12c18c00e9e8f1","932","
    <div style='width: 1000px;'>
    <div style='float: center;'><img src='img/TaskInstructions2.png'></img>
    </div>
    "," ","","","","","","","","","","","","","","","","","","","","",""
"","","","","","html-keyboard-response","6","31423","0.0-6.0","63bc6b49a80cc5496df4c897","640759fa512f630a2bdc333d","6408c1830f12c18c00e9e8f1","869","
    <div style='width: 1000px;'>
    <div style='float: center;'><img src='img/TaskInstructions2.png'></img>
    </div>
    ","enter","","","","","","","","","","","","","","","","","","","","",""
"","","","","","video-keyboard-response","7","39527","0.0-7.0","63bc6b49a80cc5496df4c897","640759fa512f630a2bdc333d","6408c1830f12c18c00e9e8f1","8095","[""video/TaskInstructions3.mp4""]","enter","","","","","","","","","","","","","","","","","","","","",""
"","","","","","image-keyboard-response","8","41072","0.0-8.0-0.0","63bc6b49a80cc5496df4c897","640759fa512f630a2bdc333d","6408c1830f12c18c00e9e8f1","1541","img/training1.png","enter","","","","","","","","","","","","","","","","","","","","",""
"","","","","","color-precision2","9","46293","0.0-8.0-1.0-0.0","63bc6b49a80cc5496df4c897","640759fa512f630a2bdc333d","6408c1830f12c18c00e9e8f1","[311]","","","[13]","[316]","316","321","268.7338829859595","[268.7338829859595]","[307.7338829859595]","[308]","0","0","1","0","498.59999999999854","998.9400000000023","1000","","","0","training","",""
"","","","","","image-keyboard-response","10","49464","0.0-8.0-0.1","63bc6b49a80cc5496df4c897","640759fa512f630a2bdc333d","6408c1830f12c18c00e9e8f1","3169","img/training2.png"," ","","","","","","","","","","","","","","","","","","","","",""
"","","","","","many-guess-6","11","57394","0.0-8.0-1.1-0.1","63bc6b49a80cc5496df4c897","640759fa512f630a2bdc333d","6408c1830f12c18c00e9e8f1","[1593]","","","[23,0,6]","[309,232,276]","309","106","10.709589281770395","[10.709589281770395]","[264.7095892817704]","[264]","[120,300,30,30,120,30,120,300,30,210,120,300,210,120,300,210,120,30,210,210,210,30,30,210,120,210,300,300,120,30,30,120,300,120,120,300]","0","3","0","1001.7200000000012","1001.0599999999977","1000","[[[""img/mask98.png""],[""img/mask4.png""],[""img/mask6.png""]]]","","[23,0,6]","training","",""
"","","","","","image-keyboard-response","12","62199","0.0-8.0-0.2","63bc6b49a80cc5496df4c897","640759fa512f630a2bdc333d","6408c1830f12c18c00e9e8f1","4805","img/training3.png"," ","","","","","","","","","","","","","","","","","","","","",""
"","","","","","[""many-guess-6""]","13","69684","0.0-8.0-1.2-0.2","63bc6b49a80cc5496df4c897","640759fa512f630a2bdc333d","6408c1830f12c18c00e9e8f1","[3996]","","","[0,11,18,13,3]","[303,175,230,267,343]","303","270","286.9191188136906","[286.9191188136906]","[16.919118813690602]","[17]","[300,120,30,120,300,30,210,120,210,30,300,300,210,300,300,30,120,120,210,300,30,210,30,120,210,210,30,120,300,30,210,210,120,120,300,210]","0","5","0","499.61999999999534","492.9400000000023","500","[[[""img/mask94.png""],[""img/mask14.png""],[""img/mask77.png""],[""img/mask57.png""],[""img/mask8.png""]]]","","[0,11,18,13,3]","training","",""
"","","","","","image-keyboard-response","14","71999","0.0-8.0-0.3","63bc6b49a80cc5496df4c897","640759fa512f630a2bdc333d","6408c1830f12c18c00e9e8f1","2313","img/training4.png"," ","","","","","","","","","","","","","","","","","","","","",""
"","","","","","[""many-guess-6""]","15","84521","0.0-8.0-1.3-0.3","63bc6b49a80cc5496df4c897","640759fa512f630a2bdc333d","6408c1830f12c18c00e9e8f1","[8748]","","","[29,1,18,9,30,28,21,31,25,35]","[225,46,78,197,90,117,133,260,10,168]","225","193","91.72261226285262","[91.72261226285262]","[258.72261226285264]","[257]","[30,300,30,120,120,30,300,210,210,30,210,120,300,300,30,300,300,300,300,300,30,210,300,120,210,210,300,300,30,30,30,300,300,120,30,30]","0","10","0","131.89999999999418","133.61999999999534","132","[[[""img/mask9.png""],[""img/mask15.png""],[""img/mask95.png""],[""img/mask87.png""],[""img/mask17.png""],[""img/mask63.png""],[""img/mask29.png""],[""img/mask10.png""],[""img/mask25.png""],[""img/mask62.png""]]]","","[29,1,18,9,30,28,21,31,25,35]","training","",""
"","","","","","image-keyboard-response","16","90999","0.0-8.0-0.4","63bc6b49a80cc5496df4c897","640759fa512f630a2bdc333d","6408c1830f12c18c00e9e8f1","6476","img/training5.png"," ","","","","","","","","","","","","","","","","","","","","",""
"","","","","","[""many-guess-6""]","17","96537","0.0-8.0-1.4-0.4","63bc6b49a80cc5496df4c897","640759fa512f630a2bdc333d","6408c1830f12c18c00e9e8f1","[2563]","","","[25,1,14,32,4,20,2,26,17,7,23,30,28,13,27,21,34,19,33,35,10,24,8,18,9,0,16,3,15,5,12,29,31,11,6,22]","[95,144,184,174,134,154,164,344,194,314,354,124,114,334,274,294,234,55,224,45,204,264,254,244,35,214,324,304,75,25,65,284,85,5,104,15]","95","273","270.119362606153","[270.119362606153]","[357.119362606153]","[357]","[300,120,30,120,210,30,300,30,120,210,210,30,30,30,210,30,30,120,210,30,120,30,30,120,30,300,210,300,210,30,300,30,210,210,30,120]","0","36","0","133","22.69999999999709","16","[[[""img/mask54.png""],[""img/mask4.png""],[""img/mask71.png""],[""img/mask36.png""],[""img/mask68.png""],[""img/mask100.png""],[""img/mask71.png""],[""img/mask28.png""],[""img/mask93.png""],[""img/mask75.png""],[""img/mask35.png""],[""img/mask73.png""],[""img/mask71.png""],[""img/mask32.png""],[""img/mask23.png""],[""img/mask66.png""],[""img/mask50.png""],[""img/mask3.png""],[""img/mask35.png""],[""img/mask55.png""],[""img/mask49.png""],[""img/mask61.png""],[""img/mask85.png""],[""img/mask32.png""],[""img/mask58.png""],[""img/mask91.png""],[""img/mask26.png""],[""img/mask28.png""],[""img/mask45.png""],[""img/mask41.png""],[""img/mask27.png""],[""img/mask25.png""],[""img/mask87.png""],[""img/mask19.png""],[""img/mask56.png""],[""img/mask98.png""]]]","","[25,1,14,32,4,20,2,26,17,7,23,30,28,13,27,21,34,19,33,35,10,24,8,18,9,0,16,3,15,5,12,29,31,11,6,22]","training","",""
"","","","","","image-keyboard-response","18","99223","0.0-9.0","63bc6b49a80cc5496df4c897","640759fa512f630a2bdc333d","6408c1830f12c18c00e9e8f1","2672","[""img/endTraining.png""]"," ","","","","","","","","","","","","","","","","","","","","",""
"","","","","","html-keyboard-response","19","99726","0.0-10.0-0.0","63bc6b49a80cc5496df4c897","640759fa512f630a2bdc333d","6408c1830f12c18c00e9e8f1","null","","null","","","","","","","","","","","","","","","","","","","fixation","",""
"","","","","","color-precision2","20","103959","0.0-10.0-1.0-0.0","63bc6b49a80cc5496df4c897","640759fa512f630a2bdc333d","6408c1830f12c18c00e9e8f1","[799]","","","[11]","[20]","20","142","135.78588352812127","[135.78588352812127]","[353.7858835281213]","[352]","0","0","1","0","148.52000000000407","999.5399999999936","1000","[[[""img/mask42.png""]]]","","","main","142","color-precision2"
"","","","","","html-keyboard-response","21","104460","0.0-10.0-0.1","63bc6b49a80cc5496df4c897","640759fa512f630a2bdc333d","6408c1830f12c18c00e9e8f1","null","","null","","","","","","","","","","","","","","","","","","","fixation","",""
"","","","","","color-precision2","22","107832","0.0-10.0-1.1-0.1","63bc6b49a80cc5496df4c897","640759fa512f630a2bdc333d","6408c1830f12c18c00e9e8f1","[365]","","","[35]","[127]","127","201","308.5546209419976","[308.5546209419976]","[107.5546209419976]","[107]","0","0","1","0","148.91999999999825","1003.9199999999983","1000","[[[""img/mask72.png""]]]","","","main","201","color-precision2"
"","","","","","html-keyboard-response","23","108334","0.0-10.0-0.2","63bc6b49a80cc5496df4c897","640759fa512f630a2bdc333d","6408c1830f12c18c00e9e8f1","null","","null","","","","","","","","","","","","","","","","","","","fixation","",""
"","","","","","color-precision2","24","112097","0.0-10.0-1.2-0.2","63bc6b49a80cc5496df4c897","640759fa512f630a2bdc333d","6408c1830f12c18c00e9e8f1","[872]","","","[20]","[178]","178","276","89.46068254905884","[89.46068254905884]","[173.46068254905884]","[172]","0","0","1","0","150.22000000000116","999.2400000000052","1000","[[[""img/mask91.png""]]]","","","main","276","color-precision2"
"","","","","","html-keyboard-response","25","112597","0.0-10.0-0.3","63bc6b49a80cc5496df4c897","640759fa512f630a2bdc333d","6408c1830f12c18c00e9e8f1","null","","null","","","","","","","","","","","","","","","","","","","fixation","",""
"","","","","","many-guess-6","26","116763","0.0-10.0-1.3-0.3","63bc6b49a80cc5496df4c897","640759fa512f630a2bdc333d","6408c1830f12c18c00e9e8f1","[2431]","","","[2,5,0,16,1,12,11,30,3,28,10,25,31,34,18,26,19,15,17,14,20,8,7,27,22,21,29,9,33,23,13,24,6,35,32,4]","[83,93,352,343,233,173,253,73,123,183,223,33,273,313,283,63,153,113,53,103,133,193,3,333,213,293,263,163,243,203,303,13,323,43,143,23]","83","69","43.05278415817033","[43.05278415817033]","[334.0527841581703]","[333]","[300,120,210,120,30,120,210,210,120]","0","36","0","149.25999999999476","31.279999999998836","16","[[[""img/mask97.png""],[""img/mask31.png""],[""img/mask13.png""],[""img/mask36.png""],[""img/mask96.png""],[""img/mask11.png""],[""img/mask71.png""],[""img/mask100.png""],[""img/mask47.png""],[""img/mask49.png""],[""img/mask10.png""],[""img/mask18.png""],[""img/mask98.png""],[""img/mask97.png""],[""img/mask80.png""],[""img/mask80.png""],[""img/mask100.png""],[""img/mask83.png""],[""img/mask39.png""],[""img/mask60.png""],[""img/mask4.png""],[""img/mask14.png""],[""img/mask35.png""],[""img/mask67.png""],[""img/mask45.png""],[""img/mask96.png""],[""img/mask95.png""],[""img/mask69.png""],[""img/mask54.png""],[""img/mask74.png""],[""img/mask93.png""],[""img/mask36.png""],[""img/mask92.png""],[""img/mask77.png""],[""img/mask38.png""],[""img/mask7.png""]]]","","[2,5,0,16,1,12,11,30,3,28,10,25,31,34,18,26,19,15,17,14,20,8,7,27,22,21,29,9,33,23,13,24,6,35,32,4]","main","69","many-guess-6"
"","","","","","html-keyboard-response","27","117265","0.0-10.0-0.4","63bc6b49a80cc5496df4c897","640759fa512f630a2bdc333d","6408c1830f12c18c00e9e8f1","null","","null","","","","","","","","","","","","","","","","","","","fixation","",""
"","","","","","many-guess-6","28","121776","0.0-10.0-1.4-0.4","63bc6b49a80cc5496df4c897","640759fa512f630a2bdc333d","6408c1830f12c18c00e9e8f1","[2454]","","","[4,6,35,21,16,3,1,7,28,8,10,12,13,17,5,25,31,22,20,0,23,9,30,27,33,26,19,18,24,29,32,14,2,15,34,11]","[199,50,139,289,229,319,349,80,10,179,209,219,159,60,100,269,339,279,359,249,120,40,189,110,239,70,259,130,30,90,169,299,20,149,309,329]","199","155","163.41294505744602","[163.41294505744602]","[8.412945057446024]","[7]","[300,210,210,120,120,210,120,120,30]","0","36","0","148.32000000000698","22.320000000006985","16","[[[""img/mask74.png""],[""img/mask74.png""],[""img/mask77.png""],[""img/mask43.png""],[""img/mask88.png""],[""img/mask28.png""],[""img/mask85.png""],[""img/mask13.png""],[""img/mask20.png""],[""img/mask50.png""],[""img/mask35.png""],[""img/mask46.png""],[""img/mask3.png""],[""img/mask66.png""],[""img/mask52.png""],[""img/mask55.png""],[""img/mask76.png""],[""img/mask8.png""],[""img/mask92.png""],[""img/mask34.png""],[""img/mask38.png""],[""img/mask30.png""],[""img/mask31.png""],[""img/mask73.png""],[""img/mask1.png""],[""img/mask28.png""],[""img/mask19.png""],[""img/mask31.png""],[""img/mask96.png""],[""img/mask10.png""],[""img/mask1.png""],[""img/mask91.png""],[""img/mask53.png""],[""img/mask29.png""],[""img/mask17.png""],[""img/mask73.png""]]]","","[4,6,35,21,16,3,1,7,28,8,10,12,13,17,5,25,31,22,20,0,23,9,30,27,33,26,19,18,24,29,32,14,2,15,34,11]","main","155","many-guess-6"
"","","","","","html-keyboard-response","29","122279","0.0-10.0-0.5","63bc6b49a80cc5496df4c897","640759fa512f630a2bdc333d","6408c1830f12c18c00e9e8f1","null","","null","","","","","","","","","","","","","","","","","","","fixation","",""
"","","","","","many-guess-6","30","126315","0.0-10.0-1.5-0.5","63bc6b49a80cc5496df4c897","640759fa512f630a2bdc333d","6408c1830f12c18c00e9e8f1","[2231]","","","[10,34,32,25,22,27,6,31,13,8,0,18,9,2,1,33,3,23,29,14,19,7,16,28,15,12,5,11,20,30,4,17,35,26,21,24]","[114,313,323,214,184,333,94,303,343,353,243,74,293,253,124,64,134,263,4,194,54,174,224,24,164,283,34,104,154,233,84,144,204,273,14,44]","114","163","309.91522532358533","[309.91522532358533]","[146.91522532358533]","[147]","[300,210,300,300,300,30,300,210,30]","0","36","0","146.58000000000175","23.580000000001746","16","[[[""img/mask99.png""],[""img/mask41.png""],[""img/mask33.png""],[""img/mask1.png""],[""img/mask31.png""],[""img/mask51.png""],[""img/mask28.png""],[""img/mask22.png""],[""img/mask74.png""],[""img/mask13.png""],[""img/mask74.png""],[""img/mask95.png""],[""img/mask82.png""],[""img/mask43.png""],[""img/mask52.png""],[""img/mask3.png""],[""img/mask24.png""],[""img/mask94.png""],[""img/mask28.png""],[""img/mask100.png""],[""img/mask40.png""],[""img/mask13.png""],[""img/mask38.png""],[""img/mask86.png""],[""img/mask30.png""],[""img/mask97.png""],[""img/mask44.png""],[""img/mask20.png""],[""img/mask23.png""],[""img/mask12.png""],[""img/mask19.png""],[""img/mask83.png""],[""img/mask47.png""],[""img/mask75.png""],[""img/mask63.png""],[""img/mask18.png""]]]","","[10,34,32,25,22,27,6,31,13,8,0,18,9,2,1,33,3,23,29,14,19,7,16,28,15,12,5,11,20,30,4,17,35,26,21,24]","main","163","many-guess-6"
"","","","","","html-keyboard-response","31","126817","0.0-10.0-0.6","63bc6b49a80cc5496df4c897","640759fa512f630a2bdc333d","6408c1830f12c18c00e9e8f1","null","","null","","","","","","","","","","","","","","","","","","","fixation","",""
"","","","","","many-guess-6","32","130683","0.0-10.0-1.6-0.6","63bc6b49a80cc5496df4c897","640759fa512f630a2bdc333d","6408c1830f12c18c00e9e8f1","[1757]","","","[11,32,33,4,31,22,1,13,20,24,3,34,17,15,9,28,2,5,8,25,23,35,10,30,12,16,19,27,6,21,7,18,29,14,26,0]","[154,134,24,94,164,234,184,264,274,104,224,34,284,204,194,294,5,314,244,54,124,354,44,344,74,64,214,84,14,334,304,144,254,324,114,174]","154","336","342.546423155299","[342.546423155299]","[6.54642315529901]","[6]","[30,30,210,210,120,120,120,300,30]","0","36","0","149.3399999999965","33.33999999999651","16","[[[""img/mask70.png""],[""img/mask15.png""],[""img/mask40.png""],[""img/mask20.png""],[""img/mask44.png""],[""img/mask52.png""],[""img/mask51.png""],[""img/mask17.png""],[""img/mask20.png""],[""img/mask38.png""],[""img/mask56.png""],[""img/mask80.png""],[""img/mask86.png""],[""img/mask76.png""],[""img/mask28.png""],[""img/mask15.png""],[""img/mask64.png""],[""img/mask37.png""],[""img/mask18.png""],[""img/mask17.png""],[""img/mask97.png""],[""img/mask41.png""],[""img/mask4.png""],[""img/mask78.png""],[""img/mask44.png""],[""img/mask29.png""],[""img/mask35.png""],[""img/mask1.png""],[""img/mask97.png""],[""img/mask61.png""],[""img/mask62.png""],[""img/mask100.png""],[""img/mask28.png""],[""img/mask79.png""],[""img/mask53.png""],[""img/mask71.png""]]]","","[11,32,33,4,31,22,1,13,20,24,3,34,17,15,9,28,2,5,8,25,23,35,10,30,12,16,19,27,6,21,7,18,29,14,26,0]","main","336","many-guess-6"
"","","","","","html-keyboard-response","33","131184","0.0-10.0-0.7","63bc6b49a80cc5496df4c897","640759fa512f630a2bdc333d","6408c1830f12c18c00e9e8f1","null","","null","","","","","","","","","","","","","","","","","","","fixation","",""
"","","","","","color-precision2","34","135229","0.0-10.0-1.7-0.7","63bc6b49a80cc5496df4c897","640759fa512f630a2bdc333d","6408c1830f12c18c00e9e8f1","[1226]","","","[23]","[323]","323","51","23.337362906850604","[23.337362906850604]","[332.3373629068506]","[331]","0","0","1","0","149.88000000000466","1004.8800000000047","1000","[[[""img/mask24.png""]]]","","","main","51","color-precision2"
"","","","","","html-keyboard-response","35","135731","0.0-10.0-0.8","63bc6b49a80cc5496df4c897","640759fa512f630a2bdc333d","6408c1830f12c18c00e9e8f1","null","","null","","","","","","","","","","","","","","","","","","","fixation","",""
"","","","","","many-guess-6","36","139660","0.0-10.0-1.8-0.8","63bc6b49a80cc5496df4c897","640759fa512f630a2bdc333d","6408c1830f12c18c00e9e8f1","[2066]","","","[14,24,31,12,23,7,6,19,21,32,0,3,27,4,13,16,35,18,28,5,26,29,2,30,15,9,10,34,25,20,11,22,33,8,1,17]","[162,132,222,342,262,33,232,102,82,332,212,252,142,312,282,352,122,182,292,152,272,53,322,112,23,192,13,63,202,3,302,92,172,43,242,72]","162","135","132.8651677277826","[132.8651677277826]","[357.8651677277826]","[356]","[30,120,300,210,30,300,30,120,210]","0","36","0","149.20000000001164","29.20000000001164","16","[[[""img/mask71.png""],[""img/mask68.png""],[""img/mask55.png""],[""img/mask73.png""],[""img/mask87.png""],[""img/mask6.png""],[""img/mask19.png""],[""img/mask1.png""],[""img/mask37.png""],[""img/mask38.png""],[""img/mask18.png""],[""img/mask38.png""],[""img/mask21.png""],[""img/mask60.png""],[""img/mask80.png""],[""img/mask60.png""],[""img/mask18.png""],[""img/mask42.png""],[""img/mask31.png""],[""img/mask96.png""],[""img/mask64.png""],[""img/mask67.png""],[""img/mask35.png""],[""img/mask44.png""],[""img/mask76.png""],[""img/mask89.png""],[""img/mask68.png""],[""img/mask54.png""],[""img/mask44.png""],[""img/mask77.png""],[""img/mask79.png""],[""img/mask73.png""],[""img/mask14.png""],[""img/mask13.png""],[""img/mask82.png""],[""img/mask28.png""]]]","","[14,24,31,12,23,7,6,19,21,32,0,3,27,4,13,16,35,18,28,5,26,29,2,30,15,9,10,34,25,20,11,22,33,8,1,17]","main","135","many-guess-6"
"","","","","","html-keyboard-response","37","140160","0.0-10.0-0.9","63bc6b49a80cc5496df4c897","640759fa512f630a2bdc333d","6408c1830f12c18c00e9e8f1","null","","null","","","","","","","","","","","","","","","","","","","fixation","",""
"","","","","","many-guess-6","38","144491","0.0-10.0-1.9-0.9","63bc6b49a80cc5496df4c897","640759fa512f630a2bdc333d","6408c1830f12c18c00e9e8f1","[2623]","","","[2,8,16,0,12,6,9,17,20,26,18,15,14,34,32,23,1,7,25,28,33,30,21,29,5,19,27,22,10,24,13,4,3,11,35,31]","[54,204,313,283,14,214,64,303,144,194,333,224,124,44,253,24,234,273,114,154,84,4,263,74,293,353,244,94,134,184,174,34,104,323,343,164]","54","68","47.121841391407614","[47.121841391407614]","[339.1218413914076]","[337]","[210,30,300,120,120,210,30,210,300]","0","36","0","147.17999999999302","22.179999999993015","16","[[[""img/mask52.png""],[""img/mask72.png""],[""img/mask85.png""],[""img/mask30.png""],[""img/mask98.png""],[""img/mask23.png""],[""img/mask33.png""],[""img/mask90.png""],[""img/mask85.png""],[""img/mask59.png""],[""img/mask18.png""],[""img/mask92.png""],[""img/mask75.png""],[""img/mask36.png""],[""img/mask39.png""],[""img/mask83.png""],[""img/mask25.png""],[""img/mask30.png""],[""img/mask31.png""],[""img/mask48.png""],[""img/mask77.png""],[""img/mask46.png""],[""img/mask36.png""],[""img/mask62.png""],[""img/mask70.png""],[""img/mask96.png""],[""img/mask37.png""],[""img/mask91.png""],[""img/mask89.png""],[""img/mask45.png""],[""img/mask84.png""],[""img/mask48.png""],[""img/mask38.png""],[""img/mask33.png""],[""img/mask97.png""],[""img/mask59.png""]]]","","[2,8,16,0,12,6,9,17,20,26,18,15,14,34,32,23,1,7,25,28,33,30,21,29,5,19,27,22,10,24,13,4,3,11,35,31]","main","68","many-guess-6"
"","","","","","html-keyboard-response","39","144993","0.0-10.0-0.10","63bc6b49a80cc5496df4c897","640759fa512f630a2bdc333d","6408c1830f12c18c00e9e8f1","null","","null","","","","","","","","","","","","","","","","","","","fixation","",""
"","","","","","color-precision2","40","148469","0.0-10.0-1.10-0.10","63bc6b49a80cc5496df4c897","640759fa512f630a2bdc333d","6408c1830f12c18c00e9e8f1","[539]","","","[27]","[9]","9","81","77.81970938194249","[77.81970938194249]","[356.8197093819425]","[356]","0","0","1","0","149.98000000001048","1001.9800000000105","1000","[[[""img/mask92.png""]]]","","","main","81","color-precision2"
"","","","","","html-keyboard-response","41","148970","0.0-10.0-0.11","63bc6b49a80cc5496df4c897","640759fa512f630a2bdc333d","6408c1830f12c18c00e9e8f1","null","","null","","","","","","","","","","","","","","","","","","","fixation","",""
"","","","","","many-guess-6","42","152613","0.0-10.0-1.11-0.11","63bc6b49a80cc5496df4c897","640759fa512f630a2bdc333d","6408c1830f12c18c00e9e8f1","[1862]","","","[4,19,18,1,8,32,14,23,22,24,34,31,5,11,16,17,21,30,28,29,13,25,10,12,2,3,27,26,7,35,9,20,15,6,33,0]","[228,258,248,69,99,179,238,169,109,149,9,338,119,308,218,129,328,59,29,318,39,278,89,348,198,298,19,208,358,288,159,139,189,79,268,49]","228","323","337.9312238466863","[337.9312238466863]","[14.931223846686294]","[15]","[300,210,30,210,300,120,210,120,210]","0","36","0","149.14000000001397","11.14000000001397","16","[[[""img/mask26.png""],[""img/mask96.png""],[""img/mask91.png""],[""img/mask42.png""],[""img/mask26.png""],[""img/mask9.png""],[""img/mask13.png""],[""img/mask2.png""],[""img/mask31.png""],[""img/mask84.png""],[""img/mask83.png""],[""img/mask46.png""],[""img/mask74.png""],[""img/mask11.png""],[""img/mask82.png""],[""img/mask14.png""],[""img/mask46.png""],[""img/mask89.png""],[""img/mask6.png""],[""img/mask69.png""],[""img/mask45.png""],[""img/mask75.png""],[""img/mask12.png""],[""img/mask34.png""],[""img/mask1.png""],[""img/mask41.png""],[""img/mask81.png""],[""img/mask44.png""],[""img/mask60.png""],[""img/mask75.png""],[""img/mask20.png""],[""img/mask44.png""],[""img/mask46.png""],[""img/mask17.png""],[""img/mask19.png""],[""img/mask21.png""]]]","","[4,19,18,1,8,32,14,23,22,24,34,31,5,11,16,17,21,30,28,29,13,25,10,12,2,3,27,26,7,35,9,20,15,6,33,0]","main","323","many-guess-6"
"","","","","","html-keyboard-response","43","153114","0.0-10.0-0.12","63bc6b49a80cc5496df4c897","640759fa512f630a2bdc333d","6408c1830f12c18c00e9e8f1","null","","null","","","","","","","","","","","","","","","","","","","fixation","",""
"","","","","","many-guess-6","44","157649","0.0-10.0-1.12-0.12","63bc6b49a80cc5496df4c897","640759fa512f630a2bdc333d","6408c1830f12c18c00e9e8f1","[2239]","","","[20,26,15,9,4,18,30,35,10,6,1,2,19,24,29,32,8,22,14,11,17,0,5,31,7,25,28,16,27,21,12,33,13,34,23,3]","[171,121,111,91,261,101,201,31,231,211,11,191,311,330,350,81,151,1,301,340,241,271,131,321,71,21,141,251,291,281,181,61,221,161,41,51]","171","124","137.4085678928342","[137.4085678928342]","[13.408567892834213]","[13]","[210,30,30,300,120,30,210,210,300]","0","36","0","146.20000000001164","24.20000000001164","16","[[[""img/mask43.png""],[""img/mask24.png""],[""img/mask2.png""],[""img/mask54.png""],[""img/mask66.png""],[""img/mask36.png""],[""img/mask4.png""],[""img/mask7.png""],[""img/mask42.png""],[""img/mask65.png""],[""img/mask67.png""],[""img/mask17.png""],[""img/mask8.png""],[""img/mask44.png""],[""img/mask3.png""],[""img/mask82.png""],[""img/mask18.png""],[""img/mask69.png""],[""img/mask72.png""],[""img/mask68.png""],[""img/mask55.png""],[""img/mask19.png""],[""img/mask39.png""],[""img/mask20.png""],[""img/mask59.png""],[""img/mask1.png""],[""img/mask38.png""],[""img/mask98.png""],[""img/mask74.png""],[""img/mask34.png""],[""img/mask34.png""],[""img/mask4.png""],[""img/mask35.png""],[""img/mask94.png""],[""img/mask61.png""],[""img/mask98.png""]]]","","[20,26,15,9,4,18,30,35,10,6,1,2,19,24,29,32,8,22,14,11,17,0,5,31,7,25,28,16,27,21,12,33,13,34,23,3]","main","124","many-guess-6"
"","","","","","html-keyboard-response","45","158149","0.0-10.0-0.13","63bc6b49a80cc5496df4c897","640759fa512f630a2bdc333d","6408c1830f12c18c00e9e8f1","null","","null","","","","","","","","","","","","","","","","","","","fixation","",""
"","","","","","many-guess-6","46","162622","0.0-10.0-1.13-0.13","63bc6b49a80cc5496df4c897","640759fa512f630a2bdc333d","6408c1830f12c18c00e9e8f1","[2836]","","","[17,0,23,4,33,8,16,11,2,6,32,24,10,5,27,9,28,12,29,30,26,1,18,14,19,31,34,20,21,7,15,35,25,3,13,22]","[290,60,170,319,230,110,359,349,80,120,210,240,150,220,250,329,339,200,20,10,90,50,309,100,180,140,270,260,190,300,70,280,130,30,160,40]","290","344","53.43308068812739","[53.43308068812739]","[69.4330806881274]","[68]","[30,120,300,120,30,120,210,300,210]","0","36","0","146.38000000000466","13.380000000004657","16","[[[""img/mask67.png""],[""img/mask21.png""],[""img/mask8.png""],[""img/mask82.png""],[""img/mask33.png""],[""img/mask62.png""],[""img/mask17.png""],[""img/mask63.png""],[""img/mask84.png""],[""img/mask52.png""],[""img/mask75.png""],[""img/mask26.png""],[""img/mask92.png""],[""img/mask71.png""],[""img/mask21.png""],[""img/mask69.png""],[""img/mask83.png""],[""img/mask59.png""],[""img/mask28.png""],[""img/mask22.png""],[""img/mask62.png""],[""img/mask37.png""],[""img/mask32.png""],[""img/mask86.png""],[""img/mask9.png""],[""img/mask57.png""],[""img/mask10.png""],[""img/mask7.png""],[""img/mask20.png""],[""img/mask31.png""],[""img/mask36.png""],[""img/mask25.png""],[""img/mask44.png""],[""img/mask58.png""],[""img/mask47.png""],[""img/mask16.png""]]]","","[17,0,23,4,33,8,16,11,2,6,32,24,10,5,27,9,28,12,29,30,26,1,18,14,19,31,34,20,21,7,15,35,25,3,13,22]","main","344","many-guess-6"
"","","","","","html-keyboard-response","47","163124","0.0-10.0-0.14","63bc6b49a80cc5496df4c897","640759fa512f630a2bdc333d","6408c1830f12c18c00e9e8f1","null","","null","","","","","","","","","","","","","","","","","","","fixation","",""
"","","","","","color-precision2","48","167395","0.0-10.0-1.14-0.14","63bc6b49a80cc5496df4c897","640759fa512f630a2bdc333d","6408c1830f12c18c00e9e8f1","[1430]","","","[8]","[173]","173","54","204.1104813632129","[204.1104813632129]","[150.1104813632129]","[150]","0","0","1","0","149.05999999999767","998.0799999999872","1000","[[[""img/mask42.png""]]]","","","main","54","color-precision2"
"","","","","","html-keyboard-response","49","167895","0.0-10.0-0.15","63bc6b49a80cc5496df4c897","640759fa512f630a2bdc333d","6408c1830f12c18c00e9e8f1","null","","null","","","","","","","","","","","","","","","","","","","fixation","",""
"","","","","","many-guess-6","50","173460","0.0-10.0-1.15-0.15","63bc6b49a80cc5496df4c897","640759fa512f630a2bdc333d","6408c1830f12c18c00e9e8f1","[2553]","","","[9,19,25,16,32,26,28,0,30,5,12,14,17,29,27,15,8,10,23,35,7,33,21,6,13,11,31,3,4,24,34,22,18,20,2,1]","[16,106,145,125,195,275,116,46,135,175,205,36,66,86,215,345,235,76,305,325,225,355,255,285,185,245,56,335,6,295,155,265,165,26,96,315]","16","324","315.8759208220381","[315.8759208220381]","[351.8759208220381]","[352]","[30,210,30,120,210,120,300,120,30]","0","36","0","150.01999999998952","20.019999999989523","16","[[[""img/mask8.png""],[""img/mask86.png""],[""img/mask2.png""],[""img/mask54.png""],[""img/mask57.png""],[""img/mask90.png""],[""img/mask82.png""],[""img/mask35.png""],[""img/mask50.png""],[""img/mask12.png""],[""img/mask99.png""],[""img/mask95.png""],[""img/mask7.png""],[""img/mask91.png""],[""img/mask12.png""],[""img/mask20.png""],[""img/mask55.png""],[""img/mask16.png""],[""img/mask50.png""],[""img/mask15.png""],[""img/mask14.png""],[""img/mask72.png""],[""img/mask78.png""],[""img/mask61.png""],[""img/mask96.png""],[""img/mask59.png""],[""img/mask96.png""],[""img/mask80.png""],[""img/mask19.png""],[""img/mask44.png""],[""img/mask78.png""],[""img/mask100.png""],[""img/mask37.png""],[""img/mask71.png""],[""img/mask38.png""],[""img/mask37.png""]]]","","[9,19,25,16,32,26,28,0,30,5,12,14,17,29,27,15,8,10,23,35,7,33,21,6,13,11,31,3,4,24,34,22,18,20,2,1]","main","324","many-guess-6"
"","","","","","html-keyboard-response","51","173962","0.0-10.0-0.16","63bc6b49a80cc5496df4c897","640759fa512f630a2bdc333d","6408c1830f12c18c00e9e8f1","null","","null","","","","","","","","","","","","","","","","","","","fixation","",""
"","","","","","many-guess-6","52","177621","0.0-10.0-1.16-0.16","63bc6b49a80cc5496df4c897","640759fa512f630a2bdc333d","6408c1830f12c18c00e9e8f1","[1637]","","","[19,28,32,7,5,15,11,6,3,25,0,21,9,22,35,24,26,13,16,8,29,2,23,4,1,20,10,30,17,18,31,14,33,27,12,34]","[108,68,357,297,88,307,167,227,247,78,147,157,277,257,18,98,187,28,38,137,347,177,217,48,197,337,287,127,117,58,237,8,207,267,327,317]","108","124","313.51613504986364","[313.51613504986364]","[189.51613504986364]","[190]","[30,120,300,120,210,30,120,210,30]","0","36","0","146.55999999999767","12.579999999987194","16","[[[""img/mask61.png""],[""img/mask21.png""],[""img/mask29.png""],[""img/mask91.png""],[""img/mask16.png""],[""img/mask40.png""],[""img/mask2.png""],[""img/mask33.png""],[""img/mask26.png""],[""img/mask37.png""],[""img/mask4.png""],[""img/mask42.png""],[""img/mask94.png""],[""img/mask91.png""],[""img/mask36.png""],[""img/mask64.png""],[""img/mask61.png""],[""img/mask91.png""],[""img/mask15.png""],[""img/mask91.png""],[""img/mask54.png""],[""img/mask98.png""],[""img/mask69.png""],[""img/mask85.png""],[""img/mask70.png""],[""img/mask90.png""],[""img/mask43.png""],[""img/mask70.png""],[""img/mask79.png""],[""img/mask28.png""],[""img/mask97.png""],[""img/mask80.png""],[""img/mask2.png""],[""img/mask55.png""],[""img/mask83.png""],[""img/mask37.png""]]]","","[19,28,32,7,5,15,11,6,3,25,0,21,9,22,35,24,26,13,16,8,29,2,23,4,1,20,10,30,17,18,31,14,33,27,12,34]","main","124","many-guess-6"
"","","","","","html-keyboard-response","53","178122","0.0-10.0-0.17","63bc6b49a80cc5496df4c897","640759fa512f630a2bdc333d","6408c1830f12c18c00e9e8f1","null","","null","","","","","","","","","","","","","","","","","","","fixation","",""
"","","","","","many-guess-6","54","182424","0.0-10.0-1.17-0.17","63bc6b49a80cc5496df4c897","640759fa512f630a2bdc333d","6408c1830f12c18c00e9e8f1","[2316]","","","[5,33,29,22,32,12,13,34,1,2,35,3,10,21,28,9,4,27,24,18,15,23,26,8,14,7,6,16,20,25,30,0,11,19,17,31]","[196,356,37,47,137,7,316,256,306,166,57,87,146,127,107,206,27,17,156,226,296,236,216,67,77,286,276,176,336,346,266,246,117,97,186,326]","196","288","210.66662845939018","[210.66662845939018]","[282.66662845939015]","[282]","[210,300,300,210,30,300,30,120,30]","0","36","0","146.2600000000093","17.260000000009313","16","[[[""img/mask85.png""],[""img/mask15.png""],[""img/mask44.png""],[""img/mask87.png""],[""img/mask71.png""],[""img/mask13.png""],[""img/mask5.png""],[""img/mask53.png""],[""img/mask92.png""],[""img/mask62.png""],[""img/mask28.png""],[""img/mask15.png""],[""img/mask62.png""],[""img/mask37.png""],[""img/mask5.png""],[""img/mask72.png""],[""img/mask42.png""],[""img/mask20.png""],[""img/mask33.png""],[""img/mask15.png""],[""img/mask44.png""],[""img/mask92.png""],[""img/mask5.png""],[""img/mask57.png""],[""img/mask31.png""],[""img/mask25.png""],[""img/mask75.png""],[""img/mask32.png""],[""img/mask5.png""],[""img/mask47.png""],[""img/mask4.png""],[""img/mask71.png""],[""img/mask94.png""],[""img/mask84.png""],[""img/mask29.png""],[""img/mask1.png""]]]","","[5,33,29,22,32,12,13,34,1,2,35,3,10,21,28,9,4,27,24,18,15,23,26,8,14,7,6,16,20,25,30,0,11,19,17,31]","main","288","many-guess-6"
"","","","","","html-keyboard-response","55","182925","0.0-10.0-0.18","63bc6b49a80cc5496df4c897","640759fa512f630a2bdc333d","6408c1830f12c18c00e9e8f1","null","","null","","","","","","","","","","","","","","","","","","","fixation","",""
"","","","","","color-precision2","56","186425","0.0-10.0-1.18-0.18","63bc6b49a80cc5496df4c897","640759fa512f630a2bdc333d","6408c1830f12c18c00e9e8f1","[639]","","","[10]","[118]","118","321","101.74859658629101","[101.74859658629101]","[140.748596586291]","[139]","0","0","1","0","148.95999999999185","1001.9800000000105","1000","[[[""img/mask46.png""]]]","","","main","321","color-precision2"
"","","","","","html-keyboard-response","57","197050","0.0-10.0-0.19","63bc6b49a80cc5496df4c897","640759fa512f630a2bdc333d","6408c1830f12c18c00e9e8f1","10624","Wow! You've completed 20 out of 180 trials! </p> <p>  </p><p> Take a quick break, then press any key when you're ready to continue."," ","","","","","","","","","","","","","","","","","","","fixation","",""
"","","","","","color-precision2","58","201213","0.0-10.0-1.19-0.19","63bc6b49a80cc5496df4c897","640759fa512f630a2bdc333d","6408c1830f12c18c00e9e8f1","[663]","","","[27]","[165]","165","245","30.807535385883497","[30.807535385883497]","[145.8075353858835]","[145]","0","0","1","0","149.01999999998952","1004.0400000000081","1000","[[[""img/mask77.png""]]]","","","main","245","color-precision2"
"","","","","","html-keyboard-response","59","201715","0.0-10.0-0.20","63bc6b49a80cc5496df4c897","640759fa512f630a2bdc333d","6408c1830f12c18c00e9e8f1","null","","null","","","","","","","","","","","","","","","","","","","fixation","",""
"","","","","","color-precision2","60","204409","0.0-10.0-1.20-0.20","63bc6b49a80cc5496df4c897","640759fa512f630a2bdc333d","6408c1830f12c18c00e9e8f1","[120]","","","[21]","[15]","15","25","32.58232774464897","[32.58232774464897]","[7.582327744648971]","[6]","0","0","1","0","149.64000000001397","1002.640000000014","1000","[[[""img/mask18.png""]]]","","","main","25","color-precision2"
"","","","","","html-keyboard-response","61","204911","0.0-10.0-0.21","63bc6b49a80cc5496df4c897","640759fa512f630a2bdc333d","6408c1830f12c18c00e9e8f1","null","","null","","","","","","","","","","","","","","","","","","","fixation","",""
"","","","","","many-guess-6","62","208302","0.0-10.0-1.21-0.21","63bc6b49a80cc5496df4c897","640759fa512f630a2bdc333d","6408c1830f12c18c00e9e8f1","[1756]","","","[23,3,29,15,9,25,10,5,21,6,31,14,24,20,28,30,0,33,4,35,18,1,27,32,16,7,17,26,11,22,12,19,8,2,13,34]","[109,268,39,159,189,79,119,139,248,149,288,258,179,358,318,29,238,338,278,49,308,228,328,348,69,89,298,9,208,218,129,198,99,19,169,59]","109","267","280.33491317352866","[280.33491317352866]","[13.334913173528662]","[14]","[300,30,30,120,300,30,300,30,30]","0","36","0","149.01999999998952","31.04000000000815","16","[[[""img/mask59.png""],[""img/mask58.png""],[""img/mask56.png""],[""img/mask89.png""],[""img/mask98.png""],[""img/mask30.png""],[""img/mask30.png""],[""img/mask72.png""],[""img/mask48.png""],[""img/mask54.png""],[""img/mask15.png""],[""img/mask20.png""],[""img/mask42.png""],[""img/mask35.png""],[""img/mask91.png""],[""img/mask43.png""],[""img/mask79.png""],[""img/mask38.png""],[""img/mask79.png""],[""img/mask94.png""],[""img/mask14.png""],[""img/mask40.png""],[""img/mask69.png""],[""img/mask15.png""],[""img/mask12.png""],[""img/mask16.png""],[""img/mask7.png""],[""img/mask92.png""],[""img/mask23.png""],[""img/mask33.png""],[""img/mask96.png""],[""img/mask29.png""],[""img/mask47.png""],[""img/mask2.png""],[""img/mask37.png""],[""img/mask3.png""]]]","","[23,3,29,15,9,25,10,5,21,6,31,14,24,20,28,30,0,33,4,35,18,1,27,32,16,7,17,26,11,22,12,19,8,2,13,34]","main","267","many-guess-6"
"","","","","","html-keyboard-response","63","208802","0.0-10.0-0.22","63bc6b49a80cc5496df4c897","640759fa512f630a2bdc333d","6408c1830f12c18c00e9e8f1","null","","null","","","","","","","","","","","","","","","","","","","fixation","",""
"","","","","","color-precision2","64","212200","0.0-10.0-1.22-0.22","63bc6b49a80cc5496df4c897","640759fa512f630a2bdc333d","6408c1830f12c18c00e9e8f1","[581]","","","[10]","[58]","58","335","36.96654106901667","[36.96654106901667]","[61.96654106901667]","[61]","0","0","1","0","148.55999999999767","1003.5799999999872","1000","[[[""img/mask60.png""]]]","","","main","335","color-precision2"
"","","","","","html-keyboard-response","65","212703","0.0-10.0-0.23","63bc6b49a80cc5496df4c897","640759fa512f630a2bdc333d","6408c1830f12c18c00e9e8f1","null","","null","","","","","","","","","","","","","","","","","","","fixation","",""
"","","","","","color-precision2","66","216302","0.0-10.0-1.23-0.23","63bc6b49a80cc5496df4c897","640759fa512f630a2bdc333d","6408c1830f12c18c00e9e8f1","[291]","","","[32]","[9]","9","96","110.85539927007102","[110.85539927007102]","[14.855399270071018]","[13]","0","0","1","0","149.44000000000233","1003.4599999999919","1000","[[[""img/mask69.png""]]]","","","main","96","color-precision2"
"","","","","","html-keyboard-response","67","216804","0.0-10.0-0.24","63bc6b49a80cc5496df4c897","640759fa512f630a2bdc333d","6408c1830f12c18c00e9e8f1","null","","null","","","","","","","","","","","","","","","","","","","fixation","",""
"","","","","","color-precision2","68","221514","0.0-10.0-1.24-0.24","63bc6b49a80cc5496df4c897","640759fa512f630a2bdc333d","6408c1830f12c18c00e9e8f1","[493]","","","[12]","[124]","124","174","299.4468114706749","[299.4468114706749]","[125.4468114706749]","[125]","0","0","1","0","149.20000000001164","1002.2000000000116","1000","[[[""img/mask13.png""]]]","","","main","174","color-precision2"
"","","","","","html-keyboard-response","69","222015","0.0-10.0-0.25","63bc6b49a80cc5496df4c897","640759fa512f630a2bdc333d","6408c1830f12c18c00e9e8f1","null","","null","","","","","","","","","","","","","","","","","","","fixation","",""
"","","","","","color-precision2","70","225130","0.0-10.0-1.25-0.25","63bc6b49a80cc5496df4c897","640759fa512f630a2bdc333d","6408c1830f12c18c00e9e8f1","[635]","","","[25]","[215]","215","203","85.12971866218743","[85.12971866218743]","[242.12971866218743]","[240]","0","0","1","0","148.61999999999534","1000.6199999999953","1000","[[[""img/mask26.png""]]]","","","main","203","color-precision2"
"","","","","","html-keyboard-response","71","225631","0.0-10.0-0.26","63bc6b49a80cc5496df4c897","640759fa512f630a2bdc333d","6408c1830f12c18c00e9e8f1","null","","null","","","","","","","","","","","","","","","","","","","fixation","",""
"","","","","","color-precision2","72","230172","0.0-10.0-1.26-0.26","63bc6b49a80cc5496df4c897","640759fa512f630a2bdc333d","6408c1830f12c18c00e9e8f1","[485]","","","[2]","[66]","66","67","127.07980945665881","[127.07980945665881]","[60.07980945665881]","[58]","0","0","1","0","149.05999999999767","996.0599999999977","1000","[[[""img/mask20.png""]]]","","","main","67","color-precision2"
"","","","","","html-keyboard-response","73","230673","0.0-10.0-0.27","63bc6b49a80cc5496df4c897","640759fa512f630a2bdc333d","6408c1830f12c18c00e9e8f1","null","","null","","","","","","","","","","","","","","","","","","","fixation","",""
"","","","","","color-precision2","74","233650","0.0-10.0-1.27-0.27","63bc6b49a80cc5496df4c897","640759fa512f630a2bdc333d","6408c1830f12c18c00e9e8f1","[488]","","","[13]","[90]","90","315","76.91926460226844","[76.91926460226844]","[121.91926460226844]","[120]","0","0","1","0","149.48000000001048","1000.5","1000","[[[""img/mask9.png""]]]","","","main","315","color-precision2"
"","","","","","html-keyboard-response","75","234152","0.0-10.0-0.28","63bc6b49a80cc5496df4c897","640759fa512f630a2bdc333d","6408c1830f12c18c00e9e8f1","null","","null","","","","","","","","","","","","","","","","","","","fixation","",""
"","","","","","color-precision2","76","237060","0.0-10.0-1.28-0.28","63bc6b49a80cc5496df4c897","640759fa512f630a2bdc333d","6408c1830f12c18c00e9e8f1","[241]","","","[10]","[80]","80","102","178.4822206253066","[178.4822206253066]","[76.48222062530661]","[76]","0","0","1","0","148.60000000000582","1001.6000000000058","1000","[[[""img/mask37.png""]]]","","","main","102","color-precision2"
"","","","","","html-keyboard-response","77","237561","0.0-10.0-0.29","63bc6b49a80cc5496df4c897","640759fa512f630a2bdc333d","6408c1830f12c18c00e9e8f1","null","","null","","","","","","","","","","","","","","","","","","","fixation","",""
"","","","","","color-precision2","78","241078","0.0-10.0-1.29-0.29","63bc6b49a80cc5496df4c897","640759fa512f630a2bdc333d","6408c1830f12c18c00e9e8f1","[535]","","","[34]","[223]","223","143","12.378546121141236","[12.378546121141236]","[229.37854612114123]","[228]","0","0","1","0","149.51999999998952","996.5199999999895","1000","[[[""img/mask17.png""]]]","","","main","143","color-precision2"
"","","","","","html-keyboard-response","79","241580","0.0-10.0-0.30","63bc6b49a80cc5496df4c897","640759fa512f630a2bdc333d","6408c1830f12c18c00e9e8f1","null","","null","","","","","","","","","","","","","","","","","","","fixation","",""
"","","","","","color-precision2","80","244370","0.0-10.0-1.30-0.30","63bc6b49a80cc5496df4c897","640759fa512f630a2bdc333d","6408c1830f12c18c00e9e8f1","[85]","","","[30]","[35]","35","260","","[null]","[null]","[21]","0","0","1","0","149.11999999999534","995.140000000014","1000","[[[""img/mask40.png""]]]","","","main","260","color-precision2"
"","","","","","html-keyboard-response","81","244872","0.0-10.0-0.31","63bc6b49a80cc5496df4c897","640759fa512f630a2bdc333d","6408c1830f12c18c00e9e8f1","null","","null","","","","","","","","","","","","","","","","","","","fixation","",""
"","","","","","many-guess-6","82","248078","0.0-10.0-1.31-0.31","63bc6b49a80cc5496df4c897","640759fa512f630a2bdc333d","6408c1830f12c18c00e9e8f1","[1541]","","","[28,30,27,17,34,23,26,3,14,1,7,29,33,12,2,22,16,24,11,9,10,15,20,18,31,13,21,25,35,0,4,8,32,19,6,5]","[309,219,130,229,319,170,20,160,100,70,249,190,110,269,329,209,30,339,10,299,239,349,120,80,200,279,359,150,50,140,60,90,289,40,180,259]","309","19","23.589991528459237","[23.589991528459237]","[4.589991528459237]","[4]","[120,30,30,30,120,210,300,120,300]","0","36","0","145.5","20.519999999989523","16","[[[""img/mask25.png""],[""img/mask32.png""],[""img/mask41.png""],[""img/mask30.png""],[""img/mask81.png""],[""img/mask31.png""],[""img/mask82.png""],[""img/mask34.png""],[""img/mask81.png""],[""img/mask43.png""],[""img/mask90.png""],[""img/mask43.png""],[""img/mask33.png""],[""img/mask89.png""],[""img/mask2.png""],[""img/mask31.png""],[""img/mask36.png""],[""img/mask7.png""],[""img/mask97.png""],[""img/mask89.png""],[""img/mask41.png""],[""img/mask20.png""],[""img/mask51.png""],[""img/mask55.png""],[""img/mask59.png""],[""img/mask51.png""],[""img/mask37.png""],[""img/mask37.png""],[""img/mask54.png""],[""img/mask32.png""],[""img/mask93.png""],[""img/mask16.png""],[""img/mask73.png""],[""img/mask28.png""],[""img/mask61.png""],[""img/mask36.png""]]]","","[28,30,27,17,34,23,26,3,14,1,7,29,33,12,2,22,16,24,11,9,10,15,20,18,31,13,21,25,35,0,4,8,32,19,6,5]","main","19","many-guess-6"
"","","","","","html-keyboard-response","83","248579","0.0-10.0-0.32","63bc6b49a80cc5496df4c897","640759fa512f630a2bdc333d","6408c1830f12c18c00e9e8f1","null","","null","","","","","","","","","","","","","","","","","","","fixation","",""
"","","","","","many-guess-6","84","252287","0.0-10.0-1.32-0.32","63bc6b49a80cc5496df4c897","640759fa512f630a2bdc333d","6408c1830f12c18c00e9e8f1","[1656]","","","[9,35,34,19,17,7,23,12,24,21,4,31,6,33,29,5,32,13,3,16,2,26,30,0,18,22,8,20,27,28,25,1,14,11,10,15]","[14,304,84,154,314,74,204,324,194,44,54,24,224,244,134,234,104,294,144,174,184,94,5,34,164,274,214,64,124,254,114,354,264,284,334,344]","14","210","194.19993477317277","[194.19993477317277]","[344.1999347731728]","[344]","[210,120,120,210,30,210,30,120,210]","0","36","0","148.79999999998836","23.820000000006985","16","[[[""img/mask3.png""],[""img/mask6.png""],[""img/mask17.png""],[""img/mask67.png""],[""img/mask14.png""],[""img/mask65.png""],[""img/mask72.png""],[""img/mask17.png""],[""img/mask64.png""],[""img/mask23.png""],[""img/mask80.png""],[""img/mask48.png""],[""img/mask90.png""],[""img/mask73.png""],[""img/mask38.png""],[""img/mask70.png""],[""img/mask55.png""],[""img/mask99.png""],[""img/mask43.png""],[""img/mask77.png""],[""img/mask34.png""],[""img/mask48.png""],[""img/mask29.png""],[""img/mask25.png""],[""img/mask9.png""],[""img/mask77.png""],[""img/mask100.png""],[""img/mask89.png""],[""img/mask92.png""],[""img/mask20.png""],[""img/mask63.png""],[""img/mask65.png""],[""img/mask92.png""],[""img/mask28.png""],[""img/mask23.png""],[""img/mask77.png""]]]","","[9,35,34,19,17,7,23,12,24,21,4,31,6,33,29,5,32,13,3,16,2,26,30,0,18,22,8,20,27,28,25,1,14,11,10,15]","main","210","many-guess-6"
"","","","","","html-keyboard-response","85","252788","0.0-10.0-0.33","63bc6b49a80cc5496df4c897","640759fa512f630a2bdc333d","6408c1830f12c18c00e9e8f1","null","","null","","","","","","","","","","","","","","","","","","","fixation","",""
"","","","","","color-precision2","86","255844","0.0-10.0-1.33-0.33","63bc6b49a80cc5496df4c897","640759fa512f630a2bdc333d","6408c1830f12c18c00e9e8f1","[455]","","","[19]","[338]","338","231","194.23025690350673","[194.23025690350673]","[323.23025690350676]","[323]","0","0","1","0","150.05999999999767","1001.0799999999872","1000","[[[""img/mask32.png""]]]","","","main","231","color-precision2"
"","","","","","html-keyboard-response","87","256346","0.0-10.0-0.34","63bc6b49a80cc5496df4c897","640759fa512f630a2bdc333d","6408c1830f12c18c00e9e8f1","null","","null","","","","","","","","","","","","","","","","","","","fixation","",""
"","","","","","many-guess-6","88","259036","0.0-10.0-1.34-0.34","63bc6b49a80cc5496df4c897","640759fa512f630a2bdc333d","6408c1830f12c18c00e9e8f1","[1310]","","","[0,28,22,24,33,16,32,14,12,17,7,13,5,26,10,6,1,9,18,29,2,31,27,19,20,35,23,25,8,15,30,21,3,11,4,34]","[15,115,254,274,155,65,45,344,324,334,174,194,224,234,145,55,105,184,95,125,164,35,5,214,244,314,284,85,204,135,294,264,354,25,75,304]","15","186","184.22984879509775","[184.22984879509775]","[358.2298487950977]","[357]","[120,300,300,120,120,300,210,30,120]","0","36","0","147.94000000000233","11.959999999991851","16","[[[""img/mask28.png""],[""img/mask51.png""],[""img/mask58.png""],[""img/mask38.png""],[""img/mask76.png""],[""img/mask78.png""],[""img/mask69.png""],[""img/mask12.png""],[""img/mask86.png""],[""img/mask32.png""],[""img/mask59.png""],[""img/mask3.png""],[""img/mask100.png""],[""img/mask19.png""],[""img/mask86.png""],[""img/mask99.png""],[""img/mask80.png""],[""img/mask63.png""],[""img/mask22.png""],[""img/mask70.png""],[""img/mask34.png""],[""img/mask39.png""],[""img/mask57.png""],[""img/mask63.png""],[""img/mask49.png""],[""img/mask34.png""],[""img/mask4.png""],[""img/mask75.png""],[""img/mask5.png""],[""img/mask95.png""],[""img/mask52.png""],[""img/mask93.png""],[""img/mask35.png""],[""img/mask42.png""],[""img/mask75.png""],[""img/mask66.png""]]]","","[0,28,22,24,33,16,32,14,12,17,7,13,5,26,10,6,1,9,18,29,2,31,27,19,20,35,23,25,8,15,30,21,3,11,4,34]","main","186","many-guess-6"
"","","","","","html-keyboard-response","89","259538","0.0-10.0-0.35","63bc6b49a80cc5496df4c897","640759fa512f630a2bdc333d","6408c1830f12c18c00e9e8f1","null","","null","","","","","","","","","","","","","","","","","","","fixation","",""
"","","","","","many-guess-6","90","263042","0.0-10.0-1.35-0.35","63bc6b49a80cc5496df4c897","640759fa512f630a2bdc333d","6408c1830f12c18c00e9e8f1","[2059]","","","[34,5,17,9,1,33,26,2,24,35,14,29,19,6,4,25,21,8,7,32,0,23,27,22,12,11,3,28,18,30,15,16,31,10,20,13]","[182,212,72,342,92,162,332,322,52,252,292,262,202,232,142,302,32,312,172,112,282,152,42,12,192,22,122,82,352,242,62,272,102,132,3,222]","182","1","226.64381766680512","[226.64381766680512]","[225.64381766680512]","[225]","[210,120,300,210,30,30,120,30,300]","0","36","0","150.27999999999884","25.279999999998836","16","[[[""img/mask33.png""],[""img/mask61.png""],[""img/mask52.png""],[""img/mask56.png""],[""img/mask8.png""],[""img/mask59.png""],[""img/mask53.png""],[""img/mask67.png""],[""img/mask23.png""],[""img/mask93.png""],[""img/mask39.png""],[""img/mask28.png""],[""img/mask17.png""],[""img/mask85.png""],[""img/mask80.png""],[""img/mask16.png""],[""img/mask37.png""],[""img/mask91.png""],[""img/mask36.png""],[""img/mask70.png""],[""img/mask35.png""],[""img/mask1.png""],[""img/mask49.png""],[""img/mask86.png""],[""img/mask21.png""],[""img/mask26.png""],[""img/mask42.png""],[""img/mask75.png""],[""img/mask68.png""],[""img/mask51.png""],[""img/mask9.png""],[""img/mask9.png""],[""img/mask35.png""],[""img/mask42.png""],[""img/mask77.png""],[""img/mask17.png""]]]","","[34,5,17,9,1,33,26,2,24,35,14,29,19,6,4,25,21,8,7,32,0,23,27,22,12,11,3,28,18,30,15,16,31,10,20,13]","main","1","many-guess-6"
"","","","","","html-keyboard-response","91","263544","0.0-10.0-0.36","63bc6b49a80cc5496df4c897","640759fa512f630a2bdc333d","6408c1830f12c18c00e9e8f1","null","","null","","","","","","","","","","","","","","","","","","","fixation","",""
"","","","","","color-precision2","92","266696","0.0-10.0-1.36-0.36","63bc6b49a80cc5496df4c897","640759fa512f630a2bdc333d","6408c1830f12c18c00e9e8f1","[269]","","","[7]","[222]","222","109","326.4536991500747","[326.4536991500747]","[217.45369915007473]","[217]","0","0","1","0","149.20000000001164","997.2199999999721","1000","[[[""img/mask100.png""]]]","","","main","109","color-precision2"
"","","","","","html-keyboard-response","93","267199","0.0-10.0-0.37","63bc6b49a80cc5496df4c897","640759fa512f630a2bdc333d","6408c1830f12c18c00e9e8f1","null","","null","","","","","","","","","","","","","","","","","","","fixation","",""
"","","","","","color-precision2","94","270059","0.0-10.0-1.37-0.37","63bc6b49a80cc5496df4c897","640759fa512f630a2bdc333d","6408c1830f12c18c00e9e8f1","[324]","","","[25]","[356]","356","0","12.039607438538413","[12.039607438538413]","[12.039607438538413]","[11]","0","0","1","0","149.64000000001397","993.640000000014","1000","[[[""img/mask27.png""]]]","","","main","0","color-precision2"
"","","","","","html-keyboard-response","95","270560","0.0-10.0-0.38","63bc6b49a80cc5496df4c897","640759fa512f630a2bdc333d","6408c1830f12c18c00e9e8f1","null","","null","","","","","","","","","","","","","","","","","","","fixation","",""
"","","","","","many-guess-6","96","272861","0.0-10.0-1.38-0.38","63bc6b49a80cc5496df4c897","640759fa512f630a2bdc333d","6408c1830f12c18c00e9e8f1","[774]","","","[27,23,26,10,20,30,8,11,6,31,7,24,28,16,3,13,34,19,18,12,2,14,1,32,25,29,17,21,15,22,0,9,4,5,33,35]","[105,235,55,304,75,125,65,205,284,294,334,15,45,85,165,35,185,195,255,344,175,354,155,274,314,135,115,145,324,5,265,215,95,225,25,245]","105","355","20.301258170853938","[20.301258170853938]","[25.30125817085394]","[24]","[30,120,210,300,120,210,30,30,210]","0","36","0","149.21999999997206","30.239999999990687","16","[[[""img/mask28.png""],[""img/mask54.png""],[""img/mask1.png""],[""img/mask19.png""],[""img/mask90.png""],[""img/mask6.png""],[""img/mask76.png""],[""img/mask96.png""],[""img/mask85.png""],[""img/mask98.png""],[""img/mask34.png""],[""img/mask62.png""],[""img/mask36.png""],[""img/mask34.png""],[""img/mask96.png""],[""img/mask64.png""],[""img/mask1.png""],[""img/mask50.png""],[""img/mask49.png""],[""img/mask12.png""],[""img/mask69.png""],[""img/mask26.png""],[""img/mask92.png""],[""img/mask60.png""],[""img/mask59.png""],[""img/mask85.png""],[""img/mask47.png""],[""img/mask66.png""],[""img/mask77.png""],[""img/mask67.png""],[""img/mask43.png""],[""img/mask74.png""],[""img/mask47.png""],[""img/mask34.png""],[""img/mask75.png""],[""img/mask54.png""]]]","","[27,23,26,10,20,30,8,11,6,31,7,24,28,16,3,13,34,19,18,12,2,14,1,32,25,29,17,21,15,22,0,9,4,5,33,35]","main","355","many-guess-6"
"","","","","","html-keyboard-response","97","274954","0.0-10.0-0.39","63bc6b49a80cc5496df4c897","640759fa512f630a2bdc333d","6408c1830f12c18c00e9e8f1","2092","Wow! You've completed 40 out of 180 trials! </p> <p>  </p><p> Take a quick break, then press any key when you're ready to continue."," ","","","","","","","","","","","","","","","","","","","fixation","",""
"","","","","","many-guess-6","98","279557","0.0-10.0-1.39-0.39","63bc6b49a80cc5496df4c897","640759fa512f630a2bdc333d","6408c1830f12c18c00e9e8f1","[1525]","","","[19,22,8,12,7,29,26,5,32,34,2,11,30,1,27,21,23,17,33,15,9,18,14,20,6,16,28,31,13,10,24,0,25,3,35,4]","[86,46,66,6,146,196,326,226,286,355,336,96,236,296,345,276,316,106,36,126,216,26,256,176,166,266,306,246,56,136,186,206,116,16,76,156]","86","167","181.07800099391935","[181.07800099391935]","[14.078000993919346]","[14]","[120,120,30,300,210,120,300,210,300]","0","36","0","149.11999999999534","19.14000000001397","16","[[[""img/mask10.png""],[""img/mask49.png""],[""img/mask36.png""],[""img/mask96.png""],[""img/mask50.png""],[""img/mask68.png""],[""img/mask88.png""],[""img/mask9.png""],[""img/mask97.png""],[""img/mask69.png""],[""img/mask18.png""],[""img/mask40.png""],[""img/mask63.png""],[""img/mask72.png""],[""img/mask85.png""],[""img/mask31.png""],[""img/mask95.png""],[""img/mask94.png""],[""img/mask61.png""],[""img/mask7.png""],[""img/mask70.png""],[""img/mask42.png""],[""img/mask37.png""],[""img/mask10.png""],[""img/mask49.png""],[""img/mask88.png""],[""img/mask96.png""],[""img/mask12.png""],[""img/mask92.png""],[""img/mask76.png""],[""img/mask83.png""],[""img/mask12.png""],[""img/mask87.png""],[""img/mask53.png""],[""img/mask63.png""],[""img/mask83.png""]]]","","[19,22,8,12,7,29,26,5,32,34,2,11,30,1,27,21,23,17,33,15,9,18,14,20,6,16,28,31,13,10,24,0,25,3,35,4]","main","167","many-guess-6"
"","","","","","html-keyboard-response","99","280059","0.0-10.0-0.40","63bc6b49a80cc5496df4c897","640759fa512f630a2bdc333d","6408c1830f12c18c00e9e8f1","null","","null","","","","","","","","","","","","","","","","","","","fixation","",""
"","","","","","many-guess-6","100","283955","0.0-10.0-1.40-0.40","63bc6b49a80cc5496df4c897","640759fa512f630a2bdc333d","6408c1830f12c18c00e9e8f1","[1881]","","","[26,32,16,10,28,9,24,20,30,12,3,18,27,13,7,23,17,19,14,25,2,22,21,34,15,0,8,33,5,4,29,11,1,31,35,6]","[231,201,281,62,251,122,321,52,221,82,12,291,32,42,72,241,92,151,102,271,131,191,211,112,171,22,351,161,261,301,2,311,331,141,181,341]","231","134","135.3053055715621","[135.3053055715621]","[1.3053055715620872]","[0]","[210,210,210,120,300,120,120,120,210]","0","36","0","146.32000000000698","17.320000000006985","16","[[[""img/mask61.png""],[""img/mask29.png""],[""img/mask32.png""],[""img/mask67.png""],[""img/mask18.png""],[""img/mask75.png""],[""img/mask46.png""],[""img/mask62.png""],[""img/mask36.png""],[""img/mask30.png""],[""img/mask2.png""],[""img/mask78.png""],[""img/mask18.png""],[""img/mask43.png""],[""img/mask72.png""],[""img/mask28.png""],[""img/mask35.png""],[""img/mask88.png""],[""img/mask62.png""],[""img/mask44.png""],[""img/mask39.png""],[""img/mask11.png""],[""img/mask53.png""],[""img/mask66.png""],[""img/mask57.png""],[""img/mask39.png""],[""img/mask81.png""],[""img/mask82.png""],[""img/mask59.png""],[""img/mask53.png""],[""img/mask14.png""],[""img/mask64.png""],[""img/mask17.png""],[""img/mask4.png""],[""img/mask41.png""],[""img/mask16.png""]]]","","[26,32,16,10,28,9,24,20,30,12,3,18,27,13,7,23,17,19,14,25,2,22,21,34,15,0,8,33,5,4,29,11,1,31,35,6]","main","134","many-guess-6"
"","","","","","html-keyboard-response","101","284457","0.0-10.0-0.41","63bc6b49a80cc5496df4c897","640759fa512f630a2bdc333d","6408c1830f12c18c00e9e8f1","null","","null","","","","","","","","","","","","","","","","","","","fixation","",""
"","","","","","color-precision2","102","289066","0.0-10.0-1.41-0.41","63bc6b49a80cc5496df4c897","640759fa512f630a2bdc333d","6408c1830f12c18c00e9e8f1","[946]","","","[0]","[125]","125","174","301.25858761379965","[301.25858761379965]","[127.25858761379965]","[127]","0","0","1","0","148.4199999999837","1003.4199999999837","1000","[[[""img/mask79.png""]]]","","","main","174","color-precision2"
"","","","","","html-keyboard-response","103","289567","0.0-10.0-0.42","63bc6b49a80cc5496df4c897","640759fa512f630a2bdc333d","6408c1830f12c18c00e9e8f1","null","","null","","","","","","","","","","","","","","","","","","","fixation","",""
"","","","","","many-guess-6","104","293756","0.0-10.0-1.42-0.42","63bc6b49a80cc5496df4c897","640759fa512f630a2bdc333d","6408c1830f12c18c00e9e8f1","[1912]","","","[3,30,0,26,1,31,4,29,28,11,33,8,13,7,22,16,6,9,18,15,10,5,24,32,20,14,2,27,35,25,21,19,17,34,23,12]","[87,137,216,346,306,57,206,157,276,97,107,246,336,187,356,316,177,266,7,67,236,256,226,47,37,196,296,286,27,326,17,147,167,127,117,77]","87","167","189.28026427063517","[189.28026427063517]","[22.280264270635172]","[22]","[30,300,120,210,120,300,120,30,300]","0","36","0","149.32000000000698","21.34000000002561","16","[[[""img/mask16.png""],[""img/mask17.png""],[""img/mask31.png""],[""img/mask88.png""],[""img/mask95.png""],[""img/mask41.png""],[""img/mask92.png""],[""img/mask38.png""],[""img/mask51.png""],[""img/mask29.png""],[""img/mask39.png""],[""img/mask79.png""],[""img/mask72.png""],[""img/mask80.png""],[""img/mask89.png""],[""img/mask49.png""],[""img/mask40.png""],[""img/mask6.png""],[""img/mask75.png""],[""img/mask39.png""],[""img/mask19.png""],[""img/mask17.png""],[""img/mask59.png""],[""img/mask90.png""],[""img/mask31.png""],[""img/mask75.png""],[""img/mask90.png""],[""img/mask56.png""],[""img/mask52.png""],[""img/mask41.png""],[""img/mask82.png""],[""img/mask12.png""],[""img/mask91.png""],[""img/mask14.png""],[""img/mask68.png""],[""img/mask42.png""]]]","","[3,30,0,26,1,31,4,29,28,11,33,8,13,7,22,16,6,9,18,15,10,5,24,32,20,14,2,27,35,25,21,19,17,34,23,12]","main","167","many-guess-6"
"","","","","","html-keyboard-response","105","294257","0.0-10.0-0.43","63bc6b49a80cc5496df4c897","640759fa512f630a2bdc333d","6408c1830f12c18c00e9e8f1","null","","null","","","","","","","","","","","","","","","","","","","fixation","",""
"","","","","","many-guess-6","106","297850","0.0-10.0-1.43-0.43","63bc6b49a80cc5496df4c897","640759fa512f630a2bdc333d","6408c1830f12c18c00e9e8f1","[1916]","","","[24,28,23,1,2,3,4,22,15,25,31,35,17,10,27,18,20,26,0,16,12,30,9,7,6,19,5,32,33,34,21,14,11,8,29,13]","[41,171,21,131,71,81,350,91,101,211,51,11,61,290,310,151,320,330,230,300,191,1,260,270,250,161,240,121,201,181,340,220,31,280,111,141]","41","131","137.0842682695485","[137.0842682695485]","[6.084268269548488]","[5]","[300,300,120,300,300,210,120,210,120]","0","36","0","148.61999999999534","23.619999999995343","16","[[[""img/mask1.png""],[""img/mask66.png""],[""img/mask98.png""],[""img/mask60.png""],[""img/mask63.png""],[""img/mask34.png""],[""img/mask97.png""],[""img/mask30.png""],[""img/mask67.png""],[""img/mask30.png""],[""img/mask84.png""],[""img/mask23.png""],[""img/mask45.png""],[""img/mask63.png""],[""img/mask55.png""],[""img/mask65.png""],[""img/mask12.png""],[""img/mask14.png""],[""img/mask92.png""],[""img/mask18.png""],[""img/mask96.png""],[""img/mask58.png""],[""img/mask35.png""],[""img/mask99.png""],[""img/mask31.png""],[""img/mask89.png""],[""img/mask31.png""],[""img/mask94.png""],[""img/mask20.png""],[""img/mask6.png""],[""img/mask94.png""],[""img/mask71.png""],[""img/mask7.png""],[""img/mask28.png""],[""img/mask57.png""],[""img/mask3.png""]]]","","[24,28,23,1,2,3,4,22,15,25,31,35,17,10,27,18,20,26,0,16,12,30,9,7,6,19,5,32,33,34,21,14,11,8,29,13]","main","131","many-guess-6"
"","","","","","html-keyboard-response","107","298352","0.0-10.0-0.44","63bc6b49a80cc5496df4c897","640759fa512f630a2bdc333d","6408c1830f12c18c00e9e8f1","null","","null","","","","","","","","","","","","","","","","","","","fixation","",""
"","","","","","many-guess-6","108","302691","0.0-10.0-1.44-0.44","63bc6b49a80cc5496df4c897","640759fa512f630a2bdc333d","6408c1830f12c18c00e9e8f1","[1897]","","","[9,8,22,0,1,7,6,15,33,31,17,14,26,27,25,2,4,32,3,19,21,35,29,18,12,23,30,28,16,34,5,20,10,11,13,24]","[314,344,124,144,334,5,234,104,264,244,214,114,194,84,204,324,25,35,294,55,354,154,274,174,304,184,164,134,224,64,45,74,254,94,284,15]","314","298","129.96493963544793","[129.96493963544793]","[191.96493963544793]","[190]","[210,210,30,300,210,30,30,300,210]","0","36","0","150.0800000000163","19.080000000016298","16","[[[""img/mask88.png""],[""img/mask74.png""],[""img/mask78.png""],[""img/mask29.png""],[""img/mask56.png""],[""img/mask99.png""],[""img/mask43.png""],[""img/mask30.png""],[""img/mask22.png""],[""img/mask6.png""],[""img/mask28.png""],[""img/mask86.png""],[""img/mask33.png""],[""img/mask21.png""],[""img/mask98.png""],[""img/mask13.png""],[""img/mask46.png""],[""img/mask56.png""],[""img/mask49.png""],[""img/mask6.png""],[""img/mask57.png""],[""img/mask18.png""],[""img/mask31.png""],[""img/mask31.png""],[""img/mask98.png""],[""img/mask36.png""],[""img/mask75.png""],[""img/mask81.png""],[""img/mask40.png""],[""img/mask55.png""],[""img/mask100.png""],[""img/mask2.png""],[""img/mask59.png""],[""img/mask84.png""],[""img/mask15.png""],[""img/mask19.png""]]]","","[9,8,22,0,1,7,6,15,33,31,17,14,26,27,25,2,4,32,3,19,21,35,29,18,12,23,30,28,16,34,5,20,10,11,13,24]","main","298","many-guess-6"
"","","","","","html-keyboard-response","109","303191","0.0-10.0-0.45","63bc6b49a80cc5496df4c897","640759fa512f630a2bdc333d","6408c1830f12c18c00e9e8f1","null","","null","","","","","","","","","","","","","","","","","","","fixation","",""
"","","","","","color-precision2","110","307228","0.0-10.0-1.45-0.45","63bc6b49a80cc5496df4c897","640759fa512f630a2bdc333d","6408c1830f12c18c00e9e8f1","[1657]","","","[2]","[47]","47","343","29.146542623576646","[29.146542623576646]","[46.146542623576636]","[45]","0","0","1","0","147.03999999997905","993.039999999979","1000","[[[""img/mask35.png""]]]","","","main","343","color-precision2"
"","","","","","html-keyboard-response","111","307729","0.0-10.0-0.46","63bc6b49a80cc5496df4c897","640759fa512f630a2bdc333d","6408c1830f12c18c00e9e8f1","null","","null","","","","","","","","","","","","","","","","","","","fixation","",""
"","","","","","many-guess-6","112","310691","0.0-10.0-1.46-0.46","63bc6b49a80cc5496df4c897","640759fa512f630a2bdc333d","6408c1830f12c18c00e9e8f1","[1346]","","","[30,33,21,11,1,18,16,8,4,32,13,34,28,26,24,5,10,2,7,14,17,29,0,35,22,6,12,25,27,9,3,20,31,23,15,19]","[85,294,324,314,124,344,75,354,105,214,15,254,35,184,224,154,55,334,144,95,114,264,5,164,25,304,174,45,234,204,284,244,65,194,134,274]","85","86","104.88937968471653","[104.88937968471653]","[18.88937968471653]","[17]","[30,300,300,30,30,120,120,210,300]","0","36","0","147.03999999997905","25.05999999999767","16","[[[""img/mask48.png""],[""img/mask56.png""],[""img/mask92.png""],[""img/mask68.png""],[""img/mask28.png""],[""img/mask39.png""],[""img/mask93.png""],[""img/mask43.png""],[""img/mask63.png""],[""img/mask10.png""],[""img/mask22.png""],[""img/mask63.png""],[""img/mask56.png""],[""img/mask24.png""],[""img/mask70.png""],[""img/mask90.png""],[""img/mask77.png""],[""img/mask85.png""],[""img/mask65.png""],[""img/mask33.png""],[""img/mask7.png""],[""img/mask6.png""],[""img/mask87.png""],[""img/mask99.png""],[""img/mask4.png""],[""img/mask81.png""],[""img/mask73.png""],[""img/mask34.png""],[""img/mask77.png""],[""img/mask50.png""],[""img/mask51.png""],[""img/mask15.png""],[""img/mask30.png""],[""img/mask88.png""],[""img/mask27.png""],[""img/mask82.png""]]]","","[30,33,21,11,1,18,16,8,4,32,13,34,28,26,24,5,10,2,7,14,17,29,0,35,22,6,12,25,27,9,3,20,31,23,15,19]","main","86","many-guess-6"
"","","","","","html-keyboard-response","113","311192","0.0-10.0-0.47","63bc6b49a80cc5496df4c897","640759fa512f630a2bdc333d","6408c1830f12c18c00e9e8f1","null","","null","","","","","","","","","","","","","","","","","","","fixation","",""
"","","","","","color-precision2","114","315114","0.0-10.0-1.47-0.47","63bc6b49a80cc5496df4c897","640759fa512f630a2bdc333d","6408c1830f12c18c00e9e8f1","[1329]","","","[26]","[100]","100","333","81.23183197384442","[81.23183197384442]","[108.23183197384441]","[106]","0","0","1","0","149.02000000001863","997.039999999979","1000","[[[""img/mask9.png""]]]","","","main","333","color-precision2"
"","","","","","html-keyboard-response","115","315617","0.0-10.0-0.48","63bc6b49a80cc5496df4c897","640759fa512f630a2bdc333d","6408c1830f12c18c00e9e8f1","null","","null","","","","","","","","","","","","","","","","","","","fixation","",""
"","","","","","color-precision2","116","318412","0.0-10.0-1.48-0.48","63bc6b49a80cc5496df4c897","640759fa512f630a2bdc333d","6408c1830f12c18c00e9e8f1","[167]","","","[33]","[246]","246","25","","[null]","[null]","[246]","0","0","1","0","149.70000000001164","992.7000000000116","1000","[[[""img/mask20.png""]]]","","","main","25","color-precision2"
"","","","","","html-keyboard-response","117","318914","0.0-10.0-0.49","63bc6b49a80cc5496df4c897","640759fa512f630a2bdc333d","6408c1830f12c18c00e9e8f1","null","","null","","","","","","","","","","","","","","","","","","","fixation","",""
"","","","","","color-precision2","118","321909","0.0-10.0-1.49-0.49","63bc6b49a80cc5496df4c897","640759fa512f630a2bdc333d","6408c1830f12c18c00e9e8f1","[289]","","","[32]","[149]","149","2","163.44165324831044","[163.44165324831044]","[161.44165324831044]","[161]","0","0","1","0","149.9199999999837","1006.9400000000023","1000","[[[""img/mask36.png""]]]","","","main","2","color-precision2"
"","","","","","html-keyboard-response","119","322409","0.0-10.0-0.50","63bc6b49a80cc5496df4c897","640759fa512f630a2bdc333d","6408c1830f12c18c00e9e8f1","null","","null","","","","","","","","","","","","","","","","","","","fixation","",""
"","","","","","many-guess-6","120","325444","0.0-10.0-1.50-0.50","63bc6b49a80cc5496df4c897","640759fa512f630a2bdc333d","6408c1830f12c18c00e9e8f1","[1538]","","","[17,30,23,35,2,22,15,6,11,3,16,26,0,14,19,27,21,24,5,18,7,31,1,20,29,34,13,10,33,25,28,8,4,12,32,9]","[203,163,74,64,84,313,4,143,303,233,123,94,343,283,54,44,193,114,14,213,253,223,173,353,183,273,34,104,263,333,24,323,133,293,153,243]","203","223","202.53752387188052","[202.53752387188052]","[339.5375238718805]","[339]","[210,210,210,300,30,30,120,300,30]","0","36","0","147.71999999997206","15.71999999997206","16","[[[""img/mask89.png""],[""img/mask6.png""],[""img/mask17.png""],[""img/mask49.png""],[""img/mask58.png""],[""img/mask90.png""],[""img/mask67.png""],[""img/mask24.png""],[""img/mask66.png""],[""img/mask44.png""],[""img/mask35.png""],[""img/mask42.png""],[""img/mask82.png""],[""img/mask61.png""],[""img/mask19.png""],[""img/mask48.png""],[""img/mask35.png""],[""img/mask43.png""],[""img/mask46.png""],[""img/mask47.png""],[""img/mask56.png""],[""img/mask14.png""],[""img/mask26.png""],[""img/mask85.png""],[""img/mask4.png""],[""img/mask30.png""],[""img/mask69.png""],[""img/mask75.png""],[""img/mask29.png""],[""img/mask77.png""],[""img/mask74.png""],[""img/mask67.png""],[""img/mask5.png""],[""img/mask79.png""],[""img/mask6.png""],[""img/mask61.png""]]]","","[17,30,23,35,2,22,15,6,11,3,16,26,0,14,19,27,21,24,5,18,7,31,1,20,29,34,13,10,33,25,28,8,4,12,32,9]","main","223","many-guess-6"
"","","","","","html-keyboard-response","121","325947","0.0-10.0-0.51","63bc6b49a80cc5496df4c897","640759fa512f630a2bdc333d","6408c1830f12c18c00e9e8f1","null","","null","","","","","","","","","","","","","","","","","","","fixation","",""
"","","","","","color-precision2","122","328946","0.0-10.0-1.51-0.51","63bc6b49a80cc5496df4c897","640759fa512f630a2bdc333d","6408c1830f12c18c00e9e8f1","[449]","","","[35]","[130]","130","109","235.71675929546188","[235.71675929546188]","[126.71675929546188]","[127]","0","0","1","0","147.97999999998137","1002.9799999999814","1000","[[[""img/mask31.png""]]]","","","main","109","color-precision2"
"","","","","","html-keyboard-response","123","329447","0.0-10.0-0.52","63bc6b49a80cc5496df4c897","640759fa512f630a2bdc333d","6408c1830f12c18c00e9e8f1","null","","null","","","","","","","","","","","","","","","","","","","fixation","",""
"","","","","","many-guess-6","124","332845","0.0-10.0-1.52-0.52","63bc6b49a80cc5496df4c897","640759fa512f630a2bdc333d","6408c1830f12c18c00e9e8f1","[1741]","","","[5,20,27,31,2,32,23,18,33,1,28,26,8,19,30,6,35,12,15,0,10,14,22,13,11,4,29,34,25,24,17,3,16,21,9,7]","[192,82,132,242,311,2,351,62,22,202,182,102,301,142,12,92,112,52,42,32,331,251,321,271,291,72,232,212,172,122,152,261,341,222,281,162]","192","86","100.8050854522963","[100.8050854522963]","[14.805085452296296]","[13]","[300,120,30,120,300,120,30,210,300]","0","36","0","149.05999999999767","26.05999999999767","16","[[[""img/mask61.png""],[""img/mask40.png""],[""img/mask31.png""],[""img/mask93.png""],[""img/mask36.png""],[""img/mask68.png""],[""img/mask20.png""],[""img/mask6.png""],[""img/mask97.png""],[""img/mask98.png""],[""img/mask57.png""],[""img/mask22.png""],[""img/mask6.png""],[""img/mask39.png""],[""img/mask44.png""],[""img/mask73.png""],[""img/mask81.png""],[""img/mask93.png""],[""img/mask82.png""],[""img/mask41.png""],[""img/mask54.png""],[""img/mask76.png""],[""img/mask84.png""],[""img/mask70.png""],[""img/mask39.png""],[""img/mask69.png""],[""img/mask36.png""],[""img/mask88.png""],[""img/mask8.png""],[""img/mask7.png""],[""img/mask65.png""],[""img/mask96.png""],[""img/mask48.png""],[""img/mask45.png""],[""img/mask36.png""],[""img/mask71.png""]]]","","[5,20,27,31,2,32,23,18,33,1,28,26,8,19,30,6,35,12,15,0,10,14,22,13,11,4,29,34,25,24,17,3,16,21,9,7]","main","86","many-guess-6"
"","","","","","html-keyboard-response","125","333346","0.0-10.0-0.53","63bc6b49a80cc5496df4c897","640759fa512f630a2bdc333d","6408c1830f12c18c00e9e8f1","null","","null","","","","","","","","","","","","","","","","","","","fixation","",""
"","","","","","many-guess-6","126","336703","0.0-10.0-1.53-0.53","63bc6b49a80cc5496df4c897","640759fa512f630a2bdc333d","6408c1830f12c18c00e9e8f1","[1394]","","","[33,31,24,34,14,30,20,6,32,21,17,7,35,12,25,28,29,19,2,16,8,1,26,11,3,0,15,13,23,27,9,18,10,22,5,4]","[287,237,247,317,277,167,347,257,97,127,307,337,187,67,17,7,37,47,227,27,297,77,147,177,197,117,217,87,157,57,107,137,207,267,327,357]","287","313","250.1286931818717","[250.1286931818717]","[297.1286931818717]","[297]","[300,30,300,300,300,120,210,30,120]","0","36","0","148.2399999999907","25.239999999990687","16","[[[""img/mask28.png""],[""img/mask62.png""],[""img/mask5.png""],[""img/mask48.png""],[""img/mask86.png""],[""img/mask80.png""],[""img/mask81.png""],[""img/mask54.png""],[""img/mask73.png""],[""img/mask18.png""],[""img/mask33.png""],[""img/mask58.png""],[""img/mask95.png""],[""img/mask27.png""],[""img/mask71.png""],[""img/mask26.png""],[""img/mask49.png""],[""img/mask100.png""],[""img/mask98.png""],[""img/mask99.png""],[""img/mask16.png""],[""img/mask21.png""],[""img/mask77.png""],[""img/mask24.png""],[""img/mask97.png""],[""img/mask19.png""],[""img/mask32.png""],[""img/mask53.png""],[""img/mask62.png""],[""img/mask75.png""],[""img/mask63.png""],[""img/mask47.png""],[""img/mask67.png""],[""img/mask9.png""],[""img/mask72.png""],[""img/mask33.png""]]]","","[33,31,24,34,14,30,20,6,32,21,17,7,35,12,25,28,29,19,2,16,8,1,26,11,3,0,15,13,23,27,9,18,10,22,5,4]","main","313","many-guess-6"
"","","","","","html-keyboard-response","127","337205","0.0-10.0-0.54","63bc6b49a80cc5496df4c897","640759fa512f630a2bdc333d","6408c1830f12c18c00e9e8f1","null","","null","","","","","","","","","","","","","","","","","","","fixation","",""
"","","","","","many-guess-6","128","340848","0.0-10.0-1.54-0.54","63bc6b49a80cc5496df4c897","640759fa512f630a2bdc333d","6408c1830f12c18c00e9e8f1","[1713]","","","[5,35,22,20,32,4,27,29,24,30,16,11,8,2,21,9,1,7,10,23,6,28,33,26,14,12,19,17,25,31,15,3,34,13,18,0]","[174,164,244,5,74,264,334,304,274,294,184,114,54,35,134,124,234,344,84,214,224,144,254,154,64,104,194,44,324,15,204,94,314,354,284,25]","174","331","329.76303183017876","[329.76303183017876]","[358.76303183017876]","[359]","[120,210,300,120,300,120,120,120,120]","0","36","0","148.3400000000256","26.35999999998603","16","[[[""img/mask19.png""],[""img/mask29.png""],[""img/mask58.png""],[""img/mask2.png""],[""img/mask6.png""],[""img/mask40.png""],[""img/mask73.png""],[""img/mask9.png""],[""img/mask27.png""],[""img/mask9.png""],[""img/mask27.png""],[""img/mask76.png""],[""img/mask12.png""],[""img/mask20.png""],[""img/mask81.png""],[""img/mask30.png""],[""img/mask44.png""],[""img/mask38.png""],[""img/mask16.png""],[""img/mask76.png""],[""img/mask24.png""],[""img/mask87.png""],[""img/mask29.png""],[""img/mask81.png""],[""img/mask68.png""],[""img/mask86.png""],[""img/mask83.png""],[""img/mask14.png""],[""img/mask71.png""],[""img/mask81.png""],[""img/mask62.png""],[""img/mask80.png""],[""img/mask82.png""],[""img/mask95.png""],[""img/mask58.png""],[""img/mask59.png""]]]","","[5,35,22,20,32,4,27,29,24,30,16,11,8,2,21,9,1,7,10,23,6,28,33,26,14,12,19,17,25,31,15,3,34,13,18,0]","main","331","many-guess-6"
"","","","","","html-keyboard-response","129","341350","0.0-10.0-0.55","63bc6b49a80cc5496df4c897","640759fa512f630a2bdc333d","6408c1830f12c18c00e9e8f1","null","","null","","","","","","","","","","","","","","","","","","","fixation","",""
"","","","","","many-guess-6","130","344789","0.0-10.0-1.55-0.55","63bc6b49a80cc5496df4c897","640759fa512f630a2bdc333d","6408c1830f12c18c00e9e8f1","[1978]","","","[12,21,8,13,30,0,31,3,1,17,23,25,32,10,34,20,26,9,4,2,11,28,15,33,24,14,27,5,18,6,7,29,16,35,22,19]","[263,203,283,213,24,124,303,353,243,343,114,184,193,104,154,174,94,64,44,74,233,313,323,223,84,4,253,164,54,134,34,333,293,144,14,273]","263","87","133.56100484083987","[133.56100484083987]","[46.56100484083987]","[45]","[210,120,120,120,120,30,300,300,300]","0","36","0","147.1599999999744","18.15999999997439","16","[[[""img/mask37.png""],[""img/mask96.png""],[""img/mask49.png""],[""img/mask88.png""],[""img/mask20.png""],[""img/mask1.png""],[""img/mask41.png""],[""img/mask80.png""],[""img/mask82.png""],[""img/mask47.png""],[""img/mask51.png""],[""img/mask10.png""],[""img/mask94.png""],[""img/mask70.png""],[""img/mask81.png""],[""img/mask90.png""],[""img/mask16.png""],[""img/mask55.png""],[""img/mask61.png""],[""img/mask5.png""],[""img/mask68.png""],[""img/mask60.png""],[""img/mask47.png""],[""img/mask83.png""],[""img/mask44.png""],[""img/mask55.png""],[""img/mask6.png""],[""img/mask94.png""],[""img/mask6.png""],[""img/mask40.png""],[""img/mask20.png""],[""img/mask66.png""],[""img/mask52.png""],[""img/mask48.png""],[""img/mask86.png""],[""img/mask48.png""]]]","","[12,21,8,13,30,0,31,3,1,17,23,25,32,10,34,20,26,9,4,2,11,28,15,33,24,14,27,5,18,6,7,29,16,35,22,19]","main","87","many-guess-6"
"","","","","","html-keyboard-response","131","345290","0.0-10.0-0.56","63bc6b49a80cc5496df4c897","640759fa512f630a2bdc333d","6408c1830f12c18c00e9e8f1","null","","null","","","","","","","","","","","","","","","","","","","fixation","",""
"","","","","","color-precision2","132","348629","0.0-10.0-1.56-0.56","63bc6b49a80cc5496df4c897","640759fa512f630a2bdc333d","6408c1830f12c18c00e9e8f1","[727]","","","[30]","[76]","76","14","88.60678816280549","[88.60678816280549]","[74.60678816280549]","[73]","0","0","1","0","148.40000000002328","992.4199999999837","1000","[[[""img/mask92.png""]]]","","","main","14","color-precision2"
"","","","","","html-keyboard-response","133","349129","0.0-10.0-0.57","63bc6b49a80cc5496df4c897","640759fa512f630a2bdc333d","6408c1830f12c18c00e9e8f1","null","","null","","","","","","","","","","","","","","","","","","","fixation","",""
"","","","","","many-guess-6","134","355475","0.0-10.0-1.57-0.57","63bc6b49a80cc5496df4c897","640759fa512f630a2bdc333d","6408c1830f12c18c00e9e8f1","[4283]","","","[21,4,27,16,2,26,1,32,33,10,28,19,11,34,3,13,24,23,18,25,8,15,17,20,22,9,6,30,35,31,14,0,7,29,12,5]","[348,298,248,338,79,308,318,328,69,59,268,19,119,288,188,208,358,129,198,148,218,228,29,158,109,168,238,39,278,178,139,9,99,89,258,49]","348","156","193.45261910631402","[193.45261910631402]","[37.45261910631402]","[37]","[210,30,300,300,300,210,30,300,210]","0","36","0","147.14000000001397","27.14000000001397","16","[[[""img/mask70.png""],[""img/mask2.png""],[""img/mask14.png""],[""img/mask97.png""],[""img/mask79.png""],[""img/mask10.png""],[""img/mask100.png""],[""img/mask39.png""],[""img/mask12.png""],[""img/mask72.png""],[""img/mask60.png""],[""img/mask100.png""],[""img/mask9.png""],[""img/mask59.png""],[""img/mask89.png""],[""img/mask22.png""],[""img/mask81.png""],[""img/mask61.png""],[""img/mask25.png""],[""img/mask81.png""],[""img/mask71.png""],[""img/mask55.png""],[""img/mask45.png""],[""img/mask33.png""],[""img/mask38.png""],[""img/mask90.png""],[""img/mask17.png""],[""img/mask17.png""],[""img/mask68.png""],[""img/mask31.png""],[""img/mask80.png""],[""img/mask49.png""],[""img/mask56.png""],[""img/mask3.png""],[""img/mask32.png""],[""img/mask84.png""]]]","","[21,4,27,16,2,26,1,32,33,10,28,19,11,34,3,13,24,23,18,25,8,15,17,20,22,9,6,30,35,31,14,0,7,29,12,5]","main","156","many-guess-6"
"","","","","","html-keyboard-response","135","355975","0.0-10.0-0.58","63bc6b49a80cc5496df4c897","640759fa512f630a2bdc333d","6408c1830f12c18c00e9e8f1","null","","null","","","","","","","","","","","","","","","","","","","fixation","",""
"","","","","","color-precision2","136","358547","0.0-10.0-1.58-0.58","63bc6b49a80cc5496df4c897","640759fa512f630a2bdc333d","6408c1830f12c18c00e9e8f1","[107]","","","[31]","[238]","238","312","","[null]","[null]","[241]","0","0","1","0","150.5800000000163","999.5800000000163","1000","[[[""img/mask3.png""]]]","","","main","312","color-precision2"
"","","","","","html-keyboard-response","137","360490","0.0-10.0-0.59","63bc6b49a80cc5496df4c897","640759fa512f630a2bdc333d","6408c1830f12c18c00e9e8f1","1943","Wow! You've completed 60 out of 180 trials! </p> <p>  </p><p> Take a quick break, then press any key when you're ready to continue."," ","","","","","","","","","","","","","","","","","","","fixation","",""
"","","","","","many-guess-6","138","364425","0.0-10.0-1.59-0.59","63bc6b49a80cc5496df4c897","640759fa512f630a2bdc333d","6408c1830f12c18c00e9e8f1","[1477]","","","[15,12,29,13,5,3,10,7,27,31,24,35,11,26,18,14,21,16,20,6,9,1,23,33,2,25,4,30,22,19,0,17,28,8,32,34]","[74,213,313,263,253,84,54,153,144,203,303,4,44,124,183,114,163,193,223,293,333,233,134,173,94,243,34,104,353,14,283,24,273,323,64,343]","74","321","4.179487277993307","[4.179487277993307]","[43.1794872779933]","[42]","[120,120,30,210,210,300,30,300,300]","0","36","0","148.3400000000256","20.35999999998603","16","[[[""img/mask51.png""],[""img/mask65.png""],[""img/mask77.png""],[""img/mask55.png""],[""img/mask3.png""],[""img/mask59.png""],[""img/mask75.png""],[""img/mask58.png""],[""img/mask94.png""],[""img/mask44.png""],[""img/mask97.png""],[""img/mask4.png""],[""img/mask19.png""],[""img/mask30.png""],[""img/mask43.png""],[""img/mask92.png""],[""img/mask81.png""],[""img/mask35.png""],[""img/mask29.png""],[""img/mask93.png""],[""img/mask94.png""],[""img/mask26.png""],[""img/mask80.png""],[""img/mask23.png""],[""img/mask19.png""],[""img/mask20.png""],[""img/mask4.png""],[""img/mask74.png""],[""img/mask40.png""],[""img/mask15.png""],[""img/mask44.png""],[""img/mask84.png""],[""img/mask69.png""],[""img/mask66.png""],[""img/mask83.png""],[""img/mask83.png""]]]","","[15,12,29,13,5,3,10,7,27,31,24,35,11,26,18,14,21,16,20,6,9,1,23,33,2,25,4,30,22,19,0,17,28,8,32,34]","main","321","many-guess-6"
"","","","","","html-keyboard-response","139","364926","0.0-10.0-0.60","63bc6b49a80cc5496df4c897","640759fa512f630a2bdc333d","6408c1830f12c18c00e9e8f1","null","","null","","","","","","","","","","","","","","","","","","","fixation","",""
"","","","","","many-guess-6","140","368197","0.0-10.0-1.60-0.60","63bc6b49a80cc5496df4c897","640759fa512f630a2bdc333d","6408c1830f12c18c00e9e8f1","[1525]","","","[6,30,5,3,12,7,0,31,9,35,15,19,17,16,4,1,10,27,20,22,28,21,34,2,33,25,11,14,29,23,18,26,24,13,32,8]","[344,194,254,25,5,324,134,55,144,354,294,304,284,334,64,15,104,154,124,234,274,94,214,204,264,164,224,244,114,45,174,314,184,84,74,35]","344","309","293.9148507626376","[293.9148507626376]","[344.9148507626376]","[345]","[30,210,30,210,300,210,210,120,210]","0","36","0","148.2600000000093","23.260000000009313","16","[[[""img/mask13.png""],[""img/mask85.png""],[""img/mask16.png""],[""img/mask37.png""],[""img/mask23.png""],[""img/mask28.png""],[""img/mask17.png""],[""img/mask96.png""],[""img/mask71.png""],[""img/mask26.png""],[""img/mask1.png""],[""img/mask87.png""],[""img/mask84.png""],[""img/mask86.png""],[""img/mask11.png""],[""img/mask83.png""],[""img/mask97.png""],[""img/mask72.png""],[""img/mask77.png""],[""img/mask92.png""],[""img/mask86.png""],[""img/mask81.png""],[""img/mask29.png""],[""img/mask78.png""],[""img/mask38.png""],[""img/mask46.png""],[""img/mask28.png""],[""img/mask76.png""],[""img/mask50.png""],[""img/mask37.png""],[""img/mask20.png""],[""img/mask33.png""],[""img/mask95.png""],[""img/mask73.png""],[""img/mask57.png""],[""img/mask32.png""]]]","","[6,30,5,3,12,7,0,31,9,35,15,19,17,16,4,1,10,27,20,22,28,21,34,2,33,25,11,14,29,23,18,26,24,13,32,8]","main","309","many-guess-6"
"","","","","","html-keyboard-response","141","368698","0.0-10.0-0.61","63bc6b49a80cc5496df4c897","640759fa512f630a2bdc333d","6408c1830f12c18c00e9e8f1","null","","null","","","","","","","","","","","","","","","","","","","fixation","",""
"","","","","","many-guess-6","142","371783","0.0-10.0-1.61-0.61","63bc6b49a80cc5496df4c897","640759fa512f630a2bdc333d","6408c1830f12c18c00e9e8f1","[1436]","","","[34,33,2,22,30,18,24,17,15,11,14,12,26,4,0,27,9,31,8,5,3,32,35,25,16,6,20,13,29,28,7,19,10,23,1,21]","[319,339,249,309,279,259,30,220,90,299,329,349,70,130,200,20,180,239,210,190,230,150,120,170,10,80,289,140,50,60,40,100,269,160,359,110]","319","5","357.7423727017769","[357.7423727017769]","[352.7423727017769]","[352]","[30,120,120,30,300,120,120,300,210]","0","36","0","149.0800000000163","27.080000000016298","16","[[[""img/mask47.png""],[""img/mask14.png""],[""img/mask49.png""],[""img/mask32.png""],[""img/mask22.png""],[""img/mask92.png""],[""img/mask30.png""],[""img/mask81.png""],[""img/mask43.png""],[""img/mask6.png""],[""img/mask83.png""],[""img/mask34.png""],[""img/mask51.png""],[""img/mask43.png""],[""img/mask31.png""],[""img/mask82.png""],[""img/mask66.png""],[""img/mask58.png""],[""img/mask41.png""],[""img/mask86.png""],[""img/mask40.png""],[""img/mask42.png""],[""img/mask98.png""],[""img/mask94.png""],[""img/mask75.png""],[""img/mask13.png""],[""img/mask51.png""],[""img/mask82.png""],[""img/mask60.png""],[""img/mask73.png""],[""img/mask79.png""],[""img/mask92.png""],[""img/mask36.png""],[""img/mask79.png""],[""img/mask54.png""],[""img/mask10.png""]]]","","[34,33,2,22,30,18,24,17,15,11,14,12,26,4,0,27,9,31,8,5,3,32,35,25,16,6,20,13,29,28,7,19,10,23,1,21]","main","5","many-guess-6"
"","","","","","html-keyboard-response","143","372284","0.0-10.0-0.62","63bc6b49a80cc5496df4c897","640759fa512f630a2bdc333d","6408c1830f12c18c00e9e8f1","null","","null","","","","","","","","","","","","","","","","","","","fixation","",""
"","","","","","color-precision2","144","374989","0.0-10.0-1.62-0.62","63bc6b49a80cc5496df4c897","640759fa512f630a2bdc333d","6408c1830f12c18c00e9e8f1","[117]","","","[7]","[342]","342","42","","[null]","[null]","[10]","0","0","1","0","148.53999999997905","998.5599999999977","1000","[[[""img/mask72.png""]]]","","","main","42","color-precision2"
"","","","","","html-keyboard-response","145","375490","0.0-10.0-0.63","63bc6b49a80cc5496df4c897","640759fa512f630a2bdc333d","6408c1830f12c18c00e9e8f1","null","","null","","","","","","","","","","","","","","","","","","","fixation","",""
"","","","","","many-guess-6","146","378721","0.0-10.0-1.63-0.63","63bc6b49a80cc5496df4c897","640759fa512f630a2bdc333d","6408c1830f12c18c00e9e8f1","[1378]","","","[28,19,15,34,3,1,9,4,12,32,13,16,2,6,31,17,25,22,10,35,5,24,20,18,26,0,21,29,33,8,14,11,27,23,7,30]","[44,353,203,293,4,173,223,34,323,143,64,263,123,343,83,213,74,113,103,163,283,333,303,14,133,233,193,153,24,243,313,273,54,253,183,93]","44","46","77.02631099250532","[77.02631099250532]","[31.026310992505316]","[30]","[30,210,210,30,300,210,120,30,210]","0","36","0","150.02000000001863","27.020000000018626","16","[[[""img/mask17.png""],[""img/mask25.png""],[""img/mask70.png""],[""img/mask76.png""],[""img/mask26.png""],[""img/mask37.png""],[""img/mask99.png""],[""img/mask98.png""],[""img/mask87.png""],[""img/mask87.png""],[""img/mask100.png""],[""img/mask80.png""],[""img/mask88.png""],[""img/mask94.png""],[""img/mask60.png""],[""img/mask56.png""],[""img/mask38.png""],[""img/mask6.png""],[""img/mask14.png""],[""img/mask40.png""],[""img/mask37.png""],[""img/mask4.png""],[""img/mask43.png""],[""img/mask87.png""],[""img/mask18.png""],[""img/mask80.png""],[""img/mask49.png""],[""img/mask53.png""],[""img/mask28.png""],[""img/mask97.png""],[""img/mask68.png""],[""img/mask56.png""],[""img/mask55.png""],[""img/mask22.png""],[""img/mask62.png""],[""img/mask95.png""]]]","","[28,19,15,34,3,1,9,4,12,32,13,16,2,6,31,17,25,22,10,35,5,24,20,18,26,0,21,29,33,8,14,11,27,23,7,30]","main","46","many-guess-6"
"","","","","","html-keyboard-response","147","379222","0.0-10.0-0.64","63bc6b49a80cc5496df4c897","640759fa512f630a2bdc333d","6408c1830f12c18c00e9e8f1","null","","null","","","","","","","","","","","","","","","","","","","fixation","",""
"","","","","","color-precision2","148","382185","0.0-10.0-1.64-0.64","63bc6b49a80cc5496df4c897","640759fa512f630a2bdc333d","6408c1830f12c18c00e9e8f1","[182]","","","[13]","[358]","358","141","129.89285095073402","[129.89285095073402]","[348.892850950734]","[347]","0","0","1","0","150.0800000000163","999.0999999999767","1000","[[[""img/mask1.png""]]]","","","main","141","color-precision2"
"","","","","","html-keyboard-response","149","382685","0.0-10.0-0.65","63bc6b49a80cc5496df4c897","640759fa512f630a2bdc333d","6408c1830f12c18c00e9e8f1","null","","null","","","","","","","","","","","","","","","","","","","fixation","",""
"","","","","","many-guess-6","150","385451","0.0-10.0-1.65-0.65","63bc6b49a80cc5496df4c897","640759fa512f630a2bdc333d","6408c1830f12c18c00e9e8f1","[1112]","","","[22,26,19,31,9,24,16,8,18,29,25,21,0,28,33,7,20,10,3,23,32,5,4,6,2,14,34,27,30,35,1,11,17,13,15,12]","[273,4,203,313,54,183,323,44,303,134,223,124,24,143,173,153,333,14,293,94,233,353,34,193,253,343,114,104,263,213,74,64,84,283,163,243]","273","138","139.44243270431727","[139.44243270431727]","[1.4424327043172696]","[0]","[120,300,120,300,120,120,300,300,300]","0","36","0","149.96000000002095","31.979999999981374","16","[[[""img/mask83.png""],[""img/mask79.png""],[""img/mask21.png""],[""img/mask81.png""],[""img/mask63.png""],[""img/mask59.png""],[""img/mask83.png""],[""img/mask62.png""],[""img/mask21.png""],[""img/mask76.png""],[""img/mask96.png""],[""img/mask3.png""],[""img/mask1.png""],[""img/mask84.png""],[""img/mask42.png""],[""img/mask83.png""],[""img/mask17.png""],[""img/mask45.png""],[""img/mask87.png""],[""img/mask1.png""],[""img/mask67.png""],[""img/mask94.png""],[""img/mask59.png""],[""img/mask11.png""],[""img/mask50.png""],[""img/mask70.png""],[""img/mask42.png""],[""img/mask49.png""],[""img/mask54.png""],[""img/mask24.png""],[""img/mask8.png""],[""img/mask34.png""],[""img/mask1.png""],[""img/mask24.png""],[""img/mask36.png""],[""img/mask26.png""]]]","","[22,26,19,31,9,24,16,8,18,29,25,21,0,28,33,7,20,10,3,23,32,5,4,6,2,14,34,27,30,35,1,11,17,13,15,12]","main","138","many-guess-6"
"","","","","","html-keyboard-response","151","385952","0.0-10.0-0.66","63bc6b49a80cc5496df4c897","640759fa512f630a2bdc333d","6408c1830f12c18c00e9e8f1","null","","null","","","","","","","","","","","","","","","","","","","fixation","",""
"","","","","","color-precision2","152","389594","0.0-10.0-1.66-0.66","63bc6b49a80cc5496df4c897","640759fa512f630a2bdc333d","6408c1830f12c18c00e9e8f1","[495]","","","[23]","[207]","207","350","193.26718457834372","[193.26718457834372]","[203.26718457834372]","[203]","0","0","1","0","148.21999999997206","994.2399999999907","1000","[[[""img/mask33.png""]]]","","","main","350","color-precision2"
"","","","","","html-keyboard-response","153","390095","0.0-10.0-0.67","63bc6b49a80cc5496df4c897","640759fa512f630a2bdc333d","6408c1830f12c18c00e9e8f1","null","","null","","","","","","","","","","","","","","","","","","","fixation","",""
"","","","","","color-precision2","154","393103","0.0-10.0-1.67-0.67","63bc6b49a80cc5496df4c897","640759fa512f630a2bdc333d","6408c1830f12c18c00e9e8f1","[512]","","","[16]","[280]","280","144","47.71348294096903","[47.71348294096903]","[263.713482940969]","[262]","0","0","1","0","149.35999999998603","1007.359999999986","1000","[[[""img/mask73.png""]]]","","","main","144","color-precision2"
"","","","","","html-keyboard-response","155","393604","0.0-10.0-0.68","63bc6b49a80cc5496df4c897","640759fa512f630a2bdc333d","6408c1830f12c18c00e9e8f1","null","","null","","","","","","","","","","","","","","","","","","","fixation","",""
"","","","","","many-guess-6","156","397021","0.0-10.0-1.68-0.68","63bc6b49a80cc5496df4c897","640759fa512f630a2bdc333d","6408c1830f12c18c00e9e8f1","[1791]","","","[27,30,3,0,35,17,32,23,13,28,31,4,18,24,10,15,22,29,34,25,21,5,12,2,9,8,16,7,6,33,26,20,19,1,14,11]","[323,353,244,194,54,154,264,44,333,134,304,274,84,144,224,254,234,214,24,114,94,284,64,164,204,124,104,294,174,4,34,343,314,184,74,14]","323","318","330.86550126138405","[330.86550126138405]","[12.865501261384054]","[13]","[30,30,120,300,120,120,210,300,120]","0","36","0","148.82000000000698","25.820000000006985","16","[[[""img/mask20.png""],[""img/mask85.png""],[""img/mask78.png""],[""img/mask66.png""],[""img/mask45.png""],[""img/mask16.png""],[""img/mask34.png""],[""img/mask60.png""],[""img/mask48.png""],[""img/mask15.png""],[""img/mask73.png""],[""img/mask79.png""],[""img/mask80.png""],[""img/mask61.png""],[""img/mask20.png""],[""img/mask23.png""],[""img/mask44.png""],[""img/mask42.png""],[""img/mask68.png""],[""img/mask83.png""],[""img/mask76.png""],[""img/mask99.png""],[""img/mask75.png""],[""img/mask5.png""],[""img/mask11.png""],[""img/mask7.png""],[""img/mask68.png""],[""img/mask63.png""],[""img/mask36.png""],[""img/mask46.png""],[""img/mask84.png""],[""img/mask81.png""],[""img/mask13.png""],[""img/mask41.png""],[""img/mask64.png""],[""img/mask35.png""]]]","","[27,30,3,0,35,17,32,23,13,28,31,4,18,24,10,15,22,29,34,25,21,5,12,2,9,8,16,7,6,33,26,20,19,1,14,11]","main","318","many-guess-6"
"","","","","","html-keyboard-response","157","397523","0.0-10.0-0.69","63bc6b49a80cc5496df4c897","640759fa512f630a2bdc333d","6408c1830f12c18c00e9e8f1","null","","null","","","","","","","","","","","","","","","","","","","fixation","",""
"","","","","","color-precision2","158","401653","0.0-10.0-1.69-0.69","63bc6b49a80cc5496df4c897","640759fa512f630a2bdc333d","6408c1830f12c18c00e9e8f1","[563]","","","[3]","[156]","156","228","30.43276650181576","[30.43276650181576]","[162.43276650181576]","[161]","0","0","1","0","148.21999999997206","1008.2399999999907","1000","[[[""img/mask29.png""]]]","","","main","228","color-precision2"
"","","","","","html-keyboard-response","159","402155","0.0-10.0-0.70","63bc6b49a80cc5496df4c897","640759fa512f630a2bdc333d","6408c1830f12c18c00e9e8f1","null","","null","","","","","","","","","","","","","","","","","","","fixation","",""
"","","","","","many-guess-6","160","413412","0.0-10.0-1.70-0.70","63bc6b49a80cc5496df4c897","640759fa512f630a2bdc333d","6408c1830f12c18c00e9e8f1","[8816]","","","[6,8,20,5,11,1,14,29,12,34,22,18,27,9,3,30,15,33,32,31,7,10,4,17,26,0,24,13,35,16,25,28,23,19,2,21]","[174,304,134,124,154,25,254,324,334,224,164,284,55,234,5,294,274,344,264,184,354,95,144,15,214,204,194,114,244,105,35,75,65,45,314,85]","174","117","353.41030440666714","[353.41030440666714]","[236.41030440666714]","[236]","[210,30,210,30,300,300,30,120,300]","0","36","0","148.03999999997905","14.059999999997672","16","[[[""img/mask17.png""],[""img/mask41.png""],[""img/mask64.png""],[""img/mask16.png""],[""img/mask45.png""],[""img/mask40.png""],[""img/mask10.png""],[""img/mask59.png""],[""img/mask74.png""],[""img/mask22.png""],[""img/mask54.png""],[""img/mask27.png""],[""img/mask40.png""],[""img/mask13.png""],[""img/mask5.png""],[""img/mask61.png""],[""img/mask23.png""],[""img/mask36.png""],[""img/mask15.png""],[""img/mask35.png""],[""img/mask61.png""],[""img/mask31.png""],[""img/mask52.png""],[""img/mask70.png""],[""img/mask83.png""],[""img/mask20.png""],[""img/mask73.png""],[""img/mask33.png""],[""img/mask80.png""],[""img/mask39.png""],[""img/mask100.png""],[""img/mask86.png""],[""img/mask74.png""],[""img/mask88.png""],[""img/mask33.png""],[""img/mask32.png""]]]","","[6,8,20,5,11,1,14,29,12,34,22,18,27,9,3,30,15,33,32,31,7,10,4,17,26,0,24,13,35,16,25,28,23,19,2,21]","main","117","many-guess-6"
"","","","","","html-keyboard-response","161","413913","0.0-10.0-0.71","63bc6b49a80cc5496df4c897","640759fa512f630a2bdc333d","6408c1830f12c18c00e9e8f1","null","","null","","","","","","","","","","","","","","","","","","","fixation","",""
"","","","","","many-guess-6","162","417195","0.0-10.0-1.71-0.71","63bc6b49a80cc5496df4c897","640759fa512f630a2bdc333d","6408c1830f12c18c00e9e8f1","[1260]","","","[13,28,2,17,22,35,33,9,29,19,12,8,6,3,24,16,23,4,11,34,0,27,15,7,26,1,21,31,30,32,5,14,18,25,10,20]","[338,9,228,308,238,148,358,128,328,218,138,68,158,118,49,178,208,168,288,258,198,19,348,39,268,59,248,78,108,298,318,98,29,188,278,88]","338","89","321.8534197483516","[321.8534197483516]","[232.8534197483516]","[233]","[120,210,210,120,30,300,30,120,120]","0","36","0","149.78000000002794","18.78000000002794","16","[[[""img/mask19.png""],[""img/mask68.png""],[""img/mask46.png""],[""img/mask15.png""],[""img/mask76.png""],[""img/mask18.png""],[""img/mask82.png""],[""img/mask72.png""],[""img/mask83.png""],[""img/mask54.png""],[""img/mask53.png""],[""img/mask34.png""],[""img/mask5.png""],[""img/mask60.png""],[""img/mask30.png""],[""img/mask37.png""],[""img/mask82.png""],[""img/mask48.png""],[""img/mask17.png""],[""img/mask26.png""],[""img/mask79.png""],[""img/mask14.png""],[""img/mask17.png""],[""img/mask81.png""],[""img/mask13.png""],[""img/mask41.png""],[""img/mask97.png""],[""img/mask31.png""],[""img/mask22.png""],[""img/mask61.png""],[""img/mask5.png""],[""img/mask51.png""],[""img/mask26.png""],[""img/mask18.png""],[""img/mask37.png""],[""img/mask38.png""]]]","","[13,28,2,17,22,35,33,9,29,19,12,8,6,3,24,16,23,4,11,34,0,27,15,7,26,1,21,31,30,32,5,14,18,25,10,20]","main","89","many-guess-6"
"","","","","","html-keyboard-response","163","417696","0.0-10.0-0.72","63bc6b49a80cc5496df4c897","640759fa512f630a2bdc333d","6408c1830f12c18c00e9e8f1","null","","null","","","","","","","","","","","","","","","","","","","fixation","",""
"","","","","","color-precision2","164","420527","0.0-10.0-1.72-0.72","63bc6b49a80cc5496df4c897","640759fa512f630a2bdc333d","6408c1830f12c18c00e9e8f1","[333]","","","[8]","[343]","343","111","113.00008192496985","[113.00008192496985]","[2.000081924969848]","[0]","0","0","1","0","150.05999999999767","996.0800000000163","1000","[[[""img/mask98.png""]]]","","","main","111","color-precision2"
"","","","","","html-keyboard-response","165","421028","0.0-10.0-0.73","63bc6b49a80cc5496df4c897","640759fa512f630a2bdc333d","6408c1830f12c18c00e9e8f1","null","","null","","","","","","","","","","","","","","","","","","","fixation","",""
"","","","","","many-guess-6","166","423818","0.0-10.0-1.73-0.73","63bc6b49a80cc5496df4c897","640759fa512f630a2bdc333d","6408c1830f12c18c00e9e8f1","[1271]","","","[6,22,18,27,1,15,34,33,30,9,19,10,31,28,21,16,12,32,5,26,20,2,17,14,24,7,23,3,13,35,0,25,11,8,29,4]","[358,189,59,318,209,348,159,179,338,9,139,119,258,278,29,69,109,199,169,328,228,39,149,49,129,268,308,238,298,79,19,248,89,219,288,99]","358","38","210.78617718090416","[210.78617718090416]","[172.78617718090416]","[173]","[210,300,210,30,300,300,210,30,30]","0","36","0","149.64000000001397","16.65999999997439","16","[[[""img/mask5.png""],[""img/mask25.png""],[""img/mask67.png""],[""img/mask54.png""],[""img/mask78.png""],[""img/mask62.png""],[""img/mask20.png""],[""img/mask65.png""],[""img/mask95.png""],[""img/mask36.png""],[""img/mask44.png""],[""img/mask38.png""],[""img/mask99.png""],[""img/mask62.png""],[""img/mask5.png""],[""img/mask8.png""],[""img/mask48.png""],[""img/mask20.png""],[""img/mask59.png""],[""img/mask44.png""],[""img/mask92.png""],[""img/mask39.png""],[""img/mask23.png""],[""img/mask29.png""],[""img/mask67.png""],[""img/mask76.png""],[""img/mask3.png""],[""img/mask30.png""],[""img/mask29.png""],[""img/mask28.png""],[""img/mask60.png""],[""img/mask11.png""],[""img/mask50.png""],[""img/mask95.png""],[""img/mask48.png""],[""img/mask70.png""]]]","","[6,22,18,27,1,15,34,33,30,9,19,10,31,28,21,16,12,32,5,26,20,2,17,14,24,7,23,3,13,35,0,25,11,8,29,4]","main","38","many-guess-6"
"","","","","","html-keyboard-response","167","424319","0.0-10.0-0.74","63bc6b49a80cc5496df4c897","640759fa512f630a2bdc333d","6408c1830f12c18c00e9e8f1","null","","null","","","","","","","","","","","","","","","","","","","fixation","",""
"","","","","","color-precision2","168","427335","0.0-10.0-1.74-0.74","63bc6b49a80cc5496df4c897","640759fa512f630a2bdc333d","6408c1830f12c18c00e9e8f1","[596]","","","[13]","[238]","238","169","51.26907801209056","[51.26907801209056]","[242.26907801209057]","[241]","0","0","1","0","149.14000000001397","1002.140000000014","1000","[[[""img/mask82.png""]]]","","","main","169","color-precision2"
"","","","","","html-keyboard-response","169","427837","0.0-10.0-0.75","63bc6b49a80cc5496df4c897","640759fa512f630a2bdc333d","6408c1830f12c18c00e9e8f1","null","","null","","","","","","","","","","","","","","","","","","","fixation","",""
