success,timeout,failed_images,failed_audio,failed_video,trial_type,trial_index,time_elapsed,internal_node_id,subject_id,study_id,session_id,rt,stimulus,response,position_of_items,colors_of_items,color_of_target,wheel_spin,response_angle,physical_response_angle,reported_color_angle,reported_color_discrete,locs,which_test,set_size,wheel_num_options,actual_mask_duration,actual_stim_duration,task,TARGETCOLOR,CMDispTime,randomSpinAmount,item_positions,subNo
"true","false","[]","[]","[]","preload",0,2037,0,"56ec151f388e1d000a5924d0","63f7687d6331319f6463a0d0","63f77480cf96a4787854b451",NaN,"","",NaN,NaN,NaN,NaN,NaN,NaN,NaN,NaN,NaN,NaN,NaN,NaN,NaN,NaN,"",NaN,NaN,NaN,NaN,1
"true","","","","","fullscreen",1,6963,0,"56ec151f388e1d000a5924d0","63f7687d6331319f6463a0d0","63f77480cf96a4787854b451",NaN,"","",NaN,NaN,NaN,NaN,NaN,NaN,NaN,NaN,NaN,NaN,NaN,NaN,NaN,NaN,"",NaN,NaN,NaN,NaN,1
"","","","","","html-keyboard-response",2,16796,0,"56ec151f388e1d000a5924d0","63f7687d6331319f6463a0d0","63f77480cf96a4787854b451",9830.59999999404,"What a beautiful Thursday to do some awesome science! </p> <p>  </p><p> </p>
    By completing this survey or questionnaire, you are consenting to be in this research study. </p>
    Your participation is voluntary and you can stop at any time.<p> [Press any key to continue] </p>"," ",NaN,NaN,NaN,NaN,NaN,NaN,NaN,NaN,NaN,NaN,NaN,NaN,NaN,NaN,"",NaN,NaN,NaN,NaN,1
"","","","","","html-keyboard-response",3,26797,0,"56ec151f388e1d000a5924d0","63f7687d6331319f6463a0d0","63f77480cf96a4787854b451",NaN,"
    <div style='width: 1000px;'>
    <div style='float: center;'><img src='img/TaskInstructions1.png'></img>
    </div>
    ","null",NaN,NaN,NaN,NaN,NaN,NaN,NaN,NaN,NaN,NaN,NaN,NaN,NaN,NaN,"",NaN,NaN,NaN,NaN,1
"","","","","","html-keyboard-response",4,28595,0,"56ec151f388e1d000a5924d0","63f7687d6331319f6463a0d0","63f77480cf96a4787854b451",1796.09999999404,"
    <div style='width: 1000px;'>
    <div style='float: center;'><img src='img/TaskInstructions1.png'></img>
    </div>
    "," ",NaN,NaN,NaN,NaN,NaN,NaN,NaN,NaN,NaN,NaN,NaN,NaN,NaN,NaN,"",NaN,NaN,NaN,NaN,1
"","","","","","html-keyboard-response",5,38598,0,"56ec151f388e1d000a5924d0","63f7687d6331319f6463a0d0","63f77480cf96a4787854b451",7557.29999999702,"
    <div style='width: 1000px;'>
    <div style='float: center;'><img src='img/TaskInstructions2.png'></img>
    </div>
    "," ",NaN,NaN,NaN,NaN,NaN,NaN,NaN,NaN,NaN,NaN,NaN,NaN,NaN,NaN,"",NaN,NaN,NaN,NaN,1
"","","","","","html-keyboard-response",6,42891,0,"56ec151f388e1d000a5924d0","63f7687d6331319f6463a0d0","63f77480cf96a4787854b451",4291.5,"
    <div style='width: 1000px;'>
    <div style='float: center;'><img src='img/TaskInstructions2.png'></img>
    </div>
    "," ",NaN,NaN,NaN,NaN,NaN,NaN,NaN,NaN,NaN,NaN,NaN,NaN,NaN,NaN,"",NaN,NaN,NaN,NaN,1
"","","","","","html-keyboard-response",7,52893,0,"56ec151f388e1d000a5924d0","63f7687d6331319f6463a0d0","63f77480cf96a4787854b451",7705.29999999702,"
    <div style='width: 1000px;'>
    <div style='float: center;'><img src='img/TaskInstructions3.png'></img>
    </div>
    "," ",NaN,NaN,NaN,NaN,NaN,NaN,NaN,NaN,NaN,NaN,NaN,NaN,NaN,NaN,"",NaN,NaN,NaN,NaN,1
"","","","","","html-keyboard-response",8,56274,0,"56ec151f388e1d000a5924d0","63f7687d6331319f6463a0d0","63f77480cf96a4787854b451",3380.29999999702,"
    <div style='width: 1000px;'>
    <div style='float: center;'><img src='img/TaskInstructions3.png'></img>
    </div>
    ","enter",NaN,NaN,NaN,NaN,NaN,NaN,NaN,NaN,NaN,NaN,NaN,NaN,NaN,NaN,"",NaN,NaN,NaN,NaN,1
"","","","","","color-precision",9,67060,0,"56ec151f388e1d000a5924d0","63f7687d6331319f6463a0d0","63f77480cf96a4787854b451",2099.20000000298,"","",1,69,69,90,156.900101311423,156.900101311423,66.9001013114233,65,0,0,1,0,14.4850000000006,1994.05300000597,"training",NaN,NaN,NaN,NaN,1
"","","","","","image-keyboard-response",10,72326,0,"56ec151f388e1d000a5924d0","63f7687d6331319f6463a0d0","63f77480cf96a4787854b451",5261.39999999106,"[""img/endTraining.png""]"," ",NaN,NaN,NaN,NaN,NaN,NaN,NaN,NaN,NaN,NaN,NaN,NaN,NaN,NaN,"",NaN,NaN,NaN,NaN,1
"","","","","","html-keyboard-response",11,72834,0,"56ec151f388e1d000a5924d0","63f7687d6331319f6463a0d0","63f77480cf96a4787854b451",NaN,"","null",NaN,NaN,NaN,NaN,NaN,NaN,NaN,NaN,NaN,NaN,NaN,NaN,NaN,NaN,"fixation",NaN,NaN,NaN,NaN,1
"","","","","","color-precision",12,78811,0,"56ec151f388e1d000a5924d0","63f7687d6331319f6463a0d0","63f77480cf96a4787854b451",1834,"","",4,233,233,224,99.574978889201,99.574978889201,235.574978889201,234,0,0,1,0,15.0279999970226,999.195999997013,"color",233,1000,224,4,1
"","","","","","html-keyboard-response",13,79325,0,"56ec151f388e1d000a5924d0","63f7687d6331319f6463a0d0","63f77480cf96a4787854b451",NaN,"","null",NaN,NaN,NaN,NaN,NaN,NaN,NaN,NaN,NaN,NaN,NaN,NaN,NaN,NaN,"fixation",NaN,NaN,NaN,NaN,1
"","","","","","color-precision",14,85123,0,"56ec151f388e1d000a5924d0","63f7687d6331319f6463a0d0","63f77480cf96a4787854b451",1996.40000000596,"","",0,335,335,272,248.309156631416,248.309156631416,336.309156631416,336,0,0,1,0,14.7480000029755,1001.81599999404,"color",335,1000,272,0,1
"","","","","","html-keyboard-response",15,85632,0,"56ec151f388e1d000a5924d0","63f7687d6331319f6463a0d0","63f77480cf96a4787854b451",NaN,"","null",NaN,NaN,NaN,NaN,NaN,NaN,NaN,NaN,NaN,NaN,NaN,NaN,NaN,NaN,"fixation",NaN,NaN,NaN,NaN,1
"","","","","","color-precision",16,91379,0,"56ec151f388e1d000a5924d0","63f7687d6331319f6463a0d0","63f77480cf96a4787854b451",1635.89999999106,"","",1,252,252,213,120.055019988543,120.055019988543,267.055019988543,265,0,0,1,0,15.3969999999972,999.765000002983,"color",252,1000,213,1,1
"","","","","","html-keyboard-response",17,91889,0,"56ec151f388e1d000a5924d0","63f7687d6331319f6463a0d0","63f77480cf96a4787854b451",NaN,"","null",NaN,NaN,NaN,NaN,NaN,NaN,NaN,NaN,NaN,NaN,NaN,NaN,NaN,NaN,"fixation",NaN,NaN,NaN,NaN,1
"","","","","","color-precision",18,98596,0,"56ec151f388e1d000a5924d0","63f7687d6331319f6463a0d0","63f77480cf96a4787854b451",1684.79999999702,"","",4,114,114,321,70.3849420404418,70.3849420404418,109.384942040442,107,0,0,1,0,15.2509999970207,994.819000002986,"color",114,1000,321,4,1
"","","","","","html-keyboard-response",19,99104,0,"56ec151f388e1d000a5924d0","63f7687d6331319f6463a0d0","63f77480cf96a4787854b451",NaN,"","null",NaN,NaN,NaN,NaN,NaN,NaN,NaN,NaN,NaN,NaN,NaN,NaN,NaN,NaN,"fixation",NaN,NaN,NaN,NaN,1
"","","","","","color-precision",20,105876,0,"56ec151f388e1d000a5924d0","63f7687d6331319f6463a0d0","63f77480cf96a4787854b451",2465.09999999404,"","",0,212,212,212,51.6857552801009,51.6857552801009,199.685755280101,198,0,0,1,0,14.4729999940464,1002.34099999702,"color",212,1000,212,0,1
"","","","","","html-keyboard-response",21,106377,0,"56ec151f388e1d000a5924d0","63f7687d6331319f6463a0d0","63f77480cf96a4787854b451",NaN,"","null",NaN,NaN,NaN,NaN,NaN,NaN,NaN,NaN,NaN,NaN,NaN,NaN,NaN,NaN,"fixation",NaN,NaN,NaN,NaN,1
"","","","","","color-precision",22,112715,0,"56ec151f388e1d000a5924d0","63f7687d6331319f6463a0d0","63f77480cf96a4787854b451",2505.09999999404,"","",0,91,91,49,147.466034386789,147.466034386789,98.4660343867893,97,0,0,1,0,15.4579999999987,1001.52600000596,"color",91,1000,49,0,1
"","","","","","html-keyboard-response",23,113224,0,"56ec151f388e1d000a5924d0","63f7687d6331319f6463a0d0","63f77480cf96a4787854b451",NaN,"","null",NaN,NaN,NaN,NaN,NaN,NaN,NaN,NaN,NaN,NaN,NaN,NaN,NaN,NaN,"fixation",NaN,NaN,NaN,NaN,1
"","","","","","color-precision",24,119963,0,"56ec151f388e1d000a5924d0","63f7687d6331319f6463a0d0","63f77480cf96a4787854b451",2768.59999999404,"","",4,322,322,91,62.4496256199366,62.4496256199366,331.449625619937,330,0,0,1,0,14.5889999970241,1001.85700000596,"color",322,1000,91,4,1
"","","","","","html-keyboard-response",25,120465,0,"56ec151f388e1d000a5924d0","63f7687d6331319f6463a0d0","63f77480cf96a4787854b451",NaN,"","null",NaN,NaN,NaN,NaN,NaN,NaN,NaN,NaN,NaN,NaN,NaN,NaN,NaN,NaN,"fixation",NaN,NaN,NaN,NaN,1
"","","","","","color-precision",26,127884,0,"56ec151f388e1d000a5924d0","63f7687d6331319f6463a0d0","63f77480cf96a4787854b451",2173,"","",0,224,224,146,0.426670402416977,0.426670402416977,214.426670402417,214,0,0,1,0,14.8400000029797,995.407999994044,"color",224,1000,146,0,1
"","","","","","html-keyboard-response",27,128385,0,"56ec151f388e1d000a5924d0","63f7687d6331319f6463a0d0","63f77480cf96a4787854b451",NaN,"","null",NaN,NaN,NaN,NaN,NaN,NaN,NaN,NaN,NaN,NaN,NaN,NaN,NaN,NaN,"fixation",NaN,NaN,NaN,NaN,1
"","","","","","color-precision",28,135931,0,"56ec151f388e1d000a5924d0","63f7687d6331319f6463a0d0","63f77480cf96a4787854b451",3886.79999999702,"","",5,199,199,216,45.7101417386921,45.7101417386921,189.710141738692,188,0,0,1,0,15.5359999970242,1001.80400000597,"color",199,1000,216,5,1
"","","","","","html-keyboard-response",29,136432,0,"56ec151f388e1d000a5924d0","63f7687d6331319f6463a0d0","63f77480cf96a4787854b451",NaN,"","null",NaN,NaN,NaN,NaN,NaN,NaN,NaN,NaN,NaN,NaN,NaN,NaN,NaN,NaN,"fixation",NaN,NaN,NaN,NaN,1
"","","","","","color-precision",30,143131,0,"56ec151f388e1d000a5924d0","63f7687d6331319f6463a0d0","63f77480cf96a4787854b451",3820.90000000596,"","",5,189,189,271,105.597398476962,105.597398476962,194.597398476962,193,0,0,1,0,15.5119999940507,1006.78000000297,"color",189,1000,271,5,1
"","","","","","html-keyboard-response",31,143633,0,"56ec151f388e1d000a5924d0","63f7687d6331319f6463a0d0","63f77480cf96a4787854b451",NaN,"","null",NaN,NaN,NaN,NaN,NaN,NaN,NaN,NaN,NaN,NaN,NaN,NaN,NaN,NaN,"fixation",NaN,NaN,NaN,NaN,1
"","","","","","color-precision",32,149907,0,"56ec151f388e1d000a5924d0","63f7687d6331319f6463a0d0","63f77480cf96a4787854b451",2047.5,"","",0,120,120,353,115.292911598271,115.292911598271,122.292911598271,120,0,0,1,0,15.865000005957,1003.03300000596,"color",120,1000,353,0,1
"","","","","","html-keyboard-response",33,150416,0,"56ec151f388e1d000a5924d0","63f7687d6331319f6463a0d0","63f77480cf96a4787854b451",NaN,"","null",NaN,NaN,NaN,NaN,NaN,NaN,NaN,NaN,NaN,NaN,NaN,NaN,NaN,NaN,"fixation",NaN,NaN,NaN,NaN,1
"","","","","","color-precision",34,157115,0,"56ec151f388e1d000a5924d0","63f7687d6331319f6463a0d0","63f77480cf96a4787854b451",2120.89999999106,"","",2,290,290,73,346.968261562294,346.968261562294,273.968261562294,273,0,0,1,0,15.6189999970084,1003.78699999701,"color",290,1000,73,2,1
"","","","","","html-keyboard-response",35,157617,0,"56ec151f388e1d000a5924d0","63f7687d6331319f6463a0d0","63f77480cf96a4787854b451",NaN,"","null",NaN,NaN,NaN,NaN,NaN,NaN,NaN,NaN,NaN,NaN,NaN,NaN,NaN,NaN,"fixation",NaN,NaN,NaN,NaN,1
"","","","","","color-precision",36,164844,0,"56ec151f388e1d000a5924d0","63f7687d6331319f6463a0d0","63f77480cf96a4787854b451",4066.60000000894,"","",0,233,233,346,225.084380103084,225.084380103084,239.084380103084,239,0,0,1,0,13.810999999987,997.778999997012,"color",233,1000,346,0,1
"","","","","","html-keyboard-response",37,165345,0,"56ec151f388e1d000a5924d0","63f7687d6331319f6463a0d0","63f77480cf96a4787854b451",NaN,"","null",NaN,NaN,NaN,NaN,NaN,NaN,NaN,NaN,NaN,NaN,NaN,NaN,NaN,NaN,"fixation",NaN,NaN,NaN,NaN,1
"","","","","","color-precision",38,171115,0,"56ec151f388e1d000a5924d0","63f7687d6331319f6463a0d0","63f77480cf96a4787854b451",2788.70000000298,"","",0,135,135,304,80.1907654620897,80.1907654620897,136.19076546209,135,0,0,1,0,15.0320000059728,1004.50000000297,"color",135,1000,304,0,1
"","","","","","html-keyboard-response",39,171617,0,"56ec151f388e1d000a5924d0","63f7687d6331319f6463a0d0","63f77480cf96a4787854b451",NaN,"","null",NaN,NaN,NaN,NaN,NaN,NaN,NaN,NaN,NaN,NaN,NaN,NaN,NaN,NaN,"fixation",NaN,NaN,NaN,NaN,1
"","","","","","color-precision",40,178787,0,"56ec151f388e1d000a5924d0","63f7687d6331319f6463a0d0","63f77480cf96a4787854b451",3826.60000000894,"","",0,358,358,35,34.6361201757018,34.6361201757018,359.636120175702,358,0,0,1,0,15.0199999970209,1006.48799999405,"color",358,1000,35,0,1
"","","","","","html-keyboard-response",41,179289,0,"56ec151f388e1d000a5924d0","63f7687d6331319f6463a0d0","63f77480cf96a4787854b451",NaN,"","null",NaN,NaN,NaN,NaN,NaN,NaN,NaN,NaN,NaN,NaN,NaN,NaN,NaN,NaN,"fixation",NaN,NaN,NaN,NaN,1
"","","","","","color-precision",42,187699,0,"56ec151f388e1d000a5924d0","63f7687d6331319f6463a0d0","63f77480cf96a4787854b451",5188.90000000596,"","",5,255,255,318,208.644434490908,208.644434490908,250.644434490908,250,0,0,1,0,16.1300000000047,992.59799999703,"color",255,1000,318,5,1
"","","","","","html-keyboard-response",43,188200,0,"56ec151f388e1d000a5924d0","63f7687d6331319f6463a0d0","63f77480cf96a4787854b451",NaN,"","null",NaN,NaN,NaN,NaN,NaN,NaN,NaN,NaN,NaN,NaN,NaN,NaN,NaN,NaN,"fixation",NaN,NaN,NaN,NaN,1
"","","","","","color-precision",44,194339,0,"56ec151f388e1d000a5924d0","63f7687d6331319f6463a0d0","63f77480cf96a4787854b451",2762.29999999702,"","",3,192,192,261,94.8080228660655,94.8080228660655,193.808022866065,192,0,0,1,0,14.7490000059479,1003.21700000297,"color",192,1000,261,3,1
"","","","","","html-keyboard-response",45,194844,0,"56ec151f388e1d000a5924d0","63f7687d6331319f6463a0d0","63f77480cf96a4787854b451",NaN,"","null",NaN,NaN,NaN,NaN,NaN,NaN,NaN,NaN,NaN,NaN,NaN,NaN,NaN,NaN,"fixation",NaN,NaN,NaN,NaN,1
"","","","","","color-precision",46,203060,0,"56ec151f388e1d000a5924d0","63f7687d6331319f6463a0d0","63f77480cf96a4787854b451",5232.20000000298,"","",2,336,336,65,35.2366857182531,35.2366857182531,330.236685718253,329,0,0,1,0,15.2800000059651,1007.94800000597,"color",336,1000,65,2,1
"","","","","","html-keyboard-response",47,203561,0,"56ec151f388e1d000a5924d0","63f7687d6331319f6463a0d0","63f77480cf96a4787854b451",NaN,"","null",NaN,NaN,NaN,NaN,NaN,NaN,NaN,NaN,NaN,NaN,NaN,NaN,NaN,NaN,"fixation",NaN,NaN,NaN,NaN,1
"","","","","","color-precision",48,212091,0,"56ec151f388e1d000a5924d0","63f7687d6331319f6463a0d0","63f77480cf96a4787854b451",5464.40000000596,"","",2,303,303,211,165.526198578805,165.526198578805,314.526198578804,314,0,0,1,0,15.4309999940451,999.899000005971,"color",303,1000,211,2,1
"","","","","","html-keyboard-response",49,264804,0,"56ec151f388e1d000a5924d0","63f7687d6331319f6463a0d0","63f77480cf96a4787854b451",52711.099999994,"Wow! You've completed 20 out of 361 trials! </p> <p>  </p><p> Take a quick break, then press any key when you're ready to continue."," ",NaN,NaN,NaN,NaN,NaN,NaN,NaN,NaN,NaN,NaN,NaN,NaN,NaN,NaN,"fixation",NaN,NaN,NaN,NaN,1
"","","","","","color-precision",50,271996,0,"56ec151f388e1d000a5924d0","63f7687d6331319f6463a0d0","63f77480cf96a4787854b451",3285.29999999702,"","",1,140,140,3,135.014765550458,135.014765550458,132.014765550458,130,0,0,1,0,15.3340000030003,1003.50200000301,"color",140,1000,3,1,1
"","","","","","html-keyboard-response",51,272498,0,"56ec151f388e1d000a5924d0","63f7687d6331319f6463a0d0","63f77480cf96a4787854b451",NaN,"","null",NaN,NaN,NaN,NaN,NaN,NaN,NaN,NaN,NaN,NaN,NaN,NaN,NaN,NaN,"fixation",NaN,NaN,NaN,NaN,1
"","","","","","color-precision",52,278164,0,"56ec151f388e1d000a5924d0","63f7687d6331319f6463a0d0","63f77480cf96a4787854b451",2919,"","",1,23,23,346,7.46504447637022,7.46504447637022,21.4650444763702,21,0,0,1,0,15.3570000029868,992.225000005972,"color",23,1000,346,1,1
"","","","","","html-keyboard-response",53,278665,0,"56ec151f388e1d000a5924d0","63f7687d6331319f6463a0d0","63f77480cf96a4787854b451",NaN,"","null",NaN,NaN,NaN,NaN,NaN,NaN,NaN,NaN,NaN,NaN,NaN,NaN,NaN,NaN,"fixation",NaN,NaN,NaN,NaN,1
"","","","","","color-precision",54,286924,0,"56ec151f388e1d000a5924d0","63f7687d6331319f6463a0d0","63f77480cf96a4787854b451",3813,"","",3,67,67,311,19.6319190960323,19.6319190960323,68.6319190960323,68,0,0,1,0,15.5560000030091,1007.72400000296,"color",67,1000,311,3,1
"","","","","","html-keyboard-response",55,287425,0,"56ec151f388e1d000a5924d0","63f7687d6331319f6463a0d0","63f77480cf96a4787854b451",NaN,"","null",NaN,NaN,NaN,NaN,NaN,NaN,NaN,NaN,NaN,NaN,NaN,NaN,NaN,NaN,"fixation",NaN,NaN,NaN,NaN,1
"","","","","","color-precision",56,293980,0,"56ec151f388e1d000a5924d0","63f7687d6331319f6463a0d0","63f77480cf96a4787854b451",3519.10000000894,"","",5,35,35,223,249.936635650195,249.936635650195,26.936635650195,28,0,0,1,0,15.3360000029788,1005.10399999702,"color",35,1000,223,5,1
"","","","","","html-keyboard-response",57,294482,0,"56ec151f388e1d000a5924d0","63f7687d6331319f6463a0d0","63f77480cf96a4787854b451",NaN,"","null",NaN,NaN,NaN,NaN,NaN,NaN,NaN,NaN,NaN,NaN,NaN,NaN,NaN,NaN,"fixation",NaN,NaN,NaN,NaN,1
"","","","","","color-precision",58,300596,0,"56ec151f388e1d000a5924d0","63f7687d6331319f6463a0d0","63f77480cf96a4787854b451",2984.80000001192,"","",5,333,333,222,196.226512155573,196.226512155573,334.226512155573,334,0,0,1,0,15.4720000029774,996.940000000002,"color",333,1000,222,5,1
"","","","","","html-keyboard-response",59,301097,0,"56ec151f388e1d000a5924d0","63f7687d6331319f6463a0d0","63f77480cf96a4787854b451",NaN,"","null",NaN,NaN,NaN,NaN,NaN,NaN,NaN,NaN,NaN,NaN,NaN,NaN,NaN,NaN,"fixation",NaN,NaN,NaN,NaN,1
"","","","","","color-precision",60,307932,0,"56ec151f388e1d000a5924d0","63f7687d6331319f6463a0d0","63f77480cf96a4787854b451",3287.5,"","",4,154,154,28,194.469424979743,194.469424979743,166.469424979743,166,0,0,1,0,15.4100000030012,995.977999994066,"color",154,1000,28,4,1
"","","","","","html-keyboard-response",61,308434,0,"56ec151f388e1d000a5924d0","63f7687d6331319f6463a0d0","63f77480cf96a4787854b451",NaN,"","null",NaN,NaN,NaN,NaN,NaN,NaN,NaN,NaN,NaN,NaN,NaN,NaN,NaN,NaN,"fixation",NaN,NaN,NaN,NaN,1
"","","","","","color-precision",62,315892,0,"56ec151f388e1d000a5924d0","63f7687d6331319f6463a0d0","63f77480cf96a4787854b451",4030.59999999404,"","",5,302,302,266,219.630772417218,219.630772417218,313.630772417218,314,0,0,1,0,14.0970000029774,999.864999997022,"color",302,1000,266,5,1
"","","","","","html-keyboard-response",63,316393,0,"56ec151f388e1d000a5924d0","63f7687d6331319f6463a0d0","63f77480cf96a4787854b451",NaN,"","null",NaN,NaN,NaN,NaN,NaN,NaN,NaN,NaN,NaN,NaN,NaN,NaN,NaN,NaN,"fixation",NaN,NaN,NaN,NaN,1
"","","","","","color-precision",64,324228,0,"56ec151f388e1d000a5924d0","63f7687d6331319f6463a0d0","63f77480cf96a4787854b451",4283.29999999702,"","",5,297,297,113,58.2528524831597,58.2528524831597,305.25285248316,303,0,0,1,0,14.7230000029667,1002.99099999701,"color",297,1000,113,5,1
"","","","","","html-keyboard-response",65,324743,0,"56ec151f388e1d000a5924d0","63f7687d6331319f6463a0d0","63f77480cf96a4787854b451",NaN,"","null",NaN,NaN,NaN,NaN,NaN,NaN,NaN,NaN,NaN,NaN,NaN,NaN,NaN,NaN,"fixation",NaN,NaN,NaN,NaN,1
"","","","","","color-precision",66,331476,0,"56ec151f388e1d000a5924d0","63f7687d6331319f6463a0d0","63f77480cf96a4787854b451",3931.5,"","",5,103,103,345,101.054909756556,101.054909756556,116.054909756556,114,0,0,1,0,15.3429999940563,996.311000005982,"color",103,1000,345,5,1
"","","","","","html-keyboard-response",67,331978,0,"56ec151f388e1d000a5924d0","63f7687d6331319f6463a0d0","63f77480cf96a4787854b451",NaN,"","null",NaN,NaN,NaN,NaN,NaN,NaN,NaN,NaN,NaN,NaN,NaN,NaN,NaN,NaN,"fixation",NaN,NaN,NaN,NaN,1
"","","","","","color-precision",68,338188,0,"56ec151f388e1d000a5924d0","63f7687d6331319f6463a0d0","63f77480cf96a4787854b451",3476.79999999702,"","",1,107,107,107,221.931844501441,221.931844501441,114.931844501441,115,0,0,1,0,15.5370000029798,999.705000002985,"color",107,1000,107,1,1
"","","","","","html-keyboard-response",69,338690,0,"56ec151f388e1d000a5924d0","63f7687d6331319f6463a0d0","63f77480cf96a4787854b451",NaN,"","null",NaN,NaN,NaN,NaN,NaN,NaN,NaN,NaN,NaN,NaN,NaN,NaN,NaN,NaN,"fixation",NaN,NaN,NaN,NaN,1
"","","","","","color-precision",70,347084,0,"56ec151f388e1d000a5924d0","63f7687d6331319f6463a0d0","63f77480cf96a4787854b451",4722.89999999106,"","",2,325,325,92,65.6939818720866,65.6939818720866,333.693981872087,332,0,0,1,0,15.437000003003,999.905000000028,"color",325,1000,92,2,1
"","","","","","html-keyboard-response",71,347594,0,"56ec151f388e1d000a5924d0","63f7687d6331319f6463a0d0","63f77480cf96a4787854b451",NaN,"","null",NaN,NaN,NaN,NaN,NaN,NaN,NaN,NaN,NaN,NaN,NaN,NaN,NaN,NaN,"fixation",NaN,NaN,NaN,NaN,1
"","","","","","color-precision",72,354764,0,"56ec151f388e1d000a5924d0","63f7687d6331319f6463a0d0","63f77480cf96a4787854b451",4336.29999999702,"","",4,177,177,328,140.939614365115,140.939614365115,172.939614365115,171,0,0,1,0,14.9220000000205,1002.29000000301,"color",177,1000,328,4,1
"","","","","","html-keyboard-response",73,355265,0,"56ec151f388e1d000a5924d0","63f7687d6331319f6463a0d0","63f77480cf96a4787854b451",NaN,"","null",NaN,NaN,NaN,NaN,NaN,NaN,NaN,NaN,NaN,NaN,NaN,NaN,NaN,NaN,"fixation",NaN,NaN,NaN,NaN,1
"","","","","","color-precision",74,361372,0,"56ec151f388e1d000a5924d0","63f7687d6331319f6463a0d0","63f77480cf96a4787854b451",3076.90000000596,"","",2,335,335,271,231.081317718014,231.081317718014,320.081317718014,321,0,0,1,0,14.3829999970039,1003.95100000297,"color",335,1000,271,2,1
"","","","","","html-keyboard-response",75,361873,0,"56ec151f388e1d000a5924d0","63f7687d6331319f6463a0d0","63f77480cf96a4787854b451",NaN,"","null",NaN,NaN,NaN,NaN,NaN,NaN,NaN,NaN,NaN,NaN,NaN,NaN,NaN,NaN,"fixation",NaN,NaN,NaN,NaN,1
"","","","","","color-precision",76,368428,0,"56ec151f388e1d000a5924d0","63f7687d6331319f6463a0d0","63f77480cf96a4787854b451",3850,"","",2,213,213,289,148.905854204997,148.905854204997,219.905854204997,218,0,0,1,0,15.3549999970128,992.123000005959,"color",213,1000,289,2,1
"","","","","","html-keyboard-response",77,368929,0,"56ec151f388e1d000a5924d0","63f7687d6331319f6463a0d0","63f77480cf96a4787854b451",NaN,"","null",NaN,NaN,NaN,NaN,NaN,NaN,NaN,NaN,NaN,NaN,NaN,NaN,NaN,NaN,"fixation",NaN,NaN,NaN,NaN,1
"","","","","","color-precision",78,375036,0,"56ec151f388e1d000a5924d0","63f7687d6331319f6463a0d0","63f77480cf96a4787854b451",3407.59999999404,"","",0,202,202,147,353.103432673993,353.103432673993,206.103432673993,205,0,0,1,0,14.4039999970119,994.672000005958,"color",202,1000,147,0,1
"","","","","","html-keyboard-response",79,375537,0,"56ec151f388e1d000a5924d0","63f7687d6331319f6463a0d0","63f77480cf96a4787854b451",NaN,"","null",NaN,NaN,NaN,NaN,NaN,NaN,NaN,NaN,NaN,NaN,NaN,NaN,NaN,NaN,"fixation",NaN,NaN,NaN,NaN,1
"","","","","","color-precision",80,382675,0,"56ec151f388e1d000a5924d0","63f7687d6331319f6463a0d0","63f77480cf96a4787854b451",3730.59999999404,"","",1,301,301,332,266.489787937815,266.489787937815,294.489787937815,295,0,0,1,0,14.4139999970212,1005.78200000001,"color",301,1000,332,1,1
"","","","","","html-keyboard-response",81,383177,0,"56ec151f388e1d000a5924d0","63f7687d6331319f6463a0d0","63f77480cf96a4787854b451",NaN,"","null",NaN,NaN,NaN,NaN,NaN,NaN,NaN,NaN,NaN,NaN,NaN,NaN,NaN,NaN,"fixation",NaN,NaN,NaN,NaN,1
"","","","","","color-precision",82,389211,0,"56ec151f388e1d000a5924d0","63f7687d6331319f6463a0d0","63f77480cf96a4787854b451",3283.79999999702,"","",4,206,206,246,84.3942233454796,84.3942233454796,198.39422334548,196,0,0,1,0,14.8280000059749,999.395999997039,"color",206,1000,246,4,1
"","","","","","html-keyboard-response",83,389713,0,"56ec151f388e1d000a5924d0","63f7687d6331319f6463a0d0","63f77480cf96a4787854b451",NaN,"","null",NaN,NaN,NaN,NaN,NaN,NaN,NaN,NaN,NaN,NaN,NaN,NaN,NaN,NaN,"fixation",NaN,NaN,NaN,NaN,1
"","","","","","color-precision",84,395203,0,"56ec151f388e1d000a5924d0","63f7687d6331319f6463a0d0","63f77480cf96a4787854b451",2709.20000000298,"","",4,55,55,319,17.4612092381433,17.4612092381433,58.4612092381433,57,0,0,1,0,14.3340000030003,994.401999994065,"color",55,1000,319,4,1
"","","","","","html-keyboard-response",85,395706,0,"56ec151f388e1d000a5924d0","63f7687d6331319f6463a0d0","63f77480cf96a4787854b451",NaN,"","null",NaN,NaN,NaN,NaN,NaN,NaN,NaN,NaN,NaN,NaN,NaN,NaN,NaN,NaN,"fixation",NaN,NaN,NaN,NaN,1
"","","","","","color-precision",86,400731,0,"56ec151f388e1d000a5924d0","63f7687d6331319f6463a0d0","63f77480cf96a4787854b451",1820.89999999106,"","",4,92,92,237,329.998277665643,329.998277665643,92.9982776656427,93,0,0,1,0,15.5840000030003,996.151999994065,"color",92,1000,237,4,1
"","","","","","html-keyboard-response",87,401233,0,"56ec151f388e1d000a5924d0","63f7687d6331319f6463a0d0","63f77480cf96a4787854b451",NaN,"","null",NaN,NaN,NaN,NaN,NaN,NaN,NaN,NaN,NaN,NaN,NaN,NaN,NaN,NaN,"fixation",NaN,NaN,NaN,NaN,1
"","","","","","color-precision",88,409195,0,"56ec151f388e1d000a5924d0","63f7687d6331319f6463a0d0","63f77480cf96a4787854b451",5084.70000000298,"","",0,261,261,240,170.429167977575,170.429167977575,290.429167977575,289,0,0,1,0,15.4960000029532,1007.16400000296,"color",261,1000,240,0,1
"","","","","","html-keyboard-response",89,411974,0,"56ec151f388e1d000a5924d0","63f7687d6331319f6463a0d0","63f77480cf96a4787854b451",2778.09999999404,"Wow! You've completed 40 out of 361 trials! </p> <p>  </p><p> Take a quick break, then press any key when you're ready to continue."," ",NaN,NaN,NaN,NaN,NaN,NaN,NaN,NaN,NaN,NaN,NaN,NaN,NaN,NaN,"fixation",NaN,NaN,NaN,NaN,1
"","","","","","color-precision",90,417523,0,"56ec151f388e1d000a5924d0","63f7687d6331319f6463a0d0","63f77480cf96a4787854b451",1662.09999999404,"","",4,29,29,220,242.661532742406,242.661532742406,22.6615327424056,23,0,0,1,0,15.3169999999809,1004.98499999999,"color",29,1000,220,4,1
"","","","","","html-keyboard-response",91,418025,0,"56ec151f388e1d000a5924d0","63f7687d6331319f6463a0d0","63f77480cf96a4787854b451",NaN,"","null",NaN,NaN,NaN,NaN,NaN,NaN,NaN,NaN,NaN,NaN,NaN,NaN,NaN,NaN,"fixation",NaN,NaN,NaN,NaN,1
"","","","","","color-precision",92,423979,0,"56ec151f388e1d000a5924d0","63f7687d6331319f6463a0d0","63f77480cf96a4787854b451",2752.09999999404,"","",4,2,2,128,134.918718218962,134.918718218962,6.91871821896191,6,0,0,1,0,15.1140000000014,997.782000000007,"color",2,1000,128,4,1
"","","","","","html-keyboard-response",93,424486,0,"56ec151f388e1d000a5924d0","63f7687d6331319f6463a0d0","63f77480cf96a4787854b451",NaN,"","null",NaN,NaN,NaN,NaN,NaN,NaN,NaN,NaN,NaN,NaN,NaN,NaN,NaN,NaN,"fixation",NaN,NaN,NaN,NaN,1
"","","","","","color-precision",94,431771,0,"56ec151f388e1d000a5924d0","63f7687d6331319f6463a0d0","63f77480cf96a4787854b451",4610.40000000596,"","",4,315,315,165,107.224766131304,107.224766131304,302.224766131304,300,0,0,1,0,15.0370000000112,994.504999997036,"color",315,1000,165,4,1
"","","","","","html-keyboard-response",95,432277,0,"56ec151f388e1d000a5924d0","63f7687d6331319f6463a0d0","63f77480cf96a4787854b451",NaN,"","null",NaN,NaN,NaN,NaN,NaN,NaN,NaN,NaN,NaN,NaN,NaN,NaN,NaN,NaN,"fixation",NaN,NaN,NaN,NaN,1
"","","","","","color-precision",96,437859,0,"56ec151f388e1d000a5924d0","63f7687d6331319f6463a0d0","63f77480cf96a4787854b451",2715,"","",1,243,243,326,217.164383140295,217.164383140295,251.164383140295,251,0,0,1,0,15.1589999999851,999.92699999403,"color",243,1000,326,1,1
"","","","","","html-keyboard-response",97,438361,0,"56ec151f388e1d000a5924d0","63f7687d6331319f6463a0d0","63f77480cf96a4787854b451",NaN,"","null",NaN,NaN,NaN,NaN,NaN,NaN,NaN,NaN,NaN,NaN,NaN,NaN,NaN,NaN,"fixation",NaN,NaN,NaN,NaN,1
"","","","","","color-precision",98,443684,0,"56ec151f388e1d000a5924d0","63f7687d6331319f6463a0d0","63f77480cf96a4787854b451",2506.29999999702,"","",1,238,238,165,44.6045821280626,44.6045821280626,239.604582128063,239,0,0,1,0,15.8039999970351,1001.27199999406,"color",238,1000,165,1,1
"","","","","","html-keyboard-response",99,444186,0,"56ec151f388e1d000a5924d0","63f7687d6331319f6463a0d0","63f77480cf96a4787854b451",NaN,"","null",NaN,NaN,NaN,NaN,NaN,NaN,NaN,NaN,NaN,NaN,NaN,NaN,NaN,NaN,"fixation",NaN,NaN,NaN,NaN,1
"","","","","","color-precision",100,452732,0,"56ec151f388e1d000a5924d0","63f7687d6331319f6463a0d0","63f77480cf96a4787854b451",5804.19999998808,"","",0,134,134,254,36.3667396523479,36.3667396523479,142.366739652348,141,0,0,1,0,15.2959999940358,1008.26400000596,"color",134,1000,254,0,1
"","","","","","html-keyboard-response",101,453234,0,"56ec151f388e1d000a5924d0","63f7687d6331319f6463a0d0","63f77480cf96a4787854b451",NaN,"","null",NaN,NaN,NaN,NaN,NaN,NaN,NaN,NaN,NaN,NaN,NaN,NaN,NaN,NaN,"fixation",NaN,NaN,NaN,NaN,1
"","","","","","color-precision",102,458875,0,"56ec151f388e1d000a5924d0","63f7687d6331319f6463a0d0","63f77480cf96a4787854b451",2897.29999999702,"","",0,101,101,95,215.379693769804,215.379693769804,120.379693769804,120,0,0,1,0,15.3459999969928,1002.21399999998,"color",101,1000,95,0,1
"","","","","","html-keyboard-response",103,459386,0,"56ec151f388e1d000a5924d0","63f7687d6331319f6463a0d0","63f77480cf96a4787854b451",NaN,"","null",NaN,NaN,NaN,NaN,NaN,NaN,NaN,NaN,NaN,NaN,NaN,NaN,NaN,NaN,"fixation",NaN,NaN,NaN,NaN,1
"","","","","","color-precision",104,465636,0,"56ec151f388e1d000a5924d0","63f7687d6331319f6463a0d0","63f77480cf96a4787854b451",2524.40000000596,"","",0,78,78,108,188.84770999266,188.84770999266,80.8477099926602,80,0,0,1,0,15.4340000000084,997.201999994053,"color",78,1000,108,0,1
"","","","","","html-keyboard-response",105,466137,0,"56ec151f388e1d000a5924d0","63f7687d6331319f6463a0d0","63f77480cf96a4787854b451",NaN,"","null",NaN,NaN,NaN,NaN,NaN,NaN,NaN,NaN,NaN,NaN,NaN,NaN,NaN,NaN,"fixation",NaN,NaN,NaN,NaN,1
"","","","","","color-precision",106,474204,0,"56ec151f388e1d000a5924d0","63f7687d6331319f6463a0d0","63f77480cf96a4787854b451",5209.5,"","",0,127,127,295,65.1843380135221,65.1843380135221,130.184338013522,129,0,0,1,0,15.8129999940284,1001.98099999403,"color",127,1000,295,0,1
"","","","","","html-keyboard-response",107,474714,0,"56ec151f388e1d000a5924d0","63f7687d6331319f6463a0d0","63f77480cf96a4787854b451",NaN,"","null",NaN,NaN,NaN,NaN,NaN,NaN,NaN,NaN,NaN,NaN,NaN,NaN,NaN,NaN,"fixation",NaN,NaN,NaN,NaN,1
"","","","","","color-precision",108,480212,0,"56ec151f388e1d000a5924d0","63f7687d6331319f6463a0d0","63f77480cf96a4787854b451",2767.40000000596,"","",0,43,43,148,188.84770999266,188.84770999266,40.8477099926602,40,0,0,1,0,15.7440000000061,1004.21199999703,"color",43,1000,148,0,1
"","","","","","html-keyboard-response",109,480713,0,"56ec151f388e1d000a5924d0","63f7687d6331319f6463a0d0","63f77480cf96a4787854b451",NaN,"","null",NaN,NaN,NaN,NaN,NaN,NaN,NaN,NaN,NaN,NaN,NaN,NaN,NaN,NaN,"fixation",NaN,NaN,NaN,NaN,1
"","","","","","color-precision",110,485236,0,"56ec151f388e1d000a5924d0","63f7687d6331319f6463a0d0","63f77480cf96a4787854b451",1924.70000000298,"","",5,188,188,198,18.668291157376,18.668291157376,180.668291157376,180,0,0,1,0,15.2139999970095,1006.58199999999,"color",188,1000,198,5,1
"","","","","","html-keyboard-response",111,485738,0,"56ec151f388e1d000a5924d0","63f7687d6331319f6463a0d0","63f77480cf96a4787854b451",NaN,"","null",NaN,NaN,NaN,NaN,NaN,NaN,NaN,NaN,NaN,NaN,NaN,NaN,NaN,NaN,"fixation",NaN,NaN,NaN,NaN,1
"","","","","","color-precision",112,493228,0,"56ec151f388e1d000a5924d0","63f7687d6331319f6463a0d0","63f77480cf96a4787854b451",4683.09999999404,"","",5,166,166,214,30.3688292987685,30.3688292987685,176.368829298768,175,0,0,1,0,15.7789999999804,1002.04699999403,"color",166,1000,214,5,1
"","","","","","html-keyboard-response",113,493729,0,"56ec151f388e1d000a5924d0","63f7687d6331319f6463a0d0","63f77480cf96a4787854b451",NaN,"","null",NaN,NaN,NaN,NaN,NaN,NaN,NaN,NaN,NaN,NaN,NaN,NaN,NaN,NaN,"fixation",NaN,NaN,NaN,NaN,1
"","","","","","color-precision",114,502612,0,"56ec151f388e1d000a5924d0","63f7687d6331319f6463a0d0","63f77480cf96a4787854b451",4750.69999998808,"","",4,308,308,191,140.919283867305,140.919283867305,309.919283867305,308,0,0,1,0,14.9689999999828,999.936999997008,"color",308,1000,191,4,1
"","","","","","html-keyboard-response",115,503113,0,"56ec151f388e1d000a5924d0","63f7687d6331319f6463a0d0","63f77480cf96a4787854b451",NaN,"","null",NaN,NaN,NaN,NaN,NaN,NaN,NaN,NaN,NaN,NaN,NaN,NaN,NaN,NaN,"fixation",NaN,NaN,NaN,NaN,1
"","","","","","color-precision",116,508996,0,"56ec151f388e1d000a5924d0","63f7687d6331319f6463a0d0","63f77480cf96a4787854b451",3117.90000000596,"","",0,76,76,197,272.364912169443,272.364912169443,75.3649121694428,76,0,0,1,0,15.3449999970035,1003.11300000595,"color",76,1000,197,0,1
"","","","","","html-keyboard-response",117,509504,0,"56ec151f388e1d000a5924d0","63f7687d6331319f6463a0d0","63f77480cf96a4787854b451",NaN,"","null",NaN,NaN,NaN,NaN,NaN,NaN,NaN,NaN,NaN,NaN,NaN,NaN,NaN,NaN,"fixation",NaN,NaN,NaN,NaN,1
"","","","","","color-precision",118,516724,0,"56ec151f388e1d000a5924d0","63f7687d6331319f6463a0d0","63f77480cf96a4787854b451",4195.5,"","",5,294,294,120,47.6761650687817,47.6761650687817,287.676165068782,286,0,0,1,0,14.8400000029942,1001.008000003,"color",294,1000,120,5,1
"","","","","","html-keyboard-response",119,517226,0,"56ec151f388e1d000a5924d0","63f7687d6331319f6463a0d0","63f77480cf96a4787854b451",NaN,"","null",NaN,NaN,NaN,NaN,NaN,NaN,NaN,NaN,NaN,NaN,NaN,NaN,NaN,NaN,"fixation",NaN,NaN,NaN,NaN,1
"","","","","","color-precision",120,526037,0,"56ec151f388e1d000a5924d0","63f7687d6331319f6463a0d0","63f77480cf96a4787854b451",6007.59999999404,"","",2,7,7,25,337.658442955098,337.658442955098,312.658442955098,312,0,0,1,0,14.6230000000214,1004.19100000599,"color",7,1000,25,2,1
"","","","","","html-keyboard-response",121,526538,0,"56ec151f388e1d000a5924d0","63f7687d6331319f6463a0d0","63f77480cf96a4787854b451",NaN,"","null",NaN,NaN,NaN,NaN,NaN,NaN,NaN,NaN,NaN,NaN,NaN,NaN,NaN,NaN,"fixation",NaN,NaN,NaN,NaN,1
"","","","","","color-precision",122,533476,0,"56ec151f388e1d000a5924d0","63f7687d6331319f6463a0d0","63f77480cf96a4787854b451",3714.59999999404,"","",3,232,232,130,351.402528821393,351.402528821393,221.402528821393,221,0,0,1,0,15.9259999999776,1005.59400000004,"color",232,1000,130,3,1
"","","","","","html-keyboard-response",123,533978,0,"56ec151f388e1d000a5924d0","63f7687d6331319f6463a0d0","63f77480cf96a4787854b451",NaN,"","null",NaN,NaN,NaN,NaN,NaN,NaN,NaN,NaN,NaN,NaN,NaN,NaN,NaN,NaN,"fixation",NaN,NaN,NaN,NaN,1
"","","","","","color-precision",124,541108,0,"56ec151f388e1d000a5924d0","63f7687d6331319f6463a0d0","63f77480cf96a4787854b451",4495.70000000298,"","",1,3,3,238,218.817027903587,218.817027903587,340.817027903587,341,0,0,1,0,14.9789999970235,997.747000005911,"color",3,1000,238,1,1
"","","","","","html-keyboard-response",125,541609,0,"56ec151f388e1d000a5924d0","63f7687d6331319f6463a0d0","63f77480cf96a4787854b451",NaN,"","null",NaN,NaN,NaN,NaN,NaN,NaN,NaN,NaN,NaN,NaN,NaN,NaN,NaN,NaN,"fixation",NaN,NaN,NaN,NaN,1
"","","","","","color-precision",126,550828,0,"56ec151f388e1d000a5924d0","63f7687d6331319f6463a0d0","63f77480cf96a4787854b451",6600.09999999404,"","",1,299,299,180,126.300714166575,126.300714166575,306.300714166575,304,0,0,1,0,15.4009999940172,1001.56899999408,"color",299,1000,180,1,1
"","","","","","html-keyboard-response",127,551331,0,"56ec151f388e1d000a5924d0","63f7687d6331319f6463a0d0","63f77480cf96a4787854b451",NaN,"","null",NaN,NaN,NaN,NaN,NaN,NaN,NaN,NaN,NaN,NaN,NaN,NaN,NaN,NaN,"fixation",NaN,NaN,NaN,NaN,1
"","","","","","color-precision",128,557964,0,"56ec151f388e1d000a5924d0","63f7687d6331319f6463a0d0","63f77480cf96a4787854b451",3569,"","",4,84,84,323,37.5642653913968,37.5642653913968,74.5642653913968,73,0,0,1,0,14.4950000030221,994.262999997009,"color",84,1000,323,4,1
"","","","","","html-keyboard-response",129,562263,0,"56ec151f388e1d000a5924d0","63f7687d6331319f6463a0d0","63f77480cf96a4787854b451",4298.09999999404,"Wow! You've completed 60 out of 361 trials! </p> <p>  </p><p> Take a quick break, then press any key when you're ready to continue."," ",NaN,NaN,NaN,NaN,NaN,NaN,NaN,NaN,NaN,NaN,NaN,NaN,NaN,NaN,"fixation",NaN,NaN,NaN,NaN,1
"","","","","","color-precision",130,569676,0,"56ec151f388e1d000a5924d0","63f7687d6331319f6463a0d0","63f77480cf96a4787854b451",1064.19999998808,"","",3,175,175,251,67.8531598800959,67.8531598800959,176.853159880096,175,0,0,1,0,15.1910000030184,1007.55900000595,"color",175,1000,251,3,1
"","","","","","html-keyboard-response",131,570177,0,"56ec151f388e1d000a5924d0","63f7687d6331319f6463a0d0","63f77480cf96a4787854b451",NaN,"","null",NaN,NaN,NaN,NaN,NaN,NaN,NaN,NaN,NaN,NaN,NaN,NaN,NaN,NaN,"fixation",NaN,NaN,NaN,NaN,1
"","","","","","color-precision",132,575476,0,"56ec151f388e1d000a5924d0","63f7687d6331319f6463a0d0","63f77480cf96a4787854b451",2280,"","",2,181,181,255,83.054428892708,83.054428892708,188.054428892708,186,0,0,1,0,15.7409999970114,992.208999994094,"color",181,1000,255,2,1
"","","","","","html-keyboard-response",133,575991,0,"56ec151f388e1d000a5924d0","63f7687d6331319f6463a0d0","63f77480cf96a4787854b451",NaN,"","null",NaN,NaN,NaN,NaN,NaN,NaN,NaN,NaN,NaN,NaN,NaN,NaN,NaN,NaN,"fixation",NaN,NaN,NaN,NaN,1
"","","","","","color-precision",134,582036,0,"56ec151f388e1d000a5924d0","63f7687d6331319f6463a0d0","63f77480cf96a4787854b451",2607,"","",1,70,70,143,210.246048276388,210.246048276388,67.246048276388,67,0,0,1,0,15.5800000060117,1004.348,"color",70,1000,143,1,1
"","","","","","html-keyboard-response",135,582538,0,"56ec151f388e1d000a5924d0","63f7687d6331319f6463a0d0","63f77480cf96a4787854b451",NaN,"","null",NaN,NaN,NaN,NaN,NaN,NaN,NaN,NaN,NaN,NaN,NaN,NaN,NaN,NaN,"fixation",NaN,NaN,NaN,NaN,1
"","","","","","color-precision",136,588652,0,"56ec151f388e1d000a5924d0","63f7687d6331319f6463a0d0","63f77480cf96a4787854b451",3306.90000000596,"","",0,304,304,319,265.623360568919,265.623360568919,306.623360568919,307,0,0,1,0,14.6679999970365,1002.135999994,"color",304,1000,319,0,1
"","","","","","html-keyboard-response",137,589155,0,"56ec151f388e1d000a5924d0","63f7687d6331319f6463a0d0","63f77480cf96a4787854b451",NaN,"","null",NaN,NaN,NaN,NaN,NaN,NaN,NaN,NaN,NaN,NaN,NaN,NaN,NaN,NaN,"fixation",NaN,NaN,NaN,NaN,1
"","","","","","color-precision",138,594428,0,"56ec151f388e1d000a5924d0","63f7687d6331319f6463a0d0","63f77480cf96a4787854b451",2566.60000000894,"","",3,29,29,239,272.904117748596,272.904117748596,33.9041177485957,34,0,0,1,0,15.4450000060024,1000.01299999701,"color",29,1000,239,3,1
"","","","","","html-keyboard-response",139,594942,0,"56ec151f388e1d000a5924d0","63f7687d6331319f6463a0d0","63f77480cf96a4787854b451",NaN,"","null",NaN,NaN,NaN,NaN,NaN,NaN,NaN,NaN,NaN,NaN,NaN,NaN,NaN,NaN,"fixation",NaN,NaN,NaN,NaN,1
"","","","","","color-precision",140,601524,0,"56ec151f388e1d000a5924d0","63f7687d6331319f6463a0d0","63f77480cf96a4787854b451",3862.70000000298,"","",0,232,232,234,101.111577178066,101.111577178066,227.111577178066,225,0,0,1,0,16.026000006008,1007.09399999701,"color",232,1000,234,0,1
"","","","","","html-keyboard-response",141,602028,0,"56ec151f388e1d000a5924d0","63f7687d6331319f6463a0d0","63f77480cf96a4787854b451",NaN,"","null",NaN,NaN,NaN,NaN,NaN,NaN,NaN,NaN,NaN,NaN,NaN,NaN,NaN,NaN,"fixation",NaN,NaN,NaN,NaN,1
"","","","","","color-precision",142,607180,0,"56ec151f388e1d000a5924d0","63f7687d6331319f6463a0d0","63f77480cf96a4787854b451",2384.5,"","",5,45,45,150,191.680612857394,191.680612857394,41.6806128573942,41,0,0,1,0,15.7830000029644,1005.85099999409,"color",45,1000,150,5,1
"","","","","","html-keyboard-response",143,607681,0,"56ec151f388e1d000a5924d0","63f7687d6331319f6463a0d0","63f77480cf96a4787854b451",NaN,"","null",NaN,NaN,NaN,NaN,NaN,NaN,NaN,NaN,NaN,NaN,NaN,NaN,NaN,NaN,"fixation",NaN,NaN,NaN,NaN,1
"","","","","","color-precision",144,612932,0,"56ec151f388e1d000a5924d0","63f7687d6331319f6463a0d0","63f77480cf96a4787854b451",2354,"","",1,210,210,25,238.752594399007,238.752594399007,213.752594399007,214,0,0,1,0,15.6390000029933,997.00700000592,"color",210,1000,25,1,1
"","","","","","html-keyboard-response",145,613434,0,"56ec151f388e1d000a5924d0","63f7687d6331319f6463a0d0","63f77480cf96a4787854b451",NaN,"","null",NaN,NaN,NaN,NaN,NaN,NaN,NaN,NaN,NaN,NaN,NaN,NaN,NaN,NaN,"fixation",NaN,NaN,NaN,NaN,1
"","","","","","color-precision",146,618916,0,"56ec151f388e1d000a5924d0","63f7687d6331319f6463a0d0","63f77480cf96a4787854b451",2371.29999999702,"","",3,285,285,153,72.8659533393543,72.8659533393543,279.865953339354,278,0,0,1,0,15.4889999999432,996.857000002987,"color",285,1000,153,3,1
"","","","","","html-keyboard-response",147,619418,0,"56ec151f388e1d000a5924d0","63f7687d6331319f6463a0d0","63f77480cf96a4787854b451",NaN,"","null",NaN,NaN,NaN,NaN,NaN,NaN,NaN,NaN,NaN,NaN,NaN,NaN,NaN,NaN,"fixation",NaN,NaN,NaN,NaN,1
"","","","","","color-precision",148,623852,0,"56ec151f388e1d000a5924d0","63f7687d6331319f6463a0d0","63f77480cf96a4787854b451",1807.29999999702,"","",0,79,79,289,1.28300573415666,1.28300573415666,72.2830057341567,71,0,0,1,0,14.6230000029318,993.791000002995,"color",79,1000,289,0,1
"","","","","","html-keyboard-response",149,624353,0,"56ec151f388e1d000a5924d0","63f7687d6331319f6463a0d0","63f77480cf96a4787854b451",NaN,"","null",NaN,NaN,NaN,NaN,NaN,NaN,NaN,NaN,NaN,NaN,NaN,NaN,NaN,NaN,"fixation",NaN,NaN,NaN,NaN,1
"","","","","","color-precision",150,629524,0,"56ec151f388e1d000a5924d0","63f7687d6331319f6463a0d0","63f77480cf96a4787854b451",2328.89999999106,"","",3,305,305,113,61.1276363413678,61.1276363413678,308.127636341368,306,0,0,1,0,14.7940000030212,1007.96200000297,"color",305,1000,113,3,1
"","","","","","html-keyboard-response",151,630025,0,"56ec151f388e1d000a5924d0","63f7687d6331319f6463a0d0","63f77480cf96a4787854b451",NaN,"","null",NaN,NaN,NaN,NaN,NaN,NaN,NaN,NaN,NaN,NaN,NaN,NaN,NaN,NaN,"fixation",NaN,NaN,NaN,NaN,1
"","","","","","color-precision",152,634684,0,"56ec151f388e1d000a5924d0","63f7687d6331319f6463a0d0","63f77480cf96a4787854b451",1687.5,"","",3,247,247,319,211.373712509786,211.373712509786,252.373712509786,252,0,0,1,0,15.3969999969704,1005.06499999703,"color",247,1000,319,3,1
"","","","","","html-keyboard-response",153,635193,0,"56ec151f388e1d000a5924d0","63f7687d6331319f6463a0d0","63f77480cf96a4787854b451",NaN,"","null",NaN,NaN,NaN,NaN,NaN,NaN,NaN,NaN,NaN,NaN,NaN,NaN,NaN,NaN,"fixation",NaN,NaN,NaN,NaN,1
"","","","","","color-precision",154,642948,0,"56ec151f388e1d000a5924d0","63f7687d6331319f6463a0d0","63f77480cf96a4787854b451",4919.69999998808,"","",4,42,42,43,87.0235890047557,87.0235890047557,44.0235890047557,42,0,0,1,0,14.8179999999702,994.986000000034,"color",42,1000,43,4,1
"","","","","","html-keyboard-response",155,643450,0,"56ec151f388e1d000a5924d0","63f7687d6331319f6463a0d0","63f77480cf96a4787854b451",NaN,"","null",NaN,NaN,NaN,NaN,NaN,NaN,NaN,NaN,NaN,NaN,NaN,NaN,NaN,NaN,"fixation",NaN,NaN,NaN,NaN,1
"","","","","","color-precision",156,651428,0,"56ec151f388e1d000a5924d0","63f7687d6331319f6463a0d0","63f77480cf96a4787854b451",4899.70000000298,"","",5,176,176,266,73.4013825939587,73.4013825939587,167.401382593959,165,0,0,1,0,15.0639999940759,993.931999997003,"color",176,1000,266,5,1
"","","","","","html-keyboard-response",157,651930,0,"56ec151f388e1d000a5924d0","63f7687d6331319f6463a0d0","63f77480cf96a4787854b451",NaN,"","null",NaN,NaN,NaN,NaN,NaN,NaN,NaN,NaN,NaN,NaN,NaN,NaN,NaN,NaN,"fixation",NaN,NaN,NaN,NaN,1
"","","","","","color-precision",158,657196,0,"56ec151f388e1d000a5924d0","63f7687d6331319f6463a0d0","63f77480cf96a4787854b451",2400.90000000596,"","",2,279,279,243,181.643813607288,181.643813607288,298.643813607288,298,0,0,1,0,16.0879999940516,1000.755999994,"color",279,1000,243,2,1
"","","","","","html-keyboard-response",159,657698,0,"56ec151f388e1d000a5924d0","63f7687d6331319f6463a0d0","63f77480cf96a4787854b451",NaN,"","null",NaN,NaN,NaN,NaN,NaN,NaN,NaN,NaN,NaN,NaN,NaN,NaN,NaN,NaN,"fixation",NaN,NaN,NaN,NaN,1
"","","","","","color-precision",160,663604,0,"56ec151f388e1d000a5924d0","63f7687d6331319f6463a0d0","63f77480cf96a4787854b451",3192.89999999106,"","",4,205,205,75,276.114488579989,276.114488579989,201.114488579989,202,0,0,1,0,15.36400000297,1008.03200000303,"color",205,1000,75,4,1
"","","","","","html-keyboard-response",161,664106,0,"56ec151f388e1d000a5924d0","63f7687d6331319f6463a0d0","63f77480cf96a4787854b451",NaN,"","null",NaN,NaN,NaN,NaN,NaN,NaN,NaN,NaN,NaN,NaN,NaN,NaN,NaN,NaN,"fixation",NaN,NaN,NaN,NaN,1
"","","","","","color-precision",162,669588,0,"56ec151f388e1d000a5924d0","63f7687d6331319f6463a0d0","63f77480cf96a4787854b451",2659.69999998808,"","",1,335,335,210,194.996854221746,194.996854221746,344.996854221746,344,0,0,1,0,14.9070000059437,995.675000000047,"color",335,1000,210,1,1
"","","","","","html-keyboard-response",163,670090,0,"56ec151f388e1d000a5924d0","63f7687d6331319f6463a0d0","63f77480cf96a4787854b451",NaN,"","null",NaN,NaN,NaN,NaN,NaN,NaN,NaN,NaN,NaN,NaN,NaN,NaN,NaN,NaN,"fixation",NaN,NaN,NaN,NaN,1
"","","","","","color-precision",164,675732,0,"56ec151f388e1d000a5924d0","63f7687d6331319f6463a0d0","63f77480cf96a4787854b451",2387.10000000894,"","",0,214,214,218,66.4472376649945,66.4472376649945,208.447237664994,207,0,0,1,0,15.7769999940647,1006.84499999997,"color",214,1000,218,0,1
"","","","","","html-keyboard-response",165,676234,0,"56ec151f388e1d000a5924d0","63f7687d6331319f6463a0d0","63f77480cf96a4787854b451",NaN,"","null",NaN,NaN,NaN,NaN,NaN,NaN,NaN,NaN,NaN,NaN,NaN,NaN,NaN,NaN,"fixation",NaN,NaN,NaN,NaN,1
"","","","","","color-precision",166,681148,0,"56ec151f388e1d000a5924d0","63f7687d6331319f6463a0d0","63f77480cf96a4787854b451",2103.19999998808,"","",3,277,277,115,37.0554759827497,37.0554759827497,282.05547598275,281,0,0,1,0,15.2040000029374,1003.47199999704,"color",277,1000,115,3,1
"","","","","","html-keyboard-response",167,681658,0,"56ec151f388e1d000a5924d0","63f7687d6331319f6463a0d0","63f77480cf96a4787854b451",NaN,"","null",NaN,NaN,NaN,NaN,NaN,NaN,NaN,NaN,NaN,NaN,NaN,NaN,NaN,NaN,"fixation",NaN,NaN,NaN,NaN,1
"","","","","","color-precision",168,686516,0,"56ec151f388e1d000a5924d0","63f7687d6331319f6463a0d0","63f77480cf96a4787854b451",1770.5,"","",5,255,255,108,9.88779610190324,9.88779610190324,261.887796101903,261,0,0,1,0,14.6970000029542,1003.16500000004,"color",255,1000,108,5,1
"","","","","","html-keyboard-response",169,688595,0,"56ec151f388e1d000a5924d0","63f7687d6331319f6463a0d0","63f77480cf96a4787854b451",2077.90000000596,"Wow! You've completed 80 out of 361 trials! </p> <p>  </p><p> Take a quick break, then press any key when you're ready to continue."," ",NaN,NaN,NaN,NaN,NaN,NaN,NaN,NaN,NaN,NaN,NaN,NaN,NaN,NaN,"fixation",NaN,NaN,NaN,NaN,1
"","","","","","color-precision",170,698148,0,"56ec151f388e1d000a5924d0","63f7687d6331319f6463a0d0","63f77480cf96a4787854b451",3752.59999999404,"","",4,233,233,313,173.692299927091,173.692299927091,220.692299927091,220,0,0,1,0,15.3900000029244,1006.95799999405,"color",233,1000,313,4,1
"","","","","","html-keyboard-response",171,698650,0,"56ec151f388e1d000a5924d0","63f7687d6331319f6463a0d0","63f77480cf96a4787854b451",NaN,"","null",NaN,NaN,NaN,NaN,NaN,NaN,NaN,NaN,NaN,NaN,NaN,NaN,NaN,NaN,"fixation",NaN,NaN,NaN,NaN,1
"","","","","","color-precision",172,703069,0,"56ec151f388e1d000a5924d0","63f7687d6331319f6463a0d0","63f77480cf96a4787854b451",1390.39999999106,"","",4,189,189,205,33.0767187659066,33.0767187659066,188.076718765907,187,0,0,1,0,15.4309999940451,1003.39900000591,"color",189,1000,205,4,1
"","","","","","html-keyboard-response",173,703571,0,"56ec151f388e1d000a5924d0","63f7687d6331319f6463a0d0","63f77480cf96a4787854b451",NaN,"","null",NaN,NaN,NaN,NaN,NaN,NaN,NaN,NaN,NaN,NaN,NaN,NaN,NaN,NaN,"fixation",NaN,NaN,NaN,NaN,1
"","","","","","color-precision",174,708060,0,"56ec151f388e1d000a5924d0","63f7687d6331319f6463a0d0","63f77480cf96a4787854b451",1848.20000000298,"","",0,152,152,188,339.169633626333,339.169633626333,151.169633626333,152,0,0,1,0,15.1849999970291,992.152999993996,"color",152,1000,188,0,1
"","","","","","html-keyboard-response",175,708572,0,"56ec151f388e1d000a5924d0","63f7687d6331319f6463a0d0","63f77480cf96a4787854b451",NaN,"","null",NaN,NaN,NaN,NaN,NaN,NaN,NaN,NaN,NaN,NaN,NaN,NaN,NaN,NaN,"fixation",NaN,NaN,NaN,NaN,1
"","","","","","color-precision",176,713532,0,"56ec151f388e1d000a5924d0","63f7687d6331319f6463a0d0","63f77480cf96a4787854b451",2120.69999998808,"","",2,46,46,248,304.570897884938,304.570897884938,56.5708978849384,57,0,0,1,0,15.4679999969667,1005.93599999405,"color",46,1000,248,2,1
"","","","","","html-keyboard-response",177,714033,0,"56ec151f388e1d000a5924d0","63f7687d6331319f6463a0d0","63f77480cf96a4787854b451",NaN,"","null",NaN,NaN,NaN,NaN,NaN,NaN,NaN,NaN,NaN,NaN,NaN,NaN,NaN,NaN,"fixation",NaN,NaN,NaN,NaN,1
"","","","","","color-precision",178,718588,0,"56ec151f388e1d000a5924d0","63f7687d6331319f6463a0d0","63f77480cf96a4787854b451",1743.29999999702,"","",4,95,95,331,60.5531885293251,60.5531885293251,89.5531885293251,88,0,0,1,0,14.6339999940246,1003.50199999707,"color",95,1000,331,4,1
"","","","","","html-keyboard-response",179,719094,0,"56ec151f388e1d000a5924d0","63f7687d6331319f6463a0d0","63f77480cf96a4787854b451",NaN,"","null",NaN,NaN,NaN,NaN,NaN,NaN,NaN,NaN,NaN,NaN,NaN,NaN,NaN,NaN,"fixation",NaN,NaN,NaN,NaN,1
"","","","","","color-precision",180,723444,0,"56ec151f388e1d000a5924d0","63f7687d6331319f6463a0d0","63f77480cf96a4787854b451",1698.5,"","",4,104,104,123,235.278615628311,235.278615628311,112.278615628311,113,0,0,1,0,14.8519999970449,994.519999996992,"color",104,1000,123,4,1
"","","","","","html-keyboard-response",181,723945,0,"56ec151f388e1d000a5924d0","63f7687d6331319f6463a0d0","63f77480cf96a4787854b451",NaN,"","null",NaN,NaN,NaN,NaN,NaN,NaN,NaN,NaN,NaN,NaN,NaN,NaN,NaN,NaN,"fixation",NaN,NaN,NaN,NaN,1
"","","","","","color-precision",182,730060,0,"56ec151f388e1d000a5924d0","63f7687d6331319f6463a0d0","63f77480cf96a4787854b451",3281.29999999702,"","",0,52,52,255,316.794145842473,316.794145842473,61.7941458424732,62,0,0,1,0,14.8649999969639,1008.13300000597,"color",52,1000,255,0,1
"","","","","","html-keyboard-response",183,730573,0,"56ec151f388e1d000a5924d0","63f7687d6331319f6463a0d0","63f77480cf96a4787854b451",NaN,"","null",NaN,NaN,NaN,NaN,NaN,NaN,NaN,NaN,NaN,NaN,NaN,NaN,NaN,NaN,"fixation",NaN,NaN,NaN,NaN,1
"","","","","","color-precision",184,739020,0,"56ec151f388e1d000a5924d0","63f7687d6331319f6463a0d0","63f77480cf96a4787854b451",5574.5,"","",4,62,62,239,304.857793068494,304.857793068494,65.8577930684938,66,0,0,1,0,15.9590000059688,1002.82699999399,"color",62,1000,239,4,1
"","","","","","html-keyboard-response",185,739522,0,"56ec151f388e1d000a5924d0","63f7687d6331319f6463a0d0","63f77480cf96a4787854b451",NaN,"","null",NaN,NaN,NaN,NaN,NaN,NaN,NaN,NaN,NaN,NaN,NaN,NaN,NaN,NaN,"fixation",NaN,NaN,NaN,NaN,1
"","","","","","color-precision",186,744548,0,"56ec151f388e1d000a5924d0","63f7687d6331319f6463a0d0","63f77480cf96a4787854b451",2385.59999999404,"","",1,346,346,95,99.015871017036,99.015871017036,4.01587101703602,2,0,0,1,0,14.5940000059782,993.361999999965,"color",346,1000,95,1,1
"","","","","","html-keyboard-response",187,745049,0,"56ec151f388e1d000a5924d0","63f7687d6331319f6463a0d0","63f77480cf96a4787854b451",NaN,"","null",NaN,NaN,NaN,NaN,NaN,NaN,NaN,NaN,NaN,NaN,NaN,NaN,NaN,NaN,"fixation",NaN,NaN,NaN,NaN,1
"","","","","","color-precision",188,751348,0,"56ec151f388e1d000a5924d0","63f7687d6331319f6463a0d0","63f77480cf96a4787854b451",2803.20000000298,"","",1,330,330,272,221.899899427713,221.899899427713,309.899899427713,310,0,0,1,0,14.7810000029858,991.949000002933,"color",330,1000,272,1,1
"","","","","","html-keyboard-response",189,751849,0,"56ec151f388e1d000a5924d0","63f7687d6331319f6463a0d0","63f77480cf96a4787854b451",NaN,"","null",NaN,NaN,NaN,NaN,NaN,NaN,NaN,NaN,NaN,NaN,NaN,NaN,NaN,NaN,"fixation",NaN,NaN,NaN,NaN,1
"","","","","","color-precision",190,757948,0,"56ec151f388e1d000a5924d0","63f7687d6331319f6463a0d0","63f77480cf96a4787854b451",3436.70000000298,"","",4,335,335,71,61.2075412502866,61.2075412502866,350.207541250287,349,0,0,1,0,14.7580000000307,1001.42599999998,"color",335,1000,71,4,1
"","","","","","html-keyboard-response",191,758458,0,"56ec151f388e1d000a5924d0","63f7687d6331319f6463a0d0","63f77480cf96a4787854b451",NaN,"","null",NaN,NaN,NaN,NaN,NaN,NaN,NaN,NaN,NaN,NaN,NaN,NaN,NaN,NaN,"fixation",NaN,NaN,NaN,NaN,1
"","","","","","color-precision",192,764164,0,"56ec151f388e1d000a5924d0","63f7687d6331319f6463a0d0","63f77480cf96a4787854b451",3001.59999999404,"","",0,137,137,188,343.911165035035,343.911165035035,155.911165035035,155,0,0,1,0,14.7559999970254,992.623999999953,"color",137,1000,188,0,1
"","","","","","html-keyboard-response",193,764665,0,"56ec151f388e1d000a5924d0","63f7687d6331319f6463a0d0","63f77480cf96a4787854b451",NaN,"","null",NaN,NaN,NaN,NaN,NaN,NaN,NaN,NaN,NaN,NaN,NaN,NaN,NaN,NaN,"fixation",NaN,NaN,NaN,NaN,1
"","","","","","color-precision",194,769820,0,"56ec151f388e1d000a5924d0","63f7687d6331319f6463a0d0","63f77480cf96a4787854b451",1808,"","",5,44,44,190,234.591146607966,234.591146607966,44.5911466079656,45,0,0,1,0,15.5459999970626,1005.21399999701,"color",44,1000,190,5,1
"","","","","","html-keyboard-response",195,770322,0,"56ec151f388e1d000a5924d0","63f7687d6331319f6463a0d0","63f77480cf96a4787854b451",NaN,"","null",NaN,NaN,NaN,NaN,NaN,NaN,NaN,NaN,NaN,NaN,NaN,NaN,NaN,NaN,"fixation",NaN,NaN,NaN,NaN,1
"","","","","","color-precision",196,774860,0,"56ec151f388e1d000a5924d0","63f7687d6331319f6463a0d0","63f77480cf96a4787854b451",1782.20000000298,"","",5,222,222,20,254.576196094827,254.576196094827,234.576196094827,235,0,0,1,0,14.7779999970226,1000.84600000293,"color",222,1000,20,5,1
"","","","","","html-keyboard-response",197,775361,0,"56ec151f388e1d000a5924d0","63f7687d6331319f6463a0d0","63f77480cf96a4787854b451",NaN,"","null",NaN,NaN,NaN,NaN,NaN,NaN,NaN,NaN,NaN,NaN,NaN,NaN,NaN,NaN,"fixation",NaN,NaN,NaN,NaN,1
"","","","","","color-precision",198,780156,0,"56ec151f388e1d000a5924d0","63f7687d6331319f6463a0d0","63f77480cf96a4787854b451",1977.59999999404,"","",1,243,243,136,8.78214267313237,8.78214267313237,232.782142673132,232,0,0,1,0,14.8540000029607,994.322000000044,"color",243,1000,136,1,1
"","","","","","html-keyboard-response",199,780657,0,"56ec151f388e1d000a5924d0","63f7687d6331319f6463a0d0","63f77480cf96a4787854b451",NaN,"","null",NaN,NaN,NaN,NaN,NaN,NaN,NaN,NaN,NaN,NaN,NaN,NaN,NaN,NaN,"fixation",NaN,NaN,NaN,NaN,1
"","","","","","color-precision",200,785276,0,"56ec151f388e1d000a5924d0","63f7687d6331319f6463a0d0","63f77480cf96a4787854b451",1781.20000000298,"","",4,339,339,306,276.411849464262,276.411849464262,330.411849464262,331,0,0,1,0,15.6989999940852,1004.96700000297,"color",339,1000,306,4,1
"","","","","","html-keyboard-response",201,785778,0,"56ec151f388e1d000a5924d0","63f7687d6331319f6463a0d0","63f77480cf96a4787854b451",NaN,"","null",NaN,NaN,NaN,NaN,NaN,NaN,NaN,NaN,NaN,NaN,NaN,NaN,NaN,NaN,"fixation",NaN,NaN,NaN,NaN,1
"","","","","","color-precision",202,791124,0,"56ec151f388e1d000a5924d0","63f7687d6331319f6463a0d0","63f77480cf96a4787854b451",2179.39999999106,"","",4,16,16,51,63.1356934751635,63.1356934751635,12.1356934751635,10,0,0,1,0,14.4219999969937,992.190000005998,"color",16,1000,51,4,1
"","","","","","html-keyboard-response",203,791625,0,"56ec151f388e1d000a5924d0","63f7687d6331319f6463a0d0","63f77480cf96a4787854b451",NaN,"","null",NaN,NaN,NaN,NaN,NaN,NaN,NaN,NaN,NaN,NaN,NaN,NaN,NaN,NaN,"fixation",NaN,NaN,NaN,NaN,1
"","","","","","color-precision",204,796476,0,"56ec151f388e1d000a5924d0","63f7687d6331319f6463a0d0","63f77480cf96a4787854b451",1897.5,"","",5,183,183,219,38.3097086724886,38.3097086724886,179.309708672489,179,0,0,1,0,14.6059999940917,1002.674,"color",183,1000,219,5,1
"","","","","","html-keyboard-response",205,796978,0,"56ec151f388e1d000a5924d0","63f7687d6331319f6463a0d0","63f77480cf96a4787854b451",NaN,"","null",NaN,NaN,NaN,NaN,NaN,NaN,NaN,NaN,NaN,NaN,NaN,NaN,NaN,NaN,"fixation",NaN,NaN,NaN,NaN,1
"","","","","","color-precision",206,802804,0,"56ec151f388e1d000a5924d0","63f7687d6331319f6463a0d0","63f77480cf96a4787854b451",2408.89999999106,"","",1,356,356,296,286.598617406041,286.598617406041,350.598617406041,351,0,0,1,0,14.6319999970729,1006.09999999404,"color",356,1000,296,1,1
"","","","","","html-keyboard-response",207,803307,0,"56ec151f388e1d000a5924d0","63f7687d6331319f6463a0d0","63f77480cf96a4787854b451",NaN,"","null",NaN,NaN,NaN,NaN,NaN,NaN,NaN,NaN,NaN,NaN,NaN,NaN,NaN,NaN,"fixation",NaN,NaN,NaN,NaN,1
"","","","","","color-precision",208,808436,0,"56ec151f388e1d000a5924d0","63f7687d6331319f6463a0d0","63f77480cf96a4787854b451",1790.59999999404,"","",3,146,146,222,16.110179242485,16.110179242485,154.110179242485,153,0,0,1,0,15.0539999969769,996.122000003001,"color",146,1000,222,3,1
"","","","","","html-keyboard-response",209,810860,0,"56ec151f388e1d000a5924d0","63f7687d6331319f6463a0d0","63f77480cf96a4787854b451",2423.20000000298,"Wow! You've completed 100 out of 361 trials! </p> <p>  </p><p> Take a quick break, then press any key when you're ready to continue."," ",NaN,NaN,NaN,NaN,NaN,NaN,NaN,NaN,NaN,NaN,NaN,NaN,NaN,NaN,"fixation",NaN,NaN,NaN,NaN,1
"","","","","","color-precision",210,817164,0,"56ec151f388e1d000a5924d0","63f7687d6331319f6463a0d0","63f77480cf96a4787854b451",1418.79999999702,"","",1,325,325,327,291.962009880065,291.962009880065,324.962009880065,325,0,0,1,0,15.8749999940628,996.14300000295,"color",325,1000,327,1,1
"","","","","","html-keyboard-response",211,817666,0,"56ec151f388e1d000a5924d0","63f7687d6331319f6463a0d0","63f77480cf96a4787854b451",NaN,"","null",NaN,NaN,NaN,NaN,NaN,NaN,NaN,NaN,NaN,NaN,NaN,NaN,NaN,NaN,"fixation",NaN,NaN,NaN,NaN,1
"","","","","","color-precision",212,822700,0,"56ec151f388e1d000a5924d0","63f7687d6331319f6463a0d0","63f77480cf96a4787854b451",1953.59999999404,"","",4,165,165,65,233.751754347946,233.751754347946,168.751754347946,169,0,0,1,0,15.457999994047,1007.62599999399,"color",165,1000,65,4,1
"","","","","","html-keyboard-response",213,823200,0,"56ec151f388e1d000a5924d0","63f7687d6331319f6463a0d0","63f77480cf96a4787854b451",NaN,"","null",NaN,NaN,NaN,NaN,NaN,NaN,NaN,NaN,NaN,NaN,NaN,NaN,NaN,NaN,"fixation",NaN,NaN,NaN,NaN,1
"","","","","","color-precision",214,828404,0,"56ec151f388e1d000a5924d0","63f7687d6331319f6463a0d0","63f77480cf96a4787854b451",1991.59999999404,"","",2,178,178,277,101.574294622293,101.574294622293,184.574294622293,183,0,0,1,0,15.5570000000298,996.125000005937,"color",178,1000,277,2,1
"","","","","","html-keyboard-response",215,828905,0,"56ec151f388e1d000a5924d0","63f7687d6331319f6463a0d0","63f77480cf96a4787854b451",NaN,"","null",NaN,NaN,NaN,NaN,NaN,NaN,NaN,NaN,NaN,NaN,NaN,NaN,NaN,NaN,"fixation",NaN,NaN,NaN,NaN,1
"","","","","","color-precision",216,835172,0,"56ec151f388e1d000a5924d0","63f7687d6331319f6463a0d0","63f77480cf96a4787854b451",1493.5,"","",4,116,116,293,49.6626528193836,49.6626528193836,116.662652819384,116,0,0,1,0,15.9530000030063,996.020999994013,"color",116,1000,293,4,1
"","","","","","html-keyboard-response",217,835676,0,"56ec151f388e1d000a5924d0","63f7687d6331319f6463a0d0","63f77480cf96a4787854b451",NaN,"","null",NaN,NaN,NaN,NaN,NaN,NaN,NaN,NaN,NaN,NaN,NaN,NaN,NaN,NaN,"fixation",NaN,NaN,NaN,NaN,1
"","","","","","color-precision",218,842245,0,"56ec151f388e1d000a5924d0","63f7687d6331319f6463a0d0","63f77480cf96a4787854b451",3682.29999999702,"","",4,132,132,317,112.812194929094,112.812194929094,155.812194929094,154,0,0,1,0,15.661999994074,998.329999994021,"color",132,1000,317,4,1
"","","","","","html-keyboard-response",219,842747,0,"56ec151f388e1d000a5924d0","63f7687d6331319f6463a0d0","63f77480cf96a4787854b451",NaN,"","null",NaN,NaN,NaN,NaN,NaN,NaN,NaN,NaN,NaN,NaN,NaN,NaN,NaN,NaN,"fixation",NaN,NaN,NaN,NaN,1
"","","","","","color-precision",220,847364,0,"56ec151f388e1d000a5924d0","63f7687d6331319f6463a0d0","63f77480cf96a4787854b451",1952.20000000298,"","",5,132,132,74,224.693658020901,224.693658020901,150.693658020901,150,0,0,1,0,14.8959999970393,997.464000002947,"color",132,1000,74,5,1
"","","","","","html-keyboard-response",221,847865,0,"56ec151f388e1d000a5924d0","63f7687d6331319f6463a0d0","63f77480cf96a4787854b451",NaN,"","null",NaN,NaN,NaN,NaN,NaN,NaN,NaN,NaN,NaN,NaN,NaN,NaN,NaN,NaN,"fixation",NaN,NaN,NaN,NaN,1
"","","","","","color-precision",222,852756,0,"56ec151f388e1d000a5924d0","63f7687d6331319f6463a0d0","63f77480cf96a4787854b451",1993.29999999702,"","",1,43,43,73,126.775902676888,126.775902676888,53.7759026768879,52,0,0,1,0,14.9229999970412,993.491000002949,"color",43,1000,73,1,1
"","","","","","html-keyboard-response",223,853257,0,"56ec151f388e1d000a5924d0","63f7687d6331319f6463a0d0","63f77480cf96a4787854b451",NaN,"","null",NaN,NaN,NaN,NaN,NaN,NaN,NaN,NaN,NaN,NaN,NaN,NaN,NaN,NaN,"fixation",NaN,NaN,NaN,NaN,1
"","","","","","color-precision",224,857579,0,"56ec151f388e1d000a5924d0","63f7687d6331319f6463a0d0","63f77480cf96a4787854b451",1484.5,"","",5,118,118,354,107.48243092181,107.48243092181,113.48243092181,112,0,0,1,0,15.0750000029802,1003.44300000591,"color",118,1000,354,5,1
"","","","","","html-keyboard-response",225,858081,0,"56ec151f388e1d000a5924d0","63f7687d6331319f6463a0d0","63f77480cf96a4787854b451",NaN,"","null",NaN,NaN,NaN,NaN,NaN,NaN,NaN,NaN,NaN,NaN,NaN,NaN,NaN,NaN,"fixation",NaN,NaN,NaN,NaN,1
"","","","","","color-precision",226,863044,0,"56ec151f388e1d000a5924d0","63f7687d6331319f6463a0d0","63f77480cf96a4787854b451",1931.59999999404,"","",3,96,96,107,211.167891388067,211.167891388067,104.167891388067,104,0,0,1,0,15.2749999969965,1006.14300000004,"color",96,1000,107,3,1
"","","","","","html-keyboard-response",227,863546,0,"56ec151f388e1d000a5924d0","63f7687d6331319f6463a0d0","63f77480cf96a4787854b451",NaN,"","null",NaN,NaN,NaN,NaN,NaN,NaN,NaN,NaN,NaN,NaN,NaN,NaN,NaN,NaN,"fixation",NaN,NaN,NaN,NaN,1
"","","","","","color-precision",228,868324,0,"56ec151f388e1d000a5924d0","63f7687d6331319f6463a0d0","63f77480cf96a4787854b451",1362.09999999404,"","",0,118,118,9,109.475449536116,109.475449536116,100.475449536116,99,0,0,1,0,15.7529999969993,1003.62100000004,"color",118,1000,9,0,1
"","","","","","html-keyboard-response",229,868826,0,"56ec151f388e1d000a5924d0","63f7687d6331319f6463a0d0","63f77480cf96a4787854b451",NaN,"","null",NaN,NaN,NaN,NaN,NaN,NaN,NaN,NaN,NaN,NaN,NaN,NaN,NaN,NaN,"fixation",NaN,NaN,NaN,NaN,1
"","","","","","color-precision",230,873220,0,"56ec151f388e1d000a5924d0","63f7687d6331319f6463a0d0","63f77480cf96a4787854b451",1607.70000000298,"","",4,343,343,244,221.107959930536,221.107959930536,337.107959930536,337,0,0,1,0,14.9079999970272,991.875999993994,"color",343,1000,244,4,1
"","","","","","html-keyboard-response",231,873736,0,"56ec151f388e1d000a5924d0","63f7687d6331319f6463a0d0","63f77480cf96a4787854b451",NaN,"","null",NaN,NaN,NaN,NaN,NaN,NaN,NaN,NaN,NaN,NaN,NaN,NaN,NaN,NaN,"fixation",NaN,NaN,NaN,NaN,1
"","","","","","color-precision",232,878964,0,"56ec151f388e1d000a5924d0","63f7687d6331319f6463a0d0","63f77480cf96a4787854b451",2068.89999999106,"","",2,30,30,195,229.651154690697,229.651154690697,34.6511546906974,35,0,0,1,0,15.4790000029607,996.746999997064,"color",30,1000,195,2,1
"","","","","","html-keyboard-response",233,879476,0,"56ec151f388e1d000a5924d0","63f7687d6331319f6463a0d0","63f77480cf96a4787854b451",NaN,"","null",NaN,NaN,NaN,NaN,NaN,NaN,NaN,NaN,NaN,NaN,NaN,NaN,NaN,NaN,"fixation",NaN,NaN,NaN,NaN,1
"","","","","","color-precision",234,884355,0,"56ec151f388e1d000a5924d0","63f7687d6331319f6463a0d0","63f77480cf96a4787854b451",1859.60000000894,"","",0,346,346,132,135.307385447032,135.307385447032,3.30738544703178,2,0,0,1,0,15.5289999940433,997.797000002931,"color",346,1000,132,0,1
"","","","","","html-keyboard-response",235,884857,0,"56ec151f388e1d000a5924d0","63f7687d6331319f6463a0d0","63f77480cf96a4787854b451",NaN,"","null",NaN,NaN,NaN,NaN,NaN,NaN,NaN,NaN,NaN,NaN,NaN,NaN,NaN,NaN,"fixation",NaN,NaN,NaN,NaN,1
"","","","","","color-precision",236,889868,0,"56ec151f388e1d000a5924d0","63f7687d6331319f6463a0d0","63f77480cf96a4787854b451",1905.20000000298,"","",2,317,317,133,82.7044151883501,82.7044151883501,309.70441518835,308,0,0,1,0,13.6340000029886,1001.00200000592,"color",317,1000,133,2,1
"","","","","","html-keyboard-response",237,890369,0,"56ec151f388e1d000a5924d0","63f7687d6331319f6463a0d0","63f77480cf96a4787854b451",NaN,"","null",NaN,NaN,NaN,NaN,NaN,NaN,NaN,NaN,NaN,NaN,NaN,NaN,NaN,NaN,"fixation",NaN,NaN,NaN,NaN,1
"","","","","","color-precision",238,894292,0,"56ec151f388e1d000a5924d0","63f7687d6331319f6463a0d0","63f77480cf96a4787854b451",1112.59999999404,"","",3,201,201,114,322.287491817749,322.287491817749,208.287491817749,208,0,0,1,0,14.5120000059251,1005.07999999705,"color",201,1000,114,3,1
"","","","","","html-keyboard-response",239,894794,0,"56ec151f388e1d000a5924d0","63f7687d6331319f6463a0d0","63f77480cf96a4787854b451",NaN,"","null",NaN,NaN,NaN,NaN,NaN,NaN,NaN,NaN,NaN,NaN,NaN,NaN,NaN,NaN,"fixation",NaN,NaN,NaN,NaN,1
"","","","","","color-precision",240,898948,0,"56ec151f388e1d000a5924d0","63f7687d6331319f6463a0d0","63f77480cf96a4787854b451",1369.5,"","",5,174,174,252,58.4012787459653,58.4012787459653,166.401278745965,165,0,0,1,0,15.722999994061,1008.29099999997,"color",174,1000,252,5,1
"","","","","","html-keyboard-response",241,899449,0,"56ec151f388e1d000a5924d0","63f7687d6331319f6463a0d0","63f77480cf96a4787854b451",NaN,"","null",NaN,NaN,NaN,NaN,NaN,NaN,NaN,NaN,NaN,NaN,NaN,NaN,NaN,NaN,"fixation",NaN,NaN,NaN,NaN,1
"","","","","","color-precision",242,904252,0,"56ec151f388e1d000a5924d0","63f7687d6331319f6463a0d0","63f77480cf96a4787854b451",1756.69999998808,"","",3,311,311,125,74.0555826131468,74.0555826131468,309.055582613147,307,0,0,1,0,14.8909999940079,994.859000005992,"color",311,1000,125,3,1
"","","","","","html-keyboard-response",243,904754,0,"56ec151f388e1d000a5924d0","63f7687d6331319f6463a0d0","63f77480cf96a4787854b451",NaN,"","null",NaN,NaN,NaN,NaN,NaN,NaN,NaN,NaN,NaN,NaN,NaN,NaN,NaN,NaN,"fixation",NaN,NaN,NaN,NaN,1
"","","","","","color-precision",244,909981,0,"56ec151f388e1d000a5924d0","63f7687d6331319f6463a0d0","63f77480cf96a4787854b451",2602.09999999404,"","",0,228,228,228,91.5927301120545,91.5927301120545,223.592730112054,222,0,0,1,0,15.9790000029607,1008.14700000302,"color",228,1000,228,0,1
"","","","","","html-keyboard-response",245,910482,0,"56ec151f388e1d000a5924d0","63f7687d6331319f6463a0d0","63f77480cf96a4787854b451",NaN,"","null",NaN,NaN,NaN,NaN,NaN,NaN,NaN,NaN,NaN,NaN,NaN,NaN,NaN,NaN,"fixation",NaN,NaN,NaN,NaN,1
"","","","","","color-precision",246,914236,0,"56ec151f388e1d000a5924d0","63f7687d6331319f6463a0d0","63f77480cf96a4787854b451",1124.39999999106,"","",0,162,162,216,9.74301233821474,9.74301233821474,153.743012338215,153,0,0,1,0,15.4690000059782,992.236999999965,"color",162,1000,216,0,1
"","","","","","html-keyboard-response",247,914737,0,"56ec151f388e1d000a5924d0","63f7687d6331319f6463a0d0","63f77480cf96a4787854b451",NaN,"","null",NaN,NaN,NaN,NaN,NaN,NaN,NaN,NaN,NaN,NaN,NaN,NaN,NaN,NaN,"fixation",NaN,NaN,NaN,NaN,1
"","","","","","color-precision",248,920844,0,"56ec151f388e1d000a5924d0","63f7687d6331319f6463a0d0","63f77480cf96a4787854b451",2581.29999999702,"","",1,307,307,186,140.540595758948,140.540595758948,314.540595758948,313,0,0,1,0,15.2440000029746,1007.71200000006,"color",307,1000,186,1,1
"","","","","","html-keyboard-response",249,962183,0,"56ec151f388e1d000a5924d0","63f7687d6331319f6463a0d0","63f77480cf96a4787854b451",41337.799999997,"Wow! You've completed 120 out of 361 trials! </p> <p>  </p><p> Take a quick break, then press any key when you're ready to continue."," ",NaN,NaN,NaN,NaN,NaN,NaN,NaN,NaN,NaN,NaN,NaN,NaN,NaN,NaN,"fixation",NaN,NaN,NaN,NaN,1
"","","","","","color-precision",250,967924,0,"56ec151f388e1d000a5924d0","63f7687d6331319f6463a0d0","63f77480cf96a4787854b451",1695.39999999106,"","",3,304,304,197,146.472614619722,146.472614619722,309.472614619722,308,0,0,1,0,15.8709999939892,1001.73899999703,"color",304,1000,197,3,1
"","","","","","html-keyboard-response",251,968427,0,"56ec151f388e1d000a5924d0","63f7687d6331319f6463a0d0","63f77480cf96a4787854b451",NaN,"","null",NaN,NaN,NaN,NaN,NaN,NaN,NaN,NaN,NaN,NaN,NaN,NaN,NaN,NaN,"fixation",NaN,NaN,NaN,NaN,1
"","","","","","color-precision",252,972676,0,"56ec151f388e1d000a5924d0","63f7687d6331319f6463a0d0","63f77480cf96a4787854b451",1213.69999998808,"","",5,249,249,303,202.144815344626,202.144815344626,259.144815344626,259,0,0,1,0,15.1389999940293,1005.00699999707,"color",249,1000,303,5,1
"","","","","","html-keyboard-response",253,973177,0,"56ec151f388e1d000a5924d0","63f7687d6331319f6463a0d0","63f77480cf96a4787854b451",NaN,"","null",NaN,NaN,NaN,NaN,NaN,NaN,NaN,NaN,NaN,NaN,NaN,NaN,NaN,NaN,"fixation",NaN,NaN,NaN,NaN,1
"","","","","","color-precision",254,978204,0,"56ec151f388e1d000a5924d0","63f7687d6331319f6463a0d0","63f77480cf96a4787854b451",2042.40000000596,"","",2,229,229,51,273.519819699439,273.519819699439,222.519819699439,223,0,0,1,0,15.6690000059316,995.137000003015,"color",229,1000,51,2,1
"","","","","","html-keyboard-response",255,978706,0,"56ec151f388e1d000a5924d0","63f7687d6331319f6463a0d0","63f77480cf96a4787854b451",NaN,"","null",NaN,NaN,NaN,NaN,NaN,NaN,NaN,NaN,NaN,NaN,NaN,NaN,NaN,NaN,"fixation",NaN,NaN,NaN,NaN,1
"","","","","","color-precision",256,984108,0,"56ec151f388e1d000a5924d0","63f7687d6331319f6463a0d0","63f77480cf96a4787854b451",2712.90000000596,"","",3,197,197,70,274.184401679275,274.184401679275,204.184401679275,204,0,0,1,0,15.4109999999637,1002.87899999705,"color",197,1000,70,3,1
"","","","","","html-keyboard-response",257,984609,0,"56ec151f388e1d000a5924d0","63f7687d6331319f6463a0d0","63f77480cf96a4787854b451",NaN,"","null",NaN,NaN,NaN,NaN,NaN,NaN,NaN,NaN,NaN,NaN,NaN,NaN,NaN,NaN,"fixation",NaN,NaN,NaN,NaN,1
"","","","","","color-precision",258,989020,0,"56ec151f388e1d000a5924d0","63f7687d6331319f6463a0d0","63f77480cf96a4787854b451",1757.70000000298,"","",2,354,354,117,128.220434719626,128.220434719626,11.2204347196264,9,0,0,1,0,15.8819999940461,998.650000002934,"color",354,1000,117,2,1
"","","","","","html-keyboard-response",259,989520,0,"56ec151f388e1d000a5924d0","63f7687d6331319f6463a0d0","63f77480cf96a4787854b451",NaN,"","null",NaN,NaN,NaN,NaN,NaN,NaN,NaN,NaN,NaN,NaN,NaN,NaN,NaN,NaN,"fixation",NaN,NaN,NaN,NaN,1
"","","","","","color-precision",260,995772,0,"56ec151f388e1d000a5924d0","63f7687d6331319f6463a0d0","63f77480cf96a4787854b451",3009.90000000596,"","",2,169,169,138,302.776572983124,302.776572983124,164.776572983124,165,0,0,1,0,14.5180000059772,1000.885999994,"color",169,1000,138,2,1
"","","","","","html-keyboard-response",261,996281,0,"56ec151f388e1d000a5924d0","63f7687d6331319f6463a0d0","63f77480cf96a4787854b451",NaN,"","null",NaN,NaN,NaN,NaN,NaN,NaN,NaN,NaN,NaN,NaN,NaN,NaN,NaN,NaN,"fixation",NaN,NaN,NaN,NaN,1
"","","","","","color-precision",262,1000084,0,"56ec151f388e1d000a5924d0","63f7687d6331319f6463a0d0","63f77480cf96a4787854b451",1104.5,"","",3,265,265,183,87.1099218750367,87.1099218750367,264.109921875037,262,0,0,1,0,14.7319999970496,1006.00000000594,"color",265,1000,183,3,1
"","","","","","html-keyboard-response",263,1000598,0,"56ec151f388e1d000a5924d0","63f7687d6331319f6463a0d0","63f77480cf96a4787854b451",NaN,"","null",NaN,NaN,NaN,NaN,NaN,NaN,NaN,NaN,NaN,NaN,NaN,NaN,NaN,NaN,"fixation",NaN,NaN,NaN,NaN,1
"","","","","","color-precision",264,1006245,0,"56ec151f388e1d000a5924d0","63f7687d6331319f6463a0d0","63f77480cf96a4787854b451",2599,"","",5,14,14,112,131.626155721158,131.626155721158,19.6261557211581,18,0,0,1,0,15.3889999999665,1005.05700000003,"color",14,1000,112,5,1
"","","","","","html-keyboard-response",265,1006746,0,"56ec151f388e1d000a5924d0","63f7687d6331319f6463a0d0","63f77480cf96a4787854b451",NaN,"","null",NaN,NaN,NaN,NaN,NaN,NaN,NaN,NaN,NaN,NaN,NaN,NaN,NaN,NaN,"fixation",NaN,NaN,NaN,NaN,1
"","","","","","color-precision",266,1012724,0,"56ec151f388e1d000a5924d0","63f7687d6331319f6463a0d0","63f77480cf96a4787854b451",3295.29999999702,"","",4,16,16,143,152.467187663504,152.467187663504,9.46718766350372,8,0,0,1,0,14.7700000059558,999.738000002922,"color",16,1000,143,4,1
"","","","","","html-keyboard-response",267,1013226,0,"56ec151f388e1d000a5924d0","63f7687d6331319f6463a0d0","63f77480cf96a4787854b451",NaN,"","null",NaN,NaN,NaN,NaN,NaN,NaN,NaN,NaN,NaN,NaN,NaN,NaN,NaN,NaN,"fixation",NaN,NaN,NaN,NaN,1
"","","","","","color-precision",268,1018332,0,"56ec151f388e1d000a5924d0","63f7687d6331319f6463a0d0","63f77480cf96a4787854b451",1986.10000000894,"","",2,93,93,325,53.0902679889693,53.0902679889693,88.0902679889692,86,0,0,1,0,14.7690000029979,992.937000002945,"color",93,1000,325,2,1
"","","","","","html-keyboard-response",269,1018841,0,"56ec151f388e1d000a5924d0","63f7687d6331319f6463a0d0","63f77480cf96a4787854b451",NaN,"","null",NaN,NaN,NaN,NaN,NaN,NaN,NaN,NaN,NaN,NaN,NaN,NaN,NaN,NaN,"fixation",NaN,NaN,NaN,NaN,1
"","","","","","color-precision",270,1025492,0,"56ec151f388e1d000a5924d0","63f7687d6331319f6463a0d0","63f77480cf96a4787854b451",2146.60000000894,"","",2,228,228,113,338.882725181583,338.882725181583,225.882725181583,225,0,0,1,0,14.1339999940246,999.301999994088,"color",228,1000,113,2,1
"","","","","","html-keyboard-response",271,1025994,0,"56ec151f388e1d000a5924d0","63f7687d6331319f6463a0d0","63f77480cf96a4787854b451",NaN,"","null",NaN,NaN,NaN,NaN,NaN,NaN,NaN,NaN,NaN,NaN,NaN,NaN,NaN,NaN,"fixation",NaN,NaN,NaN,NaN,1
"","","","","","color-precision",272,1032356,0,"56ec151f388e1d000a5924d0","63f7687d6331319f6463a0d0","63f77480cf96a4787854b451",2627.29999999702,"","",5,342,342,266,258.641745918719,258.641745918719,352.641745918719,353,0,0,1,0,15.4490000029327,1001.117000003,"color",342,1000,266,5,1
"","","","","","html-keyboard-response",273,1032858,0,"56ec151f388e1d000a5924d0","63f7687d6331319f6463a0d0","63f77480cf96a4787854b451",NaN,"","null",NaN,NaN,NaN,NaN,NaN,NaN,NaN,NaN,NaN,NaN,NaN,NaN,NaN,NaN,"fixation",NaN,NaN,NaN,NaN,1
"","","","","","color-precision",274,1038548,0,"56ec151f388e1d000a5924d0","63f7687d6331319f6463a0d0","63f77480cf96a4787854b451",2685.29999999702,"","",5,343,343,213,207.106021150138,207.106021150138,354.106021150138,354,0,0,1,0,15.5450000029523,996.513000000035,"color",343,1000,213,5,1
"","","","","","html-keyboard-response",275,1039050,0,"56ec151f388e1d000a5924d0","63f7687d6331319f6463a0d0","63f77480cf96a4787854b451",NaN,"","null",NaN,NaN,NaN,NaN,NaN,NaN,NaN,NaN,NaN,NaN,NaN,NaN,NaN,NaN,"fixation",NaN,NaN,NaN,NaN,1
"","","","","","color-precision",276,1045348,0,"56ec151f388e1d000a5924d0","63f7687d6331319f6463a0d0","63f77480cf96a4787854b451",2586.20000000298,"","",0,331,331,242,234.542966018279,234.542966018279,352.542966018279,353,0,0,1,0,14.7309999940917,999.898999994039,"color",331,1000,242,0,1
"","","","","","html-keyboard-response",277,1045849,0,"56ec151f388e1d000a5924d0","63f7687d6331319f6463a0d0","63f77480cf96a4787854b451",NaN,"","null",NaN,NaN,NaN,NaN,NaN,NaN,NaN,NaN,NaN,NaN,NaN,NaN,NaN,NaN,"fixation",NaN,NaN,NaN,NaN,1
"","","","","","color-precision",278,1051012,0,"56ec151f388e1d000a5924d0","63f7687d6331319f6463a0d0","63f77480cf96a4787854b451",1198.5,"","",1,162,162,311,106.706038643635,106.706038643635,155.706038643635,154,0,0,1,0,14.6579999970272,991.926000006031,"color",162,1000,311,1,1
"","","","","","html-keyboard-response",279,1051513,0,"56ec151f388e1d000a5924d0","63f7687d6331319f6463a0d0","63f77480cf96a4787854b451",NaN,"","null",NaN,NaN,NaN,NaN,NaN,NaN,NaN,NaN,NaN,NaN,NaN,NaN,NaN,NaN,"fixation",NaN,NaN,NaN,NaN,1
"","","","","","color-precision",280,1055108,0,"56ec151f388e1d000a5924d0","63f7687d6331319f6463a0d0","63f77480cf96a4787854b451",695.5,"","",5,187,187,245,71.5405662091768,71.5405662091768,186.540566209177,184,0,0,1,0,13.7589999940246,1000.72700000601,"color",187,1000,245,5,1
"","","","","","html-keyboard-response",281,1055610,0,"56ec151f388e1d000a5924d0","63f7687d6331319f6463a0d0","63f77480cf96a4787854b451",NaN,"","null",NaN,NaN,NaN,NaN,NaN,NaN,NaN,NaN,NaN,NaN,NaN,NaN,NaN,NaN,"fixation",NaN,NaN,NaN,NaN,1
"","","","","","color-precision",282,1060916,0,"56ec151f388e1d000a5924d0","63f7687d6331319f6463a0d0","63f77480cf96a4787854b451",2536.89999999106,"","",3,98,98,300,43.3898241380863,43.3898241380863,103.389824138086,102,0,0,1,0,13.9270000059623,998.395000003045,"color",98,1000,300,3,1
"","","","","","html-keyboard-response",283,1061418,0,"56ec151f388e1d000a5924d0","63f7687d6331319f6463a0d0","63f77480cf96a4787854b451",NaN,"","null",NaN,NaN,NaN,NaN,NaN,NaN,NaN,NaN,NaN,NaN,NaN,NaN,NaN,NaN,"fixation",NaN,NaN,NaN,NaN,1
"","","","","","color-precision",284,1065764,0,"56ec151f388e1d000a5924d0","63f7687d6331319f6463a0d0","63f77480cf96a4787854b451",1601.5,"","",5,282,282,154,76.1204682053107,76.1204682053107,282.120468205311,282,0,0,1,0,15.3739999940153,1006.64200000302,"color",282,1000,154,5,1
"","","","","","html-keyboard-response",285,1066271,0,"56ec151f388e1d000a5924d0","63f7687d6331319f6463a0d0","63f77480cf96a4787854b451",NaN,"","null",NaN,NaN,NaN,NaN,NaN,NaN,NaN,NaN,NaN,NaN,NaN,NaN,NaN,NaN,"fixation",NaN,NaN,NaN,NaN,1
"","","","","","color-precision",286,1071716,0,"56ec151f388e1d000a5924d0","63f7687d6331319f6463a0d0","63f77480cf96a4787854b451",2620.19999998808,"","",1,10,10,338,335.82277918175,335.82277918175,357.82277918175,358,0,0,1,0,15.627000000095,991.995000002906,"color",10,1000,338,1,1
"","","","","","html-keyboard-response",287,1072217,0,"56ec151f388e1d000a5924d0","63f7687d6331319f6463a0d0","63f77480cf96a4787854b451",NaN,"","null",NaN,NaN,NaN,NaN,NaN,NaN,NaN,NaN,NaN,NaN,NaN,NaN,NaN,NaN,"fixation",NaN,NaN,NaN,NaN,1
"","","","","","color-precision",288,1077860,0,"56ec151f388e1d000a5924d0","63f7687d6331319f6463a0d0","63f77480cf96a4787854b451",2480,"","",3,315,315,205,172.262442221777,172.262442221777,327.262442221777,326,0,0,1,0,15.450000006007,991.91800000309,"color",315,1000,205,3,1
"","","","","","html-keyboard-response",289,1079412,0,"56ec151f388e1d000a5924d0","63f7687d6331319f6463a0d0","63f77480cf96a4787854b451",1551.09999999404,"Wow! You've completed 140 out of 361 trials! </p> <p>  </p><p> Take a quick break, then press any key when you're ready to continue."," ",NaN,NaN,NaN,NaN,NaN,NaN,NaN,NaN,NaN,NaN,NaN,NaN,NaN,NaN,"fixation",NaN,NaN,NaN,NaN,1
"","","","","","color-precision",290,1085292,0,"56ec151f388e1d000a5924d0","63f7687d6331319f6463a0d0","63f77480cf96a4787854b451",1195.5,"","",3,169,169,204,5.46962799265774,5.46962799265774,161.469627992658,161,0,0,1,0,14.14699999406,1002.61500000604,"color",169,1000,204,3,1
"","","","","","html-keyboard-response",291,1085794,0,"56ec151f388e1d000a5924d0","63f7687d6331319f6463a0d0","63f77480cf96a4787854b451",NaN,"","null",NaN,NaN,NaN,NaN,NaN,NaN,NaN,NaN,NaN,NaN,NaN,NaN,NaN,NaN,"fixation",NaN,NaN,NaN,NaN,1
"","","","","","color-precision",292,1090084,0,"56ec151f388e1d000a5924d0","63f7687d6331319f6463a0d0","63f77480cf96a4787854b451",1555,"","",5,246,246,92,338.985536955582,338.985536955582,246.985536955582,247,0,0,1,0,15.2800000058487,1001.74800000293,"color",246,1000,92,5,1
"","","","","","html-keyboard-response",293,1090585,0,"56ec151f388e1d000a5924d0","63f7687d6331319f6463a0d0","63f77480cf96a4787854b451",NaN,"","null",NaN,NaN,NaN,NaN,NaN,NaN,NaN,NaN,NaN,NaN,NaN,NaN,NaN,NaN,"fixation",NaN,NaN,NaN,NaN,1
"","","","","","color-precision",294,1095796,0,"56ec151f388e1d000a5924d0","63f7687d6331319f6463a0d0","63f77480cf96a4787854b451",2334,"","",3,110,110,33,148.295660907103,148.295660907103,115.295660907103,114,0,0,1,0,14.2229999969713,999.291000002995,"color",110,1000,33,3,1
"","","","","","html-keyboard-response",295,1096297,0,"56ec151f388e1d000a5924d0","63f7687d6331319f6463a0d0","63f77480cf96a4787854b451",NaN,"","null",NaN,NaN,NaN,NaN,NaN,NaN,NaN,NaN,NaN,NaN,NaN,NaN,NaN,NaN,"fixation",NaN,NaN,NaN,NaN,1
"","","","","","color-precision",296,1100204,0,"56ec151f388e1d000a5924d0","63f7687d6331319f6463a0d0","63f77480cf96a4787854b451",891,"","",1,51,51,52,105.140590609859,105.140590609859,53.140590609859,51,0,0,1,0,14.9220000000205,994.090000000084,"color",51,1000,52,1,1
"","","","","","html-keyboard-response",297,1100705,0,"56ec151f388e1d000a5924d0","63f7687d6331319f6463a0d0","63f77480cf96a4787854b451",NaN,"","null",NaN,NaN,NaN,NaN,NaN,NaN,NaN,NaN,NaN,NaN,NaN,NaN,NaN,NaN,"fixation",NaN,NaN,NaN,NaN,1
"","","","","","color-precision",298,1104940,0,"56ec151f388e1d000a5924d0","63f7687d6331319f6463a0d0","63f77480cf96a4787854b451",1428,"","",0,35,35,319,352.225630853315,352.225630853315,33.2256308533149,33,0,0,1,0,15.441000000108,994.108999999939,"color",35,1000,319,0,1
"","","","","","html-keyboard-response",299,1105442,0,"56ec151f388e1d000a5924d0","63f7687d6331319f6463a0d0","63f77480cf96a4787854b451",NaN,"","null",NaN,NaN,NaN,NaN,NaN,NaN,NaN,NaN,NaN,NaN,NaN,NaN,NaN,NaN,"fixation",NaN,NaN,NaN,NaN,1
"","","","","","color-precision",300,1109228,0,"56ec151f388e1d000a5924d0","63f7687d6331319f6463a0d0","63f77480cf96a4787854b451",1049.19999998808,"","",1,68,68,160,229.983517125605,229.983517125605,69.9835171256046,70,0,0,1,0,14.4930000060704,998.76099999994,"color",68,1000,160,1,1
"","","","","","html-keyboard-response",301,1109743,0,"56ec151f388e1d000a5924d0","63f7687d6331319f6463a0d0","63f77480cf96a4787854b451",NaN,"","null",NaN,NaN,NaN,NaN,NaN,NaN,NaN,NaN,NaN,NaN,NaN,NaN,NaN,NaN,"fixation",NaN,NaN,NaN,NaN,1
"","","","","","color-precision",302,1114092,0,"56ec151f388e1d000a5924d0","63f7687d6331319f6463a0d0","63f77480cf96a4787854b451",1563.19999998808,"","",4,332,332,35,26.833210826021,26.833210826021,351.833210826021,351,0,0,1,0,14.2930000030901,997.06099999696,"color",332,1000,35,4,1
"","","","","","html-keyboard-response",303,1114593,0,"56ec151f388e1d000a5924d0","63f7687d6331319f6463a0d0","63f77480cf96a4787854b451",NaN,"","null",NaN,NaN,NaN,NaN,NaN,NaN,NaN,NaN,NaN,NaN,NaN,NaN,NaN,NaN,"fixation",NaN,NaN,NaN,NaN,1
"","","","","","color-precision",304,1118668,0,"56ec151f388e1d000a5924d0","63f7687d6331319f6463a0d0","63f77480cf96a4787854b451",1239.29999999702,"","",3,302,302,137,76.6743794957966,76.6743794957966,299.674379495797,298,0,0,1,0,14.7289999970235,1005.19699999411,"color",302,1000,137,3,1
"","","","","","html-keyboard-response",305,1119169,0,"56ec151f388e1d000a5924d0","63f7687d6331319f6463a0d0","63f77480cf96a4787854b451",NaN,"","null",NaN,NaN,NaN,NaN,NaN,NaN,NaN,NaN,NaN,NaN,NaN,NaN,NaN,NaN,"fixation",NaN,NaN,NaN,NaN,1
"","","","","","color-precision",306,1125379,0,"56ec151f388e1d000a5924d0","63f7687d6331319f6463a0d0","63f77480cf96a4787854b451",3384.29999999702,"","",0,277,277,146,83.9157030222203,83.9157030222203,297.91570302222,296,0,0,1,0,15.9560000060592,1004.22399999993,"color",277,1000,146,0,1
"","","","","","html-keyboard-response",307,1125881,0,"56ec151f388e1d000a5924d0","63f7687d6331319f6463a0d0","63f77480cf96a4787854b451",NaN,"","null",NaN,NaN,NaN,NaN,NaN,NaN,NaN,NaN,NaN,NaN,NaN,NaN,NaN,NaN,"fixation",NaN,NaN,NaN,NaN,1
"","","","","","color-precision",308,1129435,0,"56ec151f388e1d000a5924d0","63f7687d6331319f6463a0d0","63f77480cf96a4787854b451",856.100000008941,"","",1,192,192,114,303.672352820139,303.672352820139,189.672352820139,192,0,0,1,0,15.2680000029504,996.535999997053,"color",192,1000,114,1,1
"","","","","","html-keyboard-response",309,1129937,0,"56ec151f388e1d000a5924d0","63f7687d6331319f6463a0d0","63f77480cf96a4787854b451",NaN,"","null",NaN,NaN,NaN,NaN,NaN,NaN,NaN,NaN,NaN,NaN,NaN,NaN,NaN,NaN,"fixation",NaN,NaN,NaN,NaN,1
"","","","","","color-precision",310,1133924,0,"56ec151f388e1d000a5924d0","63f7687d6331319f6463a0d0","63f77480cf96a4787854b451",1227.60000000894,"","",3,76,76,244,322.384118302128,322.384118302128,78.3841183021277,78,0,0,1,0,14.6409999940079,995.008999997051,"color",76,1000,244,3,1
"","","","","","html-keyboard-response",311,1134425,0,"56ec151f388e1d000a5924d0","63f7687d6331319f6463a0d0","63f77480cf96a4787854b451",NaN,"","null",NaN,NaN,NaN,NaN,NaN,NaN,NaN,NaN,NaN,NaN,NaN,NaN,NaN,NaN,"fixation",NaN,NaN,NaN,NaN,1
"","","","","","color-precision",312,1139708,0,"56ec151f388e1d000a5924d0","63f7687d6331319f6463a0d0","63f77480cf96a4787854b451",2579.19999998808,"","",1,153,153,114,256.850244977421,256.850244977421,142.850244977421,143,0,0,1,0,14.8650000060443,1002.73299999395,"color",153,1000,114,1,1
"","","","","","html-keyboard-response",313,1140221,0,"56ec151f388e1d000a5924d0","63f7687d6331319f6463a0d0","63f77480cf96a4787854b451",NaN,"","null",NaN,NaN,NaN,NaN,NaN,NaN,NaN,NaN,NaN,NaN,NaN,NaN,NaN,NaN,"fixation",NaN,NaN,NaN,NaN,1
"","","","","","color-precision",314,1145156,0,"56ec151f388e1d000a5924d0","63f7687d6331319f6463a0d0","63f77480cf96a4787854b451",2261.29999999702,"","",3,338,338,108,76.2234401914481,76.2234401914481,328.223440191448,326,0,0,1,0,15.4240000029095,1004.99199999403,"color",338,1000,108,3,1
"","","","","","html-keyboard-response",315,1145670,0,"56ec151f388e1d000a5924d0","63f7687d6331319f6463a0d0","63f77480cf96a4787854b451",NaN,"","null",NaN,NaN,NaN,NaN,NaN,NaN,NaN,NaN,NaN,NaN,NaN,NaN,NaN,NaN,"fixation",NaN,NaN,NaN,NaN,1
"","","","","","color-precision",316,1150019,0,"56ec151f388e1d000a5924d0","63f7687d6331319f6463a0d0","63f77480cf96a4787854b451",1457.5,"","",4,153,153,323,114.531959146201,114.531959146201,151.531959146201,150,0,0,1,0,15.3800000059418,993.048000006005,"color",153,1000,323,4,1
"","","","","","html-keyboard-response",317,1150521,0,"56ec151f388e1d000a5924d0","63f7687d6331319f6463a0d0","63f77480cf96a4787854b451",NaN,"","null",NaN,NaN,NaN,NaN,NaN,NaN,NaN,NaN,NaN,NaN,NaN,NaN,NaN,NaN,"fixation",NaN,NaN,NaN,NaN,1
"","","","","","color-precision",318,1155524,0,"56ec151f388e1d000a5924d0","63f7687d6331319f6463a0d0","63f77480cf96a4787854b451",2312,"","",4,357,357,167,154.991887631253,154.991887631253,347.991887631253,347,0,0,1,0,15.7270000060089,1001.99500000011,"color",357,1000,167,4,1
"","","","","","html-keyboard-response",319,1156025,0,"56ec151f388e1d000a5924d0","63f7687d6331319f6463a0d0","63f77480cf96a4787854b451",NaN,"","null",NaN,NaN,NaN,NaN,NaN,NaN,NaN,NaN,NaN,NaN,NaN,NaN,NaN,NaN,"fixation",NaN,NaN,NaN,NaN,1
"","","","","","color-precision",320,1160771,0,"56ec151f388e1d000a5924d0","63f7687d6331319f6463a0d0","63f77480cf96a4787854b451",2125.90000000596,"","",3,114,114,154,272.353389015016,272.353389015016,118.353389015016,119,0,0,1,0,14.0339999969583,999.902000000002,"color",114,1000,154,3,1
"","","","","","html-keyboard-response",321,1161273,0,"56ec151f388e1d000a5924d0","63f7687d6331319f6463a0d0","63f77480cf96a4787854b451",NaN,"","null",NaN,NaN,NaN,NaN,NaN,NaN,NaN,NaN,NaN,NaN,NaN,NaN,NaN,NaN,"fixation",NaN,NaN,NaN,NaN,1
"","","","","","color-precision",322,1165723,0,"56ec151f388e1d000a5924d0","63f7687d6331319f6463a0d0","63f77480cf96a4787854b451",1645.09999999404,"","",2,101,101,125,233.029308207526,233.029308207526,108.029308207526,108,0,0,1,0,15.9839999969117,1007.75200000592,"color",101,1000,125,2,1
"","","","","","html-keyboard-response",323,1166225,0,"56ec151f388e1d000a5924d0","63f7687d6331319f6463a0d0","63f77480cf96a4787854b451",NaN,"","null",NaN,NaN,NaN,NaN,NaN,NaN,NaN,NaN,NaN,NaN,NaN,NaN,NaN,NaN,"fixation",NaN,NaN,NaN,NaN,1
"","","","","","color-precision",324,1170772,0,"56ec151f388e1d000a5924d0","63f7687d6331319f6463a0d0","63f77480cf96a4787854b451",1876.70000000298,"","",5,291,291,264,206.308908456798,206.308908456798,302.308908456798,302,0,0,1,0,16.2139999999199,993.981999994023,"color",291,1000,264,5,1
"","","","","","html-keyboard-response",325,1171273,0,"56ec151f388e1d000a5924d0","63f7687d6331319f6463a0d0","63f77480cf96a4787854b451",NaN,"","null",NaN,NaN,NaN,NaN,NaN,NaN,NaN,NaN,NaN,NaN,NaN,NaN,NaN,NaN,"fixation",NaN,NaN,NaN,NaN,1
"","","","","","color-precision",326,1176172,0,"56ec151f388e1d000a5924d0","63f7687d6331319f6463a0d0","63f77480cf96a4787854b451",2110.20000000298,"","",0,119,119,48,162.903264295831,162.903264295831,114.903264295831,114,0,0,1,0,14.8179999969434,994.985999997007,"color",119,1000,48,0,1
"","","","","","html-keyboard-response",327,1176673,0,"56ec151f388e1d000a5924d0","63f7687d6331319f6463a0d0","63f77480cf96a4787854b451",NaN,"","null",NaN,NaN,NaN,NaN,NaN,NaN,NaN,NaN,NaN,NaN,NaN,NaN,NaN,NaN,"fixation",NaN,NaN,NaN,NaN,1
"","","","","","color-precision",328,1181963,0,"56ec151f388e1d000a5924d0","63f7687d6331319f6463a0d0","63f77480cf96a4787854b451",2100.60000000894,"","",1,344,344,188,155.462678555208,155.462678555208,327.462678555208,326,0,0,1,0,13.8269999970216,993.494999997085,"color",344,1000,188,1,1
"","","","","","html-keyboard-response",329,1319399,0,"56ec151f388e1d000a5924d0","63f7687d6331319f6463a0d0","63f77480cf96a4787854b451",137435.299999997,"Wow! You've completed 160 out of 361 trials! </p> <p>  </p><p> Take a quick break, then press any key when you're ready to continue."," ",NaN,NaN,NaN,NaN,NaN,NaN,NaN,NaN,NaN,NaN,NaN,NaN,NaN,NaN,"fixation",NaN,NaN,NaN,NaN,1
"","","","","","color-precision",330,1326315,0,"56ec151f388e1d000a5924d0","63f7687d6331319f6463a0d0","63f77480cf96a4787854b451",920.100000008941,"","",5,40,40,324,0.993018007603642,0.993018007603642,36.9930180076037,36,0,0,1,0,14.5900000028778,1003.657999994,"color",40,1000,324,5,1
"","","","","","html-keyboard-response",331,1326817,0,"56ec151f388e1d000a5924d0","63f7687d6331319f6463a0d0","63f77480cf96a4787854b451",NaN,"","null",NaN,NaN,NaN,NaN,NaN,NaN,NaN,NaN,NaN,NaN,NaN,NaN,NaN,NaN,"fixation",NaN,NaN,NaN,NaN,1
"","","","","","color-precision",332,1331339,0,"56ec151f388e1d000a5924d0","63f7687d6331319f6463a0d0","63f77480cf96a4787854b451",1044,"","",0,345,345,325,308.864400878327,308.864400878327,343.864400878327,345,0,0,1,0,14.9000000059605,997.668000000063,"color",345,1000,325,0,1
"","","","","","html-keyboard-response",333,1331840,0,"56ec151f388e1d000a5924d0","63f7687d6331319f6463a0d0","63f77480cf96a4787854b451",NaN,"","null",NaN,NaN,NaN,NaN,NaN,NaN,NaN,NaN,NaN,NaN,NaN,NaN,NaN,NaN,"fixation",NaN,NaN,NaN,NaN,1
"","","","","","color-precision",334,1336003,0,"56ec151f388e1d000a5924d0","63f7687d6331319f6463a0d0","63f77480cf96a4787854b451",1457.10000000894,"","",5,210,210,54,265.644679680377,265.644679680377,211.644679680377,212,0,0,1,0,15.549999993993,1007.41799999704,"color",210,1000,54,5,1
"","","","","","html-keyboard-response",335,1336505,0,"56ec151f388e1d000a5924d0","63f7687d6331319f6463a0d0","63f77480cf96a4787854b451",NaN,"","null",NaN,NaN,NaN,NaN,NaN,NaN,NaN,NaN,NaN,NaN,NaN,NaN,NaN,NaN,"fixation",NaN,NaN,NaN,NaN,1
"","","","","","color-precision",336,1340915,0,"56ec151f388e1d000a5924d0","63f7687d6331319f6463a0d0","63f77480cf96a4787854b451",1469.10000000894,"","",4,158,158,67,244.345259874688,244.345259874688,177.345259874688,177,0,0,1,0,14.2769999969751,1004.44499999704,"color",158,1000,67,4,1
"","","","","","html-keyboard-response",337,1341417,0,"56ec151f388e1d000a5924d0","63f7687d6331319f6463a0d0","63f77480cf96a4787854b451",NaN,"","null",NaN,NaN,NaN,NaN,NaN,NaN,NaN,NaN,NaN,NaN,NaN,NaN,NaN,NaN,"fixation",NaN,NaN,NaN,NaN,1
"","","","","","color-precision",338,1345012,0,"56ec151f388e1d000a5924d0","63f7687d6331319f6463a0d0","63f77480cf96a4787854b451",866,"","",1,263,263,353,261.710912543671,261.710912543671,268.710912543671,269,0,0,1,0,15.6990000030492,1003.46699999692,"color",263,1000,353,1,1
"","","","","","html-keyboard-response",339,1345514,0,"56ec151f388e1d000a5924d0","63f7687d6331319f6463a0d0","63f77480cf96a4787854b451",NaN,"","null",NaN,NaN,NaN,NaN,NaN,NaN,NaN,NaN,NaN,NaN,NaN,NaN,NaN,NaN,"fixation",NaN,NaN,NaN,NaN,1
"","","","","","color-precision",340,1349644,0,"56ec151f388e1d000a5924d0","63f7687d6331319f6463a0d0","63f77480cf96a4787854b451",1132.80000001192,"","",5,289,289,222,153.6883617196,153.6883617196,291.6883617196,290,0,0,1,0,15.4999999969732,1005.86800000002,"color",289,1000,222,5,1
"","","","","","html-keyboard-response",341,1350146,0,"56ec151f388e1d000a5924d0","63f7687d6331319f6463a0d0","63f77480cf96a4787854b451",NaN,"","null",NaN,NaN,NaN,NaN,NaN,NaN,NaN,NaN,NaN,NaN,NaN,NaN,NaN,NaN,"fixation",NaN,NaN,NaN,NaN,1
"","","","","","color-precision",342,1354651,0,"56ec151f388e1d000a5924d0","63f7687d6331319f6463a0d0","63f77480cf96a4787854b451",1172.5,"","",1,79,79,149,215.285188420879,215.285188420879,66.2851884208793,66,0,0,1,0,14.1999999999534,1003.16799999704,"color",79,1000,149,1,1
"","","","","","html-keyboard-response",343,1355153,0,"56ec151f388e1d000a5924d0","63f7687d6331319f6463a0d0","63f77480cf96a4787854b451",NaN,"","null",NaN,NaN,NaN,NaN,NaN,NaN,NaN,NaN,NaN,NaN,NaN,NaN,NaN,NaN,"fixation",NaN,NaN,NaN,NaN,1
"","","","","","color-precision",344,1359259,0,"56ec151f388e1d000a5924d0","63f7687d6331319f6463a0d0","63f77480cf96a4787854b451",1463.59999999404,"","",3,265,265,301,227.935293377481,227.935293377481,286.935293377481,287,0,0,1,0,15.4280000000726,1001.0959999999,"color",265,1000,301,3,1
"","","","","","html-keyboard-response",345,1359761,0,"56ec151f388e1d000a5924d0","63f7687d6331319f6463a0d0","63f77480cf96a4787854b451",NaN,"","null",NaN,NaN,NaN,NaN,NaN,NaN,NaN,NaN,NaN,NaN,NaN,NaN,NaN,NaN,"fixation",NaN,NaN,NaN,NaN,1
"","","","","","color-precision",346,1364675,0,"56ec151f388e1d000a5924d0","63f7687d6331319f6463a0d0","63f77480cf96a4787854b451",1696.79999999702,"","",3,221,221,194,46.2129322172703,46.2129322172703,212.21293221727,211,0,0,1,0,14.7579999971204,1005.82600000291,"color",221,1000,194,3,1
"","","","","","html-keyboard-response",347,1365188,0,"56ec151f388e1d000a5924d0","63f7687d6331319f6463a0d0","63f77480cf96a4787854b451",NaN,"","null",NaN,NaN,NaN,NaN,NaN,NaN,NaN,NaN,NaN,NaN,NaN,NaN,NaN,NaN,"fixation",NaN,NaN,NaN,NaN,1
"","","","","","color-precision",348,1369812,0,"56ec151f388e1d000a5924d0","63f7687d6331319f6463a0d0","63f77480cf96a4787854b451",1566.30000001192,"","",5,55,55,333,20.4298113385322,20.4298113385322,47.4298113385321,46,0,0,1,0,15.4169999998994,1003.184999994,"color",55,1000,333,5,1
"","","","","","html-keyboard-response",349,1370313,0,"56ec151f388e1d000a5924d0","63f7687d6331319f6463a0d0","63f77480cf96a4787854b451",NaN,"","null",NaN,NaN,NaN,NaN,NaN,NaN,NaN,NaN,NaN,NaN,NaN,NaN,NaN,NaN,"fixation",NaN,NaN,NaN,NaN,1
"","","","","","color-precision",350,1374235,0,"56ec151f388e1d000a5924d0","63f7687d6331319f6463a0d0","63f77480cf96a4787854b451",1106.89999999106,"","",0,228,228,254,120.462409084047,120.462409084047,226.462409084047,225,0,0,1,0,14.933999999892,995.302000002936,"color",228,1000,254,0,1
"","","","","","html-keyboard-response",351,1374737,0,"56ec151f388e1d000a5924d0","63f7687d6331319f6463a0d0","63f77480cf96a4787854b451",NaN,"","null",NaN,NaN,NaN,NaN,NaN,NaN,NaN,NaN,NaN,NaN,NaN,NaN,NaN,NaN,"fixation",NaN,NaN,NaN,NaN,1
"","","","","","color-precision",352,1380500,0,"56ec151f388e1d000a5924d0","63f7687d6331319f6463a0d0","63f77480cf96a4787854b451",2570.5,"","",2,344,344,317,276.911435992916,276.911435992916,319.911435992916,320,0,0,1,0,14.3740000058897,1006.94199999701,"color",344,1000,317,2,1
"","","","","","html-keyboard-response",353,1381001,0,"56ec151f388e1d000a5924d0","63f7687d6331319f6463a0d0","63f77480cf96a4787854b451",NaN,"","null",NaN,NaN,NaN,NaN,NaN,NaN,NaN,NaN,NaN,NaN,NaN,NaN,NaN,NaN,"fixation",NaN,NaN,NaN,NaN,1
"","","","","","color-precision",354,1387044,0,"56ec151f388e1d000a5924d0","63f7687d6331319f6463a0d0","63f77480cf96a4787854b451",1681.10000000894,"","",5,347,347,51,53.7933804863852,53.7933804863852,2.79338048638516,1,0,0,1,0,15.5759999998845,1004.74399999995,"color",347,1000,51,5,1
"","","","","","html-keyboard-response",355,1387547,0,"56ec151f388e1d000a5924d0","63f7687d6331319f6463a0d0","63f77480cf96a4787854b451",NaN,"","null",NaN,NaN,NaN,NaN,NaN,NaN,NaN,NaN,NaN,NaN,NaN,NaN,NaN,NaN,"fixation",NaN,NaN,NaN,NaN,1
"","","","","","color-precision",356,1391620,0,"56ec151f388e1d000a5924d0","63f7687d6331319f6463a0d0","63f77480cf96a4787854b451",1157,"","",2,288,288,312,250.789536712032,250.789536712032,298.789536712032,299,0,0,1,0,15.6859999939334,999.954000002937,"color",288,1000,312,2,1
"","","","","","html-keyboard-response",357,1392131,0,"56ec151f388e1d000a5924d0","63f7687d6331319f6463a0d0","63f77480cf96a4787854b451",NaN,"","null",NaN,NaN,NaN,NaN,NaN,NaN,NaN,NaN,NaN,NaN,NaN,NaN,NaN,NaN,"fixation",NaN,NaN,NaN,NaN,1
"","","","","","color-precision",358,1396668,0,"56ec151f388e1d000a5924d0","63f7687d6331319f6463a0d0","63f77480cf96a4787854b451",1555.59999999404,"","",4,83,83,188,273.830666876365,273.830666876365,85.8306668763652,87,0,0,1,0,15.6140000058804,1006.38199999998,"color",83,1000,188,4,1
"","","","","","html-keyboard-response",359,1397178,0,"56ec151f388e1d000a5924d0","63f7687d6331319f6463a0d0","63f77480cf96a4787854b451",NaN,"","null",NaN,NaN,NaN,NaN,NaN,NaN,NaN,NaN,NaN,NaN,NaN,NaN,NaN,NaN,"fixation",NaN,NaN,NaN,NaN,1
"","","","","","color-precision",360,1401548,0,"56ec151f388e1d000a5924d0","63f7687d6331319f6463a0d0","63f77480cf96a4787854b451",1002.29999999702,"","",2,217,217,55,271.973212425296,271.973212425296,216.973212425296,218,0,0,1,0,15.4930000060704,992.76099999994,"color",217,1000,55,2,1
"","","","","","html-keyboard-response",361,1402050,0,"56ec151f388e1d000a5924d0","63f7687d6331319f6463a0d0","63f77480cf96a4787854b451",NaN,"","null",NaN,NaN,NaN,NaN,NaN,NaN,NaN,NaN,NaN,NaN,NaN,NaN,NaN,NaN,"fixation",NaN,NaN,NaN,NaN,1
"","","","","","color-precision",362,1405924,0,"56ec151f388e1d000a5924d0","63f7687d6331319f6463a0d0","63f77480cf96a4787854b451",1178,"","",3,60,60,251,315.486776662591,315.486776662591,64.4867766625914,64,0,0,1,0,14.8909999970347,992.459000003058,"color",60,1000,251,3,1
"","","","","","html-keyboard-response",363,1406425,0,"56ec151f388e1d000a5924d0","63f7687d6331319f6463a0d0","63f77480cf96a4787854b451",NaN,"","null",NaN,NaN,NaN,NaN,NaN,NaN,NaN,NaN,NaN,NaN,NaN,NaN,NaN,NaN,"fixation",NaN,NaN,NaN,NaN,1
"","","","","","color-precision",364,1410460,0,"56ec151f388e1d000a5924d0","63f7687d6331319f6463a0d0","63f77480cf96a4787854b451",1363.70000000298,"","",0,191,191,341,173.677229047884,173.677229047884,192.677229047884,192,0,0,1,0,13.6849999940023,991.953000003006,"color",191,1000,341,0,1
"","","","","","html-keyboard-response",365,1410962,0,"56ec151f388e1d000a5924d0","63f7687d6331319f6463a0d0","63f77480cf96a4787854b451",NaN,"","null",NaN,NaN,NaN,NaN,NaN,NaN,NaN,NaN,NaN,NaN,NaN,NaN,NaN,NaN,"fixation",NaN,NaN,NaN,NaN,1
"","","","","","color-precision",366,1414908,0,"56ec151f388e1d000a5924d0","63f7687d6331319f6463a0d0","63f77480cf96a4787854b451",961.70000000298,"","",3,121,121,72,207.171673677291,207.171673677291,135.171673677291,135,0,0,1,0,14.6460000029765,1004.11400000006,"color",121,1000,72,3,1
"","","","","","html-keyboard-response",367,1415410,0,"56ec151f388e1d000a5924d0","63f7687d6331319f6463a0d0","63f77480cf96a4787854b451",NaN,"","null",NaN,NaN,NaN,NaN,NaN,NaN,NaN,NaN,NaN,NaN,NaN,NaN,NaN,NaN,"fixation",NaN,NaN,NaN,NaN,1
"","","","","","color-precision",368,1420372,0,"56ec151f388e1d000a5924d0","63f7687d6331319f6463a0d0","63f77480cf96a4787854b451",1742.5,"","",4,280,280,3,287.751331415434,287.751331415434,284.751331415434,285,0,0,1,0,15.1149999939371,1007.08300000592,"color",280,1000,3,4,1
"","","","","","html-keyboard-response",369,1422199,0,"56ec151f388e1d000a5924d0","63f7687d6331319f6463a0d0","63f77480cf96a4787854b451",1826.29999999702,"Wow! You've completed 180 out of 361 trials! </p> <p>  </p><p> Take a quick break, then press any key when you're ready to continue."," ",NaN,NaN,NaN,NaN,NaN,NaN,NaN,NaN,NaN,NaN,NaN,NaN,NaN,NaN,"fixation",NaN,NaN,NaN,NaN,1
"","","","","","color-precision",370,1427636,0,"56ec151f388e1d000a5924d0","63f7687d6331319f6463a0d0","63f77480cf96a4787854b451",923,"","",5,186,186,57,250.532545503448,250.532545503448,193.532545503448,194,0,0,1,0,15.1469999970868,993.114999993937,"color",186,1000,57,5,1
"","","","","","html-keyboard-response",371,1428138,0,"56ec151f388e1d000a5924d0","63f7687d6331319f6463a0d0","63f77480cf96a4787854b451",NaN,"","null",NaN,NaN,NaN,NaN,NaN,NaN,NaN,NaN,NaN,NaN,NaN,NaN,NaN,NaN,"fixation",NaN,NaN,NaN,NaN,1
"","","","","","color-precision",372,1432372,0,"56ec151f388e1d000a5924d0","63f7687d6331319f6463a0d0","63f77480cf96a4787854b451",1174.59999999404,"","",0,356,356,188,191.440164524337,191.440164524337,3.44016452433704,3,0,0,1,0,15.8600000028964,995.127999996999,"color",356,1000,188,0,1
"","","","","","html-keyboard-response",373,1432873,0,"56ec151f388e1d000a5924d0","63f7687d6331319f6463a0d0","63f77480cf96a4787854b451",NaN,"","null",NaN,NaN,NaN,NaN,NaN,NaN,NaN,NaN,NaN,NaN,NaN,NaN,NaN,NaN,"fixation",NaN,NaN,NaN,NaN,1
"","","","","","color-precision",374,1437108,0,"56ec151f388e1d000a5924d0","63f7687d6331319f6463a0d0","63f77480cf96a4787854b451",1362.09999999404,"","",4,248,248,8,260.977490299557,260.977490299557,252.977490299557,253,0,0,1,0,15.2430000030436,1000.71099999989,"color",248,1000,8,4,1
"","","","","","html-keyboard-response",375,1437609,0,"56ec151f388e1d000a5924d0","63f7687d6331319f6463a0d0","63f77480cf96a4787854b451",NaN,"","null",NaN,NaN,NaN,NaN,NaN,NaN,NaN,NaN,NaN,NaN,NaN,NaN,NaN,NaN,"fixation",NaN,NaN,NaN,NaN,1
"","","","","","color-precision",376,1442123,0,"56ec151f388e1d000a5924d0","63f7687d6331319f6463a0d0","63f77480cf96a4787854b451",1744.10000000894,"","",4,5,5,20,29.5952278869935,29.5952278869935,9.59522788699348,8,0,0,1,0,14.9590000058524,999.927000002936,"color",5,1000,20,4,1
"","","","","","html-keyboard-response",377,1442633,0,"56ec151f388e1d000a5924d0","63f7687d6331319f6463a0d0","63f77480cf96a4787854b451",NaN,"","null",NaN,NaN,NaN,NaN,NaN,NaN,NaN,NaN,NaN,NaN,NaN,NaN,NaN,NaN,"fixation",NaN,NaN,NaN,NaN,1
"","","","","","color-precision",378,1447084,0,"56ec151f388e1d000a5924d0","63f7687d6331319f6463a0d0","63f77480cf96a4787854b451",1321.70000000298,"","",3,314,314,106,59.9892231331886,59.9892231331886,313.989223133189,314,0,0,1,0,15.8129999940284,1001.68099999707,"color",314,1000,106,3,1
