"success","timeout","failed_images","failed_audio","failed_video","trial_type","trial_index","time_elapsed","internal_node_id","subject_id","study_id","session_id","rt","stimulus","response","position_of_items","colors_of_items","color_of_target","wheel_spin","response_angle","physical_response_angle","reported_color_angle","reported_color_discrete","locs","which_test","set_size","wheel_num_options","actual_mask_duration","actual_stim_duration","CMDispTime","maskArray","maskRotation","item_positions","task","randomSpinAmount","mainTask"
"true","false","[]","[]","[]","preload","0","945","0.0-0.0","55b2d3f2fdf99b525bc839aa","640759fa512f630a2bdc333d","6407b70bf3b4f29a3b1567f2","","","","","","","","","","","","","","","","","","","","","","","",""
"true","","","","","fullscreen","1","26838","0.0-1.0","55b2d3f2fdf99b525bc839aa","640759fa512f630a2bdc333d","6407b70bf3b4f29a3b1567f2","","","","","","","","","","","","","","","","","","","","","","","",""
"","","","","","html-keyboard-response","2","26866","0.0-2.0","55b2d3f2fdf99b525bc839aa","640759fa512f630a2bdc333d","6407b70bf3b4f29a3b1567f2","28.100000001490116","What a beautiful Tuesday to do some awesome science! </p> <p>  </p><p> </p>
    By completing this survey or questionnaire, you are consenting to be in this research study. </p>
    Your participation is voluntary and you can stop at any time.<p> [Press any key to continue] </p>","audiovolumedown","","","","","","","","","","","","","","","","","","","","",""
"","","","","","html-keyboard-response","3","36868","0.0-3.0","55b2d3f2fdf99b525bc839aa","640759fa512f630a2bdc333d","6407b70bf3b4f29a3b1567f2","135.5","
    <div style='width: 1000px;'>
    <div style='float: center;'><img src='img/TaskInstructions1.png'></img>
    </div>
    ","audiovolumedown","","","","","","","","","","","","","","","","","","","","",""
"","","","","","html-keyboard-response","4","39367","0.0-4.0","55b2d3f2fdf99b525bc839aa","640759fa512f630a2bdc333d","6407b70bf3b4f29a3b1567f2","2498.800000000745","
    <div style='width: 1000px;'>
    <div style='float: center;'><img src='img/TaskInstructions1.png'></img>
    </div>
    ","s","","","","","","","","","","","","","","","","","","","","",""
"","","","","","html-keyboard-response","5","49371","0.0-5.0","55b2d3f2fdf99b525bc839aa","640759fa512f630a2bdc333d","6407b70bf3b4f29a3b1567f2","null","
    <div style='width: 1000px;'>
    <div style='float: center;'><img src='img/TaskInstructions2.png'></img>
    </div>
    ","null","","","","","","","","","","","","","","","","","","","","",""
"","","","","","html-keyboard-response","6","146895","0.0-6.0","55b2d3f2fdf99b525bc839aa","640759fa512f630a2bdc333d","6407b70bf3b4f29a3b1567f2","97523.5","
    <div style='width: 1000px;'>
    <div style='float: center;'><img src='img/TaskInstructions2.png'></img>
    </div>
    ","f","","","","","","","","","","","","","","","","","","","","",""
"","","","","","video-keyboard-response","7","164323","0.0-7.0","55b2d3f2fdf99b525bc839aa","640759fa512f630a2bdc333d","6407b70bf3b4f29a3b1567f2","17426.20000000298","[""video/TaskInstructions3.mp4""]","f","","","","","","","","","","","","","","","","","","","","",""
"","","","","","image-keyboard-response","8","167686","0.0-8.0-0.0","55b2d3f2fdf99b525bc839aa","640759fa512f630a2bdc333d","6407b70bf3b4f29a3b1567f2","3362.39999999851","img/training1.png","f","","","","","","","","","","","","","","","","","","","","",""
"","","","","","color-precision2","9","179407","0.0-8.0-1.0-0.0","55b2d3f2fdf99b525bc839aa","640759fa512f630a2bdc333d","6407b70bf3b4f29a3b1567f2","[6608.199999999255]","","","[27]","[244]","244","34","273.32976030632784","[273.32976030632784]","[239.32976030632784]","[239]","0","0","1","0","500.2719999977562","998.1489999985206","1000","","","0","training","",""
"","","","","","image-keyboard-response","10","184007","0.0-8.0-0.1","55b2d3f2fdf99b525bc839aa","640759fa512f630a2bdc333d","6407b70bf3b4f29a3b1567f2","4599.400000002235","img/training2.png","f","","","","","","","","","","","","","","","","","","","","",""
"","","","","","many-guess-6","11","190882","0.0-8.0-1.1-0.1","55b2d3f2fdf99b525bc839aa","640759fa512f630a2bdc333d","6407b70bf3b4f29a3b1567f2","[2311.5]","","","[1,0,32]","[69,188,243]","69","259","316.9815211018708","[316.9815211018708]","[57.98152110187078]","[58]","[30,210,300,300,30,300,30,30,300,120,210,30,30,30,300,30,120,210,120,30,210,120,120,300,30,210,30,30,210,120,210,210,210,120,30,210]","0","3","0","1000.7489999977697","1001.9919999992417","1000","[[[""img/mask74.png""],[""img/mask24.png""],[""img/mask48.png""]]]","","[1,0,32]","training","",""
"","","","","","image-keyboard-response","12","195223","0.0-8.0-0.2","55b2d3f2fdf99b525bc839aa","640759fa512f630a2bdc333d","6407b70bf3b4f29a3b1567f2","4340.79999999702","img/training3.png","f","","","","","","","","","","","","","","","","","","","","",""
"","","","","","[""many-guess-6""]","13","201000","0.0-8.0-1.2-0.2","55b2d3f2fdf99b525bc839aa","640759fa512f630a2bdc333d","6407b70bf3b4f29a3b1567f2","[2332.800000000745]","","","[6,35,34,27,31]","[35,198,158,97,265]","35","75","152.5102368148673","[152.5102368148673]","[77.51023681486731]","[76]","[30,210,120,120,30,120,300,210,300,300,210,210,300,120,120,30,30,120,30,300,120,300,210,210,120,300,210,300,30,300,210,30,210,300,210,30]","0","5","0","500.2399999999907","501.6480000007432","500","[[[""img/mask90.png""],[""img/mask81.png""],[""img/mask81.png""],[""img/mask37.png""],[""img/mask77.png""]]]","","[6,35,34,27,31]","training","",""
"","","","","","image-keyboard-response","14","204565","0.0-8.0-0.3","55b2d3f2fdf99b525bc839aa","640759fa512f630a2bdc333d","6407b70bf3b4f29a3b1567f2","3564.199999999255","img/training4.png"," ","","","","","","","","","","","","","","","","","","","","",""
"","","","","","[""many-guess-6""]","15","209384","0.0-8.0-1.3-0.3","55b2d3f2fdf99b525bc839aa","640759fa512f630a2bdc333d","6407b70bf3b4f29a3b1567f2","[2164.300000000745]","","","[15,11,3,24,18,2,23,30,32,27]","[116,313,2,50,85,38,335,100,74,19]","116","323","284.2884502444539","[284.2884502444539]","[321.2884502444539]","[321]","[120,300,300,30,30,30,210,120,210,300,120,210,120,120,300,300,210,120,300,210,300,210,120,210,30,120,300,120,300,30,300,30,120,120,300,300]","0","10","0","131.94099999926402","128.63099999850965","132","[[[""img/mask47.png""],[""img/mask93.png""],[""img/mask65.png""],[""img/mask26.png""],[""img/mask3.png""],[""img/mask7.png""],[""img/mask97.png""],[""img/mask18.png""],[""img/mask11.png""],[""img/mask32.png""]]]","","[15,11,3,24,18,2,23,30,32,27]","training","",""
"","","","","","image-keyboard-response","16","234255","0.0-8.0-0.4","55b2d3f2fdf99b525bc839aa","640759fa512f630a2bdc333d","6407b70bf3b4f29a3b1567f2","24870.5","img/training5.png"," ","","","","","","","","","","","","","","","","","","","","",""
"","","","","","[""many-guess-6""]","17","238237","0.0-8.0-1.4-0.4","55b2d3f2fdf99b525bc839aa","640759fa512f630a2bdc333d","6407b70bf3b4f29a3b1567f2","[1381.800000000745]","","","[24,16,32,34,21,12,3,9,10,11,8,33,28,31,7,29,15,27,1,35,17,2,30,14,18,22,20,5,4,19,13,6,25,26,23,0]","[129,239,60,229,50,159,30,70,339,99,79,299,40,189,10,209,89,289,139,359,269,279,109,219,249,309,20,169,349,179,119,329,259,199,319,149]","129","188","151.89630526561515","[151.89630526561515]","[323.8963052656152]","[322]","[120,300,300,210,120,30,30,210,120,300,120,300,300,210,30,30,120,300,210,120,210,120,120,120,30,210,210,120,300,210,30,300,120,30,210,210]","0","36","0","131.92999999926542","17.51700000074925","16","[[[""img/mask15.png""],[""img/mask70.png""],[""img/mask3.png""],[""img/mask33.png""],[""img/mask1.png""],[""img/mask42.png""],[""img/mask90.png""],[""img/mask15.png""],[""img/mask11.png""],[""img/mask45.png""],[""img/mask93.png""],[""img/mask63.png""],[""img/mask29.png""],[""img/mask44.png""],[""img/mask16.png""],[""img/mask86.png""],[""img/mask41.png""],[""img/mask62.png""],[""img/mask26.png""],[""img/mask67.png""],[""img/mask52.png""],[""img/mask71.png""],[""img/mask19.png""],[""img/mask69.png""],[""img/mask6.png""],[""img/mask58.png""],[""img/mask46.png""],[""img/mask61.png""],[""img/mask26.png""],[""img/mask92.png""],[""img/mask70.png""],[""img/mask51.png""],[""img/mask84.png""],[""img/mask8.png""],[""img/mask95.png""],[""img/mask6.png""]]]","","[24,16,32,34,21,12,3,9,10,11,8,33,28,31,7,29,15,27,1,35,17,2,30,14,18,22,20,5,4,19,13,6,25,26,23,0]","training","",""
"","","","","","image-keyboard-response","18","244233","0.0-9.0","55b2d3f2fdf99b525bc839aa","640759fa512f630a2bdc333d","6407b70bf3b4f29a3b1567f2","5996","[""img/endTraining.png""]"," ","","","","","","","","","","","","","","","","","","","","",""
"","","","","","color-precision2","19","248905","0.0-10.0-0.0-0.0","55b2d3f2fdf99b525bc839aa","640759fa512f630a2bdc333d","6407b70bf3b4f29a3b1567f2","[1660.5]","","","[7]","[221]","221","130","349.58849896243225","[349.58849896243225]","[219.58849896243225]","[221]","0","0","1","0","151.55100000073435","998.2739999985206","1000","[[[""img/mask21.png""]]]","","","main","130","color-precision2"
"","","","","","html-keyboard-response","20","249405","0.0-10.0-1.0","55b2d3f2fdf99b525bc839aa","640759fa512f630a2bdc333d","6407b70bf3b4f29a3b1567f2","null","","null","","","","","","","","","","","","","","","","","","","fixation","",""
"","","","","","many-guess-6","21","252520","0.0-10.0-0.1-0.1","55b2d3f2fdf99b525bc839aa","640759fa512f630a2bdc333d","6407b70bf3b4f29a3b1567f2","[1523]","","","[15,34,31,21,18,11,19,8,29,0,3,32,26,2,16,22,10,28,5,6,33,23,1,30,20,14,7,12,4,9,25,17,13,24,27,35]","[37,356,306,117,316,246,97,336,216,346,266,67,226,47,186,157,27,286,17,87,167,107,147,276,236,196,296,7,127,256,57,176,206,326,77,137]","37","342","287.23586008013956","[287.23586008013956]","[305.23586008013956]","[306]","[30,30,210,30,120,30,300,300,120]","0","36","0","152.82399999775225","17.556999999244","16","[[[""img/mask21.png""],[""img/mask14.png""],[""img/mask42.png""],[""img/mask13.png""],[""img/mask69.png""],[""img/mask70.png""],[""img/mask49.png""],[""img/mask57.png""],[""img/mask42.png""],[""img/mask44.png""],[""img/mask45.png""],[""img/mask85.png""],[""img/mask44.png""],[""img/mask14.png""],[""img/mask26.png""],[""img/mask99.png""],[""img/mask12.png""],[""img/mask67.png""],[""img/mask73.png""],[""img/mask16.png""],[""img/mask1.png""],[""img/mask19.png""],[""img/mask60.png""],[""img/mask22.png""],[""img/mask63.png""],[""img/mask72.png""],[""img/mask66.png""],[""img/mask42.png""],[""img/mask99.png""],[""img/mask16.png""],[""img/mask8.png""],[""img/mask30.png""],[""img/mask3.png""],[""img/mask45.png""],[""img/mask41.png""],[""img/mask59.png""]]]","","[15,34,31,21,18,11,19,8,29,0,3,32,26,2,16,22,10,28,5,6,33,23,1,30,20,14,7,12,4,9,25,17,13,24,27,35]","main","342","many-guess-6"
"","","","","","html-keyboard-response","22","253021","0.0-10.0-1.1","55b2d3f2fdf99b525bc839aa","640759fa512f630a2bdc333d","6407b70bf3b4f29a3b1567f2","null","","null","","","","","","","","","","","","","","","","","","","fixation","",""
"","","","","","many-guess-6","23","256952","0.0-10.0-0.2-0.2","55b2d3f2fdf99b525bc839aa","640759fa512f630a2bdc333d","6407b70bf3b4f29a3b1567f2","[2059.599999997765]","","","[27,17,11,2,5,28,13,33,14,8,10,15,4,0,32,1,26,35,23,30,7,24,18,16,19,6,21,22,9,20,12,25,3,34,31,29]","[192,83,302,33,93,292,322,282,112,272,23,162,53,3,172,73,13,332,103,342,132,252,352,242,202,212,152,222,122,182,262,142,63,43,232,312]","192","125","59.75113725443744","[59.75113725443744]","[294.7511372544374]","[293]","[300,120,210,30,300,120,210,30,30]","0","36","0","152.75499999776366","15.883999997779028","16","[[[""img/mask18.png""],[""img/mask61.png""],[""img/mask1.png""],[""img/mask80.png""],[""img/mask5.png""],[""img/mask44.png""],[""img/mask5.png""],[""img/mask35.png""],[""img/mask86.png""],[""img/mask69.png""],[""img/mask79.png""],[""img/mask57.png""],[""img/mask13.png""],[""img/mask99.png""],[""img/mask33.png""],[""img/mask60.png""],[""img/mask3.png""],[""img/mask60.png""],[""img/mask100.png""],[""img/mask76.png""],[""img/mask62.png""],[""img/mask49.png""],[""img/mask55.png""],[""img/mask37.png""],[""img/mask44.png""],[""img/mask72.png""],[""img/mask32.png""],[""img/mask16.png""],[""img/mask68.png""],[""img/mask52.png""],[""img/mask15.png""],[""img/mask73.png""],[""img/mask67.png""],[""img/mask1.png""],[""img/mask75.png""],[""img/mask13.png""]]]","","[27,17,11,2,5,28,13,33,14,8,10,15,4,0,32,1,26,35,23,30,7,24,18,16,19,6,21,22,9,20,12,25,3,34,31,29]","main","125","many-guess-6"
"","","","","","html-keyboard-response","24","257452","0.0-10.0-1.2","55b2d3f2fdf99b525bc839aa","640759fa512f630a2bdc333d","6407b70bf3b4f29a3b1567f2","null","","null","","","","","","","","","","","","","","","","","","","fixation","",""
"","","","","","many-guess-6","25","260506","0.0-10.0-0.3-0.3","55b2d3f2fdf99b525bc839aa","640759fa512f630a2bdc333d","6407b70bf3b4f29a3b1567f2","[1711]","","","[23,10,4,28,16,20,25,1,26,30,24,3,34,6,17,19,18,7,32,14,35,5,0,11,22,12,27,8,31,21,29,13,33,2,15,9]","[266,126,345,26,206,315,36,246,296,325,216,335,66,196,166,86,286,116,76,136,355,56,226,46,236,96,256,305,276,176,146,16,106,186,6,156]","266","287","127.92678823603235","[127.92678823603235]","[200.92678823603234]","[199]","[300,300,300,210,300,120,300,30,210]","0","36","0","151.84900000074413","15.489000000758097","16","[[[""img/mask65.png""],[""img/mask27.png""],[""img/mask56.png""],[""img/mask100.png""],[""img/mask46.png""],[""img/mask34.png""],[""img/mask85.png""],[""img/mask45.png""],[""img/mask55.png""],[""img/mask63.png""],[""img/mask34.png""],[""img/mask22.png""],[""img/mask82.png""],[""img/mask15.png""],[""img/mask28.png""],[""img/mask52.png""],[""img/mask63.png""],[""img/mask22.png""],[""img/mask90.png""],[""img/mask81.png""],[""img/mask6.png""],[""img/mask61.png""],[""img/mask98.png""],[""img/mask67.png""],[""img/mask37.png""],[""img/mask76.png""],[""img/mask51.png""],[""img/mask20.png""],[""img/mask8.png""],[""img/mask61.png""],[""img/mask93.png""],[""img/mask52.png""],[""img/mask38.png""],[""img/mask51.png""],[""img/mask24.png""],[""img/mask78.png""]]]","","[23,10,4,28,16,20,25,1,26,30,24,3,34,6,17,19,18,7,32,14,35,5,0,11,22,12,27,8,31,21,29,13,33,2,15,9]","main","287","many-guess-6"
"","","","","","html-keyboard-response","26","261007","0.0-10.0-1.3","55b2d3f2fdf99b525bc839aa","640759fa512f630a2bdc333d","6407b70bf3b4f29a3b1567f2","null","","null","","","","","","","","","","","","","","","","","","","fixation","",""
"","","","","","many-guess-6","27","263925","0.0-10.0-0.4-0.4","55b2d3f2fdf99b525bc839aa","640759fa512f630a2bdc333d","6407b70bf3b4f29a3b1567f2","[1592.300000000745]","","","[17,35,32,7,1,14,16,9,27,0,33,24,11,20,4,22,5,3,10,15,30,34,2,25,19,13,26,23,6,28,8,18,21,29,12,31]","[25,284,44,294,35,84,204,344,5,174,184,144,304,224,15,314,234,154,214,54,164,194,254,274,104,124,114,134,74,264,324,64,354,334,244,94]","25","113","181.9222051516365","[181.9222051516365]","[68.92220515163649]","[68]","[210,120,30,300,120,210,210,120,300]","0","36","0","152.87299999850802","16.2169999977923","16","[[[""img/mask37.png""],[""img/mask84.png""],[""img/mask40.png""],[""img/mask40.png""],[""img/mask45.png""],[""img/mask73.png""],[""img/mask26.png""],[""img/mask49.png""],[""img/mask91.png""],[""img/mask18.png""],[""img/mask71.png""],[""img/mask43.png""],[""img/mask82.png""],[""img/mask19.png""],[""img/mask59.png""],[""img/mask18.png""],[""img/mask13.png""],[""img/mask82.png""],[""img/mask95.png""],[""img/mask66.png""],[""img/mask38.png""],[""img/mask66.png""],[""img/mask56.png""],[""img/mask39.png""],[""img/mask20.png""],[""img/mask38.png""],[""img/mask33.png""],[""img/mask56.png""],[""img/mask89.png""],[""img/mask29.png""],[""img/mask70.png""],[""img/mask19.png""],[""img/mask59.png""],[""img/mask97.png""],[""img/mask54.png""],[""img/mask95.png""]]]","","[17,35,32,7,1,14,16,9,27,0,33,24,11,20,4,22,5,3,10,15,30,34,2,25,19,13,26,23,6,28,8,18,21,29,12,31]","main","113","many-guess-6"
"","","","","","html-keyboard-response","28","264426","0.0-10.0-1.4","55b2d3f2fdf99b525bc839aa","640759fa512f630a2bdc333d","6407b70bf3b4f29a3b1567f2","null","","null","","","","","","","","","","","","","","","","","","","fixation","",""
"","","","","","color-precision2","29","268283","0.0-10.0-0.5-0.5","55b2d3f2fdf99b525bc839aa","640759fa512f630a2bdc333d","6407b70bf3b4f29a3b1567f2","[1551.2999999970198]","","","[3]","[11]","11","228","242.16472396117524","[242.16472396117524]","[14.164723961175241]","[14]","0","0","1","0","151.79899999999907","997.5329999977839","1000","[[[""img/mask81.png""]]]","","","main","228","color-precision2"
"","","","","","html-keyboard-response","30","268785","0.0-10.0-1.5","55b2d3f2fdf99b525bc839aa","640759fa512f630a2bdc333d","6407b70bf3b4f29a3b1567f2","null","","null","","","","","","","","","","","","","","","","","","","fixation","",""
"","","","","","many-guess-6","31","271736","0.0-10.0-0.6-0.6","55b2d3f2fdf99b525bc839aa","640759fa512f630a2bdc333d","6407b70bf3b4f29a3b1567f2","[1569.699999999255]","","","[27,32,31,18,8,12,10,28,23,6,29,15,19,13,22,11,16,7,1,33,35,9,3,21,2,34,30,0,20,26,5,14,17,24,4,25]","[226,66,186,206,325,136,266,86,275,146,106,256,46,295,236,116,196,315,36,216,335,16,305,76,285,166,176,126,26,355,56,156,96,6,246,345]","226","248","53.937376182780554","[53.937376182780554]","[165.93737618278055]","[164]","[30,210,120,30,210,120,120,30,300]","0","36","0","152.07399999775225","17.49599999852944","16","[[[""img/mask81.png""],[""img/mask60.png""],[""img/mask61.png""],[""img/mask90.png""],[""img/mask13.png""],[""img/mask10.png""],[""img/mask9.png""],[""img/mask5.png""],[""img/mask52.png""],[""img/mask16.png""],[""img/mask12.png""],[""img/mask57.png""],[""img/mask27.png""],[""img/mask85.png""],[""img/mask44.png""],[""img/mask2.png""],[""img/mask51.png""],[""img/mask39.png""],[""img/mask42.png""],[""img/mask68.png""],[""img/mask42.png""],[""img/mask51.png""],[""img/mask60.png""],[""img/mask42.png""],[""img/mask57.png""],[""img/mask40.png""],[""img/mask27.png""],[""img/mask59.png""],[""img/mask41.png""],[""img/mask85.png""],[""img/mask12.png""],[""img/mask59.png""],[""img/mask41.png""],[""img/mask96.png""],[""img/mask31.png""],[""img/mask45.png""]]]","","[27,32,31,18,8,12,10,28,23,6,29,15,19,13,22,11,16,7,1,33,35,9,3,21,2,34,30,0,20,26,5,14,17,24,4,25]","main","248","many-guess-6"
"","","","","","html-keyboard-response","32","272236","0.0-10.0-1.6","55b2d3f2fdf99b525bc839aa","640759fa512f630a2bdc333d","6407b70bf3b4f29a3b1567f2","null","","null","","","","","","","","","","","","","","","","","","","fixation","",""
"","","","","","many-guess-6","33","275807","0.0-10.0-0.7-0.7","55b2d3f2fdf99b525bc839aa","640759fa512f630a2bdc333d","6407b70bf3b4f29a3b1567f2","[2116.699999999255]","","","[7,0,22,11,12,8,17,33,15,10,29,6,21,4,5,9,32,31,14,27,34,23,35,19,28,16,20,1,24,3,26,18,2,25,30,13]","[182,262,272,22,52,2,42,72,252,242,341,172,82,281,351,162,192,291,132,12,222,202,301,321,92,102,32,311,62,152,212,122,112,232,331,142]","182","301","288.05840045670345","[288.05840045670345]","[347.05840045670345]","[347]","[120,120,300,210,30,210,120,300,120]","0","36","0","151.80200000072364","13.119999999995343","16","[[[""img/mask21.png""],[""img/mask35.png""],[""img/mask27.png""],[""img/mask90.png""],[""img/mask96.png""],[""img/mask83.png""],[""img/mask70.png""],[""img/mask31.png""],[""img/mask79.png""],[""img/mask13.png""],[""img/mask80.png""],[""img/mask9.png""],[""img/mask3.png""],[""img/mask72.png""],[""img/mask70.png""],[""img/mask83.png""],[""img/mask27.png""],[""img/mask18.png""],[""img/mask21.png""],[""img/mask46.png""],[""img/mask35.png""],[""img/mask65.png""],[""img/mask45.png""],[""img/mask18.png""],[""img/mask51.png""],[""img/mask84.png""],[""img/mask70.png""],[""img/mask93.png""],[""img/mask44.png""],[""img/mask24.png""],[""img/mask21.png""],[""img/mask83.png""],[""img/mask100.png""],[""img/mask50.png""],[""img/mask56.png""],[""img/mask82.png""]]]","","[7,0,22,11,12,8,17,33,15,10,29,6,21,4,5,9,32,31,14,27,34,23,35,19,28,16,20,1,24,3,26,18,2,25,30,13]","main","301","many-guess-6"
"","","","","","html-keyboard-response","34","276308","0.0-10.0-1.7","55b2d3f2fdf99b525bc839aa","640759fa512f630a2bdc333d","6407b70bf3b4f29a3b1567f2","null","","null","","","","","","","","","","","","","","","","","","","fixation","",""
"","","","","","many-guess-6","35","288799","0.0-10.0-0.8-0.8","55b2d3f2fdf99b525bc839aa","640759fa512f630a2bdc333d","6407b70bf3b4f29a3b1567f2","[11368.199999999255]","","","[12,15,9,4,33,1,13,6,11,17,5,30,35,3,2,28,34,10,24,32,16,26,7,20,22,29,19,8,18,21,23,27,0,25,31,14]","[37,47,147,57,107,177,17,27,356,127,247,137,207,67,306,346,326,287,227,296,87,237,277,97,167,117,267,77,197,257,316,157,7,217,187,336]","37","96","241.06227005952064","[241.06227005952064]","[145.06227005952064]","[145]","[30,30,30,210,120,300,120,300,120]","0","36","0","155.78099999926053","14.098999998532236","16","[[[""img/mask46.png""],[""img/mask26.png""],[""img/mask25.png""],[""img/mask92.png""],[""img/mask90.png""],[""img/mask99.png""],[""img/mask86.png""],[""img/mask74.png""],[""img/mask37.png""],[""img/mask66.png""],[""img/mask96.png""],[""img/mask75.png""],[""img/mask48.png""],[""img/mask70.png""],[""img/mask28.png""],[""img/mask42.png""],[""img/mask49.png""],[""img/mask51.png""],[""img/mask67.png""],[""img/mask94.png""],[""img/mask82.png""],[""img/mask86.png""],[""img/mask55.png""],[""img/mask1.png""],[""img/mask4.png""],[""img/mask89.png""],[""img/mask74.png""],[""img/mask25.png""],[""img/mask40.png""],[""img/mask93.png""],[""img/mask19.png""],[""img/mask87.png""],[""img/mask59.png""],[""img/mask86.png""],[""img/mask4.png""],[""img/mask64.png""]]]","","[12,15,9,4,33,1,13,6,11,17,5,30,35,3,2,28,34,10,24,32,16,26,7,20,22,29,19,8,18,21,23,27,0,25,31,14]","main","96","many-guess-6"
"","","","","","html-keyboard-response","36","289300","0.0-10.0-1.8","55b2d3f2fdf99b525bc839aa","640759fa512f630a2bdc333d","6407b70bf3b4f29a3b1567f2","null","","null","","","","","","","","","","","","","","","","","","","fixation","",""
"","","","","","color-precision2","37","292417","0.0-10.0-0.9-0.9","55b2d3f2fdf99b525bc839aa","640759fa512f630a2bdc333d","6407b70bf3b4f29a3b1567f2","[595.8999999985099]","","","[23]","[27]","27","75","110.12057838493986","[110.12057838493986]","[35.12057838493986]","[33]","0","0","1","0","152.73200000001816","999.3420000000042","1000","[[[""img/mask63.png""]]]","","","main","75","color-precision2"
"","","","","","html-keyboard-response","38","292918","0.0-10.0-1.9","55b2d3f2fdf99b525bc839aa","640759fa512f630a2bdc333d","6407b70bf3b4f29a3b1567f2","null","","null","","","","","","","","","","","","","","","","","","","fixation","",""
"","","","","","many-guess-6","39","296578","0.0-10.0-0.10-0.10","55b2d3f2fdf99b525bc839aa","640759fa512f630a2bdc333d","6407b70bf3b4f29a3b1567f2","[2274.800000000745]","","","[16,10,20,34,17,11,0,29,1,9,26,18,27,25,13,15,19,24,35,2,3,8,28,23,21,22,12,14,30,6,32,33,7,5,31,4]","[27,57,37,296,256,237,266,227,187,326,117,316,87,157,7,127,47,67,77,197,336,286,177,276,306,217,147,356,17,346,97,167,107,137,246,207]","27","324","275.0221234780464","[275.0221234780464]","[311.0221234780464]","[311]","[120,300,300,210,120,210,120,210,120]","0","36","0","152.818999999261","18.37499999778811","16","[[[""img/mask21.png""],[""img/mask21.png""],[""img/mask90.png""],[""img/mask72.png""],[""img/mask54.png""],[""img/mask68.png""],[""img/mask43.png""],[""img/mask18.png""],[""img/mask79.png""],[""img/mask23.png""],[""img/mask90.png""],[""img/mask89.png""],[""img/mask34.png""],[""img/mask89.png""],[""img/mask98.png""],[""img/mask65.png""],[""img/mask21.png""],[""img/mask70.png""],[""img/mask63.png""],[""img/mask17.png""],[""img/mask32.png""],[""img/mask97.png""],[""img/mask80.png""],[""img/mask44.png""],[""img/mask56.png""],[""img/mask81.png""],[""img/mask68.png""],[""img/mask82.png""],[""img/mask32.png""],[""img/mask56.png""],[""img/mask64.png""],[""img/mask90.png""],[""img/mask21.png""],[""img/mask61.png""],[""img/mask77.png""],[""img/mask39.png""]]]","","[16,10,20,34,17,11,0,29,1,9,26,18,27,25,13,15,19,24,35,2,3,8,28,23,21,22,12,14,30,6,32,33,7,5,31,4]","main","324","many-guess-6"
"","","","","","html-keyboard-response","40","297079","0.0-10.0-1.10","55b2d3f2fdf99b525bc839aa","640759fa512f630a2bdc333d","6407b70bf3b4f29a3b1567f2","null","","null","","","","","","","","","","","","","","","","","","","fixation","",""
"","","","","","color-precision2","41","300595","0.0-10.0-0.11-0.11","55b2d3f2fdf99b525bc839aa","640759fa512f630a2bdc333d","6407b70bf3b4f29a3b1567f2","[667.3000000007451]","","","[26]","[178]","178","252","75.91529877394265","[75.91529877394265]","[183.91529877394265]","[182]","0","0","1","0","152.58699999924283","998.4219999985071","1000","[[[""img/mask90.png""]]]","","","main","252","color-precision2"
"","","","","","html-keyboard-response","42","301096","0.0-10.0-1.11","55b2d3f2fdf99b525bc839aa","640759fa512f630a2bdc333d","6407b70bf3b4f29a3b1567f2","null","","null","","","","","","","","","","","","","","","","","","","fixation","",""
"","","","","","color-precision2","43","303998","0.0-10.0-0.12-0.12","55b2d3f2fdf99b525bc839aa","640759fa512f630a2bdc333d","6407b70bf3b4f29a3b1567f2","[452.69999999925494]","","","[16]","[190]","190","151","328.5123060799352","[328.5123060799352]","[177.51230607993517]","[177]","0","0","1","0","152.67699999851175","996.6109999992768","1000","[[[""img/mask88.png""]]]","","","main","151","color-precision2"
"","","","","","html-keyboard-response","44","304499","0.0-10.0-1.12","55b2d3f2fdf99b525bc839aa","640759fa512f630a2bdc333d","6407b70bf3b4f29a3b1567f2","null","","null","","","","","","","","","","","","","","","","","","","fixation","",""
"","","","","","color-precision2","45","309648","0.0-10.0-0.13-0.13","55b2d3f2fdf99b525bc839aa","640759fa512f630a2bdc333d","6407b70bf3b4f29a3b1567f2","[2357.199999999255]","","","[30]","[181]","181","280","110.25066508816839","[110.25066508816839]","[190.25066508816838]","[188]","0","0","1","0","152.7149999985122","997.2440000007628","1000","[[[""img/mask26.png""]]]","","","main","280","color-precision2"
"","","","","","html-keyboard-response","46","310150","0.0-10.0-1.13","55b2d3f2fdf99b525bc839aa","640759fa512f630a2bdc333d","6407b70bf3b4f29a3b1567f2","null","","null","","","","","","","","","","","","","","","","","","","fixation","",""
"","","","","","color-precision2","47","313299","0.0-10.0-0.14-0.14","55b2d3f2fdf99b525bc839aa","640759fa512f630a2bdc333d","6407b70bf3b4f29a3b1567f2","[834.1000000014901]","","","[5]","[351]","351","254","243.47919460849306","[243.47919460849306]","[349.47919460849306]","[351]","0","0","1","0","152.58799999853363","999.9229999977397","1000","[[[""img/mask12.png""]]]","","","main","254","color-precision2"
"","","","","","html-keyboard-response","48","313801","0.0-10.0-1.14","55b2d3f2fdf99b525bc839aa","640759fa512f630a2bdc333d","6407b70bf3b4f29a3b1567f2","null","","null","","","","","","","","","","","","","","","","","","","fixation","",""
"","","","","","many-guess-6","49","317585","0.0-10.0-0.15-0.15","55b2d3f2fdf99b525bc839aa","640759fa512f630a2bdc333d","6407b70bf3b4f29a3b1567f2","[2269.300000000745]","","","[27,0,18,29,28,22,14,35,17,20,24,32,2,6,15,1,5,34,10,16,23,4,26,33,3,31,9,13,19,12,25,30,11,21,7,8]","[76,266,186,206,156,166,335,355,96,226,116,66,276,36,306,296,146,6,26,86,236,46,216,316,256,196,136,246,176,345,286,325,106,126,56,16]","76","150","13.061801025588558","[13.061801025588558]","[223.06180102558855]","[223]","[30,120,210,120,210,30,210,120,300]","0","36","0","152.78600000072038","16.525999998499174","16","[[[""img/mask57.png""],[""img/mask24.png""],[""img/mask16.png""],[""img/mask88.png""],[""img/mask37.png""],[""img/mask4.png""],[""img/mask6.png""],[""img/mask4.png""],[""img/mask74.png""],[""img/mask61.png""],[""img/mask40.png""],[""img/mask38.png""],[""img/mask14.png""],[""img/mask3.png""],[""img/mask17.png""],[""img/mask25.png""],[""img/mask37.png""],[""img/mask82.png""],[""img/mask55.png""],[""img/mask69.png""],[""img/mask39.png""],[""img/mask24.png""],[""img/mask41.png""],[""img/mask37.png""],[""img/mask72.png""],[""img/mask18.png""],[""img/mask51.png""],[""img/mask95.png""],[""img/mask23.png""],[""img/mask83.png""],[""img/mask5.png""],[""img/mask77.png""],[""img/mask48.png""],[""img/mask58.png""],[""img/mask90.png""],[""img/mask34.png""]]]","","[27,0,18,29,28,22,14,35,17,20,24,32,2,6,15,1,5,34,10,16,23,4,26,33,3,31,9,13,19,12,25,30,11,21,7,8]","main","150","many-guess-6"
"","","","","","html-keyboard-response","50","318086","0.0-10.0-1.15","55b2d3f2fdf99b525bc839aa","640759fa512f630a2bdc333d","6407b70bf3b4f29a3b1567f2","null","","null","","","","","","","","","","","","","","","","","","","fixation","",""
"","","","","","color-precision2","51","321058","0.0-10.0-0.16-0.16","55b2d3f2fdf99b525bc839aa","640759fa512f630a2bdc333d","6407b70bf3b4f29a3b1567f2","[552.8000000007451]","","","[9]","[196]","196","228","58.4745282273999","[58.4745282273999]","[190.4745282273999]","[189]","0","0","1","0","152.66200000076788","998.6929999992717","1000","[[[""img/mask46.png""]]]","","","main","228","color-precision2"
"","","","","","html-keyboard-response","52","321559","0.0-10.0-1.16","55b2d3f2fdf99b525bc839aa","640759fa512f630a2bdc333d","6407b70bf3b4f29a3b1567f2","null","","null","","","","","","","","","","","","","","","","","","","fixation","",""
"","","","","","color-precision2","53","324538","0.0-10.0-0.17-0.17","55b2d3f2fdf99b525bc839aa","640759fa512f630a2bdc333d","6407b70bf3b4f29a3b1567f2","[470.1000000014901]","","","[32]","[179]","179","246","64.14055376133682","[64.14055376133682]","[178.14055376133683]","[176]","0","0","1","0","152.75299999775598","999.0920000007609","1000","[[[""img/mask71.png""]]]","","","main","246","color-precision2"
"","","","","","html-keyboard-response","54","325039","0.0-10.0-1.17","55b2d3f2fdf99b525bc839aa","640759fa512f630a2bdc333d","6407b70bf3b4f29a3b1567f2","null","","null","","","","","","","","","","","","","","","","","","","fixation","",""
"","","","","","color-precision2","55","327437","0.0-10.0-0.18-0.18","55b2d3f2fdf99b525bc839aa","640759fa512f630a2bdc333d","6407b70bf3b4f29a3b1567f2","[274]","","","[21]","[301]","301","126","67.72270653752928","[67.72270653752928]","[301.7227065375293]","[301]","0","0","1","0","152.73399999848334","1002.9449999984936","1000","[[[""img/mask44.png""]]]","","","main","126","color-precision2"
"","","","","","html-keyboard-response","56","327938","0.0-10.0-1.18","55b2d3f2fdf99b525bc839aa","640759fa512f630a2bdc333d","6407b70bf3b4f29a3b1567f2","null","","null","","","","","","","","","","","","","","","","","","","fixation","",""
"","","","","","many-guess-6","57","330697","0.0-10.0-0.19-0.19","55b2d3f2fdf99b525bc839aa","640759fa512f630a2bdc333d","6407b70bf3b4f29a3b1567f2","[1413.8999999985099]","","","[25,18,24,13,17,19,0,8,1,10,21,12,26,30,20,29,3,32,7,14,2,22,11,34,28,4,33,35,15,16,5,23,9,31,27,6]","[253,44,263,34,123,24,243,213,4,133,353,64,84,193,293,183,74,283,143,223,333,113,173,163,153,54,303,103,94,343,233,313,273,323,14,203]","253","263","317.7788809431123","[317.7788809431123]","[54.77888094311231]","[55]","[210,210,210,300,30,120,210,30,300]","0","36","0","152.81099999998696","19.445999999996275","16","[[[""img/mask23.png""],[""img/mask1.png""],[""img/mask50.png""],[""img/mask11.png""],[""img/mask79.png""],[""img/mask10.png""],[""img/mask46.png""],[""img/mask87.png""],[""img/mask39.png""],[""img/mask28.png""],[""img/mask2.png""],[""img/mask22.png""],[""img/mask68.png""],[""img/mask90.png""],[""img/mask29.png""],[""img/mask7.png""],[""img/mask60.png""],[""img/mask30.png""],[""img/mask15.png""],[""img/mask32.png""],[""img/mask83.png""],[""img/mask96.png""],[""img/mask36.png""],[""img/mask88.png""],[""img/mask93.png""],[""img/mask83.png""],[""img/mask53.png""],[""img/mask65.png""],[""img/mask38.png""],[""img/mask86.png""],[""img/mask7.png""],[""img/mask10.png""],[""img/mask93.png""],[""img/mask43.png""],[""img/mask90.png""],[""img/mask66.png""]]]","","[25,18,24,13,17,19,0,8,1,10,21,12,26,30,20,29,3,32,7,14,2,22,11,34,28,4,33,35,15,16,5,23,9,31,27,6]","main","263","many-guess-6"
"","","","","","html-keyboard-response","58","333246","0.0-10.0-1.19","55b2d3f2fdf99b525bc839aa","640759fa512f630a2bdc333d","6407b70bf3b4f29a3b1567f2","2548.800000000745","Wow! You've completed 20 out of 180 trials! </p> <p>  </p><p> Take a quick break, then press any key when you're ready to continue."," ","","","","","","","","","","","","","","","","","","","fixation","",""
"","","","","","color-precision2","59","336324","0.0-10.0-0.20-0.20","55b2d3f2fdf99b525bc839aa","640759fa512f630a2bdc333d","6407b70bf3b4f29a3b1567f2","[74.10000000149012]","","","[30]","[205]","205","49","","[null]","[null]","[205]","0","0","1","0","152.74299999926006","999.6790000000037","1000","[[[""img/mask73.png""]]]","","","main","49","color-precision2"
"","","","","","html-keyboard-response","60","336824","0.0-10.0-1.20","55b2d3f2fdf99b525bc839aa","640759fa512f630a2bdc333d","6407b70bf3b4f29a3b1567f2","null","","null","","","","","","","","","","","","","","","","","","","fixation","",""
"","","","","","color-precision2","61","339731","0.0-10.0-0.21-0.21","55b2d3f2fdf99b525bc839aa","640759fa512f630a2bdc333d","6407b70bf3b4f29a3b1567f2","[565.8000000007451]","","","[27]","[333]","333","300","267.05473968701597","[267.05473968701597]","[327.05473968701597]","[327]","0","0","1","0","152.72400000074413","1001.5619999999763","1000","[[[""img/mask29.png""]]]","","","main","300","color-precision2"
"","","","","","html-keyboard-response","62","340231","0.0-10.0-1.21","55b2d3f2fdf99b525bc839aa","640759fa512f630a2bdc333d","6407b70bf3b4f29a3b1567f2","null","","null","","","","","","","","","","","","","","","","","","","fixation","",""
"","","","","","many-guess-6","63","343091","0.0-10.0-0.22-0.22","55b2d3f2fdf99b525bc839aa","640759fa512f630a2bdc333d","6407b70bf3b4f29a3b1567f2","[1469.199999999255]","","","[24,8,0,19,29,22,31,3,12,11,21,18,32,25,14,30,27,26,23,13,2,7,1,9,6,20,33,35,15,10,16,4,28,34,17,5]","[288,188,278,88,48,358,318,258,98,158,218,248,148,238,78,308,138,58,9,328,19,208,29,198,348,118,68,108,268,338,39,298,228,128,168,178]","288","352","171.08022014890048","[171.08022014890048]","[179.08022014890048]","[178]","[120,30,120,30,210,210,210,30,210]","0","36","0","155.748999999254","13.371999999275431","16","[[[""img/mask69.png""],[""img/mask21.png""],[""img/mask88.png""],[""img/mask11.png""],[""img/mask81.png""],[""img/mask68.png""],[""img/mask63.png""],[""img/mask2.png""],[""img/mask14.png""],[""img/mask39.png""],[""img/mask38.png""],[""img/mask34.png""],[""img/mask69.png""],[""img/mask42.png""],[""img/mask47.png""],[""img/mask1.png""],[""img/mask53.png""],[""img/mask52.png""],[""img/mask10.png""],[""img/mask14.png""],[""img/mask46.png""],[""img/mask87.png""],[""img/mask81.png""],[""img/mask52.png""],[""img/mask27.png""],[""img/mask5.png""],[""img/mask87.png""],[""img/mask82.png""],[""img/mask2.png""],[""img/mask75.png""],[""img/mask64.png""],[""img/mask62.png""],[""img/mask71.png""],[""img/mask87.png""],[""img/mask68.png""],[""img/mask90.png""]]]","","[24,8,0,19,29,22,31,3,12,11,21,18,32,25,14,30,27,26,23,13,2,7,1,9,6,20,33,35,15,10,16,4,28,34,17,5]","main","352","many-guess-6"
"","","","","","html-keyboard-response","64","343591","0.0-10.0-1.22","55b2d3f2fdf99b525bc839aa","640759fa512f630a2bdc333d","6407b70bf3b4f29a3b1567f2","null","","null","","","","","","","","","","","","","","","","","","","fixation","",""
"","","","","","many-guess-6","65","346082","0.0-10.0-0.23-0.23","55b2d3f2fdf99b525bc839aa","640759fa512f630a2bdc333d","6407b70bf3b4f29a3b1567f2","[1277.5999999977648]","","","[19,9,27,12,29,11,32,34,6,26,3,0,17,28,1,35,15,33,7,4,13,22,18,8,10,23,5,30,31,14,16,24,20,25,2,21]","[71,31,120,51,290,220,41,200,91,140,280,230,11,340,250,170,270,330,130,190,240,210,160,260,110,310,350,150,300,81,180,61,21,1,320,100]","71","102","192.2546198026814","[192.2546198026814]","[90.25461980268139]","[89]","[300,30,30,120,30,30,30,120,120]","0","36","0","152.86800000077346","13.799999997776467","16","[[[""img/mask88.png""],[""img/mask65.png""],[""img/mask29.png""],[""img/mask26.png""],[""img/mask78.png""],[""img/mask47.png""],[""img/mask4.png""],[""img/mask51.png""],[""img/mask40.png""],[""img/mask96.png""],[""img/mask29.png""],[""img/mask24.png""],[""img/mask30.png""],[""img/mask37.png""],[""img/mask34.png""],[""img/mask43.png""],[""img/mask90.png""],[""img/mask94.png""],[""img/mask62.png""],[""img/mask58.png""],[""img/mask74.png""],[""img/mask83.png""],[""img/mask79.png""],[""img/mask54.png""],[""img/mask61.png""],[""img/mask60.png""],[""img/mask67.png""],[""img/mask29.png""],[""img/mask26.png""],[""img/mask31.png""],[""img/mask59.png""],[""img/mask65.png""],[""img/mask57.png""],[""img/mask65.png""],[""img/mask42.png""],[""img/mask53.png""]]]","","[19,9,27,12,29,11,32,34,6,26,3,0,17,28,1,35,15,33,7,4,13,22,18,8,10,23,5,30,31,14,16,24,20,25,2,21]","main","102","many-guess-6"
"","","","","","html-keyboard-response","66","346583","0.0-10.0-1.23","55b2d3f2fdf99b525bc839aa","640759fa512f630a2bdc333d","6407b70bf3b4f29a3b1567f2","null","","null","","","","","","","","","","","","","","","","","","","fixation","",""
"","","","","","many-guess-6","67","349030","0.0-10.0-0.24-0.24","55b2d3f2fdf99b525bc839aa","640759fa512f630a2bdc333d","6407b70bf3b4f29a3b1567f2","[1092]","","","[34,24,25,4,0,21,27,28,7,12,11,8,30,23,19,14,26,2,29,9,5,6,3,35,20,17,15,22,31,18,10,32,1,33,16,13]","[355,146,305,116,126,255,335,265,26,325,235,315,156,285,66,96,195,76,275,175,166,245,16,56,205,6,225,136,86,46,295,185,215,36,345,106]","355","315","354.38740014125636","[354.38740014125636]","[39.387400141256364]","[39]","[210,120,210,30,300,120,30,30,210]","0","36","0","149.93599999998696","14.140999997791369","16","[[[""img/mask64.png""],[""img/mask24.png""],[""img/mask35.png""],[""img/mask13.png""],[""img/mask86.png""],[""img/mask53.png""],[""img/mask94.png""],[""img/mask67.png""],[""img/mask51.png""],[""img/mask53.png""],[""img/mask2.png""],[""img/mask97.png""],[""img/mask93.png""],[""img/mask29.png""],[""img/mask60.png""],[""img/mask38.png""],[""img/mask97.png""],[""img/mask43.png""],[""img/mask28.png""],[""img/mask2.png""],[""img/mask26.png""],[""img/mask75.png""],[""img/mask42.png""],[""img/mask11.png""],[""img/mask36.png""],[""img/mask68.png""],[""img/mask46.png""],[""img/mask15.png""],[""img/mask56.png""],[""img/mask11.png""],[""img/mask14.png""],[""img/mask40.png""],[""img/mask71.png""],[""img/mask58.png""],[""img/mask24.png""],[""img/mask69.png""]]]","","[34,24,25,4,0,21,27,28,7,12,11,8,30,23,19,14,26,2,29,9,5,6,3,35,20,17,15,22,31,18,10,32,1,33,16,13]","main","315","many-guess-6"
"","","","","","html-keyboard-response","68","349531","0.0-10.0-1.24","55b2d3f2fdf99b525bc839aa","640759fa512f630a2bdc333d","6407b70bf3b4f29a3b1567f2","null","","null","","","","","","","","","","","","","","","","","","","fixation","",""
"","","","","","color-precision2","69","352141","0.0-10.0-0.25-0.25","55b2d3f2fdf99b525bc839aa","640759fa512f630a2bdc333d","6407b70bf3b4f29a3b1567f2","[356]","","","[19]","[229]","229","121","335.65344156503824","[335.65344156503824]","[214.65344156503824]","[214]","0","0","1","0","152.94900000002235","997.8570000000182","1000","[[[""img/mask85.png""]]]","","","main","121","color-precision2"
"","","","","","html-keyboard-response","70","352642","0.0-10.0-1.25","55b2d3f2fdf99b525bc839aa","640759fa512f630a2bdc333d","6407b70bf3b4f29a3b1567f2","null","","null","","","","","","","","","","","","","","","","","","","fixation","",""
"","","","","","many-guess-6","71","355062","0.0-10.0-0.26-0.26","55b2d3f2fdf99b525bc839aa","640759fa512f630a2bdc333d","6407b70bf3b4f29a3b1567f2","[1121.8999999985099]","","","[8,17,18,14,3,26,32,9,33,6,20,27,30,19,31,2,7,35,12,1,11,4,22,29,23,16,5,28,15,21,34,25,10,13,24,0]","[121,111,141,191,131,62,321,91,351,181,291,12,251,32,101,281,211,221,71,341,161,261,311,171,52,331,231,2,241,301,271,22,151,201,42,81]","121","10","176.0231932689365","[176.0231932689365]","[166.0231932689365]","[165]","[120,210,300,120,120,30,300,120,120]","0","36","0","155.96099999849685","12.883000000729226","16","[[[""img/mask16.png""],[""img/mask12.png""],[""img/mask2.png""],[""img/mask30.png""],[""img/mask19.png""],[""img/mask8.png""],[""img/mask82.png""],[""img/mask41.png""],[""img/mask28.png""],[""img/mask62.png""],[""img/mask90.png""],[""img/mask70.png""],[""img/mask38.png""],[""img/mask89.png""],[""img/mask34.png""],[""img/mask76.png""],[""img/mask44.png""],[""img/mask93.png""],[""img/mask97.png""],[""img/mask57.png""],[""img/mask47.png""],[""img/mask26.png""],[""img/mask56.png""],[""img/mask18.png""],[""img/mask30.png""],[""img/mask83.png""],[""img/mask40.png""],[""img/mask82.png""],[""img/mask60.png""],[""img/mask41.png""],[""img/mask98.png""],[""img/mask7.png""],[""img/mask83.png""],[""img/mask84.png""],[""img/mask87.png""],[""img/mask36.png""]]]","","[8,17,18,14,3,26,32,9,33,6,20,27,30,19,31,2,7,35,12,1,11,4,22,29,23,16,5,28,15,21,34,25,10,13,24,0]","main","10","many-guess-6"
"","","","","","html-keyboard-response","72","355563","0.0-10.0-1.26","55b2d3f2fdf99b525bc839aa","640759fa512f630a2bdc333d","6407b70bf3b4f29a3b1567f2","null","","null","","","","","","","","","","","","","","","","","","","fixation","",""
"","","","","","color-precision2","73","358121","0.0-10.0-0.27-0.27","55b2d3f2fdf99b525bc839aa","640759fa512f630a2bdc333d","6407b70bf3b4f29a3b1567f2","[241.20000000298023]","","","[33]","[143]","143","147","302.04827637734536","[302.04827637734536]","[155.04827637734536]","[155]","0","0","1","0","152.6949999977369","997.3269999977783","1000","[[[""img/mask80.png""]]]","","","main","147","color-precision2"
"","","","","","html-keyboard-response","74","358621","0.0-10.0-1.27","55b2d3f2fdf99b525bc839aa","640759fa512f630a2bdc333d","6407b70bf3b4f29a3b1567f2","null","","null","","","","","","","","","","","","","","","","","","","fixation","",""
"","","","","","many-guess-6","75","361562","0.0-10.0-0.28-0.28","55b2d3f2fdf99b525bc839aa","640759fa512f630a2bdc333d","6407b70bf3b4f29a3b1567f2","[1684.300000000745]","","","[4,35,7,31,10,27,28,21,22,17,33,18,20,3,24,29,15,12,16,23,14,8,32,34,30,26,13,2,5,19,6,9,25,1,11,0]","[107,196,226,306,296,176,17,37,206,156,186,256,286,326,47,57,216,276,246,117,336,316,137,236,77,147,346,27,356,67,266,166,87,7,97,127]","107","222","71.31642789565804","[71.31642789565804]","[209.31642789565802]","[207]","[300,120,120,30,300,210,120,210,300]","0","36","0","147.69699999853037","15.060999999986961","16","[[[""img/mask30.png""],[""img/mask87.png""],[""img/mask70.png""],[""img/mask98.png""],[""img/mask54.png""],[""img/mask11.png""],[""img/mask2.png""],[""img/mask60.png""],[""img/mask70.png""],[""img/mask83.png""],[""img/mask17.png""],[""img/mask81.png""],[""img/mask96.png""],[""img/mask72.png""],[""img/mask45.png""],[""img/mask34.png""],[""img/mask82.png""],[""img/mask43.png""],[""img/mask87.png""],[""img/mask3.png""],[""img/mask100.png""],[""img/mask47.png""],[""img/mask50.png""],[""img/mask71.png""],[""img/mask21.png""],[""img/mask77.png""],[""img/mask10.png""],[""img/mask95.png""],[""img/mask33.png""],[""img/mask61.png""],[""img/mask38.png""],[""img/mask37.png""],[""img/mask95.png""],[""img/mask6.png""],[""img/mask10.png""],[""img/mask65.png""]]]","","[4,35,7,31,10,27,28,21,22,17,33,18,20,3,24,29,15,12,16,23,14,8,32,34,30,26,13,2,5,19,6,9,25,1,11,0]","main","222","many-guess-6"
"","","","","","html-keyboard-response","76","362063","0.0-10.0-1.28","55b2d3f2fdf99b525bc839aa","640759fa512f630a2bdc333d","6407b70bf3b4f29a3b1567f2","null","","null","","","","","","","","","","","","","","","","","","","fixation","",""
"","","","","","color-precision2","77","364536","0.0-10.0-0.29-0.29","55b2d3f2fdf99b525bc839aa","640759fa512f630a2bdc333d","6407b70bf3b4f29a3b1567f2","[141.30000000074506]","","","[21]","[199]","199","222","","[null]","[null]","[196]","0","0","1","0","152.65199999778997","999.0799999985029","1000","[[[""img/mask36.png""]]]","","","main","222","color-precision2"
"","","","","","html-keyboard-response","78","365037","0.0-10.0-1.29","55b2d3f2fdf99b525bc839aa","640759fa512f630a2bdc333d","6407b70bf3b4f29a3b1567f2","null","","null","","","","","","","","","","","","","","","","","","","fixation","",""
"","","","","","color-precision2","79","367769","0.0-10.0-0.30-0.30","55b2d3f2fdf99b525bc839aa","640759fa512f630a2bdc333d","6407b70bf3b4f29a3b1567f2","[341.0999999977648]","","","[18]","[147]","147","250","49.27748009678438","[49.27748009678438]","[159.2774800967844]","[158]","0","0","1","0","152.68799999775365","1003.2239999999874","1000","[[[""img/mask50.png""]]]","","","main","250","color-precision2"
"","","","","","html-keyboard-response","80","368275","0.0-10.0-1.30","55b2d3f2fdf99b525bc839aa","640759fa512f630a2bdc333d","6407b70bf3b4f29a3b1567f2","null","","null","","","","","","","","","","","","","","","","","","","fixation","",""
"","","","","","many-guess-6","81","371076","0.0-10.0-0.31-0.31","55b2d3f2fdf99b525bc839aa","640759fa512f630a2bdc333d","6407b70bf3b4f29a3b1567f2","[1417.5999999977648]","","","[14,34,7,0,9,31,3,22,15,18,20,27,17,32,6,2,33,24,26,4,21,16,11,30,25,28,12,29,10,19,23,1,5,13,8,35]","[212,143,23,222,73,163,183,292,103,262,302,3,123,43,13,33,332,63,133,202,352,252,232,312,93,153,242,342,53,83,282,173,272,322,113,193]","212","301","160.105231941935","[160.105231941935]","[219.105231941935]","[218]","[210,30,210,30,120,120,300,30,30]","0","36","0","148.8640000000014","16.918000000005122","16","[[[""img/mask76.png""],[""img/mask69.png""],[""img/mask80.png""],[""img/mask66.png""],[""img/mask11.png""],[""img/mask20.png""],[""img/mask40.png""],[""img/mask91.png""],[""img/mask84.png""],[""img/mask52.png""],[""img/mask79.png""],[""img/mask39.png""],[""img/mask66.png""],[""img/mask4.png""],[""img/mask65.png""],[""img/mask14.png""],[""img/mask34.png""],[""img/mask38.png""],[""img/mask34.png""],[""img/mask77.png""],[""img/mask43.png""],[""img/mask61.png""],[""img/mask86.png""],[""img/mask98.png""],[""img/mask75.png""],[""img/mask64.png""],[""img/mask17.png""],[""img/mask12.png""],[""img/mask64.png""],[""img/mask86.png""],[""img/mask55.png""],[""img/mask6.png""],[""img/mask76.png""],[""img/mask53.png""],[""img/mask47.png""],[""img/mask61.png""]]]","","[14,34,7,0,9,31,3,22,15,18,20,27,17,32,6,2,33,24,26,4,21,16,11,30,25,28,12,29,10,19,23,1,5,13,8,35]","main","301","many-guess-6"
"","","","","","html-keyboard-response","82","371577","0.0-10.0-1.31","55b2d3f2fdf99b525bc839aa","640759fa512f630a2bdc333d","6407b70bf3b4f29a3b1567f2","null","","null","","","","","","","","","","","","","","","","","","","fixation","",""
"","","","","","color-precision2","83","374077","0.0-10.0-0.32-0.32","55b2d3f2fdf99b525bc839aa","640759fa512f630a2bdc333d","6407b70bf3b4f29a3b1567f2","[127.80000000074506]","","","[18]","[338]","338","83","","[null]","[null]","[324]","0","0","1","0","152.65299999777926","1003.2939999977825","1000","[[[""img/mask76.png""]]]","","","main","83","color-precision2"
"","","","","","html-keyboard-response","84","374577","0.0-10.0-1.32","55b2d3f2fdf99b525bc839aa","640759fa512f630a2bdc333d","6407b70bf3b4f29a3b1567f2","null","","null","","","","","","","","","","","","","","","","","","","fixation","",""
"","","","","","many-guess-6","85","377354","0.0-10.0-0.33-0.33","55b2d3f2fdf99b525bc839aa","640759fa512f630a2bdc333d","6407b70bf3b4f29a3b1567f2","[1379.1000000014901]","","","[17,21,4,15,13,7,5,9,23,11,1,28,19,16,30,33,2,31,10,8,12,32,24,0,3,35,18,22,26,6,29,34,20,27,14,25]","[83,313,103,173,113,223,123,293,43,133,243,163,63,203,34,333,93,24,273,14,233,213,353,343,143,183,323,263,153,283,73,303,253,4,53,193]","83","215","130.51161516759558","[130.51161516759558]","[275.51161516759555]","[274]","[210,30,210,120,120,300,30,120,120]","0","36","0","152.74300000001676","15.676000000734348","16","[[[""img/mask90.png""],[""img/mask48.png""],[""img/mask56.png""],[""img/mask52.png""],[""img/mask40.png""],[""img/mask34.png""],[""img/mask83.png""],[""img/mask28.png""],[""img/mask33.png""],[""img/mask63.png""],[""img/mask88.png""],[""img/mask80.png""],[""img/mask19.png""],[""img/mask47.png""],[""img/mask32.png""],[""img/mask64.png""],[""img/mask66.png""],[""img/mask71.png""],[""img/mask76.png""],[""img/mask14.png""],[""img/mask55.png""],[""img/mask71.png""],[""img/mask40.png""],[""img/mask20.png""],[""img/mask46.png""],[""img/mask14.png""],[""img/mask43.png""],[""img/mask28.png""],[""img/mask86.png""],[""img/mask100.png""],[""img/mask54.png""],[""img/mask29.png""],[""img/mask35.png""],[""img/mask27.png""],[""img/mask94.png""],[""img/mask81.png""]]]","","[17,21,4,15,13,7,5,9,23,11,1,28,19,16,30,33,2,31,10,8,12,32,24,0,3,35,18,22,26,6,29,34,20,27,14,25]","main","215","many-guess-6"
"","","","","","html-keyboard-response","86","377856","0.0-10.0-1.33","55b2d3f2fdf99b525bc839aa","640759fa512f630a2bdc333d","6407b70bf3b4f29a3b1567f2","null","","null","","","","","","","","","","","","","","","","","","","fixation","",""
"","","","","","color-precision2","87","380345","0.0-10.0-0.34-0.34","55b2d3f2fdf99b525bc839aa","640759fa512f630a2bdc333d","6407b70bf3b4f29a3b1567f2","[179.60000000149012]","","","[13]","[113]","113","105","219.95315425951753","[219.95315425951753]","[114.95315425951753]","[115]","0","0","1","0","152.7179999977816","998.5580000007176","1000","[[[""img/mask15.png""]]]","","","main","105","color-precision2"
"","","","","","html-keyboard-response","88","380846","0.0-10.0-1.34","55b2d3f2fdf99b525bc839aa","640759fa512f630a2bdc333d","6407b70bf3b4f29a3b1567f2","null","","null","","","","","","","","","","","","","","","","","","","fixation","",""
"","","","","","color-precision2","89","384576","0.0-10.0-0.35-0.35","55b2d3f2fdf99b525bc839aa","640759fa512f630a2bdc333d","6407b70bf3b4f29a3b1567f2","[1363.1000000014901]","","","[2]","[59]","59","64","157.84602746053497","[157.84602746053497]","[93.84602746053497]","[92]","0","0","1","0","152.66899999778252","1001.5949999985169","1000","[[[""img/mask100.png""]]]","","","main","64","color-precision2"
"","","","","","html-keyboard-response","90","385077","0.0-10.0-1.35","55b2d3f2fdf99b525bc839aa","640759fa512f630a2bdc333d","6407b70bf3b4f29a3b1567f2","null","","null","","","","","","","","","","","","","","","","","","","fixation","",""
"","","","","","color-precision2","91","387559","0.0-10.0-0.36-0.36","55b2d3f2fdf99b525bc839aa","640759fa512f630a2bdc333d","6407b70bf3b4f29a3b1567f2","[83.60000000149012]","","","[27]","[30]","30","140","","[null]","[null]","[34]","0","0","1","0","152.8070000007283","998.6989999977523","1000","[[[""img/mask76.png""]]]","","","main","140","color-precision2"
"","","","","","html-keyboard-response","92","388071","0.0-10.0-1.36","55b2d3f2fdf99b525bc839aa","640759fa512f630a2bdc333d","6407b70bf3b4f29a3b1567f2","null","","null","","","","","","","","","","","","","","","","","","","fixation","",""
"","","","","","many-guess-6","93","390636","0.0-10.0-0.37-0.37","55b2d3f2fdf99b525bc839aa","640759fa512f630a2bdc333d","6407b70bf3b4f29a3b1567f2","[1183.300000000745]","","","[14,31,21,24,29,18,25,22,17,15,10,3,7,4,8,11,30,35,9,27,28,13,16,5,34,33,20,32,12,19,2,23,1,26,6,0]","[5,344,214,174,224,184,294,55,134,254,314,115,324,334,284,274,304,105,65,95,264,234,354,124,244,154,25,144,45,204,15,75,85,35,194,164]","5","319","271.67241006565865","[271.67241006565865]","[312.67241006565865]","[313]","[120,30,300,300,300,210,210,300,30]","0","36","0","148.89599999849452","14.866000000736676","16","[[[""img/mask70.png""],[""img/mask42.png""],[""img/mask42.png""],[""img/mask99.png""],[""img/mask44.png""],[""img/mask38.png""],[""img/mask32.png""],[""img/mask19.png""],[""img/mask34.png""],[""img/mask33.png""],[""img/mask61.png""],[""img/mask96.png""],[""img/mask67.png""],[""img/mask62.png""],[""img/mask1.png""],[""img/mask59.png""],[""img/mask30.png""],[""img/mask32.png""],[""img/mask23.png""],[""img/mask34.png""],[""img/mask20.png""],[""img/mask83.png""],[""img/mask62.png""],[""img/mask53.png""],[""img/mask52.png""],[""img/mask9.png""],[""img/mask55.png""],[""img/mask38.png""],[""img/mask32.png""],[""img/mask59.png""],[""img/mask43.png""],[""img/mask3.png""],[""img/mask75.png""],[""img/mask7.png""],[""img/mask49.png""],[""img/mask12.png""]]]","","[14,31,21,24,29,18,25,22,17,15,10,3,7,4,8,11,30,35,9,27,28,13,16,5,34,33,20,32,12,19,2,23,1,26,6,0]","main","319","many-guess-6"
"","","","","","html-keyboard-response","94","391136","0.0-10.0-1.37","55b2d3f2fdf99b525bc839aa","640759fa512f630a2bdc333d","6407b70bf3b4f29a3b1567f2","null","","null","","","","","","","","","","","","","","","","","","","fixation","",""
"","","","","","color-precision2","95","394162","0.0-10.0-0.38-0.38","55b2d3f2fdf99b525bc839aa","640759fa512f630a2bdc333d","6407b70bf3b4f29a3b1567f2","[665]","","","[27]","[322]","322","339","302.28977067201276","[302.28977067201276]","[323.28977067201276]","[323]","0","0","1","0","152.69600000075297","999.2299999992829","1000","[[[""img/mask52.png""]]]","","","main","339","color-precision2"
"","","","","","html-keyboard-response","96","394663","0.0-10.0-1.38","55b2d3f2fdf99b525bc839aa","640759fa512f630a2bdc333d","6407b70bf3b4f29a3b1567f2","null","","null","","","","","","","","","","","","","","","","","","","fixation","",""
"","","","","","color-precision2","97","397158","0.0-10.0-0.39-0.39","55b2d3f2fdf99b525bc839aa","640759fa512f630a2bdc333d","6407b70bf3b4f29a3b1567f2","[193.40000000223517]","","","[11]","[29]","29","153","193.73449285365948","[193.73449285365948]","[40.734492853659475]","[40]","0","0","1","0","152.80399999849033","998.7379999992554","1000","[[[""img/mask29.png""]]]","","","main","153","color-precision2"
"","","","","","html-keyboard-response","98","399440","0.0-10.0-1.39","55b2d3f2fdf99b525bc839aa","640759fa512f630a2bdc333d","6407b70bf3b4f29a3b1567f2","2281.5","Wow! You've completed 40 out of 180 trials! </p> <p>  </p><p> Take a quick break, then press any key when you're ready to continue."," ","","","","","","","","","","","","","","","","","","","fixation","",""
"","","","","","many-guess-6","99","403899","0.0-10.0-0.40-0.40","55b2d3f2fdf99b525bc839aa","640759fa512f630a2bdc333d","6407b70bf3b4f29a3b1567f2","[1430.300000000745]","","","[29,34,22,19,27,15,25,3,21,11,9,30,4,20,32,26,16,28,31,1,23,33,5,13,17,10,12,6,24,8,14,18,35,0,7,2]","[242,222,232,282,83,163,202,63,352,43,73,332,252,113,322,182,192,302,262,13,103,312,93,123,133,53,292,272,23,153,342,33,212,143,172,3]","242","326","281.26180590479044","[281.26180590479044]","[315.26180590479044]","[316]","[30,120,210,120,30,210,210,300,210]","0","36","0","152.8739999984973","12.712999997776933","16","[[[""img/mask44.png""],[""img/mask66.png""],[""img/mask3.png""],[""img/mask17.png""],[""img/mask25.png""],[""img/mask36.png""],[""img/mask11.png""],[""img/mask5.png""],[""img/mask72.png""],[""img/mask22.png""],[""img/mask3.png""],[""img/mask82.png""],[""img/mask93.png""],[""img/mask63.png""],[""img/mask58.png""],[""img/mask41.png""],[""img/mask46.png""],[""img/mask96.png""],[""img/mask1.png""],[""img/mask62.png""],[""img/mask30.png""],[""img/mask79.png""],[""img/mask91.png""],[""img/mask82.png""],[""img/mask48.png""],[""img/mask64.png""],[""img/mask74.png""],[""img/mask74.png""],[""img/mask31.png""],[""img/mask63.png""],[""img/mask40.png""],[""img/mask24.png""],[""img/mask4.png""],[""img/mask35.png""],[""img/mask72.png""],[""img/mask81.png""]]]","","[29,34,22,19,27,15,25,3,21,11,9,30,4,20,32,26,16,28,31,1,23,33,5,13,17,10,12,6,24,8,14,18,35,0,7,2]","main","326","many-guess-6"
"","","","","","html-keyboard-response","100","404400","0.0-10.0-1.40","55b2d3f2fdf99b525bc839aa","640759fa512f630a2bdc333d","6407b70bf3b4f29a3b1567f2","null","","null","","","","","","","","","","","","","","","","","","","fixation","",""
"","","","","","many-guess-6","101","407571","0.0-10.0-0.41-0.41","55b2d3f2fdf99b525bc839aa","640759fa512f630a2bdc333d","6407b70bf3b4f29a3b1567f2","[1831.5]","","","[6,16,11,4,14,13,18,27,33,26,20,15,25,22,3,35,5,12,23,28,29,10,9,17,0,2,8,34,21,24,7,30,32,1,19,31]","[40,229,359,20,30,249,189,70,279,110,319,309,50,269,119,149,100,179,259,80,129,219,60,289,299,239,209,139,90,329,169,349,339,159,10,199]","40","6","329.29351642028195","[329.29351642028195]","[323.29351642028195]","[323]","[210,210,210,120,120,300,120,30,300]","0","36","0","152.34700000000885","13.375999998534098","16","[[[""img/mask75.png""],[""img/mask57.png""],[""img/mask91.png""],[""img/mask72.png""],[""img/mask78.png""],[""img/mask18.png""],[""img/mask36.png""],[""img/mask87.png""],[""img/mask89.png""],[""img/mask62.png""],[""img/mask14.png""],[""img/mask98.png""],[""img/mask3.png""],[""img/mask60.png""],[""img/mask30.png""],[""img/mask47.png""],[""img/mask32.png""],[""img/mask28.png""],[""img/mask9.png""],[""img/mask37.png""],[""img/mask78.png""],[""img/mask62.png""],[""img/mask42.png""],[""img/mask5.png""],[""img/mask97.png""],[""img/mask68.png""],[""img/mask26.png""],[""img/mask42.png""],[""img/mask52.png""],[""img/mask26.png""],[""img/mask7.png""],[""img/mask72.png""],[""img/mask48.png""],[""img/mask95.png""],[""img/mask58.png""],[""img/mask23.png""]]]","","[6,16,11,4,14,13,18,27,33,26,20,15,25,22,3,35,5,12,23,28,29,10,9,17,0,2,8,34,21,24,7,30,32,1,19,31]","main","6","many-guess-6"
"","","","","","html-keyboard-response","102","408072","0.0-10.0-1.41","55b2d3f2fdf99b525bc839aa","640759fa512f630a2bdc333d","6407b70bf3b4f29a3b1567f2","null","","null","","","","","","","","","","","","","","","","","","","fixation","",""
"","","","","","color-precision2","103","411262","0.0-10.0-0.42-0.42","55b2d3f2fdf99b525bc839aa","640759fa512f630a2bdc333d","6407b70bf3b4f29a3b1567f2","[491.8999999985099]","","","[23]","[285]","285","194","112.79098366826646","[112.79098366826646]","[278.79098366826645]","[277]","0","0","1","0","152.66799999849172","999.5989999992307","1000","[[[""img/mask18.png""]]]","","","main","194","color-precision2"
"","","","","","html-keyboard-response","104","411762","0.0-10.0-1.42","55b2d3f2fdf99b525bc839aa","640759fa512f630a2bdc333d","6407b70bf3b4f29a3b1567f2","null","","null","","","","","","","","","","","","","","","","","","","fixation","",""
"","","","","","color-precision2","105","414846","0.0-10.0-0.43-0.43","55b2d3f2fdf99b525bc839aa","640759fa512f630a2bdc333d","6407b70bf3b4f29a3b1567f2","[236.20000000298023]","","","[10]","[215]","215","140","","[null]","[null]","[217]","0","0","1","0","152.67599999776576","998.3099999977858","1000","[[[""img/mask65.png""]]]","","","main","140","color-precision2"
"","","","","","html-keyboard-response","106","415347","0.0-10.0-1.43","55b2d3f2fdf99b525bc839aa","640759fa512f630a2bdc333d","6407b70bf3b4f29a3b1567f2","null","","null","","","","","","","","","","","","","","","","","","","fixation","",""
"","","","","","color-precision2","107","418081","0.0-10.0-0.44-0.44","55b2d3f2fdf99b525bc839aa","640759fa512f630a2bdc333d","6407b70bf3b4f29a3b1567f2","[322.6000000014901]","","","[12]","[113]","113","323","70.31770489756974","[70.31770489756974]","[107.31770489756974]","[106]","0","0","1","0","152.76600000000326","1000.5919999992475","1000","[[[""img/mask10.png""]]]","","","main","323","color-precision2"
"","","","","","html-keyboard-response","108","418582","0.0-10.0-1.44","55b2d3f2fdf99b525bc839aa","640759fa512f630a2bdc333d","6407b70bf3b4f29a3b1567f2","null","","null","","","","","","","","","","","","","","","","","","","fixation","",""
"","","","","","color-precision2","109","421025","0.0-10.0-0.45-0.45","55b2d3f2fdf99b525bc839aa","640759fa512f630a2bdc333d","6407b70bf3b4f29a3b1567f2","[153.60000000149012]","","","[8]","[286]","286","307","","[null]","[null]","[287]","0","0","1","0","152.7829999999958","1001.8189999985043","1000","[[[""img/mask15.png""]]]","","","main","307","color-precision2"
"","","","","","html-keyboard-response","110","421526","0.0-10.0-1.45","55b2d3f2fdf99b525bc839aa","640759fa512f630a2bdc333d","6407b70bf3b4f29a3b1567f2","null","","null","","","","","","","","","","","","","","","","","","","fixation","",""
"","","","","","color-precision2","111","423940","0.0-10.0-0.46-0.46","55b2d3f2fdf99b525bc839aa","640759fa512f630a2bdc333d","6407b70bf3b4f29a3b1567f2","[212.60000000149012]","","","[29]","[327]","327","160","130.4962583616132","[130.4962583616132]","[330.4962583616132]","[329]","0","0","1","0","148.7159999977448","998.486000000732","1000","[[[""img/mask8.png""]]]","","","main","160","color-precision2"
"","","","","","html-keyboard-response","112","424440","0.0-10.0-1.46","55b2d3f2fdf99b525bc839aa","640759fa512f630a2bdc333d","6407b70bf3b4f29a3b1567f2","null","","null","","","","","","","","","","","","","","","","","","","fixation","",""
"","","","","","many-guess-6","113","427866","0.0-10.0-0.47-0.47","55b2d3f2fdf99b525bc839aa","640759fa512f630a2bdc333d","6407b70bf3b4f29a3b1567f2","[2102.2000000029802]","","","[22,3,19,23,1,18,0,25,28,11,5,16,30,15,29,12,24,20,33,31,21,10,4,9,2,26,13,35,27,14,17,8,6,7,34,32]","[124,224,344,184,294,74,304,204,314,214,15,164,114,35,194,274,134,354,64,45,154,244,254,174,84,334,5,25,94,324,234,264,104,55,284,144]","124","79","72.035985761799","[72.035985761799]","[353.035985761799]","[351]","[300,30,210,30,30,30,210,300,120]","0","36","0","152.88399999926332","16.915999997756444","16","[[[""img/mask68.png""],[""img/mask92.png""],[""img/mask85.png""],[""img/mask89.png""],[""img/mask10.png""],[""img/mask48.png""],[""img/mask39.png""],[""img/mask76.png""],[""img/mask83.png""],[""img/mask21.png""],[""img/mask97.png""],[""img/mask16.png""],[""img/mask11.png""],[""img/mask71.png""],[""img/mask68.png""],[""img/mask80.png""],[""img/mask35.png""],[""img/mask7.png""],[""img/mask71.png""],[""img/mask51.png""],[""img/mask99.png""],[""img/mask70.png""],[""img/mask89.png""],[""img/mask71.png""],[""img/mask58.png""],[""img/mask33.png""],[""img/mask21.png""],[""img/mask61.png""],[""img/mask95.png""],[""img/mask4.png""],[""img/mask77.png""],[""img/mask89.png""],[""img/mask93.png""],[""img/mask94.png""],[""img/mask81.png""],[""img/mask66.png""]]]","","[22,3,19,23,1,18,0,25,28,11,5,16,30,15,29,12,24,20,33,31,21,10,4,9,2,26,13,35,27,14,17,8,6,7,34,32]","main","79","many-guess-6"
"","","","","","html-keyboard-response","114","428366","0.0-10.0-1.47","55b2d3f2fdf99b525bc839aa","640759fa512f630a2bdc333d","6407b70bf3b4f29a3b1567f2","null","","null","","","","","","","","","","","","","","","","","","","fixation","",""
"","","","","","color-precision2","115","431103","0.0-10.0-0.48-0.48","55b2d3f2fdf99b525bc839aa","640759fa512f630a2bdc333d","6407b70bf3b4f29a3b1567f2","[443.6000000014901]","","","[23]","[115]","115","275","32.374279475214486","[32.374279475214486]","[117.37427947521448]","[116]","0","0","1","0","151.41800000076182","1000.4459999992396","1000","[[[""img/mask77.png""]]]","","","main","275","color-precision2"
"","","","","","html-keyboard-response","116","431604","0.0-10.0-1.48","55b2d3f2fdf99b525bc839aa","640759fa512f630a2bdc333d","6407b70bf3b4f29a3b1567f2","null","","null","","","","","","","","","","","","","","","","","","","fixation","",""
"","","","","","many-guess-6","117","434178","0.0-10.0-0.49-0.49","55b2d3f2fdf99b525bc839aa","640759fa512f630a2bdc333d","6407b70bf3b4f29a3b1567f2","[1176.300000000745]","","","[26,6,20,19,34,29,11,24,18,27,33,13,5,12,14,17,23,15,9,2,28,35,0,1,7,8,22,25,4,3,31,32,10,30,16,21]","[62,192,112,182,92,222,282,12,142,2,22,52,302,212,341,102,152,72,172,322,252,232,162,32,42,262,122,312,202,272,351,82,332,242,132,292]","62","220","203.31630921868066","[203.31630921868066]","[343.31630921868066]","[343]","[300,120,300,120,120,300,30,210,210]","0","36","0","151.8170000007376","16.45200000074692","16","[[[""img/mask87.png""],[""img/mask88.png""],[""img/mask62.png""],[""img/mask18.png""],[""img/mask15.png""],[""img/mask36.png""],[""img/mask22.png""],[""img/mask14.png""],[""img/mask38.png""],[""img/mask6.png""],[""img/mask71.png""],[""img/mask63.png""],[""img/mask74.png""],[""img/mask97.png""],[""img/mask18.png""],[""img/mask25.png""],[""img/mask80.png""],[""img/mask68.png""],[""img/mask15.png""],[""img/mask89.png""],[""img/mask83.png""],[""img/mask16.png""],[""img/mask62.png""],[""img/mask4.png""],[""img/mask45.png""],[""img/mask62.png""],[""img/mask53.png""],[""img/mask15.png""],[""img/mask40.png""],[""img/mask21.png""],[""img/mask59.png""],[""img/mask9.png""],[""img/mask71.png""],[""img/mask53.png""],[""img/mask100.png""],[""img/mask71.png""]]]","","[26,6,20,19,34,29,11,24,18,27,33,13,5,12,14,17,23,15,9,2,28,35,0,1,7,8,22,25,4,3,31,32,10,30,16,21]","main","220","many-guess-6"
"","","","","","html-keyboard-response","118","434679","0.0-10.0-1.49","55b2d3f2fdf99b525bc839aa","640759fa512f630a2bdc333d","6407b70bf3b4f29a3b1567f2","null","","null","","","","","","","","","","","","","","","","","","","fixation","",""
"","","","","","color-precision2","119","437164","0.0-10.0-0.50-0.50","55b2d3f2fdf99b525bc839aa","640759fa512f630a2bdc333d","6407b70bf3b4f29a3b1567f2","[149.80000000074506]","","","[0]","[49]","49","206","","[null]","[null]","[36]","0","0","1","0","152.18499999999767","998.9119999977411","1000","[[[""img/mask29.png""]]]","","","main","206","color-precision2"
"","","","","","html-keyboard-response","120","437666","0.0-10.0-1.50","55b2d3f2fdf99b525bc839aa","640759fa512f630a2bdc333d","6407b70bf3b4f29a3b1567f2","null","","null","","","","","","","","","","","","","","","","","","","fixation","",""
"","","","","","many-guess-6","121","440126","0.0-10.0-0.51-0.51","55b2d3f2fdf99b525bc839aa","640759fa512f630a2bdc333d","6407b70bf3b4f29a3b1567f2","[1095.8999999985099]","","","[6,32,10,25,0,9,16,21,26,35,15,4,3,12,18,29,31,1,5,22,8,14,23,27,33,34,7,24,19,13,11,17,28,30,20,2]","[325,345,15,175,185,285,335,215,195,115,155,235,205,105,355,245,295,25,85,125,275,55,45,5,255,165,35,265,315,135,305,95,65,145,225,75]","325","288","191.60193681653092","[191.60193681653092]","[263.60193681653095]","[263]","[30,30,30,120,120,300,30,210,300]","0","36","0","151.29799999849638","15.128999997745268","16","[[[""img/mask74.png""],[""img/mask42.png""],[""img/mask54.png""],[""img/mask21.png""],[""img/mask44.png""],[""img/mask51.png""],[""img/mask10.png""],[""img/mask50.png""],[""img/mask53.png""],[""img/mask47.png""],[""img/mask62.png""],[""img/mask97.png""],[""img/mask6.png""],[""img/mask56.png""],[""img/mask20.png""],[""img/mask35.png""],[""img/mask48.png""],[""img/mask36.png""],[""img/mask93.png""],[""img/mask45.png""],[""img/mask21.png""],[""img/mask58.png""],[""img/mask4.png""],[""img/mask88.png""],[""img/mask59.png""],[""img/mask54.png""],[""img/mask56.png""],[""img/mask38.png""],[""img/mask53.png""],[""img/mask11.png""],[""img/mask81.png""],[""img/mask94.png""],[""img/mask97.png""],[""img/mask99.png""],[""img/mask51.png""],[""img/mask80.png""]]]","","[6,32,10,25,0,9,16,21,26,35,15,4,3,12,18,29,31,1,5,22,8,14,23,27,33,34,7,24,19,13,11,17,28,30,20,2]","main","288","many-guess-6"
"","","","","","html-keyboard-response","122","440626","0.0-10.0-1.51","55b2d3f2fdf99b525bc839aa","640759fa512f630a2bdc333d","6407b70bf3b4f29a3b1567f2","null","","null","","","","","","","","","","","","","","","","","","","fixation","",""
"","","","","","color-precision2","123","443856","0.0-10.0-0.52-0.52","55b2d3f2fdf99b525bc839aa","640759fa512f630a2bdc333d","6407b70bf3b4f29a3b1567f2","[180.70000000298023]","","","[11]","[317]","317","355","","[null]","[null]","[317]","0","0","1","0","152.79999999923166","999.7289999999921","1000","[[[""img/mask1.png""]]]","","","main","355","color-precision2"
"","","","","","html-keyboard-response","124","444357","0.0-10.0-1.52","55b2d3f2fdf99b525bc839aa","640759fa512f630a2bdc333d","6407b70bf3b4f29a3b1567f2","null","","null","","","","","","","","","","","","","","","","","","","fixation","",""
"","","","","","many-guess-6","125","446841","0.0-10.0-0.53-0.53","55b2d3f2fdf99b525bc839aa","640759fa512f630a2bdc333d","6407b70bf3b4f29a3b1567f2","[1196]","","","[32,2,30,15,4,14,3,29,8,16,26,17,21,18,28,35,5,19,0,6,12,11,31,27,7,10,33,24,9,13,1,20,25,22,23,34]","[231,172,351,331,122,162,301,62,251,291,132,311,211,72,182,271,321,341,102,92,12,42,52,241,32,192,142,2,112,152,221,22,261,281,82,201]","231","241","60.360476182628524","[60.360476182628524]","[179.36047618262853]","[178]","[120,210,300,210,210,210,300,120,30]","0","36","0","152.76699999778066","16.495999999227934","16","[[[""img/mask25.png""],[""img/mask19.png""],[""img/mask38.png""],[""img/mask71.png""],[""img/mask95.png""],[""img/mask83.png""],[""img/mask47.png""],[""img/mask23.png""],[""img/mask34.png""],[""img/mask70.png""],[""img/mask37.png""],[""img/mask91.png""],[""img/mask81.png""],[""img/mask83.png""],[""img/mask26.png""],[""img/mask61.png""],[""img/mask6.png""],[""img/mask82.png""],[""img/mask30.png""],[""img/mask10.png""],[""img/mask93.png""],[""img/mask99.png""],[""img/mask61.png""],[""img/mask25.png""],[""img/mask61.png""],[""img/mask54.png""],[""img/mask36.png""],[""img/mask58.png""],[""img/mask68.png""],[""img/mask81.png""],[""img/mask12.png""],[""img/mask35.png""],[""img/mask91.png""],[""img/mask60.png""],[""img/mask29.png""],[""img/mask64.png""]]]","","[32,2,30,15,4,14,3,29,8,16,26,17,21,18,28,35,5,19,0,6,12,11,31,27,7,10,33,24,9,13,1,20,25,22,23,34]","main","241","many-guess-6"
"","","","","","html-keyboard-response","126","447342","0.0-10.0-1.53","55b2d3f2fdf99b525bc839aa","640759fa512f630a2bdc333d","6407b70bf3b4f29a3b1567f2","null","","null","","","","","","","","","","","","","","","","","","","fixation","",""
"","","","","","color-precision2","127","450164","0.0-10.0-0.54-0.54","55b2d3f2fdf99b525bc839aa","640759fa512f630a2bdc333d","6407b70bf3b4f29a3b1567f2","[363]","","","[14]","[132]","132","65","197.94874666069558","[197.94874666069558]","[132.94874666069558]","[132]","0","0","1","0","152.7970000000205","1002.9270000000251","1000","[[[""img/mask57.png""]]]","","","main","65","color-precision2"
"","","","","","html-keyboard-response","128","450665","0.0-10.0-1.54","55b2d3f2fdf99b525bc839aa","640759fa512f630a2bdc333d","6407b70bf3b4f29a3b1567f2","null","","null","","","","","","","","","","","","","","","","","","","fixation","",""
"","","","","","many-guess-6","129","452969","0.0-10.0-0.55-0.55","55b2d3f2fdf99b525bc839aa","640759fa512f630a2bdc333d","6407b70bf3b4f29a3b1567f2","[1096.6000000014901]","","","[24,5,27,26,16,2,25,13,35,18,17,22,34,32,14,11,23,3,0,31,12,28,21,8,7,30,19,33,15,6,20,10,1,9,29,4]","[314,35,284,85,5,254,184,344,354,304,324,154,294,214,135,274,125,334,25,174,204,95,244,65,115,105,264,164,234,144,224,15,194,45,75,55]","314","56","25.18737263631148","[25.18737263631148]","[329.18737263631147]","[328]","[120,300,30,30,30,210,120,210,120]","0","36","0","152.81599999923492","14.650999998499174","16","[[[""img/mask81.png""],[""img/mask77.png""],[""img/mask43.png""],[""img/mask12.png""],[""img/mask36.png""],[""img/mask12.png""],[""img/mask5.png""],[""img/mask6.png""],[""img/mask89.png""],[""img/mask25.png""],[""img/mask16.png""],[""img/mask80.png""],[""img/mask23.png""],[""img/mask73.png""],[""img/mask79.png""],[""img/mask85.png""],[""img/mask33.png""],[""img/mask87.png""],[""img/mask90.png""],[""img/mask35.png""],[""img/mask19.png""],[""img/mask61.png""],[""img/mask23.png""],[""img/mask93.png""],[""img/mask57.png""],[""img/mask79.png""],[""img/mask76.png""],[""img/mask35.png""],[""img/mask73.png""],[""img/mask7.png""],[""img/mask93.png""],[""img/mask58.png""],[""img/mask58.png""],[""img/mask7.png""],[""img/mask41.png""],[""img/mask32.png""]]]","","[24,5,27,26,16,2,25,13,35,18,17,22,34,32,14,11,23,3,0,31,12,28,21,8,7,30,19,33,15,6,20,10,1,9,29,4]","main","56","many-guess-6"
"","","","","","html-keyboard-response","130","453469","0.0-10.0-1.55","55b2d3f2fdf99b525bc839aa","640759fa512f630a2bdc333d","6407b70bf3b4f29a3b1567f2","null","","null","","","","","","","","","","","","","","","","","","","fixation","",""
"","","","","","many-guess-6","131","456236","0.0-10.0-0.56-0.56","55b2d3f2fdf99b525bc839aa","640759fa512f630a2bdc333d","6407b70bf3b4f29a3b1567f2","[1389.7000000029802]","","","[6,24,3,18,5,15,19,27,35,16,26,20,12,11,17,4,14,0,10,33,28,23,30,7,2,29,8,9,34,1,22,31,21,25,32,13]","[241,181,320,330,61,151,221,231,310,201,191,31,261,211,91,121,300,131,251,161,1,81,290,101,141,11,111,71,21,51,340,280,171,271,41,350]","241","182","169.6239548529781","[169.6239548529781]","[347.6239548529781]","[347]","[30,210,120,30,210,300,210,30,300]","0","36","0","148.818999999261","18.18800000002375","16","[[[""img/mask2.png""],[""img/mask8.png""],[""img/mask20.png""],[""img/mask89.png""],[""img/mask41.png""],[""img/mask42.png""],[""img/mask97.png""],[""img/mask35.png""],[""img/mask65.png""],[""img/mask18.png""],[""img/mask95.png""],[""img/mask3.png""],[""img/mask33.png""],[""img/mask8.png""],[""img/mask30.png""],[""img/mask53.png""],[""img/mask53.png""],[""img/mask69.png""],[""img/mask82.png""],[""img/mask50.png""],[""img/mask45.png""],[""img/mask54.png""],[""img/mask46.png""],[""img/mask40.png""],[""img/mask47.png""],[""img/mask51.png""],[""img/mask48.png""],[""img/mask25.png""],[""img/mask25.png""],[""img/mask86.png""],[""img/mask16.png""],[""img/mask19.png""],[""img/mask44.png""],[""img/mask67.png""],[""img/mask23.png""],[""img/mask39.png""]]]","","[6,24,3,18,5,15,19,27,35,16,26,20,12,11,17,4,14,0,10,33,28,23,30,7,2,29,8,9,34,1,22,31,21,25,32,13]","main","182","many-guess-6"
"","","","","","html-keyboard-response","132","456737","0.0-10.0-1.56","55b2d3f2fdf99b525bc839aa","640759fa512f630a2bdc333d","6407b70bf3b4f29a3b1567f2","null","","null","","","","","","","","","","","","","","","","","","","fixation","",""
"","","","","","color-precision2","133","459526","0.0-10.0-0.57-0.57","55b2d3f2fdf99b525bc839aa","640759fa512f630a2bdc333d","6407b70bf3b4f29a3b1567f2","[308.5999999977648]","","","[33]","[70]","70","115","174.08650221575786","[174.08650221575786]","[59.08650221575786]","[58]","0","0","1","0","152.61099999852013","999.5419999992591","1000","[[[""img/mask1.png""]]]","","","main","115","color-precision2"
"","","","","","html-keyboard-response","134","460027","0.0-10.0-1.57","55b2d3f2fdf99b525bc839aa","640759fa512f630a2bdc333d","6407b70bf3b4f29a3b1567f2","null","","null","","","","","","","","","","","","","","","","","","","fixation","",""
"","","","","","many-guess-6","135","462626","0.0-10.0-0.58-0.58","55b2d3f2fdf99b525bc839aa","640759fa512f630a2bdc333d","6407b70bf3b4f29a3b1567f2","[1271]","","","[26,11,31,24,6,17,15,16,30,4,9,25,22,13,7,27,32,35,10,23,28,14,33,5,1,29,18,3,21,8,0,20,19,2,34,12]","[251,321,311,221,31,91,51,131,41,271,351,341,12,211,261,71,171,151,231,161,61,241,301,101,21,181,121,201,331,281,81,141,111,191,291,2]","251","162","345.9242398095466","[345.9242398095466]","[183.92423980954658]","[183]","[300,210,210,30,30,30,120,210,30]","0","36","0","148.91100000072038","16.066999998525716","16","[[[""img/mask94.png""],[""img/mask30.png""],[""img/mask1.png""],[""img/mask71.png""],[""img/mask70.png""],[""img/mask77.png""],[""img/mask15.png""],[""img/mask35.png""],[""img/mask66.png""],[""img/mask4.png""],[""img/mask91.png""],[""img/mask58.png""],[""img/mask99.png""],[""img/mask95.png""],[""img/mask64.png""],[""img/mask88.png""],[""img/mask76.png""],[""img/mask95.png""],[""img/mask33.png""],[""img/mask100.png""],[""img/mask13.png""],[""img/mask72.png""],[""img/mask93.png""],[""img/mask76.png""],[""img/mask23.png""],[""img/mask43.png""],[""img/mask75.png""],[""img/mask13.png""],[""img/mask84.png""],[""img/mask18.png""],[""img/mask86.png""],[""img/mask93.png""],[""img/mask7.png""],[""img/mask22.png""],[""img/mask68.png""],[""img/mask47.png""]]]","","[26,11,31,24,6,17,15,16,30,4,9,25,22,13,7,27,32,35,10,23,28,14,33,5,1,29,18,3,21,8,0,20,19,2,34,12]","main","162","many-guess-6"
"","","","","","html-keyboard-response","136","463127","0.0-10.0-1.58","55b2d3f2fdf99b525bc839aa","640759fa512f630a2bdc333d","6407b70bf3b4f29a3b1567f2","null","","null","","","","","","","","","","","","","","","","","","","fixation","",""
"","","","","","many-guess-6","137","466186","0.0-10.0-0.59-0.59","55b2d3f2fdf99b525bc839aa","640759fa512f630a2bdc333d","6407b70bf3b4f29a3b1567f2","[1158.9000000022352]","","","[1,11,2,18,5,16,28,13,21,26,23,7,33,15,6,34,9,20,17,19,0,10,4,35,22,14,30,31,32,27,3,24,8,29,25,12]","[359,89,279,169,20,349,149,159,99,119,259,209,239,139,129,219,289,50,40,60,269,249,319,309,30,339,189,229,199,109,70,179,299,10,79,329]","359","275","172.87745556860412","[172.87745556860412]","[257.8774555686041]","[257]","[210,30,30,210,210,210,300,300,210]","0","36","0","151.91600000072503","15.25","16","[[[""img/mask28.png""],[""img/mask89.png""],[""img/mask46.png""],[""img/mask65.png""],[""img/mask67.png""],[""img/mask65.png""],[""img/mask6.png""],[""img/mask20.png""],[""img/mask25.png""],[""img/mask86.png""],[""img/mask51.png""],[""img/mask73.png""],[""img/mask27.png""],[""img/mask100.png""],[""img/mask41.png""],[""img/mask99.png""],[""img/mask11.png""],[""img/mask34.png""],[""img/mask52.png""],[""img/mask94.png""],[""img/mask22.png""],[""img/mask8.png""],[""img/mask64.png""],[""img/mask7.png""],[""img/mask74.png""],[""img/mask25.png""],[""img/mask16.png""],[""img/mask70.png""],[""img/mask33.png""],[""img/mask72.png""],[""img/mask35.png""],[""img/mask73.png""],[""img/mask96.png""],[""img/mask15.png""],[""img/mask71.png""],[""img/mask17.png""]]]","","[1,11,2,18,5,16,28,13,21,26,23,7,33,15,6,34,9,20,17,19,0,10,4,35,22,14,30,31,32,27,3,24,8,29,25,12]","main","275","many-guess-6"
"","","","","","html-keyboard-response","138","468343","0.0-10.0-1.59","55b2d3f2fdf99b525bc839aa","640759fa512f630a2bdc333d","6407b70bf3b4f29a3b1567f2","2156.60000000149","Wow! You've completed 60 out of 180 trials! </p> <p>  </p><p> Take a quick break, then press any key when you're ready to continue."," ","","","","","","","","","","","","","","","","","","","fixation","",""
"","","","","","many-guess-6","139","471153","0.0-10.0-0.60-0.60","55b2d3f2fdf99b525bc839aa","640759fa512f630a2bdc333d","6407b70bf3b4f29a3b1567f2","[1052.699999999255]","","","[13,19,28,0,8,5,11,32,14,3,29,24,16,10,12,21,34,33,9,23,25,7,2,15,35,20,30,31,4,26,6,1,18,17,22,27]","[278,307,118,148,337,248,268,258,78,238,347,188,58,297,88,287,68,168,38,178,18,317,128,138,158,98,208,8,327,357,48,228,218,28,108,198]","278","12","198.77420564406808","[198.77420564406808]","[186.77420564406808]","[186]","[300,120,210,30,210,300,30,30,300]","0","36","0","148.8190000000177","16.884000000020023","16","[[[""img/mask64.png""],[""img/mask11.png""],[""img/mask86.png""],[""img/mask8.png""],[""img/mask66.png""],[""img/mask76.png""],[""img/mask19.png""],[""img/mask66.png""],[""img/mask69.png""],[""img/mask85.png""],[""img/mask90.png""],[""img/mask21.png""],[""img/mask17.png""],[""img/mask21.png""],[""img/mask78.png""],[""img/mask24.png""],[""img/mask5.png""],[""img/mask81.png""],[""img/mask28.png""],[""img/mask88.png""],[""img/mask15.png""],[""img/mask30.png""],[""img/mask35.png""],[""img/mask19.png""],[""img/mask49.png""],[""img/mask41.png""],[""img/mask25.png""],[""img/mask99.png""],[""img/mask66.png""],[""img/mask69.png""],[""img/mask90.png""],[""img/mask89.png""],[""img/mask54.png""],[""img/mask60.png""],[""img/mask62.png""],[""img/mask50.png""]]]","","[13,19,28,0,8,5,11,32,14,3,29,24,16,10,12,21,34,33,9,23,25,7,2,15,35,20,30,31,4,26,6,1,18,17,22,27]","main","12","many-guess-6"
"","","","","","html-keyboard-response","140","471654","0.0-10.0-1.60","55b2d3f2fdf99b525bc839aa","640759fa512f630a2bdc333d","6407b70bf3b4f29a3b1567f2","null","","null","","","","","","","","","","","","","","","","","","","fixation","",""
"","","","","","color-precision2","141","474335","0.0-10.0-0.61-0.61","55b2d3f2fdf99b525bc839aa","640759fa512f630a2bdc333d","6407b70bf3b4f29a3b1567f2","[381.70000000298023]","","","[15]","[101]","101","171","273.784212220688","[273.784212220688]","[102.784212220688]","[103]","0","0","1","0","152.75799999927403","999.8149999977904","1000","[[[""img/mask72.png""]]]","","","main","171","color-precision2"
"","","","","","html-keyboard-response","142","474835","0.0-10.0-1.61","55b2d3f2fdf99b525bc839aa","640759fa512f630a2bdc333d","6407b70bf3b4f29a3b1567f2","null","","null","","","","","","","","","","","","","","","","","","","fixation","",""
"","","","","","color-precision2","143","477401","0.0-10.0-0.62-0.62","55b2d3f2fdf99b525bc839aa","640759fa512f630a2bdc333d","6407b70bf3b4f29a3b1567f2","[292.4000000022352]","","","[8]","[180]","180","152","333.1090606889816","[333.1090606889816]","[181.10906068898157]","[181]","0","0","1","0","152.69900000002235","998.6210000007413","1000","[[[""img/mask94.png""]]]","","","main","152","color-precision2"
"","","","","","html-keyboard-response","144","477903","0.0-10.0-1.62","55b2d3f2fdf99b525bc839aa","640759fa512f630a2bdc333d","6407b70bf3b4f29a3b1567f2","null","","null","","","","","","","","","","","","","","","","","","","fixation","",""
"","","","","","many-guess-6","145","480613","0.0-10.0-0.63-0.63","55b2d3f2fdf99b525bc839aa","640759fa512f630a2bdc333d","6407b70bf3b4f29a3b1567f2","[1203.5]","","","[12,31,9,16,10,24,22,6,19,15,29,30,14,7,11,28,26,1,20,32,27,34,25,35,5,23,8,13,4,17,0,33,2,21,18,3]","[236,326,346,66,296,166,106,286,156,216,316,226,27,36,56,196,276,96,206,186,146,336,176,246,17,7,76,256,86,126,356,136,46,266,116,306]","236","142","191.19685709224132","[191.19685709224132]","[49.196857092241316]","[49]","[300,30,300,120,210,30,120,210,30]","0","36","0","152.88799999997718","17.71799999923678","16","[[[""img/mask80.png""],[""img/mask25.png""],[""img/mask26.png""],[""img/mask1.png""],[""img/mask3.png""],[""img/mask31.png""],[""img/mask3.png""],[""img/mask82.png""],[""img/mask88.png""],[""img/mask78.png""],[""img/mask66.png""],[""img/mask37.png""],[""img/mask4.png""],[""img/mask15.png""],[""img/mask3.png""],[""img/mask52.png""],[""img/mask52.png""],[""img/mask49.png""],[""img/mask6.png""],[""img/mask9.png""],[""img/mask13.png""],[""img/mask48.png""],[""img/mask70.png""],[""img/mask16.png""],[""img/mask51.png""],[""img/mask80.png""],[""img/mask44.png""],[""img/mask31.png""],[""img/mask69.png""],[""img/mask8.png""],[""img/mask68.png""],[""img/mask31.png""],[""img/mask85.png""],[""img/mask36.png""],[""img/mask59.png""],[""img/mask80.png""]]]","","[12,31,9,16,10,24,22,6,19,15,29,30,14,7,11,28,26,1,20,32,27,34,25,35,5,23,8,13,4,17,0,33,2,21,18,3]","main","142","many-guess-6"
"","","","","","html-keyboard-response","146","481114","0.0-10.0-1.63","55b2d3f2fdf99b525bc839aa","640759fa512f630a2bdc333d","6407b70bf3b4f29a3b1567f2","null","","null","","","","","","","","","","","","","","","","","","","fixation","",""
"","","","","","color-precision2","147","483602","0.0-10.0-0.64-0.64","55b2d3f2fdf99b525bc839aa","640759fa512f630a2bdc333d","6407b70bf3b4f29a3b1567f2","[223.60000000149012]","","","[2]","[110]","110","112","226.1746105353382","[226.1746105353382]","[114.17461053533819]","[114]","0","0","1","0","151.76799999998184","1000.3960000000079","1000","[[[""img/mask41.png""]]]","","","main","112","color-precision2"
"","","","","","html-keyboard-response","148","484103","0.0-10.0-1.64","55b2d3f2fdf99b525bc839aa","640759fa512f630a2bdc333d","6407b70bf3b4f29a3b1567f2","null","","null","","","","","","","","","","","","","","","","","","","fixation","",""
"","","","","","many-guess-6","149","486656","0.0-10.0-0.65-0.65","55b2d3f2fdf99b525bc839aa","640759fa512f630a2bdc333d","6407b70bf3b4f29a3b1567f2","[1289.699999999255]","","","[6,12,5,20,34,25,33,3,1,17,18,23,2,35,28,21,27,30,29,7,32,15,0,26,10,24,11,19,4,16,31,13,14,9,8,22]","[9,328,49,79,149,169,248,219,159,119,298,288,19,209,239,69,89,139,39,99,308,278,109,318,59,29,189,179,258,229,268,338,358,199,348,129]","9","138","69.82974950527553","[69.82974950527553]","[291.8297495052755]","[290]","[300,30,210,120,210,210,210,30,300]","0","36","0","151.67599999997765","19.30999999999767","16","[[[""img/mask99.png""],[""img/mask58.png""],[""img/mask94.png""],[""img/mask54.png""],[""img/mask25.png""],[""img/mask95.png""],[""img/mask24.png""],[""img/mask69.png""],[""img/mask55.png""],[""img/mask20.png""],[""img/mask53.png""],[""img/mask97.png""],[""img/mask4.png""],[""img/mask36.png""],[""img/mask72.png""],[""img/mask78.png""],[""img/mask86.png""],[""img/mask39.png""],[""img/mask26.png""],[""img/mask46.png""],[""img/mask93.png""],[""img/mask66.png""],[""img/mask86.png""],[""img/mask56.png""],[""img/mask96.png""],[""img/mask77.png""],[""img/mask58.png""],[""img/mask37.png""],[""img/mask100.png""],[""img/mask95.png""],[""img/mask36.png""],[""img/mask53.png""],[""img/mask3.png""],[""img/mask99.png""],[""img/mask99.png""],[""img/mask83.png""]]]","","[6,12,5,20,34,25,33,3,1,17,18,23,2,35,28,21,27,30,29,7,32,15,0,26,10,24,11,19,4,16,31,13,14,9,8,22]","main","138","many-guess-6"
"","","","","","html-keyboard-response","150","487157","0.0-10.0-1.65","55b2d3f2fdf99b525bc839aa","640759fa512f630a2bdc333d","6407b70bf3b4f29a3b1567f2","null","","null","","","","","","","","","","","","","","","","","","","fixation","",""
"","","","","","many-guess-6","151","489615","0.0-10.0-0.66-0.66","55b2d3f2fdf99b525bc839aa","640759fa512f630a2bdc333d","6407b70bf3b4f29a3b1567f2","[1017.5]","","","[19,13,26,7,29,30,23,2,21,34,16,32,18,11,0,9,17,31,24,14,12,20,3,35,28,10,33,8,27,5,1,22,25,4,6,15]","[325,16,195,126,255,175,345,155,116,185,165,215,145,106,335,26,225,355,295,56,245,275,66,235,46,86,96,305,285,315,265,76,6,205,135,36]","325","116","283.2687621050403","[283.2687621050403]","[167.2687621050403]","[167]","[30,30,210,120,120,30,210,300,300]","0","36","0","152.85100000002421","17.98499999998603","16","[[[""img/mask57.png""],[""img/mask44.png""],[""img/mask76.png""],[""img/mask43.png""],[""img/mask38.png""],[""img/mask5.png""],[""img/mask47.png""],[""img/mask15.png""],[""img/mask40.png""],[""img/mask89.png""],[""img/mask3.png""],[""img/mask26.png""],[""img/mask69.png""],[""img/mask19.png""],[""img/mask77.png""],[""img/mask5.png""],[""img/mask87.png""],[""img/mask12.png""],[""img/mask34.png""],[""img/mask63.png""],[""img/mask89.png""],[""img/mask44.png""],[""img/mask84.png""],[""img/mask77.png""],[""img/mask62.png""],[""img/mask50.png""],[""img/mask40.png""],[""img/mask18.png""],[""img/mask60.png""],[""img/mask56.png""],[""img/mask93.png""],[""img/mask81.png""],[""img/mask95.png""],[""img/mask47.png""],[""img/mask71.png""],[""img/mask65.png""]]]","","[19,13,26,7,29,30,23,2,21,34,16,32,18,11,0,9,17,31,24,14,12,20,3,35,28,10,33,8,27,5,1,22,25,4,6,15]","main","116","many-guess-6"
"","","","","","html-keyboard-response","152","490116","0.0-10.0-1.66","55b2d3f2fdf99b525bc839aa","640759fa512f630a2bdc333d","6407b70bf3b4f29a3b1567f2","null","","null","","","","","","","","","","","","","","","","","","","fixation","",""
"","","","","","many-guess-6","153","492325","0.0-10.0-0.67-0.67","55b2d3f2fdf99b525bc839aa","640759fa512f630a2bdc333d","6407b70bf3b4f29a3b1567f2","[927.3000000007451]","","","[4,12,15,25,33,13,9,5,14,23,24,21,16,7,35,26,30,32,0,8,31,10,22,6,28,20,11,27,18,2,34,17,19,3,29,1]","[186,106,176,346,286,166,206,246,236,7,326,266,116,86,146,17,196,96,276,47,126,136,256,66,356,156,336,37,57,216,296,306,76,27,316,226]","186","76","213.1406773759013","[213.1406773759013]","[137.1406773759013]","[137]","[300,300,300,30,210,30,120,210,30]","0","36","0","152.7849999992759","18.514000000723172","16","[[[""img/mask39.png""],[""img/mask30.png""],[""img/mask31.png""],[""img/mask77.png""],[""img/mask3.png""],[""img/mask23.png""],[""img/mask82.png""],[""img/mask42.png""],[""img/mask86.png""],[""img/mask13.png""],[""img/mask55.png""],[""img/mask55.png""],[""img/mask23.png""],[""img/mask38.png""],[""img/mask37.png""],[""img/mask31.png""],[""img/mask5.png""],[""img/mask73.png""],[""img/mask65.png""],[""img/mask78.png""],[""img/mask86.png""],[""img/mask62.png""],[""img/mask56.png""],[""img/mask55.png""],[""img/mask72.png""],[""img/mask81.png""],[""img/mask28.png""],[""img/mask70.png""],[""img/mask45.png""],[""img/mask47.png""],[""img/mask43.png""],[""img/mask89.png""],[""img/mask70.png""],[""img/mask61.png""],[""img/mask20.png""],[""img/mask77.png""]]]","","[4,12,15,25,33,13,9,5,14,23,24,21,16,7,35,26,30,32,0,8,31,10,22,6,28,20,11,27,18,2,34,17,19,3,29,1]","main","76","many-guess-6"
"","","","","","html-keyboard-response","154","492826","0.0-10.0-1.67","55b2d3f2fdf99b525bc839aa","640759fa512f630a2bdc333d","6407b70bf3b4f29a3b1567f2","null","","null","","","","","","","","","","","","","","","","","","","fixation","",""
"","","","","","color-precision2","155","495232","0.0-10.0-0.68-0.68","55b2d3f2fdf99b525bc839aa","640759fa512f630a2bdc333d","6407b70bf3b4f29a3b1567f2","[67.09999999776483]","","","[28]","[12]","12","177","","[null]","[null]","[45]","0","0","1","0","151.68600000074366","1000.2199999992736","1000","[[[""img/mask34.png""]]]","","","main","177","color-precision2"
"","","","","","html-keyboard-response","156","495733","0.0-10.0-1.68","55b2d3f2fdf99b525bc839aa","640759fa512f630a2bdc333d","6407b70bf3b4f29a3b1567f2","null","","null","","","","","","","","","","","","","","","","","","","fixation","",""
"","","","","","color-precision2","157","498128","0.0-10.0-0.69-0.69","55b2d3f2fdf99b525bc839aa","640759fa512f630a2bdc333d","6407b70bf3b4f29a3b1567f2","[57.69999999925494]","","","[15]","[222]","222","212","","[null]","[null]","[218]","0","0","1","0","152.19499999849359","999.5319999977364","1000","[[[""img/mask100.png""]]]","","","main","212","color-precision2"
"","","","","","html-keyboard-response","158","498629","0.0-10.0-1.69","55b2d3f2fdf99b525bc839aa","640759fa512f630a2bdc333d","6407b70bf3b4f29a3b1567f2","null","","null","","","","","","","","","","","","","","","","","","","fixation","",""
"","","","","","many-guess-6","159","502200","0.0-10.0-0.70-0.70","55b2d3f2fdf99b525bc839aa","640759fa512f630a2bdc333d","6407b70bf3b4f29a3b1567f2","[2002.9000000022352]","","","[5,9,0,26,33,12,35,7,25,2,27,23,20,4,13,6,10,17,34,30,29,18,19,24,1,15,14,31,16,21,11,28,8,32,3,22]","[238,109,9,79,208,288,358,248,328,89,298,228,39,169,348,139,119,258,308,198,29,318,99,159,189,179,129,59,69,49,19,218,338,149,278,268]","238","232","93.69375872636392","[93.69375872636392]","[221.6937587263639]","[220]","[210,120,120,120,30,30,300,120,210]","0","36","0","152.02100000076462","16.364000000001397","16","[[[""img/mask78.png""],[""img/mask86.png""],[""img/mask34.png""],[""img/mask93.png""],[""img/mask12.png""],[""img/mask22.png""],[""img/mask73.png""],[""img/mask52.png""],[""img/mask98.png""],[""img/mask61.png""],[""img/mask27.png""],[""img/mask94.png""],[""img/mask98.png""],[""img/mask61.png""],[""img/mask70.png""],[""img/mask78.png""],[""img/mask27.png""],[""img/mask20.png""],[""img/mask27.png""],[""img/mask77.png""],[""img/mask7.png""],[""img/mask10.png""],[""img/mask90.png""],[""img/mask34.png""],[""img/mask73.png""],[""img/mask25.png""],[""img/mask58.png""],[""img/mask13.png""],[""img/mask79.png""],[""img/mask62.png""],[""img/mask100.png""],[""img/mask49.png""],[""img/mask17.png""],[""img/mask61.png""],[""img/mask92.png""],[""img/mask88.png""]]]","","[5,9,0,26,33,12,35,7,25,2,27,23,20,4,13,6,10,17,34,30,29,18,19,24,1,15,14,31,16,21,11,28,8,32,3,22]","main","232","many-guess-6"
"","","","","","html-keyboard-response","160","502706","0.0-10.0-1.70","55b2d3f2fdf99b525bc839aa","640759fa512f630a2bdc333d","6407b70bf3b4f29a3b1567f2","null","","null","","","","","","","","","","","","","","","","","","","fixation","",""
"","","","","","color-precision2","161","506140","0.0-10.0-0.71-0.71","55b2d3f2fdf99b525bc839aa","640759fa512f630a2bdc333d","6407b70bf3b4f29a3b1567f2","[220.30000000074506]","","","[9]","[44]","44","205","","[null]","[null]","[21]","0","0","1","0","152.76799999998184","1000.802999998501","1000","[[[""img/mask30.png""]]]","","","main","205","color-precision2"
"","","","","","html-keyboard-response","162","506647","0.0-10.0-1.71","55b2d3f2fdf99b525bc839aa","640759fa512f630a2bdc333d","6407b70bf3b4f29a3b1567f2","null","","null","","","","","","","","","","","","","","","","","","","fixation","",""
"","","","","","color-precision2","163","510028","0.0-10.0-0.72-0.72","55b2d3f2fdf99b525bc839aa","640759fa512f630a2bdc333d","6407b70bf3b4f29a3b1567f2","[365.79999999701977]","","","[14]","[131]","131","344","113.01183322534528","[113.01183322534528]","[129.0118332253453]","[128]","0","0","1","0","152.7949999999837","999.1219999992754","1000","[[[""img/mask73.png""]]]","","","main","344","color-precision2"
"","","","","","html-keyboard-response","164","510541","0.0-10.0-1.72","55b2d3f2fdf99b525bc839aa","640759fa512f630a2bdc333d","6407b70bf3b4f29a3b1567f2","null","","null","","","","","","","","","","","","","","","","","","","fixation","",""
"","","","","","color-precision2","165","513507","0.0-10.0-0.73-0.73","55b2d3f2fdf99b525bc839aa","640759fa512f630a2bdc333d","6407b70bf3b4f29a3b1567f2","[227.30000000074506]","","","[15]","[236]","236","357","","[null]","[null]","[215]","0","0","1","0","152.50400000077207","998.9409999977797","1000","[[[""img/mask65.png""]]]","","","main","357","color-precision2"
"","","","","","html-keyboard-response","166","514022","0.0-10.0-1.73","55b2d3f2fdf99b525bc839aa","640759fa512f630a2bdc333d","6407b70bf3b4f29a3b1567f2","null","","null","","","","","","","","","","","","","","","","","","","fixation","",""
"","","","","","color-precision2","167","517285","0.0-10.0-0.74-0.74","55b2d3f2fdf99b525bc839aa","640759fa512f630a2bdc333d","6407b70bf3b4f29a3b1567f2","[273.5999999977648]","","","[3]","[126]","126","256","28.73369066000188","[28.73369066000188]","[132.73369066000188]","[131]","0","0","1","0","152.73299999849405","999.1669999992591","1000","[[[""img/mask62.png""]]]","","","main","256","color-precision2"
"","","","","","html-keyboard-response","168","517785","0.0-10.0-1.74","55b2d3f2fdf99b525bc839aa","640759fa512f630a2bdc333d","6407b70bf3b4f29a3b1567f2","null","","null","","","","","","","","","","","","","","","","","","","fixation","",""
"","","","","","many-guess-6","169","520607","0.0-10.0-0.75-0.75","55b2d3f2fdf99b525bc839aa","640759fa512f630a2bdc333d","6407b70bf3b4f29a3b1567f2","[1403.0999999977648]","","","[9,30,8,33,27,25,3,34,10,35,23,22,1,18,2,5,31,16,6,21,15,24,14,0,4,7,26,32,29,20,17,19,12,13,28,11]","[212,242,23,332,232,153,352,53,13,63,143,292,302,173,203,222,282,33,43,103,193,133,342,113,123,93,312,83,183,73,252,262,272,163,322,3]","212","90","232.36460386857087","[232.36460386857087]","[142.36460386857087]","[142]","[210,30,210,30,120,120,120,30,30]","0","36","0","148.92799999774434","13.398999999975786","16","[[[""img/mask18.png""],[""img/mask40.png""],[""img/mask46.png""],[""img/mask70.png""],[""img/mask98.png""],[""img/mask9.png""],[""img/mask54.png""],[""img/mask65.png""],[""img/mask20.png""],[""img/mask59.png""],[""img/mask86.png""],[""img/mask42.png""],[""img/mask5.png""],[""img/mask16.png""],[""img/mask55.png""],[""img/mask29.png""],[""img/mask39.png""],[""img/mask17.png""],[""img/mask54.png""],[""img/mask13.png""],[""img/mask31.png""],[""img/mask9.png""],[""img/mask21.png""],[""img/mask36.png""],[""img/mask75.png""],[""img/mask72.png""],[""img/mask49.png""],[""img/mask2.png""],[""img/mask55.png""],[""img/mask64.png""],[""img/mask3.png""],[""img/mask12.png""],[""img/mask16.png""],[""img/mask85.png""],[""img/mask21.png""],[""img/mask80.png""]]]","","[9,30,8,33,27,25,3,34,10,35,23,22,1,18,2,5,31,16,6,21,15,24,14,0,4,7,26,32,29,20,17,19,12,13,28,11]","main","90","many-guess-6"
"","","","","","html-keyboard-response","170","521107","0.0-10.0-1.75","55b2d3f2fdf99b525bc839aa","640759fa512f630a2bdc333d","6407b70bf3b4f29a3b1567f2","null","","null","","","","","","","","","","","","","","","","","","","fixation","",""
"","","","","","color-precision2","171","523832","0.0-10.0-0.76-0.76","55b2d3f2fdf99b525bc839aa","640759fa512f630a2bdc333d","6407b70bf3b4f29a3b1567f2","[236.19999999925494]","","","[18]","[63]","63","255","311.07991341028327","[311.07991341028327]","[56.07991341028327]","[57]","0","0","1","0","152.6729999985546","1002.105999999214","1000","[[[""img/mask46.png""]]]","","","main","255","color-precision2"
"","","","","","html-keyboard-response","172","524333","0.0-10.0-1.76","55b2d3f2fdf99b525bc839aa","640759fa512f630a2bdc333d","6407b70bf3b4f29a3b1567f2","null","","null","","","","","","","","","","","","","","","","","","","fixation","",""
"","","","","","many-guess-6","173","527369","0.0-10.0-0.77-0.77","55b2d3f2fdf99b525bc839aa","640759fa512f630a2bdc333d","6407b70bf3b4f29a3b1567f2","[1539]","","","[30,2,23,7,4,5,14,12,1,29,26,0,17,25,33,22,27,20,21,16,10,31,18,11,32,6,9,19,13,28,34,3,8,35,24,15]","[134,124,104,263,144,174,74,353,273,34,184,54,293,313,343,14,204,253,84,64,223,243,303,323,283,194,154,213,94,164,24,44,333,233,114,4]","134","227","67.52162437773787","[67.52162437773787]","[200.52162437773785]","[199]","[300,30,210,120,30,120,30,210,300]","0","36","0","152.8759999985341","13.80899999930989","16","[[[""img/mask21.png""],[""img/mask20.png""],[""img/mask74.png""],[""img/mask44.png""],[""img/mask55.png""],[""img/mask43.png""],[""img/mask62.png""],[""img/mask60.png""],[""img/mask15.png""],[""img/mask31.png""],[""img/mask26.png""],[""img/mask57.png""],[""img/mask29.png""],[""img/mask1.png""],[""img/mask85.png""],[""img/mask95.png""],[""img/mask40.png""],[""img/mask27.png""],[""img/mask81.png""],[""img/mask2.png""],[""img/mask40.png""],[""img/mask15.png""],[""img/mask74.png""],[""img/mask87.png""],[""img/mask64.png""],[""img/mask46.png""],[""img/mask82.png""],[""img/mask78.png""],[""img/mask90.png""],[""img/mask44.png""],[""img/mask30.png""],[""img/mask63.png""],[""img/mask49.png""],[""img/mask30.png""],[""img/mask21.png""],[""img/mask67.png""]]]","","[30,2,23,7,4,5,14,12,1,29,26,0,17,25,33,22,27,20,21,16,10,31,18,11,32,6,9,19,13,28,34,3,8,35,24,15]","main","227","many-guess-6"
"","","","","","html-keyboard-response","174","527869","0.0-10.0-1.77","55b2d3f2fdf99b525bc839aa","640759fa512f630a2bdc333d","6407b70bf3b4f29a3b1567f2","null","","null","","","","","","","","","","","","","","","","","","","fixation","",""
"","","","","","color-precision2","175","530227","0.0-10.0-0.78-0.78","55b2d3f2fdf99b525bc839aa","640759fa512f630a2bdc333d","6407b70bf3b4f29a3b1567f2","[157.89999999850988]","","","[17]","[340]","340","228","209.5129087646322","[209.5129087646322]","[341.5129087646322]","[341]","0","0","1","0","152.71999999927357","997.1609999999637","1000","[[[""img/mask79.png""]]]","","","main","228","color-precision2"
"","","","","","html-keyboard-response","176","530733","0.0-10.0-1.78","55b2d3f2fdf99b525bc839aa","640759fa512f630a2bdc333d","6407b70bf3b4f29a3b1567f2","null","","null","","","","","","","","","","","","","","","","","","","fixation","",""
"","","","","","many-guess-6","177","534289","0.0-10.0-0.79-0.79","55b2d3f2fdf99b525bc839aa","640759fa512f630a2bdc333d","6407b70bf3b4f29a3b1567f2","[1381.199999999255]","","","[27,35,31,18,33,16,5,10,19,15,11,34,13,3,0,9,32,22,24,2,20,25,12,23,14,4,26,28,1,29,21,8,6,17,30,7]","[338,178,168,138,68,318,88,268,158,108,288,348,148,328,9,128,298,19,198,258,238,188,208,29,48,218,248,308,278,228,98,58,358,78,118,38]","338","89","42.515695643990306","[42.515695643990306]","[313.5156956439903]","[312]","[30,210,210,300,300,210,30,30,300]","0","36","0","152.839999998454","19.377000000793487","16","[[[""img/mask21.png""],[""img/mask52.png""],[""img/mask60.png""],[""img/mask97.png""],[""img/mask80.png""],[""img/mask91.png""],[""img/mask53.png""],[""img/mask61.png""],[""img/mask7.png""],[""img/mask20.png""],[""img/mask30.png""],[""img/mask7.png""],[""img/mask38.png""],[""img/mask77.png""],[""img/mask34.png""],[""img/mask10.png""],[""img/mask97.png""],[""img/mask47.png""],[""img/mask48.png""],[""img/mask4.png""],[""img/mask9.png""],[""img/mask61.png""],[""img/mask28.png""],[""img/mask89.png""],[""img/mask8.png""],[""img/mask29.png""],[""img/mask21.png""],[""img/mask64.png""],[""img/mask20.png""],[""img/mask52.png""],[""img/mask9.png""],[""img/mask14.png""],[""img/mask21.png""],[""img/mask34.png""],[""img/mask13.png""],[""img/mask33.png""]]]","","[27,35,31,18,33,16,5,10,19,15,11,34,13,3,0,9,32,22,24,2,20,25,12,23,14,4,26,28,1,29,21,8,6,17,30,7]","main","89","many-guess-6"
