"success","timeout","failed_images","failed_audio","failed_video","trial_type","trial_index","time_elapsed","internal_node_id","subject_id","study_id","session_id","rt","stimulus","response","position_of_items","colors_of_items","color_of_target","wheel_spin","response_angle","physical_response_angle","reported_color_angle","reported_color_discrete","locs","which_test","set_size","wheel_num_options","actual_mask_duration","actual_stim_duration","CMDispTime","maskArray","maskRotation","item_positions","task","randomSpinAmount","mainTask"
"true","false","[]","[]","[]","preload","0","1178","0.0-0.0","56f2a49ced0cf600069131cd","640759fa512f630a2bdc333d","64076b293f19d64703cfbaba","","","","","","","","","","","","","","","","","","","","","","","",""
"true","","","","","fullscreen","1","9097","0.0-1.0","56f2a49ced0cf600069131cd","640759fa512f630a2bdc333d","64076b293f19d64703cfbaba","","","","","","","","","","","","","","","","","","","","","","","",""
"","","","","","html-keyboard-response","2","22069","0.0-2.0","56f2a49ced0cf600069131cd","640759fa512f630a2bdc333d","64076b293f19d64703cfbaba","12969.299999952316","What a beautiful Tuesday to do some awesome science! </p> <p>  </p><p> </p>
    By completing this survey or questionnaire, you are consenting to be in this research study. </p>
    Your participation is voluntary and you can stop at any time.<p> [Press any key to continue] </p>"," ","","","","","","","","","","","","","","","","","","","","",""
"","","","","","html-keyboard-response","3","32072","0.0-3.0","56f2a49ced0cf600069131cd","640759fa512f630a2bdc333d","64076b293f19d64703cfbaba","null","
    <div style='width: 1000px;'>
    <div style='float: center;'><img src='img/TaskInstructions1.png'></img>
    </div>
    ","null","","","","","","","","","","","","","","","","","","","","",""
"","","","","","html-keyboard-response","4","53815","0.0-4.0","56f2a49ced0cf600069131cd","640759fa512f630a2bdc333d","64076b293f19d64703cfbaba","21740.5","
    <div style='width: 1000px;'>
    <div style='float: center;'><img src='img/TaskInstructions1.png'></img>
    </div>
    ","enter","","","","","","","","","","","","","","","","","","","","",""
"","","","","","html-keyboard-response","5","63825","0.0-5.0","56f2a49ced0cf600069131cd","640759fa512f630a2bdc333d","64076b293f19d64703cfbaba","null","
    <div style='width: 1000px;'>
    <div style='float: center;'><img src='img/TaskInstructions2.png'></img>
    </div>
    ","null","","","","","","","","","","","","","","","","","","","","",""
"","","","","","html-keyboard-response","6","81789","0.0-6.0","56f2a49ced0cf600069131cd","640759fa512f630a2bdc333d","64076b293f19d64703cfbaba","17962","
    <div style='width: 1000px;'>
    <div style='float: center;'><img src='img/TaskInstructions2.png'></img>
    </div>
    "," ","","","","","","","","","","","","","","","","","","","","",""
"","","","","","video-keyboard-response","7","93917","0.0-7.0","56f2a49ced0cf600069131cd","640759fa512f630a2bdc333d","64076b293f19d64703cfbaba","12120.300000071526","[""video/TaskInstructions3.mp4""]","enter","","","","","","","","","","","","","","","","","","","","",""
"","","","","","image-keyboard-response","8","99135","0.0-8.0-0.0","56f2a49ced0cf600069131cd","640759fa512f630a2bdc333d","64076b293f19d64703cfbaba","5215.899999976158","img/training1.png","enter","","","","","","","","","","","","","","","","","","","","",""
"","","","","","color-precision2","9","111504","0.0-8.0-1.0-0.0","56f2a49ced0cf600069131cd","640759fa512f630a2bdc333d","64076b293f19d64703cfbaba","[2745.100000023842]","","","[7]","[26]","26","300","307.5396015640517","[307.5396015640517]","[7.539601564051679]","[8]","0","0","1","0","498.31699999999546","1003.974000023838","1000","","","0","training","",""
"","","","","","image-keyboard-response","10","121340","0.0-8.0-0.1","56f2a49ced0cf600069131cd","640759fa512f630a2bdc333d","64076b293f19d64703cfbaba","9833.900000095367","img/training2.png"," ","","","","","","","","","","","","","","","","","","","","",""
"","","","","","many-guess-6","11","129381","0.0-8.0-1.1-0.1","56f2a49ced0cf600069131cd","640759fa512f630a2bdc333d","64076b293f19d64703cfbaba","[1988.3000000715256]","","","[6,8,7]","[268,227,339]","268","153","28.861574923012203","[28.861574923012203]","[235.8615749230122]","[235]","[30,120,120,300,120,120,120,210,30,30,30,300,210,210,300,120,30,30,210,120,300,300,120,300,120,210,30,30,120,300,30,210,300,30,30,210]","0","3","0","1000.3110000476881","993.3240000238438","1000","[[[""img/mask44.png""],[""img/mask15.png""],[""img/mask26.png""]]]","","[6,8,7]","training","",""
"","","","","","image-keyboard-response","12","141893","0.0-8.0-0.2","56f2a49ced0cf600069131cd","640759fa512f630a2bdc333d","64076b293f19d64703cfbaba","12509.899999976158","img/training3.png"," ","","","","","","","","","","","","","","","","","","","","",""
"","","","","","[""many-guess-6""]","13","147263","0.0-8.0-1.2-0.2","56f2a49ced0cf600069131cd","640759fa512f630a2bdc333d","64076b293f19d64703cfbaba","[1726.8000000715256]","","","[14,15,33,17,8]","[38,273,338,230,194]","38","327","211.95749189425317","[211.95749189425317]","[244.95749189425317]","[246]","[300,30,300,300,120,120,30,300,300,300,30,300,300,120,120,30,120,210,210,300,120,120,30,120,120,120,120,120,120,30,30,300,120,30,300,210]","0","5","0","498.23499999998603","491.61800004768884","500","[[[""img/mask97.png""],[""img/mask50.png""],[""img/mask88.png""],[""img/mask15.png""],[""img/mask91.png""]]]","","[14,15,33,17,8]","training","",""
"","","","","","image-keyboard-response","14","154051","0.0-8.0-0.3","56f2a49ced0cf600069131cd","640759fa512f630a2bdc333d","64076b293f19d64703cfbaba","6786.600000023842","img/training4.png"," ","","","","","","","","","","","","","","","","","","","","",""
"","","","","","[""many-guess-6""]","15","160400","0.0-8.0-1.3-0.3","56f2a49ced0cf600069131cd","640759fa512f630a2bdc333d","64076b293f19d64703cfbaba","[3267.100000023842]","","","[7,23,2,3,35,22,15,25,20,13]","[248,32,191,63,163,278,130,147,98,214]","248","232","118.53243446774799","[118.53243446774799]","[246.53243446774798]","[245]","[300,210,30,120,30,210,120,210,120,300,120,120,300,300,300,30,300,210,120,120,210,210,120,30,300,300,300,30,120,30,300,30,300,120,300,210]","0","10","0","125.61400002383743","122.82900009537116","132","[[[""img/mask59.png""],[""img/mask17.png""],[""img/mask19.png""],[""img/mask63.png""],[""img/mask85.png""],[""img/mask29.png""],[""img/mask42.png""],[""img/mask74.png""],[""img/mask47.png""],[""img/mask100.png""]]]","","[7,23,2,3,35,22,15,25,20,13]","training","",""
"","","","","","image-keyboard-response","16","182030","0.0-8.0-0.4","56f2a49ced0cf600069131cd","640759fa512f630a2bdc333d","64076b293f19d64703cfbaba","21628.399999976158","img/training5.png"," ","","","","","","","","","","","","","","","","","","","","",""
"","","","","","[""many-guess-6""]","17","187323","0.0-8.0-1.4-0.4","56f2a49ced0cf600069131cd","640759fa512f630a2bdc333d","64076b293f19d64703cfbaba","[1932.9000000953674]","","","[13,28,30,19,25,15,23,14,18,16,4,32,33,0,34,31,27,5,21,3,12,9,2,26,8,7,6,10,20,11,24,1,29,17,22,35]","[214,84,354,34,54,94,234,224,44,174,15,194,124,114,314,324,144,184,264,284,304,134,334,164,154,24,244,294,204,274,5,74,104,344,64,254]","214","41","45.360657579517635","[45.360657579517635]","[4.360657579517635]","[3]","[300,210,300,210,30,300,120,120,120,30,300,30,210,30,120,30,210,120,300,210,120,30,30,210,210,210,300,210,30,300,30,30,30,300,30,210]","0","36","0","126.7700000476907","5.133000071538845","16","[[[""img/mask82.png""],[""img/mask83.png""],[""img/mask23.png""],[""img/mask36.png""],[""img/mask31.png""],[""img/mask5.png""],[""img/mask11.png""],[""img/mask29.png""],[""img/mask15.png""],[""img/mask53.png""],[""img/mask19.png""],[""img/mask7.png""],[""img/mask33.png""],[""img/mask34.png""],[""img/mask3.png""],[""img/mask60.png""],[""img/mask63.png""],[""img/mask47.png""],[""img/mask59.png""],[""img/mask94.png""],[""img/mask32.png""],[""img/mask75.png""],[""img/mask71.png""],[""img/mask9.png""],[""img/mask25.png""],[""img/mask75.png""],[""img/mask97.png""],[""img/mask19.png""],[""img/mask98.png""],[""img/mask59.png""],[""img/mask30.png""],[""img/mask57.png""],[""img/mask28.png""],[""img/mask13.png""],[""img/mask53.png""],[""img/mask45.png""]]]","","[13,28,30,19,25,15,23,14,18,16,4,32,33,0,34,31,27,5,21,3,12,9,2,26,8,7,6,10,20,11,24,1,29,17,22,35]","training","",""
"","","","","","image-keyboard-response","18","189929","0.0-9.0","56f2a49ced0cf600069131cd","640759fa512f630a2bdc333d","64076b293f19d64703cfbaba","2604.600000023842","[""img/endTraining.png""]"," ","","","","","","","","","","","","","","","","","","","","",""
"","","","","","html-keyboard-response","19","190445","0.0-10.0-0.0","56f2a49ced0cf600069131cd","640759fa512f630a2bdc333d","64076b293f19d64703cfbaba","null","","null","","","","","","","","","","","","","","","","","","","fixation","",""
"","","","","","color-precision2","20","194162","0.0-10.0-1.0-0.0","56f2a49ced0cf600069131cd","640759fa512f630a2bdc333d","64076b293f19d64703cfbaba","[252.5]","","","[1]","[99]","99","177","280.72175062352323","[280.72175062352323]","[103.72175062352323]","[104]","0","0","1","0","150.3070000000007","993.244000000006","1000","[[[""img/mask3.png""]]]","","","main","177","color-precision2"
"","","","","","html-keyboard-response","21","194678","0.0-10.0-0.1","56f2a49ced0cf600069131cd","640759fa512f630a2bdc333d","64076b293f19d64703cfbaba","null","","null","","","","","","","","","","","","","","","","","","","fixation","",""
"","","","","","color-precision2","22","198090","0.0-10.0-1.1-0.1","56f2a49ced0cf600069131cd","640759fa512f630a2bdc333d","64076b293f19d64703cfbaba","[273.8000000715256]","","","[6]","[248]","248","310","195.3894230512118","[195.3894230512118]","[245.3894230512118]","[245]","0","0","1","0","152.80600002384745","990.1790000000037","1000","[[[""img/mask17.png""]]]","","","main","310","color-precision2"
"","","","","","html-keyboard-response","23","198602","0.0-10.0-0.2","56f2a49ced0cf600069131cd","640759fa512f630a2bdc333d","64076b293f19d64703cfbaba","null","","null","","","","","","","","","","","","","","","","","","","fixation","",""
"","","","","","color-precision2","24","202123","0.0-10.0-1.2-0.2","56f2a49ced0cf600069131cd","640759fa512f630a2bdc333d","64076b293f19d64703cfbaba","[347.7000000476837]","","","[35]","[41]","41","344","27.9475089993444","[27.9475089993444]","[43.94750899934439]","[42]","0","0","1","0","153.24000004769186","1004.984000071534","1000","[[[""img/mask23.png""]]]","","","main","344","color-precision2"
"","","","","","html-keyboard-response","25","202628","0.0-10.0-0.3","56f2a49ced0cf600069131cd","640759fa512f630a2bdc333d","64076b293f19d64703cfbaba","null","","null","","","","","","","","","","","","","","","","","","","fixation","",""
"","","","","","many-guess-6","26","207019","0.0-10.0-1.3-0.3","56f2a49ced0cf600069131cd","640759fa512f630a2bdc333d","64076b293f19d64703cfbaba","[2289.7999999523163]","","","[4,28,5,25,26,17,30,1,29,20,9,32,14,35,6,31,23,12,24,0,18,27,7,3,15,19,16,2,11,22,10,21,33,34,8,13]","[312,103,63,133,13,33,272,242,183,223,203,153,23,173,193,232,352,282,252,93,83,213,262,292,143,322,332,123,3,43,163,73,113,342,302,53]","312","284","294.7023494740432","[294.7023494740432]","[10.702349474043217]","[11]","[300,30,300,210,120,210,30,210,210]","0","36","0","150.51000009535346","14.411000095366035","16","[[[""img/mask76.png""],[""img/mask81.png""],[""img/mask34.png""],[""img/mask61.png""],[""img/mask75.png""],[""img/mask81.png""],[""img/mask19.png""],[""img/mask86.png""],[""img/mask81.png""],[""img/mask32.png""],[""img/mask3.png""],[""img/mask17.png""],[""img/mask39.png""],[""img/mask13.png""],[""img/mask20.png""],[""img/mask65.png""],[""img/mask78.png""],[""img/mask25.png""],[""img/mask24.png""],[""img/mask97.png""],[""img/mask42.png""],[""img/mask23.png""],[""img/mask8.png""],[""img/mask47.png""],[""img/mask95.png""],[""img/mask18.png""],[""img/mask20.png""],[""img/mask59.png""],[""img/mask44.png""],[""img/mask44.png""],[""img/mask3.png""],[""img/mask91.png""],[""img/mask88.png""],[""img/mask56.png""],[""img/mask70.png""],[""img/mask78.png""]]]","","[4,28,5,25,26,17,30,1,29,20,9,32,14,35,6,31,23,12,24,0,18,27,7,3,15,19,16,2,11,22,10,21,33,34,8,13]","main","284","many-guess-6"
"","","","","","html-keyboard-response","27","207524","0.0-10.0-0.4","56f2a49ced0cf600069131cd","640759fa512f630a2bdc333d","64076b293f19d64703cfbaba","null","","null","","","","","","","","","","","","","","","","","","","fixation","",""
"","","","","","many-guess-6","28","212220","0.0-10.0-1.4-0.4","56f2a49ced0cf600069131cd","640759fa512f630a2bdc333d","64076b293f19d64703cfbaba","[1828.8999999761581]","","","[10,7,12,13,18,31,19,5,23,32,3,4,16,14,21,27,1,9,2,34,33,11,15,28,30,22,25,17,0,29,8,20,24,26,35,6]","[131,181,300,290,51,250,61,310,41,171,350,121,240,91,11,260,200,340,191,141,1,270,21,111,31,71,280,101,81,220,210,330,151,320,230,161]","131","78","191.72246335123805","[191.72246335123805]","[113.72246335123805]","[113]","[30,210,300,300,210,30,210,210,120]","0","36","0","151.06400002384908","20.20000000001164","16","[[[""img/mask30.png""],[""img/mask23.png""],[""img/mask5.png""],[""img/mask26.png""],[""img/mask74.png""],[""img/mask61.png""],[""img/mask48.png""],[""img/mask72.png""],[""img/mask32.png""],[""img/mask17.png""],[""img/mask19.png""],[""img/mask71.png""],[""img/mask90.png""],[""img/mask20.png""],[""img/mask73.png""],[""img/mask80.png""],[""img/mask92.png""],[""img/mask16.png""],[""img/mask100.png""],[""img/mask1.png""],[""img/mask14.png""],[""img/mask38.png""],[""img/mask69.png""],[""img/mask38.png""],[""img/mask71.png""],[""img/mask7.png""],[""img/mask51.png""],[""img/mask94.png""],[""img/mask45.png""],[""img/mask39.png""],[""img/mask56.png""],[""img/mask32.png""],[""img/mask62.png""],[""img/mask22.png""],[""img/mask45.png""],[""img/mask100.png""]]]","","[10,7,12,13,18,31,19,5,23,32,3,4,16,14,21,27,1,9,2,34,33,11,15,28,30,22,25,17,0,29,8,20,24,26,35,6]","main","78","many-guess-6"
"","","","","","html-keyboard-response","29","212721","0.0-10.0-0.5","56f2a49ced0cf600069131cd","640759fa512f630a2bdc333d","64076b293f19d64703cfbaba","null","","null","","","","","","","","","","","","","","","","","","","fixation","",""
"","","","","","many-guess-6","30","216740","0.0-10.0-1.5-0.5","56f2a49ced0cf600069131cd","640759fa512f630a2bdc333d","64076b293f19d64703cfbaba","[2442.100000023842]","","","[10,3,6,12,26,24,30,19,33,27,32,13,4,8,23,20,2,25,21,29,17,18,14,9,15,5,22,35,7,1,16,31,11,0,28,34]","[165,195,95,345,185,6,86,36,115,315,225,155,325,245,235,16,66,285,355,125,255,295,105,265,305,205,335,76,175,26,145,46,135,215,56,275]","165","193","234.583376007046","[234.583376007046]","[41.58337600704601]","[41]","[30,210,30,30,210,120,210,300,210]","0","36","0","150.24299999998766","11.731000023835804","16","[[[""img/mask15.png""],[""img/mask62.png""],[""img/mask97.png""],[""img/mask38.png""],[""img/mask81.png""],[""img/mask80.png""],[""img/mask10.png""],[""img/mask82.png""],[""img/mask81.png""],[""img/mask38.png""],[""img/mask42.png""],[""img/mask1.png""],[""img/mask68.png""],[""img/mask9.png""],[""img/mask49.png""],[""img/mask87.png""],[""img/mask14.png""],[""img/mask28.png""],[""img/mask15.png""],[""img/mask45.png""],[""img/mask49.png""],[""img/mask6.png""],[""img/mask50.png""],[""img/mask1.png""],[""img/mask73.png""],[""img/mask52.png""],[""img/mask71.png""],[""img/mask46.png""],[""img/mask9.png""],[""img/mask41.png""],[""img/mask2.png""],[""img/mask71.png""],[""img/mask28.png""],[""img/mask86.png""],[""img/mask78.png""],[""img/mask89.png""]]]","","[10,3,6,12,26,24,30,19,33,27,32,13,4,8,23,20,2,25,21,29,17,18,14,9,15,5,22,35,7,1,16,31,11,0,28,34]","main","193","many-guess-6"
"","","","","","html-keyboard-response","31","217248","0.0-10.0-0.6","56f2a49ced0cf600069131cd","640759fa512f630a2bdc333d","64076b293f19d64703cfbaba","null","","null","","","","","","","","","","","","","","","","","","","fixation","",""
"","","","","","color-precision2","32","221756","0.0-10.0-1.6-0.6","56f2a49ced0cf600069131cd","640759fa512f630a2bdc333d","64076b293f19d64703cfbaba","[1020.1000000238419]","","","[30]","[196]","196","309","148.6157415384187","[148.6157415384187]","[199.6157415384187]","[198]","0","0","1","0","150.67300004768185","991.8150000476744","1000","[[[""img/mask95.png""]]]","","","main","309","color-precision2"
"","","","","","html-keyboard-response","33","222264","0.0-10.0-0.7","56f2a49ced0cf600069131cd","640759fa512f630a2bdc333d","64076b293f19d64703cfbaba","null","","null","","","","","","","","","","","","","","","","","","","fixation","",""
"","","","","","many-guess-6","34","227741","0.0-10.0-1.7-0.7","56f2a49ced0cf600069131cd","640759fa512f630a2bdc333d","64076b293f19d64703cfbaba","[2421.1999999284744]","","","[23,26,12,7,30,5,11,10,15,28,21,31,0,6,35,14,16,18,24,3,13,29,27,8,17,33,9,2,4,34,20,32,22,25,1,19]","[127,27,246,7,117,206,147,167,296,316,57,336,107,326,77,236,87,266,346,286,37,216,276,47,306,97,157,356,226,137,256,67,196,177,187,17]","127","169","180.95565881643233","[180.95565881643233]","[11.955658816432333]","[11]","[120,30,300,30,300,30,120,30,300]","0","36","0","150.46600002385094","9.666000095370691","16","[[[""img/mask43.png""],[""img/mask80.png""],[""img/mask84.png""],[""img/mask43.png""],[""img/mask82.png""],[""img/mask88.png""],[""img/mask73.png""],[""img/mask19.png""],[""img/mask26.png""],[""img/mask32.png""],[""img/mask95.png""],[""img/mask88.png""],[""img/mask56.png""],[""img/mask31.png""],[""img/mask47.png""],[""img/mask77.png""],[""img/mask58.png""],[""img/mask19.png""],[""img/mask63.png""],[""img/mask90.png""],[""img/mask77.png""],[""img/mask27.png""],[""img/mask32.png""],[""img/mask3.png""],[""img/mask49.png""],[""img/mask15.png""],[""img/mask33.png""],[""img/mask79.png""],[""img/mask90.png""],[""img/mask38.png""],[""img/mask49.png""],[""img/mask67.png""],[""img/mask41.png""],[""img/mask4.png""],[""img/mask11.png""],[""img/mask93.png""]]]","","[23,26,12,7,30,5,11,10,15,28,21,31,0,6,35,14,16,18,24,3,13,29,27,8,17,33,9,2,4,34,20,32,22,25,1,19]","main","169","many-guess-6"
"","","","","","html-keyboard-response","35","228245","0.0-10.0-0.8","56f2a49ced0cf600069131cd","640759fa512f630a2bdc333d","64076b293f19d64703cfbaba","null","","null","","","","","","","","","","","","","","","","","","","fixation","",""
"","","","","","many-guess-6","36","232413","0.0-10.0-1.8-0.8","56f2a49ced0cf600069131cd","640759fa512f630a2bdc333d","64076b293f19d64703cfbaba","[1732.3999999761581]","","","[19,27,23,32,21,31,6,4,16,17,24,5,0,28,13,11,20,12,3,34,26,1,7,25,33,29,22,9,8,10,18,35,2,30,15,14]","[30,20,140,90,269,120,10,40,239,200,259,339,80,359,299,329,50,249,229,289,160,319,210,309,279,150,70,60,190,110,170,180,130,349,100,220]","30","39","122.84301261188473","[122.84301261188473]","[83.84301261188473]","[82]","[210,120,210,30,210,300,120,210,30]","0","36","0","150.16099999999278","9.113000023848144","16","[[[""img/mask56.png""],[""img/mask36.png""],[""img/mask59.png""],[""img/mask43.png""],[""img/mask81.png""],[""img/mask3.png""],[""img/mask10.png""],[""img/mask29.png""],[""img/mask65.png""],[""img/mask75.png""],[""img/mask26.png""],[""img/mask9.png""],[""img/mask74.png""],[""img/mask100.png""],[""img/mask49.png""],[""img/mask84.png""],[""img/mask7.png""],[""img/mask65.png""],[""img/mask60.png""],[""img/mask54.png""],[""img/mask17.png""],[""img/mask51.png""],[""img/mask22.png""],[""img/mask11.png""],[""img/mask36.png""],[""img/mask55.png""],[""img/mask87.png""],[""img/mask14.png""],[""img/mask71.png""],[""img/mask53.png""],[""img/mask15.png""],[""img/mask1.png""],[""img/mask14.png""],[""img/mask79.png""],[""img/mask50.png""],[""img/mask3.png""]]]","","[19,27,23,32,21,31,6,4,16,17,24,5,0,28,13,11,20,12,3,34,26,1,7,25,33,29,22,9,8,10,18,35,2,30,15,14]","main","39","many-guess-6"
"","","","","","html-keyboard-response","37","232915","0.0-10.0-0.9","56f2a49ced0cf600069131cd","640759fa512f630a2bdc333d","64076b293f19d64703cfbaba","null","","null","","","","","","","","","","","","","","","","","","","fixation","",""
"","","","","","color-precision2","38","235958","0.0-10.0-1.9-0.9","56f2a49ced0cf600069131cd","640759fa512f630a2bdc333d","64076b293f19d64703cfbaba","[391]","","","[8]","[96]","96","116","223.51083858393392","[223.51083858393392]","[107.51083858393392]","[108]","0","0","1","0","152.6530000953644","987.9880000476842","1000","[[[""img/mask27.png""]]]","","","main","116","color-precision2"
"","","","","","html-keyboard-response","39","236463","0.0-10.0-0.10","56f2a49ced0cf600069131cd","640759fa512f630a2bdc333d","64076b293f19d64703cfbaba","null","","null","","","","","","","","","","","","","","","","","","","fixation","",""
"","","","","","many-guess-6","40","242199","0.0-10.0-1.10-0.10","56f2a49ced0cf600069131cd","640759fa512f630a2bdc333d","64076b293f19d64703cfbaba","[1723.7999999523163]","","","[3,30,16,7,8,29,33,18,19,35,9,24,22,32,34,13,23,31,11,12,20,4,15,10,25,27,28,14,1,26,6,5,0,21,17,2]","[314,5,155,15,65,344,55,235,145,85,125,225,25,205,334,45,105,35,245,215,294,115,255,324,75,95,274,135,284,185,304,265,165,195,175,354]","314","84","230.58440150333624","[230.58440150333624]","[146.58440150333624]","[146]","[300,120,120,30,30,300,210,300,120]","0","36","0","150.1970000238507","26.65700007151463","16","[[[""img/mask96.png""],[""img/mask73.png""],[""img/mask45.png""],[""img/mask86.png""],[""img/mask1.png""],[""img/mask65.png""],[""img/mask88.png""],[""img/mask53.png""],[""img/mask97.png""],[""img/mask4.png""],[""img/mask31.png""],[""img/mask50.png""],[""img/mask21.png""],[""img/mask96.png""],[""img/mask98.png""],[""img/mask71.png""],[""img/mask93.png""],[""img/mask96.png""],[""img/mask66.png""],[""img/mask15.png""],[""img/mask13.png""],[""img/mask94.png""],[""img/mask79.png""],[""img/mask14.png""],[""img/mask35.png""],[""img/mask61.png""],[""img/mask10.png""],[""img/mask31.png""],[""img/mask56.png""],[""img/mask49.png""],[""img/mask10.png""],[""img/mask11.png""],[""img/mask70.png""],[""img/mask29.png""],[""img/mask3.png""],[""img/mask81.png""]]]","","[3,30,16,7,8,29,33,18,19,35,9,24,22,32,34,13,23,31,11,12,20,4,15,10,25,27,28,14,1,26,6,5,0,21,17,2]","main","84","many-guess-6"
"","","","","","html-keyboard-response","41","242701","0.0-10.0-0.11","56f2a49ced0cf600069131cd","640759fa512f630a2bdc333d","64076b293f19d64703cfbaba","null","","null","","","","","","","","","","","","","","","","","","","fixation","",""
"","","","","","color-precision2","42","245671","0.0-10.0-1.11-0.11","56f2a49ced0cf600069131cd","640759fa512f630a2bdc333d","64076b293f19d64703cfbaba","[10.399999976158142]","","","[2]","[68]","68","117","","[null]","[null]","[68]","0","0","1","0","152.61900004767813","1001.4659999999858","1000","[[[""img/mask24.png""]]]","","","main","117","color-precision2"
"","","","","","html-keyboard-response","43","246174","0.0-10.0-0.12","56f2a49ced0cf600069131cd","640759fa512f630a2bdc333d","64076b293f19d64703cfbaba","null","","null","","","","","","","","","","","","","","","","","","","fixation","",""
"","","","","","color-precision2","44","249137","0.0-10.0-1.12-0.12","56f2a49ced0cf600069131cd","640759fa512f630a2bdc333d","64076b293f19d64703cfbaba","[344.90000009536743]","","","[8]","[107]","107","294","38.181666221119265","[38.181666221119265]","[104.18166622111926]","[103]","0","0","1","0","152.7390000000014","991.4180000238412","1000","[[[""img/mask9.png""]]]","","","main","294","color-precision2"
"","","","","","html-keyboard-response","45","249652","0.0-10.0-0.13","56f2a49ced0cf600069131cd","640759fa512f630a2bdc333d","64076b293f19d64703cfbaba","null","","null","","","","","","","","","","","","","","","","","","","fixation","",""
"","","","","","color-precision2","46","253408","0.0-10.0-1.13-0.13","56f2a49ced0cf600069131cd","640759fa512f630a2bdc333d","64076b293f19d64703cfbaba","[431.10000002384186]","","","[24]","[228]","228","75","292.37329058191176","[292.37329058191176]","[217.37329058191176]","[217]","0","0","1","0","151.58600002384628","1004.6009999999951","1000","[[[""img/mask93.png""]]]","","","main","75","color-precision2"
"","","","","","html-keyboard-response","47","253910","0.0-10.0-0.14","56f2a49ced0cf600069131cd","640759fa512f630a2bdc333d","64076b293f19d64703cfbaba","null","","null","","","","","","","","","","","","","","","","","","","fixation","",""
"","","","","","many-guess-6","48","260243","0.0-10.0-1.14-0.14","56f2a49ced0cf600069131cd","640759fa512f630a2bdc333d","64076b293f19d64703cfbaba","[4285.599999904633]","","","[15,19,17,5,4,27,18,7,13,11,8,31,20,9,25,28,30,22,3,0,24,1,35,26,21,33,6,32,29,14,16,10,23,12,34,2]","[188,118,58,317,108,237,88,207,158,48,168,257,98,128,198,247,297,227,277,357,347,178,307,217,267,337,28,18,148,327,38,287,78,68,8,138]","188","212","108.87001155220526","[108.87001155220526]","[256.87001155220526]","[255]","[30,210,300,120,300,120,210,120,210]","0","36","0","150.13500009535346","11.399000095378142","16","[[[""img/mask36.png""],[""img/mask39.png""],[""img/mask43.png""],[""img/mask70.png""],[""img/mask38.png""],[""img/mask53.png""],[""img/mask21.png""],[""img/mask6.png""],[""img/mask44.png""],[""img/mask63.png""],[""img/mask61.png""],[""img/mask69.png""],[""img/mask69.png""],[""img/mask16.png""],[""img/mask51.png""],[""img/mask33.png""],[""img/mask28.png""],[""img/mask44.png""],[""img/mask83.png""],[""img/mask59.png""],[""img/mask81.png""],[""img/mask37.png""],[""img/mask53.png""],[""img/mask61.png""],[""img/mask55.png""],[""img/mask55.png""],[""img/mask67.png""],[""img/mask62.png""],[""img/mask29.png""],[""img/mask19.png""],[""img/mask45.png""],[""img/mask71.png""],[""img/mask7.png""],[""img/mask100.png""],[""img/mask83.png""],[""img/mask94.png""]]]","","[15,19,17,5,4,27,18,7,13,11,8,31,20,9,25,28,30,22,3,0,24,1,35,26,21,33,6,32,29,14,16,10,23,12,34,2]","main","212","many-guess-6"
"","","","","","html-keyboard-response","49","260747","0.0-10.0-0.15","56f2a49ced0cf600069131cd","640759fa512f630a2bdc333d","64076b293f19d64703cfbaba","null","","null","","","","","","","","","","","","","","","","","","","fixation","",""
"","","","","","many-guess-6","50","265276","0.0-10.0-1.15-0.15","56f2a49ced0cf600069131cd","640759fa512f630a2bdc333d","64076b293f19d64703cfbaba","[2256.1999999284744]","","","[10,23,4,25,21,22,2,14,11,28,24,29,6,8,15,30,19,7,5,32,0,27,20,34,12,13,1,17,26,31,35,9,16,18,3,33]","[91,271,330,221,350,61,31,141,1,171,191,151,181,300,251,320,71,51,131,310,161,241,201,21,211,231,280,41,11,81,111,121,101,340,290,261]","91","189","247.30800578392098","[247.30800578392098]","[58.308005783920976]","[58]","[120,210,120,210,30,30,120,30,300]","0","36","0","149.63700009539025","7.814000023819972","16","[[[""img/mask36.png""],[""img/mask49.png""],[""img/mask50.png""],[""img/mask3.png""],[""img/mask92.png""],[""img/mask58.png""],[""img/mask20.png""],[""img/mask70.png""],[""img/mask61.png""],[""img/mask82.png""],[""img/mask65.png""],[""img/mask23.png""],[""img/mask82.png""],[""img/mask53.png""],[""img/mask21.png""],[""img/mask59.png""],[""img/mask57.png""],[""img/mask47.png""],[""img/mask86.png""],[""img/mask27.png""],[""img/mask71.png""],[""img/mask44.png""],[""img/mask83.png""],[""img/mask4.png""],[""img/mask31.png""],[""img/mask43.png""],[""img/mask18.png""],[""img/mask48.png""],[""img/mask51.png""],[""img/mask38.png""],[""img/mask34.png""],[""img/mask33.png""],[""img/mask93.png""],[""img/mask54.png""],[""img/mask60.png""],[""img/mask42.png""]]]","","[10,23,4,25,21,22,2,14,11,28,24,29,6,8,15,30,19,7,5,32,0,27,20,34,12,13,1,17,26,31,35,9,16,18,3,33]","main","189","many-guess-6"
"","","","","","html-keyboard-response","51","265781","0.0-10.0-0.16","56f2a49ced0cf600069131cd","640759fa512f630a2bdc333d","64076b293f19d64703cfbaba","null","","null","","","","","","","","","","","","","","","","","","","fixation","",""
"","","","","","many-guess-6","52","268955","0.0-10.0-1.16-0.16","56f2a49ced0cf600069131cd","640759fa512f630a2bdc333d","64076b293f19d64703cfbaba","[1400.3999999761581]","","","[13,4,35,31,5,2,3,0,33,21,30,1,8,24,14,12,32,7,16,6,17,11,23,18,26,29,28,9,20,34,22,15,19,10,25,27]","[122,311,201,291,181,92,42,2,191,62,52,341,141,12,171,331,131,221,301,22,281,72,102,112,351,161,32,241,231,271,261,151,251,82,211,321]","122","50","246.53626304968333","[246.53626304968333]","[196.53626304968333]","[197]","[300,120,300,300,30,120,210,30,210]","0","36","0","147.99900009535486","26.677000000025146","16","[[[""img/mask55.png""],[""img/mask65.png""],[""img/mask38.png""],[""img/mask69.png""],[""img/mask50.png""],[""img/mask23.png""],[""img/mask9.png""],[""img/mask45.png""],[""img/mask3.png""],[""img/mask5.png""],[""img/mask51.png""],[""img/mask100.png""],[""img/mask77.png""],[""img/mask42.png""],[""img/mask65.png""],[""img/mask99.png""],[""img/mask84.png""],[""img/mask54.png""],[""img/mask18.png""],[""img/mask88.png""],[""img/mask60.png""],[""img/mask30.png""],[""img/mask12.png""],[""img/mask41.png""],[""img/mask61.png""],[""img/mask67.png""],[""img/mask86.png""],[""img/mask13.png""],[""img/mask75.png""],[""img/mask45.png""],[""img/mask79.png""],[""img/mask79.png""],[""img/mask53.png""],[""img/mask88.png""],[""img/mask9.png""],[""img/mask75.png""]]]","","[13,4,35,31,5,2,3,0,33,21,30,1,8,24,14,12,32,7,16,6,17,11,23,18,26,29,28,9,20,34,22,15,19,10,25,27]","main","50","many-guess-6"
"","","","","","html-keyboard-response","53","269457","0.0-10.0-0.17","56f2a49ced0cf600069131cd","640759fa512f630a2bdc333d","64076b293f19d64703cfbaba","null","","null","","","","","","","","","","","","","","","","","","","fixation","",""
"","","","","","many-guess-6","54","273050","0.0-10.0-1.17-0.17","56f2a49ced0cf600069131cd","640759fa512f630a2bdc333d","64076b293f19d64703cfbaba","[1688.2999999523163]","","","[1,3,20,25,35,15,23,32,18,22,34,0,2,28,17,31,30,5,9,33,13,14,16,6,8,11,26,24,4,21,7,12,29,27,10,19]","[3,213,342,352,163,63,103,292,233,332,13,93,223,263,183,143,302,272,113,173,43,153,282,33,23,193,133,253,83,312,73,203,123,243,53,322]","3","84","118.67692247934718","[118.67692247934718]","[34.67692247934718]","[33]","[300,120,300,210,30,120,30,120,300]","0","36","0","149.9910000715172","13.946000023861416","16","[[[""img/mask45.png""],[""img/mask8.png""],[""img/mask28.png""],[""img/mask47.png""],[""img/mask27.png""],[""img/mask59.png""],[""img/mask4.png""],[""img/mask13.png""],[""img/mask63.png""],[""img/mask100.png""],[""img/mask11.png""],[""img/mask7.png""],[""img/mask86.png""],[""img/mask83.png""],[""img/mask24.png""],[""img/mask75.png""],[""img/mask20.png""],[""img/mask10.png""],[""img/mask52.png""],[""img/mask22.png""],[""img/mask15.png""],[""img/mask66.png""],[""img/mask90.png""],[""img/mask3.png""],[""img/mask34.png""],[""img/mask55.png""],[""img/mask70.png""],[""img/mask78.png""],[""img/mask99.png""],[""img/mask70.png""],[""img/mask65.png""],[""img/mask80.png""],[""img/mask47.png""],[""img/mask79.png""],[""img/mask44.png""],[""img/mask34.png""]]]","","[1,3,20,25,35,15,23,32,18,22,34,0,2,28,17,31,30,5,9,33,13,14,16,6,8,11,26,24,4,21,7,12,29,27,10,19]","main","84","many-guess-6"
"","","","","","html-keyboard-response","55","273551","0.0-10.0-0.18","56f2a49ced0cf600069131cd","640759fa512f630a2bdc333d","64076b293f19d64703cfbaba","null","","null","","","","","","","","","","","","","","","","","","","fixation","",""
"","","","","","color-precision2","56","276744","0.0-10.0-1.18-0.18","56f2a49ced0cf600069131cd","640759fa512f630a2bdc333d","64076b293f19d64703cfbaba","[171.20000004768372]","","","[17]","[161]","161","82","","[null]","[null]","[170]","0","0","1","0","151.79400002385955","989.6950000715442","1000","[[[""img/mask19.png""]]]","","","main","82","color-precision2"
"","","","","","html-keyboard-response","57","280017","0.0-10.0-0.19","56f2a49ced0cf600069131cd","640759fa512f630a2bdc333d","64076b293f19d64703cfbaba","3271.0999999046326","Wow! You've completed 20 out of 180 trials! </p> <p>  </p><p> Take a quick break, then press any key when you're ready to continue."," ","","","","","","","","","","","","","","","","","","","fixation","",""
"","","","","","many-guess-6","58","285131","0.0-10.0-1.19-0.19","56f2a49ced0cf600069131cd","640759fa512f630a2bdc333d","64076b293f19d64703cfbaba","[2621.3000000715256]","","","[27,29,35,23,31,34,15,18,26,32,24,30,25,16,8,20,11,21,28,3,19,6,4,13,10,14,0,7,12,17,5,9,33,22,2,1]","[69,89,129,208,238,79,338,318,348,59,29,328,198,139,278,169,188,119,159,308,149,288,49,109,99,218,178,268,19,39,258,358,248,9,298,228]","69","9","202.96155885659746","[202.96155885659746]","[193.96155885659746]","[194]","[120,120,300,30,300,300,30,210,300]","0","36","0","150.23100009537302","24.418000071542338","16","[[[""img/mask59.png""],[""img/mask9.png""],[""img/mask4.png""],[""img/mask61.png""],[""img/mask42.png""],[""img/mask27.png""],[""img/mask98.png""],[""img/mask27.png""],[""img/mask56.png""],[""img/mask55.png""],[""img/mask98.png""],[""img/mask32.png""],[""img/mask41.png""],[""img/mask66.png""],[""img/mask38.png""],[""img/mask68.png""],[""img/mask17.png""],[""img/mask53.png""],[""img/mask93.png""],[""img/mask46.png""],[""img/mask39.png""],[""img/mask84.png""],[""img/mask87.png""],[""img/mask57.png""],[""img/mask13.png""],[""img/mask75.png""],[""img/mask15.png""],[""img/mask19.png""],[""img/mask95.png""],[""img/mask78.png""],[""img/mask79.png""],[""img/mask74.png""],[""img/mask54.png""],[""img/mask4.png""],[""img/mask80.png""],[""img/mask74.png""]]]","","[27,29,35,23,31,34,15,18,26,32,24,30,25,16,8,20,11,21,28,3,19,6,4,13,10,14,0,7,12,17,5,9,33,22,2,1]","main","9","many-guess-6"
"","","","","","html-keyboard-response","59","285633","0.0-10.0-0.20","56f2a49ced0cf600069131cd","640759fa512f630a2bdc333d","64076b293f19d64703cfbaba","null","","null","","","","","","","","","","","","","","","","","","","fixation","",""
"","","","","","many-guess-6","60","289604","0.0-10.0-1.20-0.20","56f2a49ced0cf600069131cd","640759fa512f630a2bdc333d","64076b293f19d64703cfbaba","[2360.600000023842]","","","[34,19,27,13,0,28,15,35,11,4,17,33,16,2,6,3,20,8,22,32,21,24,1,25,23,12,10,30,26,9,14,18,31,29,5,7]","[125,184,115,135,314,294,5,164,45,25,95,234,174,75,65,274,264,224,204,155,145,344,194,244,214,304,354,324,35,105,284,55,15,334,254,85]","125","313","317.341168625786","[317.341168625786]","[4.341168625785997]","[4]","[210,120,30,120,210,30,210,30,30]","0","36","0","149.58100002387073","26.01799999998184","16","[[[""img/mask1.png""],[""img/mask15.png""],[""img/mask97.png""],[""img/mask33.png""],[""img/mask50.png""],[""img/mask34.png""],[""img/mask58.png""],[""img/mask77.png""],[""img/mask62.png""],[""img/mask73.png""],[""img/mask100.png""],[""img/mask32.png""],[""img/mask98.png""],[""img/mask7.png""],[""img/mask79.png""],[""img/mask63.png""],[""img/mask65.png""],[""img/mask32.png""],[""img/mask44.png""],[""img/mask76.png""],[""img/mask21.png""],[""img/mask60.png""],[""img/mask64.png""],[""img/mask25.png""],[""img/mask50.png""],[""img/mask98.png""],[""img/mask63.png""],[""img/mask58.png""],[""img/mask58.png""],[""img/mask26.png""],[""img/mask21.png""],[""img/mask22.png""],[""img/mask13.png""],[""img/mask17.png""],[""img/mask18.png""],[""img/mask99.png""]]]","","[34,19,27,13,0,28,15,35,11,4,17,33,16,2,6,3,20,8,22,32,21,24,1,25,23,12,10,30,26,9,14,18,31,29,5,7]","main","313","many-guess-6"
"","","","","","html-keyboard-response","61","290120","0.0-10.0-0.21","56f2a49ced0cf600069131cd","640759fa512f630a2bdc333d","64076b293f19d64703cfbaba","null","","null","","","","","","","","","","","","","","","","","","","fixation","",""
"","","","","","color-precision2","62","293460","0.0-10.0-1.21-0.21","56f2a49ced0cf600069131cd","640759fa512f630a2bdc333d","64076b293f19d64703cfbaba","[429.10000002384186]","","","[33]","[143]","143","336","130.1994169690591","[130.1994169690591]","[154.1994169690591]","[153]","0","0","1","0","152.21800002385862","1010.3250000238186","1000","[[[""img/mask93.png""]]]","","","main","336","color-precision2"
"","","","","","html-keyboard-response","63","293963","0.0-10.0-0.22","56f2a49ced0cf600069131cd","640759fa512f630a2bdc333d","64076b293f19d64703cfbaba","null","","null","","","","","","","","","","","","","","","","","","","fixation","",""
"","","","","","many-guess-6","64","298419","0.0-10.0-1.22-0.22","56f2a49ced0cf600069131cd","640759fa512f630a2bdc333d","64076b293f19d64703cfbaba","[2783.2999999523163]","","","[19,12,26,34,18,14,27,31,25,33,11,5,29,6,24,21,13,0,30,7,1,20,28,15,9,16,10,17,35,22,32,2,4,3,8,23]","[310,200,330,11,120,280,260,300,290,1,31,51,21,91,41,71,170,340,110,320,210,81,250,140,220,100,190,350,230,150,240,270,180,61,130,160]","310","346","55.608547376856144","[55.608547376856144]","[69.60854737685617]","[68]","[120,30,30,120,30,120,30,30,300]","0","36","0","147.8410000000149","4.64700004766928","16","[[[""img/mask41.png""],[""img/mask26.png""],[""img/mask79.png""],[""img/mask36.png""],[""img/mask71.png""],[""img/mask17.png""],[""img/mask81.png""],[""img/mask8.png""],[""img/mask8.png""],[""img/mask78.png""],[""img/mask30.png""],[""img/mask91.png""],[""img/mask9.png""],[""img/mask17.png""],[""img/mask85.png""],[""img/mask82.png""],[""img/mask64.png""],[""img/mask60.png""],[""img/mask71.png""],[""img/mask86.png""],[""img/mask24.png""],[""img/mask7.png""],[""img/mask41.png""],[""img/mask65.png""],[""img/mask67.png""],[""img/mask14.png""],[""img/mask54.png""],[""img/mask79.png""],[""img/mask10.png""],[""img/mask100.png""],[""img/mask6.png""],[""img/mask37.png""],[""img/mask44.png""],[""img/mask34.png""],[""img/mask36.png""],[""img/mask25.png""]]]","","[19,12,26,34,18,14,27,31,25,33,11,5,29,6,24,21,13,0,30,7,1,20,28,15,9,16,10,17,35,22,32,2,4,3,8,23]","main","346","many-guess-6"
"","","","","","html-keyboard-response","65","298926","0.0-10.0-0.23","56f2a49ced0cf600069131cd","640759fa512f630a2bdc333d","64076b293f19d64703cfbaba","null","","null","","","","","","","","","","","","","","","","","","","fixation","",""
"","","","","","many-guess-6","66","308430","0.0-10.0-1.23-0.23","56f2a49ced0cf600069131cd","640759fa512f630a2bdc333d","64076b293f19d64703cfbaba","[6681.899999976158]","","","[24,2,20,31,14,22,1,10,21,33,34,25,23,26,18,16,7,15,3,8,29,9,0,27,4,32,11,5,6,28,30,13,35,12,19,17]","[286,246,236,346,186,47,166,306,17,326,336,216,7,67,77,27,117,316,127,37,256,176,226,196,156,356,137,97,57,266,87,146,296,206,107,276]","286","330","39.08927757632758","[39.08927757632758]","[69.08927757632756]","[68]","[300,300,210,210,300,300,300,300,300]","0","36","0","150.66100009536603","17.505999999993946","16","[[[""img/mask54.png""],[""img/mask100.png""],[""img/mask29.png""],[""img/mask10.png""],[""img/mask13.png""],[""img/mask69.png""],[""img/mask75.png""],[""img/mask20.png""],[""img/mask94.png""],[""img/mask7.png""],[""img/mask16.png""],[""img/mask87.png""],[""img/mask3.png""],[""img/mask15.png""],[""img/mask34.png""],[""img/mask67.png""],[""img/mask16.png""],[""img/mask52.png""],[""img/mask89.png""],[""img/mask95.png""],[""img/mask32.png""],[""img/mask30.png""],[""img/mask33.png""],[""img/mask7.png""],[""img/mask85.png""],[""img/mask29.png""],[""img/mask56.png""],[""img/mask43.png""],[""img/mask14.png""],[""img/mask64.png""],[""img/mask52.png""],[""img/mask30.png""],[""img/mask29.png""],[""img/mask94.png""],[""img/mask100.png""],[""img/mask62.png""]]]","","[24,2,20,31,14,22,1,10,21,33,34,25,23,26,18,16,7,15,3,8,29,9,0,27,4,32,11,5,6,28,30,13,35,12,19,17]","main","330","many-guess-6"
"","","","","","html-keyboard-response","67","308936","0.0-10.0-0.24","56f2a49ced0cf600069131cd","640759fa512f630a2bdc333d","64076b293f19d64703cfbaba","null","","null","","","","","","","","","","","","","","","","","","","fixation","",""
"","","","","","color-precision2","68","312958","0.0-10.0-1.24-0.24","56f2a49ced0cf600069131cd","640759fa512f630a2bdc333d","64076b293f19d64703cfbaba","[411.89999997615814]","","","[34]","[328]","328","197","170.97101285994182","[170.97101285994182]","[333.9710128599418]","[334]","0","0","1","0","152.39700002386235","999.0690000714967","1000","[[[""img/mask8.png""]]]","","","main","197","color-precision2"
"","","","","","html-keyboard-response","69","313463","0.0-10.0-0.25","56f2a49ced0cf600069131cd","640759fa512f630a2bdc333d","64076b293f19d64703cfbaba","null","","null","","","","","","","","","","","","","","","","","","","fixation","",""
"","","","","","color-precision2","70","316970","0.0-10.0-1.25-0.25","56f2a49ced0cf600069131cd","640759fa512f630a2bdc333d","64076b293f19d64703cfbaba","[191.09999990463257]","","","[21]","[217]","217","91","","[null]","[null]","[210]","0","0","1","0","152.0060000953963","1002.2540000000154","1000","[[[""img/mask75.png""]]]","","","main","91","color-precision2"
"","","","","","html-keyboard-response","71","317472","0.0-10.0-0.26","56f2a49ced0cf600069131cd","640759fa512f630a2bdc333d","64076b293f19d64703cfbaba","null","","null","","","","","","","","","","","","","","","","","","","fixation","",""
"","","","","","many-guess-6","72","321657","0.0-10.0-1.26-0.26","56f2a49ced0cf600069131cd","640759fa512f630a2bdc333d","64076b293f19d64703cfbaba","[2499.399999976158]","","","[20,35,31,28,30,22,0,23,27,15,32,21,5,11,29,8,4,33,18,2,1,25,19,10,24,3,13,26,7,16,17,14,34,6,12,9]","[348,9,209,258,109,308,358,338,318,228,278,298,218,248,69,139,29,39,129,79,238,328,99,49,119,89,149,19,189,159,199,288,59,268,169,179]","348","76","14.298471019851332","[14.298471019851332]","[298.2984710198513]","[297]","[300,300,30,210,300,120,210,300,300]","0","36","0","150.45300007151673","12.299000071536284","16","[[[""img/mask51.png""],[""img/mask91.png""],[""img/mask95.png""],[""img/mask11.png""],[""img/mask44.png""],[""img/mask60.png""],[""img/mask4.png""],[""img/mask5.png""],[""img/mask9.png""],[""img/mask7.png""],[""img/mask78.png""],[""img/mask26.png""],[""img/mask22.png""],[""img/mask70.png""],[""img/mask31.png""],[""img/mask71.png""],[""img/mask74.png""],[""img/mask95.png""],[""img/mask35.png""],[""img/mask49.png""],[""img/mask97.png""],[""img/mask5.png""],[""img/mask12.png""],[""img/mask77.png""],[""img/mask64.png""],[""img/mask8.png""],[""img/mask63.png""],[""img/mask36.png""],[""img/mask80.png""],[""img/mask39.png""],[""img/mask58.png""],[""img/mask52.png""],[""img/mask50.png""],[""img/mask53.png""],[""img/mask45.png""],[""img/mask12.png""]]]","","[20,35,31,28,30,22,0,23,27,15,32,21,5,11,29,8,4,33,18,2,1,25,19,10,24,3,13,26,7,16,17,14,34,6,12,9]","main","76","many-guess-6"
"","","","","","html-keyboard-response","73","322168","0.0-10.0-0.27","56f2a49ced0cf600069131cd","640759fa512f630a2bdc333d","64076b293f19d64703cfbaba","null","","null","","","","","","","","","","","","","","","","","","","fixation","",""
"","","","","","many-guess-6","74","325836","0.0-10.0-1.27-0.27","56f2a49ced0cf600069131cd","640759fa512f630a2bdc333d","64076b293f19d64703cfbaba","[1994.1000000238419]","","","[25,19,18,4,12,26,28,33,20,35,10,24,8,13,32,21,23,14,5,0,27,11,30,2,3,6,7,16,34,22,29,17,31,1,15,9]","[178,357,258,98,158,38,168,18,88,228,248,208,138,78,108,8,288,198,318,48,268,68,238,218,278,308,148,118,28,128,328,298,188,347,338,58]","178","215","249.3430797681209","[249.3430797681209]","[34.3430797681209]","[35]","[120,30,300,300,210,120,120,300,210]","0","36","0","150.46500007150462","25.609000071533956","16","[[[""img/mask51.png""],[""img/mask10.png""],[""img/mask16.png""],[""img/mask67.png""],[""img/mask91.png""],[""img/mask78.png""],[""img/mask47.png""],[""img/mask23.png""],[""img/mask94.png""],[""img/mask41.png""],[""img/mask15.png""],[""img/mask26.png""],[""img/mask69.png""],[""img/mask30.png""],[""img/mask97.png""],[""img/mask41.png""],[""img/mask42.png""],[""img/mask81.png""],[""img/mask62.png""],[""img/mask85.png""],[""img/mask22.png""],[""img/mask54.png""],[""img/mask94.png""],[""img/mask25.png""],[""img/mask4.png""],[""img/mask93.png""],[""img/mask89.png""],[""img/mask26.png""],[""img/mask90.png""],[""img/mask100.png""],[""img/mask92.png""],[""img/mask82.png""],[""img/mask88.png""],[""img/mask45.png""],[""img/mask2.png""],[""img/mask18.png""]]]","","[25,19,18,4,12,26,28,33,20,35,10,24,8,13,32,21,23,14,5,0,27,11,30,2,3,6,7,16,34,22,29,17,31,1,15,9]","main","215","many-guess-6"
"","","","","","html-keyboard-response","75","326337","0.0-10.0-0.28","56f2a49ced0cf600069131cd","640759fa512f630a2bdc333d","64076b293f19d64703cfbaba","null","","null","","","","","","","","","","","","","","","","","","","fixation","",""
"","","","","","many-guess-6","76","329258","0.0-10.0-1.28-0.28","56f2a49ced0cf600069131cd","640759fa512f630a2bdc333d","64076b293f19d64703cfbaba","[1457.8000000715256]","","","[32,22,31,10,8,14,24,21,3,26,12,27,17,33,13,11,2,5,7,29,15,19,6,30,35,1,20,28,9,18,25,16,4,23,0,34]","[341,311,102,261,141,351,181,271,321,151,221,301,161,92,22,281,291,231,131,121,42,52,211,331,171,72,32,62,111,191,2,241,201,82,251,12]","341","235","319.370227490105","[319.370227490105]","[84.37022749010498]","[84]","[300,120,30,210,210,210,300,300,300]","0","36","0","150.64900004770607","28.360000071523245","16","[[[""img/mask99.png""],[""img/mask52.png""],[""img/mask73.png""],[""img/mask90.png""],[""img/mask25.png""],[""img/mask88.png""],[""img/mask73.png""],[""img/mask99.png""],[""img/mask63.png""],[""img/mask96.png""],[""img/mask71.png""],[""img/mask44.png""],[""img/mask14.png""],[""img/mask73.png""],[""img/mask59.png""],[""img/mask25.png""],[""img/mask98.png""],[""img/mask35.png""],[""img/mask88.png""],[""img/mask54.png""],[""img/mask76.png""],[""img/mask52.png""],[""img/mask66.png""],[""img/mask45.png""],[""img/mask58.png""],[""img/mask9.png""],[""img/mask11.png""],[""img/mask68.png""],[""img/mask10.png""],[""img/mask35.png""],[""img/mask84.png""],[""img/mask60.png""],[""img/mask31.png""],[""img/mask95.png""],[""img/mask28.png""],[""img/mask6.png""]]]","","[32,22,31,10,8,14,24,21,3,26,12,27,17,33,13,11,2,5,7,29,15,19,6,30,35,1,20,28,9,18,25,16,4,23,0,34]","main","235","many-guess-6"
"","","","","","html-keyboard-response","77","329759","0.0-10.0-0.29","56f2a49ced0cf600069131cd","640759fa512f630a2bdc333d","64076b293f19d64703cfbaba","null","","null","","","","","","","","","","","","","","","","","","","fixation","",""
"","","","","","many-guess-6","78","333611","0.0-10.0-1.29-0.29","56f2a49ced0cf600069131cd","640759fa512f630a2bdc333d","64076b293f19d64703cfbaba","[2503.7999999523163]","","","[5,35,8,26,22,20,34,10,3,13,14,6,24,23,18,30,31,12,9,11,25,27,29,17,1,2,16,19,33,15,21,32,4,7,28,0]","[251,231,341,122,22,32,201,72,271,331,12,191,171,141,321,181,161,311,301,102,351,42,92,241,281,62,211,112,291,132,221,151,261,82,52,2]","251","280","140.19798816196482","[140.19798816196482]","[220.19798816196482]","[219]","[120,210,300,30,210,30,120,300,210]","0","36","0","149.62900004768744","12.588000047660898","16","[[[""img/mask31.png""],[""img/mask37.png""],[""img/mask45.png""],[""img/mask18.png""],[""img/mask99.png""],[""img/mask92.png""],[""img/mask17.png""],[""img/mask22.png""],[""img/mask52.png""],[""img/mask28.png""],[""img/mask98.png""],[""img/mask89.png""],[""img/mask4.png""],[""img/mask10.png""],[""img/mask55.png""],[""img/mask97.png""],[""img/mask63.png""],[""img/mask75.png""],[""img/mask31.png""],[""img/mask50.png""],[""img/mask45.png""],[""img/mask7.png""],[""img/mask74.png""],[""img/mask14.png""],[""img/mask20.png""],[""img/mask70.png""],[""img/mask46.png""],[""img/mask28.png""],[""img/mask39.png""],[""img/mask74.png""],[""img/mask61.png""],[""img/mask27.png""],[""img/mask31.png""],[""img/mask32.png""],[""img/mask49.png""],[""img/mask61.png""]]]","","[5,35,8,26,22,20,34,10,3,13,14,6,24,23,18,30,31,12,9,11,25,27,29,17,1,2,16,19,33,15,21,32,4,7,28,0]","main","280","many-guess-6"
"","","","","","html-keyboard-response","79","334112","0.0-10.0-0.30","56f2a49ced0cf600069131cd","640759fa512f630a2bdc333d","64076b293f19d64703cfbaba","null","","null","","","","","","","","","","","","","","","","","","","fixation","",""
"","","","","","many-guess-6","80","337482","0.0-10.0-1.30-0.30","56f2a49ced0cf600069131cd","640759fa512f630a2bdc333d","64076b293f19d64703cfbaba","[1866.1999999284744]","","","[26,18,27,28,12,6,20,2,9,0,17,7,33,22,1,35,24,5,14,25,31,4,29,30,15,32,21,16,13,8,34,10,11,19,3,23]","[212,42,242,12,132,312,162,232,82,192,222,172,292,122,32,262,272,62,2,102,352,112,182,202,22,142,342,322,332,72,152,302,282,52,92,252]","212","114","235.082842577802","[235.082842577802]","[121.08284257780201]","[121]","[120,30,120,300,30,30,120,30,210]","0","36","0","149.9070000476786","23.003000071505085","16","[[[""img/mask5.png""],[""img/mask44.png""],[""img/mask79.png""],[""img/mask66.png""],[""img/mask64.png""],[""img/mask35.png""],[""img/mask67.png""],[""img/mask86.png""],[""img/mask29.png""],[""img/mask76.png""],[""img/mask36.png""],[""img/mask76.png""],[""img/mask31.png""],[""img/mask11.png""],[""img/mask96.png""],[""img/mask35.png""],[""img/mask85.png""],[""img/mask77.png""],[""img/mask1.png""],[""img/mask91.png""],[""img/mask92.png""],[""img/mask44.png""],[""img/mask63.png""],[""img/mask70.png""],[""img/mask40.png""],[""img/mask16.png""],[""img/mask73.png""],[""img/mask46.png""],[""img/mask23.png""],[""img/mask84.png""],[""img/mask80.png""],[""img/mask7.png""],[""img/mask39.png""],[""img/mask18.png""],[""img/mask71.png""],[""img/mask27.png""]]]","","[26,18,27,28,12,6,20,2,9,0,17,7,33,22,1,35,24,5,14,25,31,4,29,30,15,32,21,16,13,8,34,10,11,19,3,23]","main","114","many-guess-6"
"","","","","","html-keyboard-response","81","337983","0.0-10.0-0.31","56f2a49ced0cf600069131cd","640759fa512f630a2bdc333d","64076b293f19d64703cfbaba","null","","null","","","","","","","","","","","","","","","","","","","fixation","",""
"","","","","","color-precision2","82","341608","0.0-10.0-1.31-0.31","56f2a49ced0cf600069131cd","640759fa512f630a2bdc333d","64076b293f19d64703cfbaba","[781.8999999761581]","","","[27]","[348]","348","242","241.60131143685618","[241.60131143685618]","[359.6013114368562]","[0]","0","0","1","0","151.4140000238549","1008.2940000238596","1000","[[[""img/mask98.png""]]]","","","main","242","color-precision2"
"","","","","","html-keyboard-response","83","342109","0.0-10.0-0.32","56f2a49ced0cf600069131cd","640759fa512f630a2bdc333d","64076b293f19d64703cfbaba","null","","null","","","","","","","","","","","","","","","","","","","fixation","",""
"","","","","","many-guess-6","84","345639","0.0-10.0-1.32-0.32","56f2a49ced0cf600069131cd","640759fa512f630a2bdc333d","64076b293f19d64703cfbaba","[1981.8999999761581]","","","[22,1,27,16,26,33,11,3,20,31,12,7,35,14,0,24,5,13,10,21,17,25,32,29,34,28,18,2,8,15,4,6,23,9,19,30]","[274,35,65,154,25,194,15,104,234,94,184,45,354,254,124,174,314,334,324,344,84,114,244,164,224,144,294,204,264,74,134,5,55,214,284,304]","274","305","3.9067943950785904","[3.9067943950785904]","[58.90679439507858]","[58]","[210,210,30,120,30,300,30,30,30]","0","36","0","150.21600004768698","4.528999999980442","16","[[[""img/mask79.png""],[""img/mask80.png""],[""img/mask66.png""],[""img/mask5.png""],[""img/mask4.png""],[""img/mask24.png""],[""img/mask26.png""],[""img/mask38.png""],[""img/mask79.png""],[""img/mask91.png""],[""img/mask46.png""],[""img/mask41.png""],[""img/mask16.png""],[""img/mask49.png""],[""img/mask36.png""],[""img/mask45.png""],[""img/mask38.png""],[""img/mask99.png""],[""img/mask10.png""],[""img/mask87.png""],[""img/mask73.png""],[""img/mask91.png""],[""img/mask55.png""],[""img/mask63.png""],[""img/mask29.png""],[""img/mask99.png""],[""img/mask55.png""],[""img/mask80.png""],[""img/mask87.png""],[""img/mask96.png""],[""img/mask84.png""],[""img/mask85.png""],[""img/mask97.png""],[""img/mask54.png""],[""img/mask27.png""],[""img/mask2.png""]]]","","[22,1,27,16,26,33,11,3,20,31,12,7,35,14,0,24,5,13,10,21,17,25,32,29,34,28,18,2,8,15,4,6,23,9,19,30]","main","305","many-guess-6"
"","","","","","html-keyboard-response","85","346141","0.0-10.0-0.33","56f2a49ced0cf600069131cd","640759fa512f630a2bdc333d","64076b293f19d64703cfbaba","null","","null","","","","","","","","","","","","","","","","","","","fixation","",""
"","","","","","many-guess-6","86","350172","0.0-10.0-1.33-0.33","56f2a49ced0cf600069131cd","640759fa512f630a2bdc333d","64076b293f19d64703cfbaba","[2204.399999976158]","","","[13,30,21,0,2,14,8,6,10,3,25,15,5,26,1,7,31,34,19,33,11,28,16,22,18,32,12,35,17,4,29,23,24,9,27,20]","[37,216,27,56,256,326,286,236,86,276,306,7,106,47,76,206,186,266,166,336,346,296,246,96,66,356,316,146,196,156,136,176,116,17,126,226]","37","236","298.240662323921","[298.240662323921]","[62.240662323921015]","[62]","[30,30,120,300,210,210,300,120,120]","0","36","0","149.75800002383767","15.558000000019092","16","[[[""img/mask48.png""],[""img/mask68.png""],[""img/mask47.png""],[""img/mask17.png""],[""img/mask82.png""],[""img/mask62.png""],[""img/mask83.png""],[""img/mask18.png""],[""img/mask79.png""],[""img/mask79.png""],[""img/mask59.png""],[""img/mask57.png""],[""img/mask26.png""],[""img/mask90.png""],[""img/mask95.png""],[""img/mask89.png""],[""img/mask27.png""],[""img/mask47.png""],[""img/mask16.png""],[""img/mask9.png""],[""img/mask39.png""],[""img/mask42.png""],[""img/mask75.png""],[""img/mask97.png""],[""img/mask28.png""],[""img/mask67.png""],[""img/mask99.png""],[""img/mask54.png""],[""img/mask68.png""],[""img/mask60.png""],[""img/mask92.png""],[""img/mask42.png""],[""img/mask13.png""],[""img/mask89.png""],[""img/mask37.png""],[""img/mask43.png""]]]","","[13,30,21,0,2,14,8,6,10,3,25,15,5,26,1,7,31,34,19,33,11,28,16,22,18,32,12,35,17,4,29,23,24,9,27,20]","main","236","many-guess-6"
"","","","","","html-keyboard-response","87","350675","0.0-10.0-0.34","56f2a49ced0cf600069131cd","640759fa512f630a2bdc333d","64076b293f19d64703cfbaba","null","","null","","","","","","","","","","","","","","","","","","","fixation","",""
"","","","","","color-precision2","88","355246","0.0-10.0-1.34-0.34","56f2a49ced0cf600069131cd","640759fa512f630a2bdc333d","64076b293f19d64703cfbaba","[266.2000000476837]","","","[19]","[86]","86","154","239.10323941038024","[239.10323941038024]","[85.10323941038024]","[86]","0","0","1","0","149.5329999999958","988.3310000238707","1000","[[[""img/mask79.png""]]]","","","main","154","color-precision2"
"","","","","","html-keyboard-response","89","355750","0.0-10.0-0.35","56f2a49ced0cf600069131cd","640759fa512f630a2bdc333d","64076b293f19d64703cfbaba","null","","null","","","","","","","","","","","","","","","","","","","fixation","",""
"","","","","","color-precision2","90","358945","0.0-10.0-1.35-0.35","56f2a49ced0cf600069131cd","640759fa512f630a2bdc333d","64076b293f19d64703cfbaba","[432.39999997615814]","","","[33]","[124]","124","170","292.380986912569","[292.380986912569]","[122.38098691256903]","[124]","0","0","1","0","152.00800007150974","1004.3750000953441","1000","[[[""img/mask98.png""]]]","","","main","170","color-precision2"
"","","","","","html-keyboard-response","91","359446","0.0-10.0-0.36","56f2a49ced0cf600069131cd","640759fa512f630a2bdc333d","64076b293f19d64703cfbaba","null","","null","","","","","","","","","","","","","","","","","","","fixation","",""
"","","","","","many-guess-6","92","364281","0.0-10.0-1.36-0.36","56f2a49ced0cf600069131cd","640759fa512f630a2bdc333d","64076b293f19d64703cfbaba","[2914.2000000476837]","","","[2,9,3,23,29,0,15,21,13,24,5,28,35,22,11,34,12,6,10,31,8,20,30,7,14,18,33,26,1,25,19,27,4,16,32,17]","[11,230,310,260,41,220,190,300,71,111,51,81,151,180,101,200,240,270,21,61,91,161,280,121,340,141,350,131,210,1,170,250,290,330,31,320]","11","18","92.0500929291632","[92.0500929291632]","[74.0500929291632]","[72]","[300,210,300,120,300,120,120,300,300]","0","36","0","150.24200007150648","3.541000023833476","16","[[[""img/mask31.png""],[""img/mask47.png""],[""img/mask82.png""],[""img/mask65.png""],[""img/mask55.png""],[""img/mask6.png""],[""img/mask56.png""],[""img/mask13.png""],[""img/mask24.png""],[""img/mask72.png""],[""img/mask19.png""],[""img/mask48.png""],[""img/mask40.png""],[""img/mask86.png""],[""img/mask94.png""],[""img/mask36.png""],[""img/mask89.png""],[""img/mask50.png""],[""img/mask36.png""],[""img/mask67.png""],[""img/mask37.png""],[""img/mask64.png""],[""img/mask61.png""],[""img/mask41.png""],[""img/mask93.png""],[""img/mask86.png""],[""img/mask37.png""],[""img/mask23.png""],[""img/mask12.png""],[""img/mask8.png""],[""img/mask32.png""],[""img/mask12.png""],[""img/mask5.png""],[""img/mask39.png""],[""img/mask19.png""],[""img/mask53.png""]]]","","[2,9,3,23,29,0,15,21,13,24,5,28,35,22,11,34,12,6,10,31,8,20,30,7,14,18,33,26,1,25,19,27,4,16,32,17]","main","18","many-guess-6"
"","","","","","html-keyboard-response","93","364785","0.0-10.0-0.37","56f2a49ced0cf600069131cd","640759fa512f630a2bdc333d","64076b293f19d64703cfbaba","null","","null","","","","","","","","","","","","","","","","","","","fixation","",""
"","","","","","many-guess-6","94","368373","0.0-10.0-1.37-0.37","56f2a49ced0cf600069131cd","640759fa512f630a2bdc333d","64076b293f19d64703cfbaba","[1420.8999999761581]","","","[19,16,32,31,10,22,3,33,2,15,20,11,8,13,7,4,23,14,9,24,1,12,17,29,0,5,34,27,26,30,21,25,28,35,18,6]","[273,283,164,154,223,174,293,34,64,104,44,144,134,184,213,74,343,24,263,303,14,54,94,313,203,233,353,253,114,323,194,243,84,4,333,124]","273","328","316.1592492465407","[316.1592492465407]","[348.1592492465407]","[348]","[300,300,120,300,120,300,300,300,30]","0","36","0","150.5050000238698","26.555000023858156","16","[[[""img/mask67.png""],[""img/mask60.png""],[""img/mask71.png""],[""img/mask62.png""],[""img/mask36.png""],[""img/mask45.png""],[""img/mask56.png""],[""img/mask5.png""],[""img/mask20.png""],[""img/mask6.png""],[""img/mask49.png""],[""img/mask6.png""],[""img/mask66.png""],[""img/mask38.png""],[""img/mask62.png""],[""img/mask10.png""],[""img/mask9.png""],[""img/mask100.png""],[""img/mask30.png""],[""img/mask45.png""],[""img/mask45.png""],[""img/mask61.png""],[""img/mask33.png""],[""img/mask97.png""],[""img/mask4.png""],[""img/mask27.png""],[""img/mask80.png""],[""img/mask90.png""],[""img/mask40.png""],[""img/mask96.png""],[""img/mask100.png""],[""img/mask17.png""],[""img/mask64.png""],[""img/mask17.png""],[""img/mask50.png""],[""img/mask63.png""]]]","","[19,16,32,31,10,22,3,33,2,15,20,11,8,13,7,4,23,14,9,24,1,12,17,29,0,5,34,27,26,30,21,25,28,35,18,6]","main","328","many-guess-6"
"","","","","","html-keyboard-response","95","368883","0.0-10.0-0.38","56f2a49ced0cf600069131cd","640759fa512f630a2bdc333d","64076b293f19d64703cfbaba","null","","null","","","","","","","","","","","","","","","","","","","fixation","",""
"","","","","","color-precision2","96","372637","0.0-10.0-1.38-0.38","56f2a49ced0cf600069131cd","640759fa512f630a2bdc333d","64076b293f19d64703cfbaba","[723.6999999284744]","","","[23]","[79]","79","128","211.7135255930177","[211.7135255930177]","[83.71352559301769]","[83]","0","0","1","0","151.1620000238181","990.34400007152","1000","[[[""img/mask89.png""]]]","","","main","128","color-precision2"
"","","","","","html-keyboard-response","97","376602","0.0-10.0-0.39","56f2a49ced0cf600069131cd","640759fa512f630a2bdc333d","64076b293f19d64703cfbaba","3964","Wow! You've completed 40 out of 180 trials! </p> <p>  </p><p> Take a quick break, then press any key when you're ready to continue."," ","","","","","","","","","","","","","","","","","","","fixation","",""
"","","","","","many-guess-6","98","380128","0.0-10.0-1.39-0.39","56f2a49ced0cf600069131cd","640759fa512f630a2bdc333d","64076b293f19d64703cfbaba","[1325.1000000238419]","","","[13,27,31,1,33,30,32,18,16,26,3,15,2,34,10,17,7,28,11,25,24,19,4,23,5,35,21,0,8,22,9,14,6,20,12,29]","[100,189,50,60,219,149,90,119,339,359,279,329,80,139,70,179,109,319,159,289,309,229,249,269,199,239,40,209,20,299,10,349,259,30,169,129]","100","111","234.85619200995313","[234.85619200995313]","[123.85619200995313]","[124]","[210,30,30,120,30,120,300,120,210]","0","36","0","150.3800000953488","17.374000047682784","16","[[[""img/mask52.png""],[""img/mask53.png""],[""img/mask56.png""],[""img/mask13.png""],[""img/mask88.png""],[""img/mask80.png""],[""img/mask44.png""],[""img/mask100.png""],[""img/mask43.png""],[""img/mask66.png""],[""img/mask12.png""],[""img/mask96.png""],[""img/mask61.png""],[""img/mask74.png""],[""img/mask13.png""],[""img/mask90.png""],[""img/mask61.png""],[""img/mask89.png""],[""img/mask70.png""],[""img/mask19.png""],[""img/mask44.png""],[""img/mask28.png""],[""img/mask36.png""],[""img/mask4.png""],[""img/mask91.png""],[""img/mask97.png""],[""img/mask45.png""],[""img/mask95.png""],[""img/mask63.png""],[""img/mask11.png""],[""img/mask75.png""],[""img/mask82.png""],[""img/mask51.png""],[""img/mask76.png""],[""img/mask27.png""],[""img/mask64.png""]]]","","[13,27,31,1,33,30,32,18,16,26,3,15,2,34,10,17,7,28,11,25,24,19,4,23,5,35,21,0,8,22,9,14,6,20,12,29]","main","111","many-guess-6"
"","","","","","html-keyboard-response","99","380630","0.0-10.0-0.40","56f2a49ced0cf600069131cd","640759fa512f630a2bdc333d","64076b293f19d64703cfbaba","null","","null","","","","","","","","","","","","","","","","","","","fixation","",""
"","","","","","many-guess-6","100","383550","0.0-10.0-1.40-0.40","56f2a49ced0cf600069131cd","640759fa512f630a2bdc333d","64076b293f19d64703cfbaba","[1466.2999999523163]","","","[1,24,21,28,17,25,20,3,30,13,18,27,31,23,9,12,10,34,32,11,5,8,29,33,35,19,22,14,16,0,6,15,7,26,4,2]","[220,161,230,340,141,171,111,1,71,310,131,91,290,101,260,151,300,51,200,270,11,320,81,41,240,250,280,61,330,21,191,31,181,350,121,210]","220","43","49.37541887804968","[49.37541887804968]","[6.375418878049679]","[5]","[120,30,300,120,210,210,300,300,300]","0","36","0","150.5840000238386","13.304000000003725","16","[[[""img/mask95.png""],[""img/mask89.png""],[""img/mask68.png""],[""img/mask75.png""],[""img/mask70.png""],[""img/mask75.png""],[""img/mask34.png""],[""img/mask84.png""],[""img/mask32.png""],[""img/mask24.png""],[""img/mask22.png""],[""img/mask29.png""],[""img/mask59.png""],[""img/mask46.png""],[""img/mask64.png""],[""img/mask87.png""],[""img/mask12.png""],[""img/mask49.png""],[""img/mask42.png""],[""img/mask59.png""],[""img/mask82.png""],[""img/mask51.png""],[""img/mask81.png""],[""img/mask34.png""],[""img/mask29.png""],[""img/mask9.png""],[""img/mask18.png""],[""img/mask16.png""],[""img/mask10.png""],[""img/mask82.png""],[""img/mask95.png""],[""img/mask42.png""],[""img/mask31.png""],[""img/mask72.png""],[""img/mask60.png""],[""img/mask40.png""]]]","","[1,24,21,28,17,25,20,3,30,13,18,27,31,23,9,12,10,34,32,11,5,8,29,33,35,19,22,14,16,0,6,15,7,26,4,2]","main","43","many-guess-6"
"","","","","","html-keyboard-response","101","384050","0.0-10.0-0.41","56f2a49ced0cf600069131cd","640759fa512f630a2bdc333d","64076b293f19d64703cfbaba","null","","null","","","","","","","","","","","","","","","","","","","fixation","",""
"","","","","","color-precision2","102","389984","0.0-10.0-1.41-0.41","56f2a49ced0cf600069131cd","640759fa512f630a2bdc333d","64076b293f19d64703cfbaba","[3417.7999999523163]","","","[2]","[97]","97","146","251.91551495030234","[251.91551495030234]","[105.91551495030234]","[106]","0","0","1","0","152.33199999999488","1002.2670000953949","1000","[[[""img/mask47.png""]]]","","","main","146","color-precision2"
"","","","","","html-keyboard-response","103","390490","0.0-10.0-0.42","56f2a49ced0cf600069131cd","640759fa512f630a2bdc333d","64076b293f19d64703cfbaba","null","","null","","","","","","","","","","","","","","","","","","","fixation","",""
"","","","","","many-guess-6","104","394040","0.0-10.0-1.42-0.42","56f2a49ced0cf600069131cd","640759fa512f630a2bdc333d","64076b293f19d64703cfbaba","[1359.8999999761581]","","","[23,30,0,8,19,21,4,18,25,14,27,11,32,16,1,10,7,24,29,35,13,28,12,2,20,34,3,22,15,31,6,17,26,5,9,33]","[173,143,113,253,223,313,333,263,103,343,153,163,34,203,123,213,353,303,44,54,4,273,283,183,243,233,133,323,64,293,24,193,83,14,73,93]","173","308","12.704010998584396","[12.704010998584396]","[64.70401099858441]","[64]","[120,120,300,300,300,120,30,120,300]","0","36","0","149.59500004770234","20.605000023846515","16","[[[""img/mask73.png""],[""img/mask10.png""],[""img/mask65.png""],[""img/mask24.png""],[""img/mask21.png""],[""img/mask55.png""],[""img/mask45.png""],[""img/mask51.png""],[""img/mask40.png""],[""img/mask55.png""],[""img/mask50.png""],[""img/mask66.png""],[""img/mask19.png""],[""img/mask99.png""],[""img/mask76.png""],[""img/mask37.png""],[""img/mask17.png""],[""img/mask49.png""],[""img/mask39.png""],[""img/mask53.png""],[""img/mask92.png""],[""img/mask2.png""],[""img/mask32.png""],[""img/mask98.png""],[""img/mask59.png""],[""img/mask39.png""],[""img/mask30.png""],[""img/mask60.png""],[""img/mask88.png""],[""img/mask84.png""],[""img/mask18.png""],[""img/mask85.png""],[""img/mask16.png""],[""img/mask51.png""],[""img/mask41.png""],[""img/mask22.png""]]]","","[23,30,0,8,19,21,4,18,25,14,27,11,32,16,1,10,7,24,29,35,13,28,12,2,20,34,3,22,15,31,6,17,26,5,9,33]","main","308","many-guess-6"
"","","","","","html-keyboard-response","105","394541","0.0-10.0-0.43","56f2a49ced0cf600069131cd","640759fa512f630a2bdc333d","64076b293f19d64703cfbaba","null","","null","","","","","","","","","","","","","","","","","","","fixation","",""
"","","","","","many-guess-6","106","398241","0.0-10.0-1.43-0.43","56f2a49ced0cf600069131cd","640759fa512f630a2bdc333d","64076b293f19d64703cfbaba","[2228.5]","","","[11,34,20,10,18,29,28,5,27,6,12,31,33,22,15,19,0,4,17,14,13,32,30,1,16,25,7,9,2,8,23,3,26,24,35,21]","[163,113,13,342,253,213,3,302,193,173,263,103,143,43,243,123,93,53,332,312,73,83,292,223,233,183,352,133,203,23,153,322,63,283,33,273]","163","173","211.5151019681651","[211.5151019681651]","[38.51510196816511]","[38]","[210,210,210,30,210,30,120,30,120]","0","36","0","150.0040000238223","14.842000023869332","16","[[[""img/mask37.png""],[""img/mask98.png""],[""img/mask80.png""],[""img/mask93.png""],[""img/mask27.png""],[""img/mask4.png""],[""img/mask41.png""],[""img/mask55.png""],[""img/mask31.png""],[""img/mask23.png""],[""img/mask15.png""],[""img/mask8.png""],[""img/mask74.png""],[""img/mask30.png""],[""img/mask69.png""],[""img/mask45.png""],[""img/mask81.png""],[""img/mask87.png""],[""img/mask40.png""],[""img/mask31.png""],[""img/mask72.png""],[""img/mask46.png""],[""img/mask90.png""],[""img/mask13.png""],[""img/mask60.png""],[""img/mask64.png""],[""img/mask13.png""],[""img/mask24.png""],[""img/mask66.png""],[""img/mask3.png""],[""img/mask51.png""],[""img/mask74.png""],[""img/mask23.png""],[""img/mask55.png""],[""img/mask52.png""],[""img/mask66.png""]]]","","[11,34,20,10,18,29,28,5,27,6,12,31,33,22,15,19,0,4,17,14,13,32,30,1,16,25,7,9,2,8,23,3,26,24,35,21]","main","173","many-guess-6"
"","","","","","html-keyboard-response","107","398742","0.0-10.0-0.44","56f2a49ced0cf600069131cd","640759fa512f630a2bdc333d","64076b293f19d64703cfbaba","null","","null","","","","","","","","","","","","","","","","","","","fixation","",""
"","","","","","many-guess-6","108","402745","0.0-10.0-1.44-0.44","56f2a49ced0cf600069131cd","640759fa512f630a2bdc333d","64076b293f19d64703cfbaba","[2175.399999976158]","","","[29,31,24,27,11,3,32,6,9,13,30,25,8,14,33,34,35,20,2,19,15,18,5,10,12,0,1,26,17,4,7,22,23,16,21,28]","[327,187,337,347,237,297,77,37,67,217,207,227,177,107,317,17,287,8,47,307,167,97,87,197,137,357,127,267,57,257,277,247,147,117,157,27]","327","95","142.2901444403055","[142.2901444403055]","[47.29014444030551]","[46]","[30,210,30,210,120,120,30,210,30]","0","36","0","147.91800000000512","5.971000023826491","16","[[[""img/mask25.png""],[""img/mask2.png""],[""img/mask8.png""],[""img/mask70.png""],[""img/mask35.png""],[""img/mask16.png""],[""img/mask62.png""],[""img/mask93.png""],[""img/mask92.png""],[""img/mask96.png""],[""img/mask72.png""],[""img/mask99.png""],[""img/mask83.png""],[""img/mask69.png""],[""img/mask53.png""],[""img/mask100.png""],[""img/mask73.png""],[""img/mask31.png""],[""img/mask67.png""],[""img/mask84.png""],[""img/mask39.png""],[""img/mask15.png""],[""img/mask4.png""],[""img/mask34.png""],[""img/mask64.png""],[""img/mask84.png""],[""img/mask43.png""],[""img/mask77.png""],[""img/mask6.png""],[""img/mask12.png""],[""img/mask81.png""],[""img/mask21.png""],[""img/mask87.png""],[""img/mask93.png""],[""img/mask70.png""],[""img/mask88.png""]]]","","[29,31,24,27,11,3,32,6,9,13,30,25,8,14,33,34,35,20,2,19,15,18,5,10,12,0,1,26,17,4,7,22,23,16,21,28]","main","95","many-guess-6"
"","","","","","html-keyboard-response","109","403247","0.0-10.0-0.45","56f2a49ced0cf600069131cd","640759fa512f630a2bdc333d","64076b293f19d64703cfbaba","null","","null","","","","","","","","","","","","","","","","","","","fixation","",""
"","","","","","color-precision2","110","405810","0.0-10.0-1.45-0.45","56f2a49ced0cf600069131cd","640759fa512f630a2bdc333d","64076b293f19d64703cfbaba","[130]","","","[12]","[164]","164","58","","[null]","[null]","[165]","0","0","1","0","151.60999999998603","1012.1170000238344","1000","[[[""img/mask68.png""]]]","","","main","58","color-precision2"
"","","","","","html-keyboard-response","111","406316","0.0-10.0-0.46","56f2a49ced0cf600069131cd","640759fa512f630a2bdc333d","64076b293f19d64703cfbaba","null","","null","","","","","","","","","","","","","","","","","","","fixation","",""
"","","","","","color-precision2","112","409278","0.0-10.0-1.46-0.46","56f2a49ced0cf600069131cd","640759fa512f630a2bdc333d","64076b293f19d64703cfbaba","[264.10000002384186]","","","[21]","[61]","61","100","150.8532829622197","[150.8532829622197]","[50.85328296221971]","[50]","0","0","1","0","152.17800009535858","1005.5580000714981","1000","[[[""img/mask92.png""]]]","","","main","100","color-precision2"
"","","","","","html-keyboard-response","113","409782","0.0-10.0-0.47","56f2a49ced0cf600069131cd","640759fa512f630a2bdc333d","64076b293f19d64703cfbaba","null","","null","","","","","","","","","","","","","","","","","","","fixation","",""
"","","","","","many-guess-6","114","414670","0.0-10.0-1.47-0.47","56f2a49ced0cf600069131cd","640759fa512f630a2bdc333d","64076b293f19d64703cfbaba","[3051.600000023842]","","","[17,18,22,7,2,24,19,6,27,26,14,10,12,9,16,21,3,5,13,20,31,30,33,8,4,29,0,11,15,32,1,25,28,34,23,35]","[135,65,245,115,45,105,265,205,16,325,155,255,75,355,305,6,175,35,225,125,85,295,95,185,335,235,285,145,26,345,165,215,195,275,315,55]","135","219","195.08651703854258","[195.08651703854258]","[336.0865170385426]","[335]","[210,210,210,30,120,30,300,120,120]","0","36","0","149.7320000238251","23.31300000002375","16","[[[""img/mask92.png""],[""img/mask90.png""],[""img/mask91.png""],[""img/mask12.png""],[""img/mask51.png""],[""img/mask4.png""],[""img/mask4.png""],[""img/mask4.png""],[""img/mask9.png""],[""img/mask9.png""],[""img/mask2.png""],[""img/mask55.png""],[""img/mask33.png""],[""img/mask70.png""],[""img/mask28.png""],[""img/mask10.png""],[""img/mask5.png""],[""img/mask15.png""],[""img/mask52.png""],[""img/mask10.png""],[""img/mask38.png""],[""img/mask22.png""],[""img/mask2.png""],[""img/mask69.png""],[""img/mask17.png""],[""img/mask2.png""],[""img/mask88.png""],[""img/mask92.png""],[""img/mask91.png""],[""img/mask9.png""],[""img/mask70.png""],[""img/mask22.png""],[""img/mask18.png""],[""img/mask3.png""],[""img/mask65.png""],[""img/mask57.png""]]]","","[17,18,22,7,2,24,19,6,27,26,14,10,12,9,16,21,3,5,13,20,31,30,33,8,4,29,0,11,15,32,1,25,28,34,23,35]","main","219","many-guess-6"
"","","","","","html-keyboard-response","115","415172","0.0-10.0-0.48","56f2a49ced0cf600069131cd","640759fa512f630a2bdc333d","64076b293f19d64703cfbaba","null","","null","","","","","","","","","","","","","","","","","","","fixation","",""
"","","","","","color-precision2","116","418887","0.0-10.0-1.48-0.48","56f2a49ced0cf600069131cd","640759fa512f630a2bdc333d","64076b293f19d64703cfbaba","[281.1999999284744]","","","[22]","[57]","57","329","","[null]","[null]","[57]","0","0","1","0","152.7620000715251","989.9160000953707","1000","[[[""img/mask63.png""]]]","","","main","329","color-precision2"
"","","","","","html-keyboard-response","117","419388","0.0-10.0-0.49","56f2a49ced0cf600069131cd","640759fa512f630a2bdc333d","64076b293f19d64703cfbaba","null","","null","","","","","","","","","","","","","","","","","","","fixation","",""
"","","","","","many-guess-6","118","421847","0.0-10.0-1.49-0.49","56f2a49ced0cf600069131cd","640759fa512f630a2bdc333d","64076b293f19d64703cfbaba","[1160.7999999523163]","","","[34,20,0,29,28,8,33,10,35,2,5,9,15,32,16,7,14,22,19,18,3,17,26,11,25,27,13,12,30,24,31,21,23,6,1,4]","[51,101,180,91,11,280,220,120,111,260,320,150,81,200,240,21,61,330,71,190,310,290,130,170,160,210,1,270,300,41,31,350,230,140,250,340]","51","8","12.212102636068312","[12.212102636068312]","[4.2121026360683125]","[3]","[210,210,300,210,300,30,210,300,30]","0","36","0","148.02600009535672","21.436000095389318","16","[[[""img/mask76.png""],[""img/mask91.png""],[""img/mask91.png""],[""img/mask19.png""],[""img/mask11.png""],[""img/mask48.png""],[""img/mask21.png""],[""img/mask1.png""],[""img/mask65.png""],[""img/mask31.png""],[""img/mask83.png""],[""img/mask90.png""],[""img/mask89.png""],[""img/mask8.png""],[""img/mask60.png""],[""img/mask21.png""],[""img/mask67.png""],[""img/mask42.png""],[""img/mask37.png""],[""img/mask13.png""],[""img/mask5.png""],[""img/mask85.png""],[""img/mask68.png""],[""img/mask78.png""],[""img/mask66.png""],[""img/mask41.png""],[""img/mask50.png""],[""img/mask32.png""],[""img/mask35.png""],[""img/mask53.png""],[""img/mask29.png""],[""img/mask51.png""],[""img/mask98.png""],[""img/mask78.png""],[""img/mask97.png""],[""img/mask44.png""]]]","","[34,20,0,29,28,8,33,10,35,2,5,9,15,32,16,7,14,22,19,18,3,17,26,11,25,27,13,12,30,24,31,21,23,6,1,4]","main","8","many-guess-6"
"","","","","","html-keyboard-response","119","422348","0.0-10.0-0.50","56f2a49ced0cf600069131cd","640759fa512f630a2bdc333d","64076b293f19d64703cfbaba","null","","null","","","","","","","","","","","","","","","","","","","fixation","",""
"","","","","","many-guess-6","120","425148","0.0-10.0-1.50-0.50","56f2a49ced0cf600069131cd","640759fa512f630a2bdc333d","64076b293f19d64703cfbaba","[1456.1000000238419]","","","[7,1,21,29,3,24,22,31,12,13,0,34,25,18,28,8,27,17,2,30,5,20,19,26,9,23,33,32,16,6,4,35,11,10,14,15]","[76,116,175,96,315,265,145,345,155,195,325,235,305,185,355,66,255,106,225,36,245,205,335,136,26,46,56,285,215,165,16,295,126,86,275,6]","76","170","214.9178838994034","[214.9178838994034]","[44.91788389940339]","[45]","[120,210,120,300,120,210,30,30,120]","0","36","0","149.63900000002468","20.74100004771026","16","[[[""img/mask39.png""],[""img/mask49.png""],[""img/mask95.png""],[""img/mask32.png""],[""img/mask61.png""],[""img/mask32.png""],[""img/mask47.png""],[""img/mask70.png""],[""img/mask1.png""],[""img/mask39.png""],[""img/mask16.png""],[""img/mask69.png""],[""img/mask68.png""],[""img/mask17.png""],[""img/mask98.png""],[""img/mask83.png""],[""img/mask79.png""],[""img/mask21.png""],[""img/mask69.png""],[""img/mask15.png""],[""img/mask65.png""],[""img/mask82.png""],[""img/mask58.png""],[""img/mask56.png""],[""img/mask46.png""],[""img/mask3.png""],[""img/mask43.png""],[""img/mask75.png""],[""img/mask63.png""],[""img/mask20.png""],[""img/mask42.png""],[""img/mask26.png""],[""img/mask67.png""],[""img/mask67.png""],[""img/mask55.png""],[""img/mask6.png""]]]","","[7,1,21,29,3,24,22,31,12,13,0,34,25,18,28,8,27,17,2,30,5,20,19,26,9,23,33,32,16,6,4,35,11,10,14,15]","main","170","many-guess-6"
"","","","","","html-keyboard-response","121","425650","0.0-10.0-0.51","56f2a49ced0cf600069131cd","640759fa512f630a2bdc333d","64076b293f19d64703cfbaba","null","","null","","","","","","","","","","","","","","","","","","","fixation","",""
"","","","","","many-guess-6","122","429467","0.0-10.0-1.51-0.51","56f2a49ced0cf600069131cd","640759fa512f630a2bdc333d","64076b293f19d64703cfbaba","[2269.6999999284744]","","","[2,25,31,32,19,27,33,28,1,12,26,21,4,8,18,16,5,7,35,0,23,24,30,17,14,6,10,3,22,13,11,29,20,15,34,9]","[151,1,11,201,61,260,181,221,211,141,161,231,250,91,350,300,31,121,290,330,270,191,21,310,320,41,51,71,171,280,101,81,131,111,340,241]","151","302","159.17064112167014","[159.17064112167014]","[217.17064112167014]","[216]","[210,120,30,300,30,30,30,30,300]","0","36","0","150.03899999998976","5.115999999979977","16","[[[""img/mask100.png""],[""img/mask54.png""],[""img/mask6.png""],[""img/mask36.png""],[""img/mask46.png""],[""img/mask60.png""],[""img/mask38.png""],[""img/mask57.png""],[""img/mask52.png""],[""img/mask81.png""],[""img/mask41.png""],[""img/mask27.png""],[""img/mask91.png""],[""img/mask77.png""],[""img/mask16.png""],[""img/mask95.png""],[""img/mask26.png""],[""img/mask25.png""],[""img/mask51.png""],[""img/mask81.png""],[""img/mask9.png""],[""img/mask65.png""],[""img/mask74.png""],[""img/mask8.png""],[""img/mask51.png""],[""img/mask43.png""],[""img/mask58.png""],[""img/mask33.png""],[""img/mask46.png""],[""img/mask73.png""],[""img/mask48.png""],[""img/mask75.png""],[""img/mask29.png""],[""img/mask22.png""],[""img/mask33.png""],[""img/mask48.png""]]]","","[2,25,31,32,19,27,33,28,1,12,26,21,4,8,18,16,5,7,35,0,23,24,30,17,14,6,10,3,22,13,11,29,20,15,34,9]","main","302","many-guess-6"
"","","","","","html-keyboard-response","123","429969","0.0-10.0-0.52","56f2a49ced0cf600069131cd","640759fa512f630a2bdc333d","64076b293f19d64703cfbaba","null","","null","","","","","","","","","","","","","","","","","","","fixation","",""
"","","","","","color-precision2","124","432813","0.0-10.0-1.52-0.52","56f2a49ced0cf600069131cd","640759fa512f630a2bdc333d","64076b293f19d64703cfbaba","[627.4000000953674]","","","[29]","[170]","170","262","61.23155051953029","[61.23155051953029]","[159.2315505195303]","[157]","0","0","1","0","151.5310000476893","1009.7410000953823","1000","[[[""img/mask96.png""]]]","","","main","262","color-precision2"
"","","","","","html-keyboard-response","125","433314","0.0-10.0-0.53","56f2a49ced0cf600069131cd","640759fa512f630a2bdc333d","64076b293f19d64703cfbaba","null","","null","","","","","","","","","","","","","","","","","","","fixation","",""
"","","","","","color-precision2","126","436877","0.0-10.0-1.53-0.53","56f2a49ced0cf600069131cd","640759fa512f630a2bdc333d","64076b293f19d64703cfbaba","[1109.6000000238419]","","","[31]","[179]","179","79","271.61057626677575","[271.61057626677575]","[192.61057626677575]","[193]","0","0","1","0","149.69200009538326","1005.5670000715181","1000","[[[""img/mask35.png""]]]","","","main","79","color-precision2"
"","","","","","html-keyboard-response","127","437379","0.0-10.0-0.54","56f2a49ced0cf600069131cd","640759fa512f630a2bdc333d","64076b293f19d64703cfbaba","null","","null","","","","","","","","","","","","","","","","","","","fixation","",""
"","","","","","many-guess-6","128","441197","0.0-10.0-1.54-0.54","56f2a49ced0cf600069131cd","640759fa512f630a2bdc333d","64076b293f19d64703cfbaba","[1197.6000000238419]","","","[25,22,19,20,31,26,12,27,23,5,8,14,15,34,24,10,30,33,1,21,35,28,2,4,13,29,11,16,18,9,7,6,0,17,32,3]","[130,210,140,150,21,200,90,260,350,30,220,240,190,120,1,60,50,170,290,80,280,300,110,40,100,310,320,270,160,230,11,180,330,70,250,340]","130","302","328.47544130355","[328.47544130355]","[26.475441303549985]","[26]","[210,300,30,210,210,30,30,30,30]","0","36","0","149.38500002381625","32.97200007154606","16","[[[""img/mask51.png""],[""img/mask45.png""],[""img/mask57.png""],[""img/mask84.png""],[""img/mask9.png""],[""img/mask42.png""],[""img/mask83.png""],[""img/mask31.png""],[""img/mask63.png""],[""img/mask98.png""],[""img/mask85.png""],[""img/mask4.png""],[""img/mask57.png""],[""img/mask100.png""],[""img/mask18.png""],[""img/mask38.png""],[""img/mask89.png""],[""img/mask9.png""],[""img/mask48.png""],[""img/mask64.png""],[""img/mask35.png""],[""img/mask15.png""],[""img/mask52.png""],[""img/mask55.png""],[""img/mask24.png""],[""img/mask78.png""],[""img/mask85.png""],[""img/mask100.png""],[""img/mask3.png""],[""img/mask94.png""],[""img/mask3.png""],[""img/mask98.png""],[""img/mask7.png""],[""img/mask87.png""],[""img/mask22.png""],[""img/mask67.png""]]]","","[25,22,19,20,31,26,12,27,23,5,8,14,15,34,24,10,30,33,1,21,35,28,2,4,13,29,11,16,18,9,7,6,0,17,32,3]","main","302","many-guess-6"
"","","","","","html-keyboard-response","129","441698","0.0-10.0-0.55","56f2a49ced0cf600069131cd","640759fa512f630a2bdc333d","64076b293f19d64703cfbaba","null","","null","","","","","","","","","","","","","","","","","","","fixation","",""
"","","","","","color-precision2","130","445037","0.0-10.0-1.55-0.55","56f2a49ced0cf600069131cd","640759fa512f630a2bdc333d","64076b293f19d64703cfbaba","[727.6999999284744]","","","[2]","[178]","178","290","118.19138458714389","[118.19138458714389]","[188.1913845871439]","[186]","0","0","1","0","146.28899999998976","1005.75","1000","[[[""img/mask66.png""]]]","","","main","290","color-precision2"
"","","","","","html-keyboard-response","131","445539","0.0-10.0-0.56","56f2a49ced0cf600069131cd","640759fa512f630a2bdc333d","64076b293f19d64703cfbaba","null","","null","","","","","","","","","","","","","","","","","","","fixation","",""
"","","","","","color-precision2","132","448861","0.0-10.0-1.56-0.56","56f2a49ced0cf600069131cd","640759fa512f630a2bdc333d","64076b293f19d64703cfbaba","[970.9000000953674]","","","[20]","[234]","234","115","343.7541963400141","[343.7541963400141]","[228.75419634001412]","[228]","0","0","1","0","148.01200002385303","1006.5810000000056","1000","[[[""img/mask28.png""]]]","","","main","115","color-precision2"
"","","","","","html-keyboard-response","133","449363","0.0-10.0-0.57","56f2a49ced0cf600069131cd","640759fa512f630a2bdc333d","64076b293f19d64703cfbaba","null","","null","","","","","","","","","","","","","","","","","","","fixation","",""
"","","","","","color-precision2","134","451880","0.0-10.0-1.57-0.57","56f2a49ced0cf600069131cd","640759fa512f630a2bdc333d","64076b293f19d64703cfbaba","[208.10000002384186]","","","[33]","[299]","299","337","","[null]","[null]","[294]","0","0","1","0","151.9670000000042","990.7970000476926","1000","[[[""img/mask100.png""]]]","","","main","337","color-precision2"
"","","","","","html-keyboard-response","135","452382","0.0-10.0-0.58","56f2a49ced0cf600069131cd","640759fa512f630a2bdc333d","64076b293f19d64703cfbaba","null","","null","","","","","","","","","","","","","","","","","","","fixation","",""
"","","","","","color-precision2","136","455440","0.0-10.0-1.58-0.58","56f2a49ced0cf600069131cd","640759fa512f630a2bdc333d","64076b293f19d64703cfbaba","[511.59999990463257]","","","[33]","[316]","316","106","58.87053358730434","[58.87053358730434]","[312.87053358730435]","[311]","0","0","1","0","147.66100009536603","1016.6020000715507","1000","[[[""img/mask91.png""]]]","","","main","106","color-precision2"
"","","","","","html-keyboard-response","137","458328","0.0-10.0-0.59","56f2a49ced0cf600069131cd","640759fa512f630a2bdc333d","64076b293f19d64703cfbaba","2886.2999999523163","Wow! You've completed 60 out of 180 trials! </p> <p>  </p><p> Take a quick break, then press any key when you're ready to continue."," ","","","","","","","","","","","","","","","","","","","fixation","",""
"","","","","","color-precision2","138","461622","0.0-10.0-1.59-0.59","56f2a49ced0cf600069131cd","640759fa512f630a2bdc333d","64076b293f19d64703cfbaba","[105.5]","","","[22]","[109]","109","166","","[null]","[null]","[118]","0","0","1","0","151.1699999999837","1010.3500000238419","1000","[[[""img/mask50.png""]]]","","","main","166","color-precision2"
"","","","","","html-keyboard-response","139","462124","0.0-10.0-0.60","56f2a49ced0cf600069131cd","640759fa512f630a2bdc333d","64076b293f19d64703cfbaba","null","","null","","","","","","","","","","","","","","","","","","","fixation","",""
"","","","","","color-precision2","140","465266","0.0-10.0-1.60-0.60","56f2a49ced0cf600069131cd","640759fa512f630a2bdc333d","64076b293f19d64703cfbaba","[616.1000000238419]","","","[28]","[321]","321","209","156.8725083254148","[156.8725083254148]","[307.8725083254148]","[306]","0","0","1","0","151.74900004768278","1009.2810000715544","1000","[[[""img/mask1.png""]]]","","","main","209","color-precision2"
"","","","","","html-keyboard-response","141","465768","0.0-10.0-0.61","56f2a49ced0cf600069131cd","640759fa512f630a2bdc333d","64076b293f19d64703cfbaba","null","","null","","","","","","","","","","","","","","","","","","","fixation","",""
"","","","","","many-guess-6","142","469396","0.0-10.0-1.61-0.61","56f2a49ced0cf600069131cd","640759fa512f630a2bdc333d","64076b293f19d64703cfbaba","[2166.5]","","","[2,16,33,28,4,27,25,35,3,23,21,31,6,13,14,20,26,30,15,32,18,1,19,10,22,29,9,17,0,24,34,5,12,8,7,11]","[174,293,84,343,34,64,303,54,14,154,263,333,224,204,124,234,164,144,353,273,4,114,313,104,323,194,184,253,24,74,94,44,283,214,134,244]","174","216","167.47545112703324","[167.47545112703324]","[311.47545112703324]","[310]","[210,120,120,30,210,300,30,30,210]","0","36","0","149.9390000476851","13.920000047655776","16","[[[""img/mask29.png""],[""img/mask65.png""],[""img/mask92.png""],[""img/mask44.png""],[""img/mask62.png""],[""img/mask9.png""],[""img/mask81.png""],[""img/mask49.png""],[""img/mask71.png""],[""img/mask35.png""],[""img/mask10.png""],[""img/mask85.png""],[""img/mask89.png""],[""img/mask56.png""],[""img/mask5.png""],[""img/mask48.png""],[""img/mask36.png""],[""img/mask65.png""],[""img/mask8.png""],[""img/mask42.png""],[""img/mask98.png""],[""img/mask53.png""],[""img/mask87.png""],[""img/mask90.png""],[""img/mask42.png""],[""img/mask91.png""],[""img/mask53.png""],[""img/mask32.png""],[""img/mask37.png""],[""img/mask68.png""],[""img/mask78.png""],[""img/mask66.png""],[""img/mask21.png""],[""img/mask22.png""],[""img/mask38.png""],[""img/mask68.png""]]]","","[2,16,33,28,4,27,25,35,3,23,21,31,6,13,14,20,26,30,15,32,18,1,19,10,22,29,9,17,0,24,34,5,12,8,7,11]","main","216","many-guess-6"
"","","","","","html-keyboard-response","143","469899","0.0-10.0-0.62","56f2a49ced0cf600069131cd","640759fa512f630a2bdc333d","64076b293f19d64703cfbaba","null","","null","","","","","","","","","","","","","","","","","","","fixation","",""
"","","","","","color-precision2","144","472359","0.0-10.0-1.62-0.62","56f2a49ced0cf600069131cd","640759fa512f630a2bdc333d","64076b293f19d64703cfbaba","[219.09999990463257]","","","[18]","[271]","271","27","","[null]","[null]","[271]","0","0","1","0","153.23200004769024","1002.9310000953847","1000","[[[""img/mask39.png""]]]","","","main","27","color-precision2"
"","","","","","html-keyboard-response","145","472860","0.0-10.0-0.63","56f2a49ced0cf600069131cd","640759fa512f630a2bdc333d","64076b293f19d64703cfbaba","null","","null","","","","","","","","","","","","","","","","","","","fixation","",""
"","","","","","many-guess-6","146","476010","0.0-10.0-1.63-0.63","56f2a49ced0cf600069131cd","640759fa512f630a2bdc333d","64076b293f19d64703cfbaba","[1667.6000000238419]","","","[5,15,33,25,4,18,21,2,29,11,6,24,28,23,34,19,3,10,22,14,8,7,13,17,30,26,1,35,9,31,16,20,12,0,27,32]","[50,310,290,20,170,100,300,10,329,270,349,230,60,280,180,190,250,130,240,200,319,110,260,30,359,210,70,140,339,150,160,120,40,90,220,80]","50","348","35.474957928648365","[35.474957928648365]","[47.47495792864834]","[46]","[30,30,210,300,120,300,30,300,210]","0","36","0","150.66600004769862","23.578000047709793","16","[[[""img/mask55.png""],[""img/mask46.png""],[""img/mask7.png""],[""img/mask54.png""],[""img/mask2.png""],[""img/mask10.png""],[""img/mask77.png""],[""img/mask31.png""],[""img/mask52.png""],[""img/mask10.png""],[""img/mask35.png""],[""img/mask27.png""],[""img/mask51.png""],[""img/mask85.png""],[""img/mask6.png""],[""img/mask32.png""],[""img/mask26.png""],[""img/mask58.png""],[""img/mask8.png""],[""img/mask96.png""],[""img/mask98.png""],[""img/mask84.png""],[""img/mask41.png""],[""img/mask95.png""],[""img/mask51.png""],[""img/mask88.png""],[""img/mask67.png""],[""img/mask90.png""],[""img/mask49.png""],[""img/mask82.png""],[""img/mask8.png""],[""img/mask70.png""],[""img/mask17.png""],[""img/mask29.png""],[""img/mask43.png""],[""img/mask90.png""]]]","","[5,15,33,25,4,18,21,2,29,11,6,24,28,23,34,19,3,10,22,14,8,7,13,17,30,26,1,35,9,31,16,20,12,0,27,32]","main","348","many-guess-6"
"","","","","","html-keyboard-response","147","476512","0.0-10.0-0.64","56f2a49ced0cf600069131cd","640759fa512f630a2bdc333d","64076b293f19d64703cfbaba","null","","null","","","","","","","","","","","","","","","","","","","fixation","",""
"","","","","","color-precision2","148","479473","0.0-10.0-1.64-0.64","56f2a49ced0cf600069131cd","640759fa512f630a2bdc333d","64076b293f19d64703cfbaba","[469.60000002384186]","","","[11]","[132]","132","252","33.9422518911846","[33.9422518911846]","[141.94225189118458]","[141]","0","0","1","0","152.92100004770327","1003.9640000477084","1000","[[[""img/mask44.png""]]]","","","main","252","color-precision2"
"","","","","","html-keyboard-response","149","479974","0.0-10.0-0.65","56f2a49ced0cf600069131cd","640759fa512f630a2bdc333d","64076b293f19d64703cfbaba","null","","null","","","","","","","","","","","","","","","","","","","fixation","",""
"","","","","","many-guess-6","150","483215","0.0-10.0-1.65-0.65","56f2a49ced0cf600069131cd","640759fa512f630a2bdc333d","64076b293f19d64703cfbaba","[1683.3000000715256]","","","[8,24,21,16,12,14,4,32,10,0,33,2,29,26,34,28,1,17,6,13,19,15,18,22,35,20,23,31,25,5,7,11,27,30,3,9]","[297,257,18,48,148,8,58,178,128,277,158,217,68,347,38,88,357,207,307,108,168,28,138,267,98,237,327,287,317,187,227,337,197,247,78,118]","297","121","114.50280936634938","[114.50280936634938]","[353.50280936634937]","[352]","[120,300,30,120,120,300,210,120,210]","0","36","0","150.73600009537768","25.098999999987427","16","[[[""img/mask76.png""],[""img/mask63.png""],[""img/mask48.png""],[""img/mask59.png""],[""img/mask6.png""],[""img/mask91.png""],[""img/mask32.png""],[""img/mask7.png""],[""img/mask63.png""],[""img/mask81.png""],[""img/mask67.png""],[""img/mask21.png""],[""img/mask98.png""],[""img/mask8.png""],[""img/mask75.png""],[""img/mask9.png""],[""img/mask9.png""],[""img/mask4.png""],[""img/mask56.png""],[""img/mask38.png""],[""img/mask41.png""],[""img/mask50.png""],[""img/mask60.png""],[""img/mask96.png""],[""img/mask29.png""],[""img/mask58.png""],[""img/mask31.png""],[""img/mask98.png""],[""img/mask6.png""],[""img/mask22.png""],[""img/mask59.png""],[""img/mask27.png""],[""img/mask24.png""],[""img/mask87.png""],[""img/mask77.png""],[""img/mask30.png""]]]","","[8,24,21,16,12,14,4,32,10,0,33,2,29,26,34,28,1,17,6,13,19,15,18,22,35,20,23,31,25,5,7,11,27,30,3,9]","main","121","many-guess-6"
"","","","","","html-keyboard-response","151","483717","0.0-10.0-0.66","56f2a49ced0cf600069131cd","640759fa512f630a2bdc333d","64076b293f19d64703cfbaba","null","","null","","","","","","","","","","","","","","","","","","","fixation","",""
"","","","","","color-precision2","152","486629","0.0-10.0-1.66-0.66","56f2a49ced0cf600069131cd","640759fa512f630a2bdc333d","64076b293f19d64703cfbaba","[461.6999999284744]","","","[17]","[357]","357","184","179.30912458691284","[179.30912458691284]","[355.30912458691284]","[354]","0","0","1","0","151.17500004766043","1012.4250000953907","1000","[[[""img/mask6.png""]]]","","","main","184","color-precision2"
"","","","","","html-keyboard-response","153","487131","0.0-10.0-0.67","56f2a49ced0cf600069131cd","640759fa512f630a2bdc333d","64076b293f19d64703cfbaba","null","","null","","","","","","","","","","","","","","","","","","","fixation","",""
"","","","","","color-precision2","154","490030","0.0-10.0-1.67-0.67","56f2a49ced0cf600069131cd","640759fa512f630a2bdc333d","64076b293f19d64703cfbaba","[532.1999999284744]","","","[0]","[25]","25","142","180.6842749126762","[180.6842749126762]","[38.68427491267619]","[38]","0","0","1","0","150.98000004771166","1011.591000095359","1000","[[[""img/mask80.png""]]]","","","main","142","color-precision2"
"","","","","","html-keyboard-response","155","490531","0.0-10.0-0.68","56f2a49ced0cf600069131cd","640759fa512f630a2bdc333d","64076b293f19d64703cfbaba","null","","null","","","","","","","","","","","","","","","","","","","fixation","",""
"","","","","","many-guess-6","156","494627","0.0-10.0-1.68-0.68","56f2a49ced0cf600069131cd","640759fa512f630a2bdc333d","64076b293f19d64703cfbaba","[2774.399999976158]","","","[23,21,15,13,27,33,14,2,22,9,34,11,0,12,28,30,19,7,25,6,31,32,29,26,16,3,35,20,4,17,8,24,10,1,5,18]","[205,225,325,345,235,75,95,155,135,115,15,265,105,215,315,6,185,275,165,55,35,295,285,255,85,45,335,145,305,195,125,175,65,355,245,25]","205","228","15.57904746957911","[15.57904746957911]","[147.5790474695791]","[146]","[30,120,120,120,120,30,120,210,30]","0","36","0","150.27200004766928","19.016000047675334","16","[[[""img/mask88.png""],[""img/mask64.png""],[""img/mask85.png""],[""img/mask63.png""],[""img/mask95.png""],[""img/mask48.png""],[""img/mask73.png""],[""img/mask88.png""],[""img/mask11.png""],[""img/mask52.png""],[""img/mask47.png""],[""img/mask37.png""],[""img/mask61.png""],[""img/mask36.png""],[""img/mask5.png""],[""img/mask16.png""],[""img/mask69.png""],[""img/mask16.png""],[""img/mask85.png""],[""img/mask75.png""],[""img/mask12.png""],[""img/mask80.png""],[""img/mask45.png""],[""img/mask56.png""],[""img/mask16.png""],[""img/mask3.png""],[""img/mask32.png""],[""img/mask72.png""],[""img/mask17.png""],[""img/mask27.png""],[""img/mask43.png""],[""img/mask6.png""],[""img/mask78.png""],[""img/mask10.png""],[""img/mask42.png""],[""img/mask67.png""]]]","","[23,21,15,13,27,33,14,2,22,9,34,11,0,12,28,30,19,7,25,6,31,32,29,26,16,3,35,20,4,17,8,24,10,1,5,18]","main","228","many-guess-6"
"","","","","","html-keyboard-response","157","495128","0.0-10.0-0.69","56f2a49ced0cf600069131cd","640759fa512f630a2bdc333d","64076b293f19d64703cfbaba","null","","null","","","","","","","","","","","","","","","","","","","fixation","",""
"","","","","","color-precision2","158","500248","0.0-10.0-1.69-0.69","56f2a49ced0cf600069131cd","640759fa512f630a2bdc333d","64076b293f19d64703cfbaba","[1681.8000000715256]","","","[13]","[322]","322","83","47.17287915453803","[47.17287915453803]","[324.172879154538]","[322]","0","0","1","0","152.3979999999865","988.4110000000219","1000","[[[""img/mask59.png""]]]","","","main","83","color-precision2"
"","","","","","html-keyboard-response","159","500750","0.0-10.0-0.70","56f2a49ced0cf600069131cd","640759fa512f630a2bdc333d","64076b293f19d64703cfbaba","null","","null","","","","","","","","","","","","","","","","","","","fixation","",""
"","","","","","color-precision2","160","503322","0.0-10.0-1.70-0.70","56f2a49ced0cf600069131cd","640759fa512f630a2bdc333d","64076b293f19d64703cfbaba","[196.39999997615814]","","","[13]","[18]","18","167","188.56532572101526","[188.56532572101526]","[21.565325721015256]","[21]","0","0","1","0","150.74500007153256","1002.4310000953847","1000","[[[""img/mask7.png""]]]","","","main","167","color-precision2"
"","","","","","html-keyboard-response","161","503825","0.0-10.0-0.71","56f2a49ced0cf600069131cd","640759fa512f630a2bdc333d","64076b293f19d64703cfbaba","null","","null","","","","","","","","","","","","","","","","","","","fixation","",""
"","","","","","color-precision2","162","506106","0.0-10.0-1.71-0.71","56f2a49ced0cf600069131cd","640759fa512f630a2bdc333d","64076b293f19d64703cfbaba","[50.300000071525574]","","","[26]","[248]","248","32","","[null]","[null]","[258]","0","0","1","0","150.86900000000605","1008.463000071526","1000","[[[""img/mask4.png""]]]","","","main","32","color-precision2"
"","","","","","html-keyboard-response","163","506607","0.0-10.0-0.72","56f2a49ced0cf600069131cd","640759fa512f630a2bdc333d","64076b293f19d64703cfbaba","null","","null","","","","","","","","","","","","","","","","","","","fixation","",""
"","","","","","color-precision2","164","509538","0.0-10.0-1.72-0.72","56f2a49ced0cf600069131cd","640759fa512f630a2bdc333d","64076b293f19d64703cfbaba","[450.1999999284744]","","","[25]","[90]","90","141","239.14991146300204","[239.14991146300204]","[98.14991146300204]","[98]","0","0","1","0","152.4660000000149","997.6600000477047","1000","[[[""img/mask100.png""]]]","","","main","141","color-precision2"
"","","","","","html-keyboard-response","165","510039","0.0-10.0-0.73","56f2a49ced0cf600069131cd","640759fa512f630a2bdc333d","64076b293f19d64703cfbaba","null","","null","","","","","","","","","","","","","","","","","","","fixation","",""
"","","","","","color-precision2","166","513604","0.0-10.0-1.73-0.73","56f2a49ced0cf600069131cd","640759fa512f630a2bdc333d","64076b293f19d64703cfbaba","[1235.3999999761581]","","","[15]","[278]","278","273","201.5867330847225","[201.5867330847225]","[288.5867330847225]","[288]","0","0","1","0","151.01600000000326","1002.1749999999884","1000","[[[""img/mask77.png""]]]","","","main","273","color-precision2"
"","","","","","html-keyboard-response","167","514106","0.0-10.0-0.74","56f2a49ced0cf600069131cd","640759fa512f630a2bdc333d","64076b293f19d64703cfbaba","null","","null","","","","","","","","","","","","","","","","","","","fixation","",""
"","","","","","color-precision2","168","517066","0.0-10.0-1.74-0.74","56f2a49ced0cf600069131cd","640759fa512f630a2bdc333d","64076b293f19d64703cfbaba","[563.7999999523163]","","","[15]","[284]","284","37","313.82668347071325","[313.82668347071325]","[276.82668347071325]","[277]","0","0","1","0","151.02100004768","1003.4870000476949","1000","[[[""img/mask75.png""]]]","","","main","37","color-precision2"
"","","","","","html-keyboard-response","169","517568","0.0-10.0-0.75","56f2a49ced0cf600069131cd","640759fa512f630a2bdc333d","64076b293f19d64703cfbaba","null","","null","","","","","","","","","","","","","","","","","","","fixation","",""
"","","","","","color-precision2","170","520395","0.0-10.0-1.75-0.75","56f2a49ced0cf600069131cd","640759fa512f630a2bdc333d","64076b293f19d64703cfbaba","[360.59999990463257]","","","[2]","[237]","237","295","","[null]","[null]","[237]","0","0","1","0","152.75800009537488","987.95700002386","1000","[[[""img/mask60.png""]]]","","","main","295","color-precision2"
"","","","","","html-keyboard-response","171","520896","0.0-10.0-0.76","56f2a49ced0cf600069131cd","640759fa512f630a2bdc333d","64076b293f19d64703cfbaba","null","","null","","","","","","","","","","","","","","","","","","","fixation","",""
"","","","","","color-precision2","172","523635","0.0-10.0-1.76-0.76","56f2a49ced0cf600069131cd","640759fa512f630a2bdc333d","64076b293f19d64703cfbaba","[318.5]","","","[19]","[196]","196","57","249.36019916026459","[249.36019916026459]","[192.36019916026459]","[192]","0","0","1","0","150.38600002380554","1008.3520000476856","1000","[[[""img/mask25.png""]]]","","","main","57","color-precision2"
"","","","","","html-keyboard-response","173","524137","0.0-10.0-0.77","56f2a49ced0cf600069131cd","640759fa512f630a2bdc333d","64076b293f19d64703cfbaba","null","","null","","","","","","","","","","","","","","","","","","","fixation","",""
"","","","","","color-precision2","174","527852","0.0-10.0-1.77-0.77","56f2a49ced0cf600069131cd","640759fa512f630a2bdc333d","64076b293f19d64703cfbaba","[1152.3000000715256]","","","[28]","[167]","167","284","105.84020545684729","[105.84020545684729]","[181.8402054568473]","[180]","0","0","1","0","152.12600004766136","988.2840000238502","1000","[[[""img/mask91.png""]]]","","","main","284","color-precision2"
"","","","","","html-keyboard-response","175","528353","0.0-10.0-0.78","56f2a49ced0cf600069131cd","640759fa512f630a2bdc333d","64076b293f19d64703cfbaba","null","","null","","","","","","","","","","","","","","","","","","","fixation","",""
"","","","","","color-precision2","176","532380","0.0-10.0-1.78-0.78","56f2a49ced0cf600069131cd","640759fa512f630a2bdc333d","64076b293f19d64703cfbaba","[1397.7999999523163]","","","[4]","[254]","254","1","253.58781906375572","[253.58781906375572]","[252.58781906375572]","[254]","0","0","1","0","153.0570000715088","1011.1829999999609","1000","[[[""img/mask83.png""]]]","","","main","1","color-precision2"
