"success","timeout","failed_images","failed_audio","failed_video","trial_type","trial_index","time_elapsed","internal_node_id","subject_id","study_id","session_id","rt","stimulus","response","position_of_items","colors_of_items","color_of_target","wheel_spin","response_angle","physical_response_angle","reported_color_angle","reported_color_discrete","locs","which_test","set_size","wheel_num_options","actual_mask_duration","actual_stim_duration","CMDispTime","maskArray","maskRotation","item_positions","task","randomSpinAmount","mainTask"
"true","false","[]","[]","[]","preload","0","7274","0.0-0.0","570b7b5fb9b52b00102d96f9","640759fa512f630a2bdc333d","6408c17ef3abdad510a25269","","","","","","","","","","","","","","","","","","","","","","","",""
"true","","","","","fullscreen","1","136788","0.0-1.0","570b7b5fb9b52b00102d96f9","640759fa512f630a2bdc333d","6408c17ef3abdad510a25269","","","","","","","","","","","","","","","","","","","","","","","",""
"","","","","","html-keyboard-response","2","155719","0.0-2.0","570b7b5fb9b52b00102d96f9","640759fa512f630a2bdc333d","6408c17ef3abdad510a25269","18930","What a beautiful Wednesday to do some awesome science! </p> <p>  </p><p> </p>
    By completing this survey or questionnaire, you are consenting to be in this research study. </p>
    Your participation is voluntary and you can stop at any time.<p> [Press any key to continue] </p>"," ","","","","","","","","","","","","","","","","","","","","",""
"","","","","","html-keyboard-response","3","165729","0.0-3.0","570b7b5fb9b52b00102d96f9","640759fa512f630a2bdc333d","6408c17ef3abdad510a25269","4655","
    <div style='width: 1000px;'>
    <div style='float: center;'><img src='img/TaskInstructions1.png'></img>
    </div>
    "," ","","","","","","","","","","","","","","","","","","","","",""
"","","","","","html-keyboard-response","4","182209","0.0-4.0","570b7b5fb9b52b00102d96f9","640759fa512f630a2bdc333d","6408c17ef3abdad510a25269","16480","
    <div style='width: 1000px;'>
    <div style='float: center;'><img src='img/TaskInstructions1.png'></img>
    </div>
    "," ","","","","","","","","","","","","","","","","","","","","",""
"","","","","","html-keyboard-response","5","192221","0.0-5.0","570b7b5fb9b52b00102d96f9","640759fa512f630a2bdc333d","6408c17ef3abdad510a25269","8930","
    <div style='width: 1000px;'>
    <div style='float: center;'><img src='img/TaskInstructions2.png'></img>
    </div>
    "," ","","","","","","","","","","","","","","","","","","","","",""
"","","","","","html-keyboard-response","6","192748","0.0-6.0","570b7b5fb9b52b00102d96f9","640759fa512f630a2bdc333d","6408c17ef3abdad510a25269","527","
    <div style='width: 1000px;'>
    <div style='float: center;'><img src='img/TaskInstructions2.png'></img>
    </div>
    "," ","","","","","","","","","","","","","","","","","","","","",""
"","","","","","video-keyboard-response","7","200357","0.0-7.0","570b7b5fb9b52b00102d96f9","640759fa512f630a2bdc333d","6408c17ef3abdad510a25269","7600","[""video/TaskInstructions3.mp4""]"," ","","","","","","","","","","","","","","","","","","","","",""
"","","","","","image-keyboard-response","8","202976","0.0-8.0-0.0","570b7b5fb9b52b00102d96f9","640759fa512f630a2bdc333d","6408c17ef3abdad510a25269","2618","img/training1.png"," ","","","","","","","","","","","","","","","","","","","","",""
"","","","","","color-precision2","9","214738","0.0-8.0-1.0-0.0","570b7b5fb9b52b00102d96f9","640759fa512f630a2bdc333d","6408c17ef3abdad510a25269","[6974]","","","[19]","[252]","252","352","233.02930820752613","[233.02930820752613]","[241.02930820752613]","[241]","0","0","1","0","498.8999999999942","1005.2399999999907","1000","","","0","training","",""
"","","","","","image-keyboard-response","10","218452","0.0-8.0-0.1","570b7b5fb9b52b00102d96f9","640759fa512f630a2bdc333d","6408c17ef3abdad510a25269","3713","img/training2.png"," ","","","","","","","","","","","","","","","","","","","","",""
"","","","","","many-guess-6","11","225404","0.0-8.0-1.1-0.1","570b7b5fb9b52b00102d96f9","640759fa512f630a2bdc333d","6408c17ef3abdad510a25269","[2262]","","","[24,3,2]","[213,154,317]","213","194","33.93305097479747","[33.93305097479747]","[199.93305097479748]","[199]","[30,300,210,300,210,210,210,300,30,120,300,300,210,30,210,120,120,300,300,120,210,30,120,120,210,300,120,210,30,120,300,300,300,300,210,210]","0","3","0","1000.2999999999884","1006.6600000000035","1000","[[[""img/mask65.png""],[""img/mask86.png""],[""img/mask58.png""]]]","","[24,3,2]","training","",""
"","","","","","image-keyboard-response","12","227382","0.0-8.0-0.2","570b7b5fb9b52b00102d96f9","640759fa512f630a2bdc333d","6408c17ef3abdad510a25269","1977","img/training3.png"," ","","","","","","","","","","","","","","","","","","","","",""
"","","","","","[""many-guess-6""]","13","232992","0.0-8.0-1.2-0.2","570b7b5fb9b52b00102d96f9","640759fa512f630a2bdc333d","6408c17ef3abdad510a25269","[1942]","","","[26,4,16,12,23]","[217,168,136,120,240]","217","208","63.90287151756345","[63.90287151756345]","[215.90287151756345]","[214]","[300,120,30,30,120,30,120,210,120,210,30,300,210,300,30,210,300,120,120,210,300,210,210,300,210,210,120,210,30,300,300,30,300,300,210,210]","0","5","0","499.179999999993","506.5199999999895","500","[[[""img/mask3.png""],[""img/mask26.png""],[""img/mask72.png""],[""img/mask63.png""],[""img/mask32.png""]]]","","[26,4,16,12,23]","training","",""
"","","","","","image-keyboard-response","14","233822","0.0-8.0-0.3","570b7b5fb9b52b00102d96f9","640759fa512f630a2bdc333d","6408c17ef3abdad510a25269","831","img/training4.png"," ","","","","","","","","","","","","","","","","","","","","",""
"","","","","","[""many-guess-6""]","15","238815","0.0-8.0-1.3-0.3","570b7b5fb9b52b00102d96f9","640759fa512f630a2bdc333d","6408c17ef3abdad510a25269","[2127]","","","[19,33,32,0,31,21,11,3,25,18]","[63,121,328,48,35,17,290,96,301,343]","63","11","340.94025476187437","[340.94025476187437]","[329.94025476187437]","[330]","[30,210,210,120,30,210,120,120,300,120,30,210,30,300,210,300,210,30,120,300,210,120,120,300,30,210,120,30,30,210,30,300,210,300,210,210]","0","10","0","131.44000000000233","135.44000000000233","132","[[[""img/mask63.png""],[""img/mask68.png""],[""img/mask4.png""],[""img/mask17.png""],[""img/mask98.png""],[""img/mask47.png""],[""img/mask22.png""],[""img/mask22.png""],[""img/mask85.png""],[""img/mask91.png""]]]","","[19,33,32,0,31,21,11,3,25,18]","training","",""
"","","","","","image-keyboard-response","16","242801","0.0-8.0-0.4","570b7b5fb9b52b00102d96f9","640759fa512f630a2bdc333d","6408c17ef3abdad510a25269","3986","img/training5.png"," ","","","","","","","","","","","","","","","","","","","","",""
"","","","","","[""many-guess-6""]","17","247180","0.0-8.0-1.4-0.4","570b7b5fb9b52b00102d96f9","640759fa512f630a2bdc333d","6408c17ef3abdad510a25269","[1736]","","","[30,4,19,16,1,7,24,25,14,8,20,2,13,6,18,12,32,0,10,11,35,28,23,22,21,26,27,17,15,9,34,33,3,5,31,29]","[317,158,228,288,128,68,208,8,248,28,258,297,238,148,178,327,198,18,278,48,218,88,307,268,78,58,168,98,357,118,138,188,347,38,337,108]","317","312","46.397906077116296","[46.397906077116296]","[94.39790607711632]","[93]","[300,210,210,30,210,30,300,210,300,120,210,210,30,120,30,210,210,300,120,30,120,120,300,120,30,30,300,210,300,30,30,300,210,210,210,30]","0","36","0","132.29999999998836","13.299999999988358","16","[[[""img/mask73.png""],[""img/mask34.png""],[""img/mask55.png""],[""img/mask1.png""],[""img/mask93.png""],[""img/mask91.png""],[""img/mask3.png""],[""img/mask100.png""],[""img/mask52.png""],[""img/mask23.png""],[""img/mask50.png""],[""img/mask72.png""],[""img/mask84.png""],[""img/mask43.png""],[""img/mask93.png""],[""img/mask63.png""],[""img/mask12.png""],[""img/mask93.png""],[""img/mask43.png""],[""img/mask45.png""],[""img/mask100.png""],[""img/mask5.png""],[""img/mask72.png""],[""img/mask25.png""],[""img/mask5.png""],[""img/mask37.png""],[""img/mask50.png""],[""img/mask35.png""],[""img/mask92.png""],[""img/mask13.png""],[""img/mask90.png""],[""img/mask62.png""],[""img/mask73.png""],[""img/mask58.png""],[""img/mask80.png""],[""img/mask89.png""]]]","","[30,4,19,16,1,7,24,25,14,8,20,2,13,6,18,12,32,0,10,11,35,28,23,22,21,26,27,17,15,9,34,33,3,5,31,29]","training","",""
"","","","","","image-keyboard-response","18","249561","0.0-9.0","570b7b5fb9b52b00102d96f9","640759fa512f630a2bdc333d","6408c17ef3abdad510a25269","2374","[""img/endTraining.png""]"," ","","","","","","","","","","","","","","","","","","","","",""
"","","","","","many-guess-6","19","252956","0.0-10.0-0.0-0.0","570b7b5fb9b52b00102d96f9","640759fa512f630a2bdc333d","6408c17ef3abdad510a25269","[1490]","","","[6,29,25,20,16,10,4,30,34,23,28,13,3,9,19,31,7,0,15,22,35,8,27,18,21,33,24,5,32,2,12,26,14,1,17,11]","[132,182,152,23,162,272,262,232,122,13,92,62,102,33,53,202,112,242,82,252,172,43,142,342,292,322,212,352,332,282,312,222,3,302,192,72]","132","274","230.24906505725428","[230.24906505725428]","[316.24906505725426]","[316]","[120,210,210,120,30,30,210,30,120]","0","36","0","149.88000000000466","22.239999999990687","16","[[[""img/mask75.png""],[""img/mask27.png""],[""img/mask1.png""],[""img/mask71.png""],[""img/mask23.png""],[""img/mask41.png""],[""img/mask80.png""],[""img/mask10.png""],[""img/mask1.png""],[""img/mask98.png""],[""img/mask83.png""],[""img/mask83.png""],[""img/mask73.png""],[""img/mask2.png""],[""img/mask30.png""],[""img/mask64.png""],[""img/mask12.png""],[""img/mask99.png""],[""img/mask40.png""],[""img/mask1.png""],[""img/mask1.png""],[""img/mask4.png""],[""img/mask93.png""],[""img/mask49.png""],[""img/mask67.png""],[""img/mask94.png""],[""img/mask61.png""],[""img/mask28.png""],[""img/mask25.png""],[""img/mask33.png""],[""img/mask79.png""],[""img/mask84.png""],[""img/mask43.png""],[""img/mask24.png""],[""img/mask61.png""],[""img/mask79.png""]]]","","[6,29,25,20,16,10,4,30,34,23,28,13,3,9,19,31,7,0,15,22,35,8,27,18,21,33,24,5,32,2,12,26,14,1,17,11]","main","274","many-guess-6"
"","","","","","html-keyboard-response","20","253467","0.0-10.0-1.0","570b7b5fb9b52b00102d96f9","640759fa512f630a2bdc333d","6408c17ef3abdad510a25269","null","","null","","","","","","","","","","","","","","","","","","","fixation","",""
"","","","","","color-precision2","21","257711","0.0-10.0-0.1-0.1","570b7b5fb9b52b00102d96f9","640759fa512f630a2bdc333d","6408c17ef3abdad510a25269","[1808]","","","[1]","[175]","175","52","235.14876508766156","[235.14876508766156]","[183.14876508766156]","[183]","0","0","1","0","148.17999999999302","999.5","1000","[[[""img/mask87.png""]]]","","","main","52","color-precision2"
"","","","","","html-keyboard-response","22","258223","0.0-10.0-1.1","570b7b5fb9b52b00102d96f9","640759fa512f630a2bdc333d","6408c17ef3abdad510a25269","null","","null","","","","","","","","","","","","","","","","","","","fixation","",""
"","","","","","color-precision2","23","262585","0.0-10.0-0.2-0.2","570b7b5fb9b52b00102d96f9","640759fa512f630a2bdc333d","6408c17ef3abdad510a25269","[1176]","","","[18]","[352]","352","128","122.02334836295285","[122.02334836295285]","[354.02334836295285]","[353]","0","0","1","0","149.03999999997905","994.3800000000047","1000","[[[""img/mask54.png""]]]","","","main","128","color-precision2"
"","","","","","html-keyboard-response","24","263094","0.0-10.0-1.2","570b7b5fb9b52b00102d96f9","640759fa512f630a2bdc333d","6408c17ef3abdad510a25269","null","","null","","","","","","","","","","","","","","","","","","","fixation","",""
"","","","","","many-guess-6","25","266254","0.0-10.0-0.3-0.3","570b7b5fb9b52b00102d96f9","640759fa512f630a2bdc333d","6408c17ef3abdad510a25269","[1577]","","","[6,35,11,8,16,27,1,4,13,20,9,12,21,14,23,2,17,15,22,5,33,30,7,34,26,24,0,29,19,25,31,10,32,28,18,3]","[158,347,257,118,287,208,247,307,138,108,68,88,148,48,357,8,327,227,28,317,78,237,297,168,198,58,277,178,218,128,267,188,38,337,18,98]","158","235","79.27003865896823","[79.27003865896823]","[204.27003865896825]","[203]","[30,30,120,30,120,300,300,30,300]","0","36","0","148.67999999999302","18.020000000018626","16","[[[""img/mask84.png""],[""img/mask37.png""],[""img/mask95.png""],[""img/mask39.png""],[""img/mask7.png""],[""img/mask94.png""],[""img/mask25.png""],[""img/mask21.png""],[""img/mask59.png""],[""img/mask15.png""],[""img/mask29.png""],[""img/mask78.png""],[""img/mask22.png""],[""img/mask71.png""],[""img/mask62.png""],[""img/mask77.png""],[""img/mask67.png""],[""img/mask2.png""],[""img/mask24.png""],[""img/mask6.png""],[""img/mask21.png""],[""img/mask85.png""],[""img/mask23.png""],[""img/mask3.png""],[""img/mask57.png""],[""img/mask68.png""],[""img/mask30.png""],[""img/mask65.png""],[""img/mask18.png""],[""img/mask91.png""],[""img/mask49.png""],[""img/mask69.png""],[""img/mask41.png""],[""img/mask84.png""],[""img/mask82.png""],[""img/mask59.png""]]]","","[6,35,11,8,16,27,1,4,13,20,9,12,21,14,23,2,17,15,22,5,33,30,7,34,26,24,0,29,19,25,31,10,32,28,18,3]","main","235","many-guess-6"
"","","","","","html-keyboard-response","26","266756","0.0-10.0-1.3","570b7b5fb9b52b00102d96f9","640759fa512f630a2bdc333d","6408c17ef3abdad510a25269","null","","null","","","","","","","","","","","","","","","","","","","fixation","",""
"","","","","","many-guess-6","27","270387","0.0-10.0-0.4-0.4","570b7b5fb9b52b00102d96f9","640759fa512f630a2bdc333d","6408c17ef3abdad510a25269","[2040]","","","[19,1,23,24,33,25,14,28,21,13,34,15,31,8,11,5,35,22,10,32,9,18,30,0,27,17,16,20,6,7,2,29,12,4,26,3]","[211,122,241,251,102,22,271,42,82,131,12,151,112,72,161,171,321,62,92,141,201,191,301,32,2,331,341,181,291,281,261,221,52,311,351,231]","211","306","324.7837857220337","[324.7837857220337]","[18.783785722033713]","[19]","[300,300,300,300,30,30,210,300,30]","0","36","0","150.2600000000093","16.580000000016298","16","[[[""img/mask79.png""],[""img/mask82.png""],[""img/mask100.png""],[""img/mask61.png""],[""img/mask19.png""],[""img/mask83.png""],[""img/mask79.png""],[""img/mask11.png""],[""img/mask13.png""],[""img/mask62.png""],[""img/mask10.png""],[""img/mask100.png""],[""img/mask79.png""],[""img/mask29.png""],[""img/mask40.png""],[""img/mask51.png""],[""img/mask33.png""],[""img/mask44.png""],[""img/mask52.png""],[""img/mask32.png""],[""img/mask66.png""],[""img/mask5.png""],[""img/mask61.png""],[""img/mask81.png""],[""img/mask24.png""],[""img/mask33.png""],[""img/mask55.png""],[""img/mask69.png""],[""img/mask5.png""],[""img/mask9.png""],[""img/mask36.png""],[""img/mask61.png""],[""img/mask49.png""],[""img/mask73.png""],[""img/mask3.png""],[""img/mask33.png""]]]","","[19,1,23,24,33,25,14,28,21,13,34,15,31,8,11,5,35,22,10,32,9,18,30,0,27,17,16,20,6,7,2,29,12,4,26,3]","main","306","many-guess-6"
"","","","","","html-keyboard-response","28","270898","0.0-10.0-1.4","570b7b5fb9b52b00102d96f9","640759fa512f630a2bdc333d","6408c17ef3abdad510a25269","null","","null","","","","","","","","","","","","","","","","","","","fixation","",""
"","","","","","color-precision2","29","274290","0.0-10.0-0.5-0.5","570b7b5fb9b52b00102d96f9","640759fa512f630a2bdc333d","6408c17ef3abdad510a25269","[1105]","","","[6]","[337]","337","245","220.58810775367505","[220.58810775367505]","[335.58810775367505]","[336]","0","0","1","0","149.52000000001863","1004.8400000000256","1000","[[[""img/mask12.png""]]]","","","main","245","color-precision2"
"","","","","","html-keyboard-response","30","274798","0.0-10.0-1.5","570b7b5fb9b52b00102d96f9","640759fa512f630a2bdc333d","6408c17ef3abdad510a25269","null","","null","","","","","","","","","","","","","","","","","","","fixation","",""
"","","","","","many-guess-6","31","278366","0.0-10.0-0.6-0.6","570b7b5fb9b52b00102d96f9","640759fa512f630a2bdc333d","6408c17ef3abdad510a25269","[2196]","","","[5,29,11,2,20,4,27,26,28,21,24,35,32,8,16,14,6,9,31,7,13,23,3,10,12,17,1,25,22,33,18,19,15,30,0,34]","[27,236,216,57,7,246,196,356,156,266,116,326,67,296,37,226,106,286,206,336,276,96,306,186,47,166,146,77,126,346,256,176,17,136,316,87]","27","235","69.41382484652432","[69.41382484652432]","[194.41382484652434]","[193]","[120,30,30,30,300,300,120,210,120]","0","36","0","149.79999999998836","11.14000000001397","16","[[[""img/mask31.png""],[""img/mask20.png""],[""img/mask24.png""],[""img/mask13.png""],[""img/mask73.png""],[""img/mask25.png""],[""img/mask97.png""],[""img/mask45.png""],[""img/mask59.png""],[""img/mask85.png""],[""img/mask73.png""],[""img/mask51.png""],[""img/mask65.png""],[""img/mask51.png""],[""img/mask51.png""],[""img/mask13.png""],[""img/mask47.png""],[""img/mask17.png""],[""img/mask27.png""],[""img/mask86.png""],[""img/mask35.png""],[""img/mask12.png""],[""img/mask84.png""],[""img/mask5.png""],[""img/mask51.png""],[""img/mask3.png""],[""img/mask54.png""],[""img/mask81.png""],[""img/mask30.png""],[""img/mask99.png""],[""img/mask8.png""],[""img/mask88.png""],[""img/mask33.png""],[""img/mask49.png""],[""img/mask19.png""],[""img/mask8.png""]]]","","[5,29,11,2,20,4,27,26,28,21,24,35,32,8,16,14,6,9,31,7,13,23,3,10,12,17,1,25,22,33,18,19,15,30,0,34]","main","235","many-guess-6"
"","","","","","html-keyboard-response","32","278871","0.0-10.0-1.6","570b7b5fb9b52b00102d96f9","640759fa512f630a2bdc333d","6408c17ef3abdad510a25269","null","","null","","","","","","","","","","","","","","","","","","","fixation","",""
"","","","","","many-guess-6","33","281640","0.0-10.0-0.7-0.7","570b7b5fb9b52b00102d96f9","640759fa512f630a2bdc333d","6408c17ef3abdad510a25269","[1367]","","","[17,14,33,32,12,9,28,27,24,16,7,26,13,2,21,30,20,5,34,18,15,31,29,4,11,3,35,0,6,8,25,19,22,10,1,23]","[327,128,138,68,88,247,28,58,108,168,78,277,307,98,297,227,177,217,267,357,347,317,237,257,187,197,48,158,337,8,207,148,118,18,287,38]","327","228","343.06636119829415","[343.06636119829415]","[115.06636119829415]","[115]","[300,30,210,300,210,30,300,300,120]","0","36","0","149.53999999997905","14.85999999998603","16","[[[""img/mask81.png""],[""img/mask80.png""],[""img/mask20.png""],[""img/mask72.png""],[""img/mask93.png""],[""img/mask28.png""],[""img/mask81.png""],[""img/mask83.png""],[""img/mask60.png""],[""img/mask18.png""],[""img/mask73.png""],[""img/mask42.png""],[""img/mask21.png""],[""img/mask7.png""],[""img/mask90.png""],[""img/mask12.png""],[""img/mask95.png""],[""img/mask86.png""],[""img/mask54.png""],[""img/mask93.png""],[""img/mask32.png""],[""img/mask2.png""],[""img/mask90.png""],[""img/mask53.png""],[""img/mask92.png""],[""img/mask68.png""],[""img/mask5.png""],[""img/mask91.png""],[""img/mask83.png""],[""img/mask61.png""],[""img/mask63.png""],[""img/mask67.png""],[""img/mask68.png""],[""img/mask44.png""],[""img/mask86.png""],[""img/mask10.png""]]]","","[17,14,33,32,12,9,28,27,24,16,7,26,13,2,21,30,20,5,34,18,15,31,29,4,11,3,35,0,6,8,25,19,22,10,1,23]","main","228","many-guess-6"
"","","","","","html-keyboard-response","34","282142","0.0-10.0-1.7","570b7b5fb9b52b00102d96f9","640759fa512f630a2bdc333d","6408c17ef3abdad510a25269","null","","null","","","","","","","","","","","","","","","","","","","fixation","",""
"","","","","","color-precision2","35","285167","0.0-10.0-0.8-0.8","570b7b5fb9b52b00102d96f9","640759fa512f630a2bdc333d","6408c17ef3abdad510a25269","[722]","","","[32]","[206]","206","41","241.1532573673494","[241.1532573673494]","[200.1532573673494]","[200]","0","0","1","0","149.9199999999837","1008.2600000000093","1000","[[[""img/mask26.png""]]]","","","main","41","color-precision2"
"","","","","","html-keyboard-response","36","285667","0.0-10.0-1.8","570b7b5fb9b52b00102d96f9","640759fa512f630a2bdc333d","6408c17ef3abdad510a25269","null","","null","","","","","","","","","","","","","","","","","","","fixation","",""
"","","","","","color-precision2","37","289217","0.0-10.0-0.9-0.9","570b7b5fb9b52b00102d96f9","640759fa512f630a2bdc333d","6408c17ef3abdad510a25269","[737]","","","[3]","[292]","292","52","342.9014331580482","[342.9014331580482]","[290.9014331580482]","[292]","0","0","1","0","148.21999999997206","998.539999999979","1000","[[[""img/mask80.png""]]]","","","main","52","color-precision2"
"","","","","","html-keyboard-response","38","289725","0.0-10.0-1.9","570b7b5fb9b52b00102d96f9","640759fa512f630a2bdc333d","6408c17ef3abdad510a25269","null","","null","","","","","","","","","","","","","","","","","","","fixation","",""
"","","","","","many-guess-6","39","292708","0.0-10.0-0.10-0.10","570b7b5fb9b52b00102d96f9","640759fa512f630a2bdc333d","6408c17ef3abdad510a25269","[1575]","","","[8,19,29,33,35,21,13,9,24,16,25,3,22,31,32,7,23,11,6,10,28,0,20,34,17,14,30,27,26,15,2,12,5,1,18,4]","[359,190,40,90,120,130,210,239,110,100,20,339,289,200,70,349,329,180,249,220,60,279,30,140,10,150,259,170,80,269,50,229,309,299,319,160]","359","280","40.75171704057782","[40.75171704057782]","[120.75171704057783]","[119]","[120,30,210,120,300,210,300,210,300]","0","36","0","148.17999999999302","16.5","16","[[[""img/mask97.png""],[""img/mask70.png""],[""img/mask94.png""],[""img/mask3.png""],[""img/mask96.png""],[""img/mask71.png""],[""img/mask71.png""],[""img/mask86.png""],[""img/mask14.png""],[""img/mask98.png""],[""img/mask59.png""],[""img/mask47.png""],[""img/mask36.png""],[""img/mask9.png""],[""img/mask75.png""],[""img/mask78.png""],[""img/mask25.png""],[""img/mask37.png""],[""img/mask85.png""],[""img/mask8.png""],[""img/mask62.png""],[""img/mask95.png""],[""img/mask4.png""],[""img/mask33.png""],[""img/mask61.png""],[""img/mask96.png""],[""img/mask62.png""],[""img/mask22.png""],[""img/mask57.png""],[""img/mask77.png""],[""img/mask43.png""],[""img/mask33.png""],[""img/mask74.png""],[""img/mask81.png""],[""img/mask35.png""],[""img/mask73.png""]]]","","[8,19,29,33,35,21,13,9,24,16,25,3,22,31,32,7,23,11,6,10,28,0,20,34,17,14,30,27,26,15,2,12,5,1,18,4]","main","280","many-guess-6"
"","","","","","html-keyboard-response","40","293218","0.0-10.0-1.10","570b7b5fb9b52b00102d96f9","640759fa512f630a2bdc333d","6408c17ef3abdad510a25269","null","","null","","","","","","","","","","","","","","","","","","","fixation","",""
"","","","","","color-precision2","41","296639","0.0-10.0-0.11-0.11","570b7b5fb9b52b00102d96f9","640759fa512f630a2bdc333d","6408c17ef3abdad510a25269","[1020]","","","[1]","[141]","141","53","199.1268551893154","[199.1268551893154]","[146.1268551893154]","[146]","0","0","1","0","148.44000000000233","999.7600000000093","1000","[[[""img/mask98.png""]]]","","","main","53","color-precision2"
"","","","","","html-keyboard-response","42","297140","0.0-10.0-1.11","570b7b5fb9b52b00102d96f9","640759fa512f630a2bdc333d","6408c17ef3abdad510a25269","null","","null","","","","","","","","","","","","","","","","","","","fixation","",""
"","","","","","many-guess-6","43","300250","0.0-10.0-0.12-0.12","570b7b5fb9b52b00102d96f9","640759fa512f630a2bdc333d","6408c17ef3abdad510a25269","[1628]","","","[15,30,28,18,6,23,35,32,17,34,33,9,5,31,26,14,27,16,10,19,12,8,7,21,11,2,29,13,4,22,0,20,25,24,3,1]","[117,187,97,327,227,267,346,277,287,307,137,57,207,247,77,7,167,217,67,157,257,317,87,107,337,27,47,177,127,147,17,237,37,356,197,297]","117","324","247.33880822771903","[247.33880822771903]","[283.338808227719]","[284]","[210,30,30,120,210,300,210,210,120]","0","36","0","150.38000000000466","12.71999999997206","16","[[[""img/mask57.png""],[""img/mask84.png""],[""img/mask49.png""],[""img/mask59.png""],[""img/mask59.png""],[""img/mask17.png""],[""img/mask55.png""],[""img/mask50.png""],[""img/mask43.png""],[""img/mask60.png""],[""img/mask11.png""],[""img/mask67.png""],[""img/mask94.png""],[""img/mask11.png""],[""img/mask46.png""],[""img/mask25.png""],[""img/mask53.png""],[""img/mask57.png""],[""img/mask70.png""],[""img/mask69.png""],[""img/mask59.png""],[""img/mask65.png""],[""img/mask48.png""],[""img/mask2.png""],[""img/mask37.png""],[""img/mask13.png""],[""img/mask24.png""],[""img/mask66.png""],[""img/mask35.png""],[""img/mask45.png""],[""img/mask82.png""],[""img/mask6.png""],[""img/mask37.png""],[""img/mask6.png""],[""img/mask75.png""],[""img/mask36.png""]]]","","[15,30,28,18,6,23,35,32,17,34,33,9,5,31,26,14,27,16,10,19,12,8,7,21,11,2,29,13,4,22,0,20,25,24,3,1]","main","324","many-guess-6"
"","","","","","html-keyboard-response","44","300756","0.0-10.0-1.12","570b7b5fb9b52b00102d96f9","640759fa512f630a2bdc333d","6408c17ef3abdad510a25269","null","","null","","","","","","","","","","","","","","","","","","","fixation","",""
"","","","","","many-guess-6","45","303772","0.0-10.0-0.13-0.13","570b7b5fb9b52b00102d96f9","640759fa512f630a2bdc333d","6408c17ef3abdad510a25269","[1514]","","","[24,30,14,22,4,8,20,0,3,19,12,34,32,21,16,33,25,1,5,7,15,13,26,11,10,17,2,6,31,35,18,9,23,29,27,28]","[5,135,195,175,304,145,264,165,25,354,294,324,15,105,95,284,334,115,155,244,185,55,75,234,125,35,205,85,215,344,314,65,225,45,254,274]","5","218","60.29036841149105","[60.29036841149105]","[202.29036841149104]","[201]","[210,30,300,300,30,300,210,210,300]","0","36","0","148.6599999999744","17","16","[[[""img/mask48.png""],[""img/mask33.png""],[""img/mask57.png""],[""img/mask84.png""],[""img/mask9.png""],[""img/mask66.png""],[""img/mask28.png""],[""img/mask40.png""],[""img/mask53.png""],[""img/mask88.png""],[""img/mask58.png""],[""img/mask32.png""],[""img/mask18.png""],[""img/mask98.png""],[""img/mask79.png""],[""img/mask24.png""],[""img/mask71.png""],[""img/mask45.png""],[""img/mask28.png""],[""img/mask36.png""],[""img/mask56.png""],[""img/mask74.png""],[""img/mask96.png""],[""img/mask94.png""],[""img/mask43.png""],[""img/mask92.png""],[""img/mask77.png""],[""img/mask53.png""],[""img/mask42.png""],[""img/mask11.png""],[""img/mask41.png""],[""img/mask81.png""],[""img/mask9.png""],[""img/mask69.png""],[""img/mask76.png""],[""img/mask21.png""]]]","","[24,30,14,22,4,8,20,0,3,19,12,34,32,21,16,33,25,1,5,7,15,13,26,11,10,17,2,6,31,35,18,9,23,29,27,28]","main","218","many-guess-6"
"","","","","","html-keyboard-response","46","304287","0.0-10.0-1.13","570b7b5fb9b52b00102d96f9","640759fa512f630a2bdc333d","6408c17ef3abdad510a25269","null","","null","","","","","","","","","","","","","","","","","","","fixation","",""
"","","","","","many-guess-6","47","307579","0.0-10.0-0.14-0.14","570b7b5fb9b52b00102d96f9","640759fa512f630a2bdc333d","6408c17ef3abdad510a25269","[1720]","","","[19,21,6,3,16,22,28,33,9,18,34,0,30,5,10,7,17,23,11,29,8,27,24,26,12,15,13,4,14,20,2,25,1,35,31,32]","[277,287,267,57,47,7,317,187,227,117,257,177,137,77,27,147,107,17,207,297,97,67,37,197,157,307,247,356,127,347,167,87,237,337,217,327]","277","194","350.58024466881085","[350.58024466881085]","[156.58024466881085]","[156]","[300,120,30,210,300,300,120,30,210]","0","36","0","149.55999999999767","25.900000000023283","16","[[[""img/mask73.png""],[""img/mask44.png""],[""img/mask71.png""],[""img/mask37.png""],[""img/mask27.png""],[""img/mask16.png""],[""img/mask32.png""],[""img/mask49.png""],[""img/mask97.png""],[""img/mask79.png""],[""img/mask48.png""],[""img/mask28.png""],[""img/mask69.png""],[""img/mask37.png""],[""img/mask94.png""],[""img/mask67.png""],[""img/mask21.png""],[""img/mask77.png""],[""img/mask8.png""],[""img/mask48.png""],[""img/mask64.png""],[""img/mask92.png""],[""img/mask22.png""],[""img/mask32.png""],[""img/mask62.png""],[""img/mask13.png""],[""img/mask5.png""],[""img/mask74.png""],[""img/mask14.png""],[""img/mask37.png""],[""img/mask91.png""],[""img/mask19.png""],[""img/mask4.png""],[""img/mask29.png""],[""img/mask81.png""],[""img/mask98.png""]]]","","[19,21,6,3,16,22,28,33,9,18,34,0,30,5,10,7,17,23,11,29,8,27,24,26,12,15,13,4,14,20,2,25,1,35,31,32]","main","194","many-guess-6"
"","","","","","html-keyboard-response","48","308081","0.0-10.0-1.14","570b7b5fb9b52b00102d96f9","640759fa512f630a2bdc333d","6408c17ef3abdad510a25269","null","","null","","","","","","","","","","","","","","","","","","","fixation","",""
"","","","","","many-guess-6","49","311219","0.0-10.0-0.15-0.15","570b7b5fb9b52b00102d96f9","640759fa512f630a2bdc333d","6408c17ef3abdad510a25269","[1855]","","","[17,31,22,23,26,34,0,16,19,1,5,35,18,7,29,12,8,6,11,30,32,4,20,21,27,28,24,25,15,3,33,13,9,2,14,10]","[7,356,176,336,37,306,226,326,186,166,116,296,97,256,107,286,17,196,266,276,236,57,246,27,316,206,156,126,136,47,346,77,67,216,146,87]","7","48","65.2436587369486","[65.2436587369486]","[17.243658736948603]","[16]","[30,120,300,210,210,300,120,210,30]","0","36","0","148.53999999997905","16.85999999998603","16","[[[""img/mask62.png""],[""img/mask1.png""],[""img/mask37.png""],[""img/mask98.png""],[""img/mask1.png""],[""img/mask76.png""],[""img/mask39.png""],[""img/mask59.png""],[""img/mask75.png""],[""img/mask52.png""],[""img/mask66.png""],[""img/mask35.png""],[""img/mask64.png""],[""img/mask84.png""],[""img/mask28.png""],[""img/mask45.png""],[""img/mask98.png""],[""img/mask78.png""],[""img/mask76.png""],[""img/mask61.png""],[""img/mask34.png""],[""img/mask76.png""],[""img/mask3.png""],[""img/mask10.png""],[""img/mask12.png""],[""img/mask38.png""],[""img/mask70.png""],[""img/mask30.png""],[""img/mask2.png""],[""img/mask82.png""],[""img/mask30.png""],[""img/mask43.png""],[""img/mask26.png""],[""img/mask95.png""],[""img/mask78.png""],[""img/mask66.png""]]]","","[17,31,22,23,26,34,0,16,19,1,5,35,18,7,29,12,8,6,11,30,32,4,20,21,27,28,24,25,15,3,33,13,9,2,14,10]","main","48","many-guess-6"
"","","","","","html-keyboard-response","50","311729","0.0-10.0-1.15","570b7b5fb9b52b00102d96f9","640759fa512f630a2bdc333d","6408c17ef3abdad510a25269","null","","null","","","","","","","","","","","","","","","","","","","fixation","",""
"","","","","","many-guess-6","51","314577","0.0-10.0-0.16-0.16","570b7b5fb9b52b00102d96f9","640759fa512f630a2bdc333d","6408c17ef3abdad510a25269","[1509]","","","[7,26,25,13,23,21,18,28,34,6,10,3,8,32,1,20,22,17,30,24,0,11,29,5,31,12,14,16,4,2,9,27,15,35,33,19]","[200,50,289,70,60,40,230,170,339,359,20,210,220,180,120,190,10,100,140,240,349,279,309,90,80,150,110,250,160,259,329,30,319,269,130,299]","200","28","159.12835777179754","[159.12835777179754]","[131.12835777179754]","[130]","[300,30,120,120,120,300,120,30,300]","0","36","0","149.47999999998137","20.79999999998836","16","[[[""img/mask69.png""],[""img/mask91.png""],[""img/mask46.png""],[""img/mask95.png""],[""img/mask47.png""],[""img/mask80.png""],[""img/mask83.png""],[""img/mask52.png""],[""img/mask77.png""],[""img/mask16.png""],[""img/mask40.png""],[""img/mask5.png""],[""img/mask82.png""],[""img/mask8.png""],[""img/mask21.png""],[""img/mask48.png""],[""img/mask27.png""],[""img/mask28.png""],[""img/mask100.png""],[""img/mask11.png""],[""img/mask92.png""],[""img/mask41.png""],[""img/mask79.png""],[""img/mask5.png""],[""img/mask100.png""],[""img/mask49.png""],[""img/mask40.png""],[""img/mask92.png""],[""img/mask96.png""],[""img/mask82.png""],[""img/mask62.png""],[""img/mask38.png""],[""img/mask75.png""],[""img/mask16.png""],[""img/mask39.png""],[""img/mask27.png""]]]","","[7,26,25,13,23,21,18,28,34,6,10,3,8,32,1,20,22,17,30,24,0,11,29,5,31,12,14,16,4,2,9,27,15,35,33,19]","main","28","many-guess-6"
"","","","","","html-keyboard-response","52","315083","0.0-10.0-1.16","570b7b5fb9b52b00102d96f9","640759fa512f630a2bdc333d","6408c17ef3abdad510a25269","null","","null","","","","","","","","","","","","","","","","","","","fixation","",""
"","","","","","color-precision2","53","318356","0.0-10.0-0.17-0.17","570b7b5fb9b52b00102d96f9","640759fa512f630a2bdc333d","6408c17ef3abdad510a25269","[985]","","","[30]","[272]","272","77","352.92487717996016","[352.92487717996016]","[275.92487717996016]","[275]","0","0","1","0","150.40000000002328","1002.7600000000093","1000","[[[""img/mask73.png""]]]","","","main","77","color-precision2"
"","","","","","html-keyboard-response","54","318870","0.0-10.0-1.17","570b7b5fb9b52b00102d96f9","640759fa512f630a2bdc333d","6408c17ef3abdad510a25269","null","","null","","","","","","","","","","","","","","","","","","","fixation","",""
"","","","","","color-precision2","55","322130","0.0-10.0-0.18-0.18","570b7b5fb9b52b00102d96f9","640759fa512f630a2bdc333d","6408c17ef3abdad510a25269","[1040]","","","[18]","[195]","195","48","251.9858954238839","[251.9858954238839]","[203.9858954238839]","[204]","0","0","1","0","149.02000000001863","1001.359999999986","1000","[[[""img/mask48.png""]]]","","","main","48","color-precision2"
"","","","","","html-keyboard-response","56","322637","0.0-10.0-1.18","570b7b5fb9b52b00102d96f9","640759fa512f630a2bdc333d","6408c17ef3abdad510a25269","null","","null","","","","","","","","","","","","","","","","","","","fixation","",""
"","","","","","color-precision2","57","325587","0.0-10.0-0.19-0.19","570b7b5fb9b52b00102d96f9","640759fa512f630a2bdc333d","6408c17ef3abdad510a25269","[559]","","","[10]","[254]","254","79","332.9851214074101","[332.9851214074101]","[253.98512140741008]","[254]","0","0","1","0","149.28000000002794","997.5999999999767","1000","[[[""img/mask37.png""]]]","","","main","79","color-precision2"
"","","","","","html-keyboard-response","58","333821","0.0-10.0-1.19","570b7b5fb9b52b00102d96f9","640759fa512f630a2bdc333d","6408c17ef3abdad510a25269","8233","Wow! You've completed 20 out of 180 trials! </p> <p>  </p><p> Take a quick break, then press any key when you're ready to continue."," ","","","","","","","","","","","","","","","","","","","fixation","",""
"","","","","","color-precision2","59","337988","0.0-10.0-0.20-0.20","570b7b5fb9b52b00102d96f9","640759fa512f630a2bdc333d","6408c17ef3abdad510a25269","[650]","","","[10]","[314]","314","205","164.42209420913855","[164.42209420913855]","[319.42209420913855]","[318]","0","0","1","0","149.0800000000163","1001.4199999999837","1000","[[[""img/mask2.png""]]]","","","main","205","color-precision2"
"","","","","","html-keyboard-response","60","338488","0.0-10.0-1.20","570b7b5fb9b52b00102d96f9","640759fa512f630a2bdc333d","6408c17ef3abdad510a25269","null","","null","","","","","","","","","","","","","","","","","","","fixation","",""
"","","","","","color-precision2","61","341677","0.0-10.0-0.21-0.21","570b7b5fb9b52b00102d96f9","640759fa512f630a2bdc333d","6408c17ef3abdad510a25269","[671]","","","[13]","[121]","121","94","218.04373469024696","[218.04373469024696]","[124.04373469024696]","[124]","0","0","1","0","147.71999999997206","995.0599999999977","1000","[[[""img/mask95.png""]]]","","","main","94","color-precision2"
"","","","","","html-keyboard-response","62","342192","0.0-10.0-1.21","570b7b5fb9b52b00102d96f9","640759fa512f630a2bdc333d","6408c17ef3abdad510a25269","null","","null","","","","","","","","","","","","","","","","","","","fixation","",""
"","","","","","color-precision2","63","345498","0.0-10.0-0.22-0.22","570b7b5fb9b52b00102d96f9","640759fa512f630a2bdc333d","6408c17ef3abdad510a25269","[604]","","","[32]","[279]","279","15","294.1703868586211","[294.1703868586211]","[279.1703868586211]","[279]","0","0","1","0","148.97999999998137","999.320000000007","1000","[[[""img/mask78.png""]]]","","","main","15","color-precision2"
"","","","","","html-keyboard-response","64","345999","0.0-10.0-1.22","570b7b5fb9b52b00102d96f9","640759fa512f630a2bdc333d","6408c17ef3abdad510a25269","null","","null","","","","","","","","","","","","","","","","","","","fixation","",""
"","","","","","many-guess-6","65","348755","0.0-10.0-0.23-0.23","570b7b5fb9b52b00102d96f9","640759fa512f630a2bdc333d","6408c17ef3abdad510a25269","[1427]","","","[14,8,0,33,2,32,22,7,4,3,19,5,13,26,20,35,9,29,11,6,10,24,1,18,30,12,25,28,21,23,27,34,15,31,16,17]","[339,130,140,359,219,90,199,329,30,40,179,319,10,289,239,269,50,70,100,189,120,160,209,229,299,279,309,150,20,259,169,249,80,349,110,60]","339","233","82.2303852887435","[82.2303852887435]","[209.2303852887435]","[207]","[210,300,300,30,300,120,120,300,120]","0","36","0","149.28000000002794","14.619999999995343","16","[[[""img/mask99.png""],[""img/mask58.png""],[""img/mask82.png""],[""img/mask3.png""],[""img/mask55.png""],[""img/mask51.png""],[""img/mask2.png""],[""img/mask96.png""],[""img/mask77.png""],[""img/mask16.png""],[""img/mask53.png""],[""img/mask62.png""],[""img/mask32.png""],[""img/mask77.png""],[""img/mask83.png""],[""img/mask29.png""],[""img/mask100.png""],[""img/mask58.png""],[""img/mask74.png""],[""img/mask35.png""],[""img/mask73.png""],[""img/mask99.png""],[""img/mask94.png""],[""img/mask57.png""],[""img/mask59.png""],[""img/mask15.png""],[""img/mask16.png""],[""img/mask28.png""],[""img/mask37.png""],[""img/mask74.png""],[""img/mask77.png""],[""img/mask18.png""],[""img/mask75.png""],[""img/mask87.png""],[""img/mask99.png""],[""img/mask77.png""]]]","","[14,8,0,33,2,32,22,7,4,3,19,5,13,26,20,35,9,29,11,6,10,24,1,18,30,12,25,28,21,23,27,34,15,31,16,17]","main","233","many-guess-6"
"","","","","","html-keyboard-response","66","349267","0.0-10.0-1.23","570b7b5fb9b52b00102d96f9","640759fa512f630a2bdc333d","6408c17ef3abdad510a25269","null","","null","","","","","","","","","","","","","","","","","","","fixation","",""
"","","","","","many-guess-6","67","352392","0.0-10.0-0.24-0.24","570b7b5fb9b52b00102d96f9","640759fa512f630a2bdc333d","6408c17ef3abdad510a25269","[1660]","","","[11,30,10,14,33,15,1,34,3,20,18,12,6,23,7,4,25,24,2,35,17,31,27,22,0,8,29,9,5,13,32,21,26,19,16,28]","[288,108,188,78,148,88,268,218,9,128,308,248,348,238,228,358,318,98,178,298,198,69,328,278,19,118,168,29,158,338,59,208,49,138,258,39]","288","25","357.0929739820207","[357.0929739820207]","[332.0929739820207]","[332]","[30,120,300,120,210,120,210,120,30]","0","36","0","150.20000000001164","16.55999999999767","16","[[[""img/mask92.png""],[""img/mask38.png""],[""img/mask26.png""],[""img/mask68.png""],[""img/mask72.png""],[""img/mask14.png""],[""img/mask93.png""],[""img/mask70.png""],[""img/mask7.png""],[""img/mask72.png""],[""img/mask72.png""],[""img/mask61.png""],[""img/mask71.png""],[""img/mask76.png""],[""img/mask24.png""],[""img/mask18.png""],[""img/mask43.png""],[""img/mask71.png""],[""img/mask70.png""],[""img/mask42.png""],[""img/mask38.png""],[""img/mask47.png""],[""img/mask86.png""],[""img/mask58.png""],[""img/mask28.png""],[""img/mask1.png""],[""img/mask88.png""],[""img/mask3.png""],[""img/mask14.png""],[""img/mask57.png""],[""img/mask6.png""],[""img/mask54.png""],[""img/mask37.png""],[""img/mask22.png""],[""img/mask46.png""],[""img/mask46.png""]]]","","[11,30,10,14,33,15,1,34,3,20,18,12,6,23,7,4,25,24,2,35,17,31,27,22,0,8,29,9,5,13,32,21,26,19,16,28]","main","25","many-guess-6"
"","","","","","html-keyboard-response","68","352894","0.0-10.0-1.24","570b7b5fb9b52b00102d96f9","640759fa512f630a2bdc333d","6408c17ef3abdad510a25269","null","","null","","","","","","","","","","","","","","","","","","","fixation","",""
"","","","","","many-guess-6","69","356377","0.0-10.0-0.25-0.25","570b7b5fb9b52b00102d96f9","640759fa512f630a2bdc333d","6408c17ef3abdad510a25269","[1559]","","","[32,16,7,30,33,22,26,25,1,14,0,13,6,12,29,4,20,10,35,15,28,31,24,9,17,18,8,2,34,19,27,5,23,3,21,11]","[67,276,87,17,206,196,186,306,167,226,137,286,117,336,77,256,326,97,246,296,37,216,47,127,107,57,266,236,346,177,7,356,27,157,147,316]","67","343","173.87685157084857","[173.87685157084857]","[190.87685157084857]","[190]","[120,30,120,210,120,30,300,120,300]","0","36","0","148.47999999998137","26.820000000006985","16","[[[""img/mask59.png""],[""img/mask46.png""],[""img/mask11.png""],[""img/mask63.png""],[""img/mask97.png""],[""img/mask85.png""],[""img/mask83.png""],[""img/mask95.png""],[""img/mask79.png""],[""img/mask29.png""],[""img/mask70.png""],[""img/mask56.png""],[""img/mask11.png""],[""img/mask53.png""],[""img/mask55.png""],[""img/mask82.png""],[""img/mask6.png""],[""img/mask48.png""],[""img/mask75.png""],[""img/mask9.png""],[""img/mask17.png""],[""img/mask92.png""],[""img/mask37.png""],[""img/mask72.png""],[""img/mask42.png""],[""img/mask36.png""],[""img/mask59.png""],[""img/mask66.png""],[""img/mask70.png""],[""img/mask54.png""],[""img/mask92.png""],[""img/mask45.png""],[""img/mask33.png""],[""img/mask85.png""],[""img/mask6.png""],[""img/mask90.png""]]]","","[32,16,7,30,33,22,26,25,1,14,0,13,6,12,29,4,20,10,35,15,28,31,24,9,17,18,8,2,34,19,27,5,23,3,21,11]","main","343","many-guess-6"
"","","","","","html-keyboard-response","70","356891","0.0-10.0-1.25","570b7b5fb9b52b00102d96f9","640759fa512f630a2bdc333d","6408c17ef3abdad510a25269","null","","null","","","","","","","","","","","","","","","","","","","fixation","",""
"","","","","","color-precision2","71","359945","0.0-10.0-0.26-0.26","570b7b5fb9b52b00102d96f9","640759fa512f630a2bdc333d","6408c17ef3abdad510a25269","[757]","","","[4]","[140]","140","158","298.8723636586322","[298.8723636586322]","[140.8723636586322]","[141]","0","0","1","0","148.0800000000163","998.4199999999837","1000","[[[""img/mask39.png""]]]","","","main","158","color-precision2"
"","","","","","html-keyboard-response","72","360460","0.0-10.0-1.26","570b7b5fb9b52b00102d96f9","640759fa512f630a2bdc333d","6408c17ef3abdad510a25269","null","","null","","","","","","","","","","","","","","","","","","","fixation","",""
"","","","","","many-guess-6","73","364198","0.0-10.0-0.27-0.27","570b7b5fb9b52b00102d96f9","640759fa512f630a2bdc333d","6408c17ef3abdad510a25269","[2408]","","","[29,12,26,30,2,15,34,11,33,3,4,6,1,35,24,8,22,19,16,17,25,0,14,31,9,5,23,28,32,27,21,7,18,20,13,10]","[300,280,231,91,221,270,251,1,340,261,161,350,131,201,211,101,310,320,151,11,290,141,181,111,191,61,171,81,31,21,121,71,241,41,330,51]","300","237","291.8851833472884","[291.8851833472884]","[54.885183347288375]","[55]","[30,30,120,30,300,300,120,120,30]","0","36","0","149.05999999999767","16.380000000004657","16","[[[""img/mask87.png""],[""img/mask15.png""],[""img/mask18.png""],[""img/mask77.png""],[""img/mask41.png""],[""img/mask68.png""],[""img/mask90.png""],[""img/mask81.png""],[""img/mask20.png""],[""img/mask59.png""],[""img/mask73.png""],[""img/mask87.png""],[""img/mask32.png""],[""img/mask60.png""],[""img/mask69.png""],[""img/mask24.png""],[""img/mask26.png""],[""img/mask66.png""],[""img/mask33.png""],[""img/mask44.png""],[""img/mask87.png""],[""img/mask52.png""],[""img/mask61.png""],[""img/mask99.png""],[""img/mask9.png""],[""img/mask27.png""],[""img/mask57.png""],[""img/mask98.png""],[""img/mask90.png""],[""img/mask100.png""],[""img/mask88.png""],[""img/mask97.png""],[""img/mask31.png""],[""img/mask61.png""],[""img/mask98.png""],[""img/mask90.png""]]]","","[29,12,26,30,2,15,34,11,33,3,4,6,1,35,24,8,22,19,16,17,25,0,14,31,9,5,23,28,32,27,21,7,18,20,13,10]","main","237","many-guess-6"
"","","","","","html-keyboard-response","74","364712","0.0-10.0-1.27","570b7b5fb9b52b00102d96f9","640759fa512f630a2bdc333d","6408c17ef3abdad510a25269","null","","null","","","","","","","","","","","","","","","","","","","fixation","",""
"","","","","","color-precision2","75","368035","0.0-10.0-0.28-0.28","570b7b5fb9b52b00102d96f9","640759fa512f630a2bdc333d","6408c17ef3abdad510a25269","[1007]","","","[23]","[63]","63","199","260.3107071669865","[260.3107071669865]","[61.310707166986504]","[63]","0","0","1","0","148.32000000000698","1004.640000000014","1000","[[[""img/mask54.png""]]]","","","main","199","color-precision2"
"","","","","","html-keyboard-response","76","368546","0.0-10.0-1.28","570b7b5fb9b52b00102d96f9","640759fa512f630a2bdc333d","6408c17ef3abdad510a25269","null","","null","","","","","","","","","","","","","","","","","","","fixation","",""
"","","","","","color-precision2","77","371467","0.0-10.0-0.29-0.29","570b7b5fb9b52b00102d96f9","640759fa512f630a2bdc333d","6408c17ef3abdad510a25269","[652]","","","[5]","[58]","58","63","119.9533039465745","[119.9533039465745]","[56.95330394657449]","[55]","0","0","1","0","149.5800000000163","1001.9199999999837","1000","[[[""img/mask83.png""]]]","","","main","63","color-precision2"
"","","","","","html-keyboard-response","78","371979","0.0-10.0-1.29","570b7b5fb9b52b00102d96f9","640759fa512f630a2bdc333d","6408c17ef3abdad510a25269","null","","null","","","","","","","","","","","","","","","","","","","fixation","",""
"","","","","","color-precision2","79","375053","0.0-10.0-0.30-0.30","570b7b5fb9b52b00102d96f9","640759fa512f630a2bdc333d","6408c17ef3abdad510a25269","[635]","","","[8]","[181]","181","11","198.1697014247543","[198.1697014247543]","[187.1697014247543]","[187]","0","0","1","0","147.55999999999767","997.8800000000047","1000","[[[""img/mask97.png""]]]","","","main","11","color-precision2"
"","","","","","html-keyboard-response","80","375557","0.0-10.0-1.30","570b7b5fb9b52b00102d96f9","640759fa512f630a2bdc333d","6408c17ef3abdad510a25269","null","","null","","","","","","","","","","","","","","","","","","","fixation","",""
"","","","","","color-precision2","81","378321","0.0-10.0-0.31-0.31","570b7b5fb9b52b00102d96f9","640759fa512f630a2bdc333d","6408c17ef3abdad510a25269","[400]","","","[25]","[344]","344","321","299.33919982026765","[299.33919982026765]","[338.33919982026765]","[338]","0","0","1","0","149.47999999998137","991.7999999999884","1000","[[[""img/mask51.png""]]]","","","main","321","color-precision2"
"","","","","","html-keyboard-response","82","378835","0.0-10.0-1.31","570b7b5fb9b52b00102d96f9","640759fa512f630a2bdc333d","6408c17ef3abdad510a25269","null","","null","","","","","","","","","","","","","","","","","","","fixation","",""
"","","","","","color-precision2","83","381414","0.0-10.0-0.32-0.32","570b7b5fb9b52b00102d96f9","640759fa512f630a2bdc333d","6408c17ef3abdad510a25269","[257]","","","[8]","[333]","333","0","","[null]","[null]","[329]","0","0","1","0","148.7600000000093","1005.0999999999767","1000","[[[""img/mask5.png""]]]","","","main","0","color-precision2"
"","","","","","html-keyboard-response","84","381928","0.0-10.0-1.32","570b7b5fb9b52b00102d96f9","640759fa512f630a2bdc333d","6408c17ef3abdad510a25269","null","","null","","","","","","","","","","","","","","","","","","","fixation","",""
"","","","","","many-guess-6","85","385139","0.0-10.0-0.33-0.33","570b7b5fb9b52b00102d96f9","640759fa512f630a2bdc333d","6408c17ef3abdad510a25269","[1781]","","","[12,0,4,21,10,35,34,33,22,19,24,32,7,5,18,11,25,20,8,13,23,15,31,3,26,29,30,16,6,14,1,17,27,9,2,28]","[80,160,209,259,140,329,10,130,170,110,219,309,279,40,339,20,200,120,249,319,349,150,180,359,60,50,100,30,229,239,299,90,70,269,289,190]","80","289","331.43647097088075","[331.43647097088075]","[42.43647097088075]","[42]","[300,120,210,30,120,120,30,120,300]","0","36","0","148.70000000001164","23.039999999979045","16","[[[""img/mask49.png""],[""img/mask65.png""],[""img/mask53.png""],[""img/mask5.png""],[""img/mask37.png""],[""img/mask37.png""],[""img/mask46.png""],[""img/mask46.png""],[""img/mask91.png""],[""img/mask26.png""],[""img/mask56.png""],[""img/mask91.png""],[""img/mask76.png""],[""img/mask31.png""],[""img/mask50.png""],[""img/mask17.png""],[""img/mask45.png""],[""img/mask72.png""],[""img/mask38.png""],[""img/mask90.png""],[""img/mask71.png""],[""img/mask22.png""],[""img/mask17.png""],[""img/mask5.png""],[""img/mask78.png""],[""img/mask12.png""],[""img/mask79.png""],[""img/mask31.png""],[""img/mask75.png""],[""img/mask24.png""],[""img/mask78.png""],[""img/mask37.png""],[""img/mask60.png""],[""img/mask39.png""],[""img/mask92.png""],[""img/mask93.png""]]]","","[12,0,4,21,10,35,34,33,22,19,24,32,7,5,18,11,25,20,8,13,23,15,31,3,26,29,30,16,6,14,1,17,27,9,2,28]","main","289","many-guess-6"
"","","","","","html-keyboard-response","86","385644","0.0-10.0-1.33","570b7b5fb9b52b00102d96f9","640759fa512f630a2bdc333d","6408c17ef3abdad510a25269","null","","null","","","","","","","","","","","","","","","","","","","fixation","",""
"","","","","","color-precision2","87","388600","0.0-10.0-0.34-0.34","570b7b5fb9b52b00102d96f9","640759fa512f630a2bdc333d","6408c17ef3abdad510a25269","[704]","","","[12]","[15]","15","222","220.49815254487734","[220.49815254487734]","[358.49815254487737]","[358]","0","0","1","0","148.94000000000233","1001.2600000000093","1000","[[[""img/mask52.png""]]]","","","main","222","color-precision2"
"","","","","","html-keyboard-response","88","389109","0.0-10.0-1.34","570b7b5fb9b52b00102d96f9","640759fa512f630a2bdc333d","6408c17ef3abdad510a25269","null","","null","","","","","","","","","","","","","","","","","","","fixation","",""
"","","","","","color-precision2","89","391988","0.0-10.0-0.35-0.35","570b7b5fb9b52b00102d96f9","640759fa512f630a2bdc333d","6408c17ef3abdad510a25269","[272]","","","[7]","[166]","166","220","38.32074046646734","[38.32074046646734]","[178.32074046646733]","[177]","0","0","1","0","149.52000000001863","1003.859999999986","1000","[[[""img/mask30.png""]]]","","","main","220","color-precision2"
"","","","","","html-keyboard-response","90","392497","0.0-10.0-1.35","570b7b5fb9b52b00102d96f9","640759fa512f630a2bdc333d","6408c17ef3abdad510a25269","null","","null","","","","","","","","","","","","","","","","","","","fixation","",""
"","","","","","many-guess-6","91","395306","0.0-10.0-0.36-0.36","570b7b5fb9b52b00102d96f9","640759fa512f630a2bdc333d","6408c17ef3abdad510a25269","[1439]","","","[31,0,9,34,1,5,20,12,30,14,11,4,29,35,10,18,7,24,21,17,27,23,6,19,2,28,8,22,13,32,25,26,3,33,16,15]","[5,165,295,225,245,15,35,335,75,115,275,305,235,95,45,55,215,345,145,25,185,205,175,265,285,325,65,105,135,315,354,155,195,255,125,85]","5","129","1.1404895464950808","[1.1404895464950808]","[232.14048954649508]","[231]","[120,210,30,120,210,210,120,300,30]","0","36","0","149.47999999998137","12.820000000006985","16","[[[""img/mask93.png""],[""img/mask16.png""],[""img/mask38.png""],[""img/mask100.png""],[""img/mask31.png""],[""img/mask25.png""],[""img/mask33.png""],[""img/mask79.png""],[""img/mask51.png""],[""img/mask25.png""],[""img/mask21.png""],[""img/mask45.png""],[""img/mask86.png""],[""img/mask27.png""],[""img/mask39.png""],[""img/mask53.png""],[""img/mask8.png""],[""img/mask28.png""],[""img/mask56.png""],[""img/mask53.png""],[""img/mask89.png""],[""img/mask73.png""],[""img/mask38.png""],[""img/mask82.png""],[""img/mask28.png""],[""img/mask19.png""],[""img/mask32.png""],[""img/mask50.png""],[""img/mask89.png""],[""img/mask64.png""],[""img/mask33.png""],[""img/mask22.png""],[""img/mask62.png""],[""img/mask42.png""],[""img/mask54.png""],[""img/mask35.png""]]]","","[31,0,9,34,1,5,20,12,30,14,11,4,29,35,10,18,7,24,21,17,27,23,6,19,2,28,8,22,13,32,25,26,3,33,16,15]","main","129","many-guess-6"
"","","","","","html-keyboard-response","92","395810","0.0-10.0-1.36","570b7b5fb9b52b00102d96f9","640759fa512f630a2bdc333d","6408c17ef3abdad510a25269","null","","null","","","","","","","","","","","","","","","","","","","fixation","",""
"","","","","","many-guess-6","93","398890","0.0-10.0-0.37-0.37","570b7b5fb9b52b00102d96f9","640759fa512f630a2bdc333d","6408c17ef3abdad510a25269","[1837]","","","[28,30,19,13,21,1,6,3,24,20,29,4,32,22,27,9,11,35,0,8,17,31,18,12,7,26,25,16,14,33,10,5,23,2,15,34]","[125,195,205,185,16,245,345,56,116,315,155,66,285,305,275,215,96,175,325,255,106,6,165,135,46,86,335,76,145,265,36,295,235,355,225,26]","125","319","104.22530206111749","[104.22530206111749]","[145.22530206111747]","[143]","[210,120,300,30,120,120,210,300,210]","0","36","0","149.79999999998836","24.119999999995343","16","[[[""img/mask57.png""],[""img/mask67.png""],[""img/mask46.png""],[""img/mask64.png""],[""img/mask54.png""],[""img/mask2.png""],[""img/mask90.png""],[""img/mask70.png""],[""img/mask65.png""],[""img/mask93.png""],[""img/mask68.png""],[""img/mask6.png""],[""img/mask86.png""],[""img/mask46.png""],[""img/mask74.png""],[""img/mask12.png""],[""img/mask32.png""],[""img/mask30.png""],[""img/mask92.png""],[""img/mask64.png""],[""img/mask45.png""],[""img/mask46.png""],[""img/mask55.png""],[""img/mask47.png""],[""img/mask67.png""],[""img/mask35.png""],[""img/mask66.png""],[""img/mask26.png""],[""img/mask36.png""],[""img/mask46.png""],[""img/mask48.png""],[""img/mask29.png""],[""img/mask67.png""],[""img/mask82.png""],[""img/mask52.png""],[""img/mask43.png""]]]","","[28,30,19,13,21,1,6,3,24,20,29,4,32,22,27,9,11,35,0,8,17,31,18,12,7,26,25,16,14,33,10,5,23,2,15,34]","main","319","many-guess-6"
"","","","","","html-keyboard-response","94","399404","0.0-10.0-1.37","570b7b5fb9b52b00102d96f9","640759fa512f630a2bdc333d","6408c17ef3abdad510a25269","null","","null","","","","","","","","","","","","","","","","","","","fixation","",""
"","","","","","many-guess-6","95","402442","0.0-10.0-0.38-0.38","570b7b5fb9b52b00102d96f9","640759fa512f630a2bdc333d","6408c17ef3abdad510a25269","[1586]","","","[20,12,4,17,35,7,27,30,19,22,16,34,10,13,26,14,28,33,29,1,0,6,31,11,23,21,25,24,5,3,18,15,8,32,9,2]","[14,163,223,213,123,74,253,313,323,183,243,233,203,64,44,24,263,133,303,84,333,114,353,293,273,193,4,143,54,104,283,343,34,173,94,153]","14","49","74.11441922681277","[74.11441922681277]","[25.11441922681277]","[24]","[120,120,30,300,210,120,30,300,120]","0","36","0","149.71999999997206","22.039999999979045","16","[[[""img/mask59.png""],[""img/mask21.png""],[""img/mask39.png""],[""img/mask67.png""],[""img/mask89.png""],[""img/mask25.png""],[""img/mask42.png""],[""img/mask18.png""],[""img/mask57.png""],[""img/mask15.png""],[""img/mask22.png""],[""img/mask59.png""],[""img/mask57.png""],[""img/mask4.png""],[""img/mask4.png""],[""img/mask76.png""],[""img/mask27.png""],[""img/mask76.png""],[""img/mask36.png""],[""img/mask28.png""],[""img/mask56.png""],[""img/mask61.png""],[""img/mask52.png""],[""img/mask76.png""],[""img/mask58.png""],[""img/mask40.png""],[""img/mask40.png""],[""img/mask57.png""],[""img/mask47.png""],[""img/mask59.png""],[""img/mask11.png""],[""img/mask86.png""],[""img/mask32.png""],[""img/mask13.png""],[""img/mask49.png""],[""img/mask79.png""]]]","","[20,12,4,17,35,7,27,30,19,22,16,34,10,13,26,14,28,33,29,1,0,6,31,11,23,21,25,24,5,3,18,15,8,32,9,2]","main","49","many-guess-6"
"","","","","","html-keyboard-response","96","402950","0.0-10.0-1.38","570b7b5fb9b52b00102d96f9","640759fa512f630a2bdc333d","6408c17ef3abdad510a25269","null","","null","","","","","","","","","","","","","","","","","","","fixation","",""
"","","","","","color-precision2","97","405785","0.0-10.0-0.39-0.39","570b7b5fb9b52b00102d96f9","640759fa512f630a2bdc333d","6408c17ef3abdad510a25269","[508]","","","[23]","[244]","244","2","249.73480304673416","[249.73480304673416]","[247.73480304673416]","[248]","0","0","1","0","147.3400000000256","995.679999999993","1000","[[[""img/mask98.png""]]]","","","main","2","color-precision2"
"","","","","","html-keyboard-response","98","425090","0.0-10.0-1.39","570b7b5fb9b52b00102d96f9","640759fa512f630a2bdc333d","6408c17ef3abdad510a25269","19304","Wow! You've completed 40 out of 180 trials! </p> <p>  </p><p> Take a quick break, then press any key when you're ready to continue."," ","","","","","","","","","","","","","","","","","","","fixation","",""
"","","","","","color-precision2","99","428321","0.0-10.0-0.40-0.40","570b7b5fb9b52b00102d96f9","640759fa512f630a2bdc333d","6408c17ef3abdad510a25269","[142]","","","[20]","[271]","271","16","","[null]","[null]","[279]","0","0","1","0","148.2399999999907","999.5800000000163","1000","[[[""img/mask60.png""]]]","","","main","16","color-precision2"
"","","","","","html-keyboard-response","100","428836","0.0-10.0-1.40","570b7b5fb9b52b00102d96f9","640759fa512f630a2bdc333d","6408c17ef3abdad510a25269","null","","null","","","","","","","","","","","","","","","","","","","fixation","",""
"","","","","","many-guess-6","101","431546","0.0-10.0-0.41-0.41","570b7b5fb9b52b00102d96f9","640759fa512f630a2bdc333d","6408c17ef3abdad510a25269","[1331]","","","[8,30,21,13,10,11,9,23,22,32,16,12,29,14,25,0,3,7,34,2,1,5,20,27,15,4,33,18,35,24,6,26,17,31,19,28]","[230,60,70,320,290,140,11,180,110,220,260,240,170,90,80,20,300,210,340,270,50,40,190,100,130,30,280,350,200,310,250,160,120,330,150,1]","230","80","30.14416877229979","[30.14416877229979]","[310.1441687722998]","[309]","[210,210,300,120,300,210,300,210,210]","0","36","0","149.53999999997905","14.880000000004657","16","[[[""img/mask8.png""],[""img/mask56.png""],[""img/mask27.png""],[""img/mask79.png""],[""img/mask17.png""],[""img/mask59.png""],[""img/mask87.png""],[""img/mask11.png""],[""img/mask56.png""],[""img/mask17.png""],[""img/mask68.png""],[""img/mask88.png""],[""img/mask91.png""],[""img/mask56.png""],[""img/mask95.png""],[""img/mask69.png""],[""img/mask35.png""],[""img/mask22.png""],[""img/mask36.png""],[""img/mask96.png""],[""img/mask62.png""],[""img/mask51.png""],[""img/mask92.png""],[""img/mask54.png""],[""img/mask63.png""],[""img/mask79.png""],[""img/mask45.png""],[""img/mask97.png""],[""img/mask56.png""],[""img/mask82.png""],[""img/mask57.png""],[""img/mask65.png""],[""img/mask31.png""],[""img/mask44.png""],[""img/mask89.png""],[""img/mask11.png""]]]","","[8,30,21,13,10,11,9,23,22,32,16,12,29,14,25,0,3,7,34,2,1,5,20,27,15,4,33,18,35,24,6,26,17,31,19,28]","main","80","many-guess-6"
"","","","","","html-keyboard-response","102","432057","0.0-10.0-1.41","570b7b5fb9b52b00102d96f9","640759fa512f630a2bdc333d","6408c17ef3abdad510a25269","null","","null","","","","","","","","","","","","","","","","","","","fixation","",""
"","","","","","color-precision2","103","435029","0.0-10.0-0.42-0.42","570b7b5fb9b52b00102d96f9","640759fa512f630a2bdc333d","6408c17ef3abdad510a25269","[528]","","","[22]","[329]","329","143","135.01451619557778","[135.01451619557778]","[352.0145161955778]","[351]","0","0","1","0","148.7600000000093","997.0999999999767","1000","[[[""img/mask77.png""]]]","","","main","143","color-precision2"
"","","","","","html-keyboard-response","104","435542","0.0-10.0-1.42","570b7b5fb9b52b00102d96f9","640759fa512f630a2bdc333d","6408c17ef3abdad510a25269","null","","null","","","","","","","","","","","","","","","","","","","fixation","",""
"","","","","","color-precision2","105","438765","0.0-10.0-0.43-0.43","570b7b5fb9b52b00102d96f9","640759fa512f630a2bdc333d","6408c17ef3abdad510a25269","[811]","","","[21]","[145]","145","92","247.56307787471425","[247.56307787471425]","[155.56307787471425]","[156]","0","0","1","0","148.71999999997206","1005.0599999999977","1000","[[[""img/mask71.png""]]]","","","main","92","color-precision2"
"","","","","","html-keyboard-response","106","439270","0.0-10.0-1.43","570b7b5fb9b52b00102d96f9","640759fa512f630a2bdc333d","6408c17ef3abdad510a25269","null","","null","","","","","","","","","","","","","","","","","","","fixation","",""
"","","","","","color-precision2","107","441735","0.0-10.0-0.44-0.44","570b7b5fb9b52b00102d96f9","640759fa512f630a2bdc333d","6408c17ef3abdad510a25269","[196]","","","[20]","[50]","50","181","227.79399698280767","[227.79399698280767]","[46.79399698280767]","[47]","0","0","1","0","149.97999999998137","993.320000000007","1000","[[[""img/mask92.png""]]]","","","main","181","color-precision2"
"","","","","","html-keyboard-response","108","442249","0.0-10.0-1.44","570b7b5fb9b52b00102d96f9","640759fa512f630a2bdc333d","6408c17ef3abdad510a25269","null","","null","","","","","","","","","","","","","","","","","","","fixation","",""
"","","","","","many-guess-6","109","445224","0.0-10.0-0.45-0.45","570b7b5fb9b52b00102d96f9","640759fa512f630a2bdc333d","6408c17ef3abdad510a25269","[1717]","","","[22,23,21,33,24,20,2,32,17,12,1,29,35,7,3,10,16,18,4,31,19,6,0,15,9,28,25,14,30,27,11,5,34,8,13,26]","[208,278,89,298,178,318,268,198,79,308,109,238,288,59,99,118,148,188,128,69,338,248,39,358,19,158,348,29,258,138,49,328,9,168,218,228]","208","353","58.55533930819091","[58.55533930819091]","[65.55533930819092]","[64]","[300,120,300,120,120,210,30,210,120]","0","36","0","149.61999999999534","14.960000000020955","16","[[[""img/mask13.png""],[""img/mask92.png""],[""img/mask70.png""],[""img/mask69.png""],[""img/mask72.png""],[""img/mask1.png""],[""img/mask83.png""],[""img/mask76.png""],[""img/mask97.png""],[""img/mask54.png""],[""img/mask72.png""],[""img/mask28.png""],[""img/mask1.png""],[""img/mask38.png""],[""img/mask16.png""],[""img/mask9.png""],[""img/mask54.png""],[""img/mask22.png""],[""img/mask54.png""],[""img/mask47.png""],[""img/mask23.png""],[""img/mask60.png""],[""img/mask27.png""],[""img/mask64.png""],[""img/mask7.png""],[""img/mask32.png""],[""img/mask8.png""],[""img/mask11.png""],[""img/mask63.png""],[""img/mask100.png""],[""img/mask67.png""],[""img/mask31.png""],[""img/mask92.png""],[""img/mask69.png""],[""img/mask11.png""],[""img/mask97.png""]]]","","[22,23,21,33,24,20,2,32,17,12,1,29,35,7,3,10,16,18,4,31,19,6,0,15,9,28,25,14,30,27,11,5,34,8,13,26]","main","353","many-guess-6"
"","","","","","html-keyboard-response","110","445727","0.0-10.0-1.45","570b7b5fb9b52b00102d96f9","640759fa512f630a2bdc333d","6408c17ef3abdad510a25269","null","","null","","","","","","","","","","","","","","","","","","","fixation","",""
"","","","","","many-guess-6","111","448580","0.0-10.0-0.46-0.46","570b7b5fb9b52b00102d96f9","640759fa512f630a2bdc333d","6408c17ef3abdad510a25269","[1536]","","","[32,35,27,28,31,3,16,21,17,30,34,20,12,4,2,23,29,11,7,14,5,22,0,24,1,15,13,10,25,33,18,26,8,19,6,9]","[33,312,342,103,153,223,3,93,63,292,53,233,332,282,203,322,173,273,43,213,73,23,143,83,123,163,263,13,133,113,302,193,352,253,243,183]","33","94","357.2130661210054","[357.2130661210054]","[263.2130661210054]","[263]","[30,210,210,120,210,30,120,210,30]","0","36","0","148.9199999999837","24.239999999990687","16","[[[""img/mask34.png""],[""img/mask92.png""],[""img/mask58.png""],[""img/mask17.png""],[""img/mask28.png""],[""img/mask71.png""],[""img/mask43.png""],[""img/mask72.png""],[""img/mask100.png""],[""img/mask97.png""],[""img/mask97.png""],[""img/mask74.png""],[""img/mask58.png""],[""img/mask97.png""],[""img/mask30.png""],[""img/mask52.png""],[""img/mask86.png""],[""img/mask7.png""],[""img/mask75.png""],[""img/mask39.png""],[""img/mask8.png""],[""img/mask61.png""],[""img/mask7.png""],[""img/mask78.png""],[""img/mask57.png""],[""img/mask79.png""],[""img/mask18.png""],[""img/mask33.png""],[""img/mask51.png""],[""img/mask76.png""],[""img/mask84.png""],[""img/mask3.png""],[""img/mask10.png""],[""img/mask89.png""],[""img/mask30.png""],[""img/mask2.png""]]]","","[32,35,27,28,31,3,16,21,17,30,34,20,12,4,2,23,29,11,7,14,5,22,0,24,1,15,13,10,25,33,18,26,8,19,6,9]","main","94","many-guess-6"
"","","","","","html-keyboard-response","112","449088","0.0-10.0-1.46","570b7b5fb9b52b00102d96f9","640759fa512f630a2bdc333d","6408c17ef3abdad510a25269","null","","null","","","","","","","","","","","","","","","","","","","fixation","",""
"","","","","","color-precision2","113","451751","0.0-10.0-0.47-0.47","570b7b5fb9b52b00102d96f9","640759fa512f630a2bdc333d","6408c17ef3abdad510a25269","[453]","","","[9]","[321]","321","335","310.2854941204514","[310.2854941204514]","[335.2854941204514]","[336]","0","0","1","0","148.71999999997206","1001.039999999979","1000","[[[""img/mask39.png""]]]","","","main","335","color-precision2"
"","","","","","html-keyboard-response","114","452256","0.0-10.0-1.47","570b7b5fb9b52b00102d96f9","640759fa512f630a2bdc333d","6408c17ef3abdad510a25269","null","","null","","","","","","","","","","","","","","","","","","","fixation","",""
"","","","","","many-guess-6","115","454993","0.0-10.0-0.48-0.48","570b7b5fb9b52b00102d96f9","640759fa512f630a2bdc333d","6408c17ef3abdad510a25269","[1326]","","","[15,27,28,14,35,33,21,19,23,13,4,7,16,25,17,9,2,3,32,1,29,31,30,11,6,0,34,22,20,5,18,10,24,26,8,12]","[34,283,54,343,223,163,303,44,253,193,93,103,273,143,24,74,293,153,123,173,203,233,14,353,243,64,4,213,323,333,133,313,113,263,183,83]","34","242","97.44013771104139","[97.44013771104139]","[215.4401377110414]","[214]","[30,30,300,210,210,30,30,120,30]","0","36","0","149.3400000000256","23.679999999993015","16","[[[""img/mask49.png""],[""img/mask2.png""],[""img/mask41.png""],[""img/mask22.png""],[""img/mask41.png""],[""img/mask55.png""],[""img/mask27.png""],[""img/mask64.png""],[""img/mask37.png""],[""img/mask53.png""],[""img/mask84.png""],[""img/mask27.png""],[""img/mask69.png""],[""img/mask15.png""],[""img/mask72.png""],[""img/mask99.png""],[""img/mask89.png""],[""img/mask40.png""],[""img/mask60.png""],[""img/mask94.png""],[""img/mask11.png""],[""img/mask62.png""],[""img/mask56.png""],[""img/mask8.png""],[""img/mask32.png""],[""img/mask31.png""],[""img/mask60.png""],[""img/mask76.png""],[""img/mask95.png""],[""img/mask35.png""],[""img/mask18.png""],[""img/mask12.png""],[""img/mask16.png""],[""img/mask52.png""],[""img/mask91.png""],[""img/mask69.png""]]]","","[15,27,28,14,35,33,21,19,23,13,4,7,16,25,17,9,2,3,32,1,29,31,30,11,6,0,34,22,20,5,18,10,24,26,8,12]","main","242","many-guess-6"
"","","","","","html-keyboard-response","116","455500","0.0-10.0-1.48","570b7b5fb9b52b00102d96f9","640759fa512f630a2bdc333d","6408c17ef3abdad510a25269","null","","null","","","","","","","","","","","","","","","","","","","fixation","",""
"","","","","","color-precision2","117","458136","0.0-10.0-0.49-0.49","570b7b5fb9b52b00102d96f9","640759fa512f630a2bdc333d","6408c17ef3abdad510a25269","[315]","","","[17]","[268]","268","175","82.2494301097394","[82.2494301097394]","[267.24943010973936]","[265]","0","0","1","0","150.2600000000093","996.5999999999767","1000","[[[""img/mask70.png""]]]","","","main","175","color-precision2"
"","","","","","html-keyboard-response","118","458639","0.0-10.0-1.49","570b7b5fb9b52b00102d96f9","640759fa512f630a2bdc333d","6408c17ef3abdad510a25269","null","","null","","","","","","","","","","","","","","","","","","","fixation","",""
"","","","","","many-guess-6","119","462004","0.0-10.0-0.50-0.50","570b7b5fb9b52b00102d96f9","640759fa512f630a2bdc333d","6408c17ef3abdad510a25269","[1631]","","","[5,26,3,14,33,21,0,15,23,13,22,4,9,30,32,10,34,6,12,18,20,19,35,11,1,2,8,7,29,25,24,27,28,16,17,31]","[349,29,69,339,289,209,329,269,189,39,79,259,139,299,319,119,199,99,279,229,179,169,219,89,9,49,19,159,149,309,129,59,359,249,239,109]","349","147","69.64318719775927","[69.64318719775927]","[282.6431871977593]","[281]","[210,300,120,120,30,210,120,120,30]","0","36","0","149.21999999997206","25.55999999999767","16","[[[""img/mask30.png""],[""img/mask39.png""],[""img/mask15.png""],[""img/mask46.png""],[""img/mask90.png""],[""img/mask38.png""],[""img/mask23.png""],[""img/mask87.png""],[""img/mask92.png""],[""img/mask69.png""],[""img/mask5.png""],[""img/mask12.png""],[""img/mask74.png""],[""img/mask72.png""],[""img/mask10.png""],[""img/mask75.png""],[""img/mask16.png""],[""img/mask21.png""],[""img/mask64.png""],[""img/mask96.png""],[""img/mask38.png""],[""img/mask58.png""],[""img/mask74.png""],[""img/mask91.png""],[""img/mask30.png""],[""img/mask38.png""],[""img/mask33.png""],[""img/mask51.png""],[""img/mask67.png""],[""img/mask49.png""],[""img/mask92.png""],[""img/mask94.png""],[""img/mask48.png""],[""img/mask41.png""],[""img/mask96.png""],[""img/mask86.png""]]]","","[5,26,3,14,33,21,0,15,23,13,22,4,9,30,32,10,34,6,12,18,20,19,35,11,1,2,8,7,29,25,24,27,28,16,17,31]","main","147","many-guess-6"
"","","","","","html-keyboard-response","120","462514","0.0-10.0-1.50","570b7b5fb9b52b00102d96f9","640759fa512f630a2bdc333d","6408c17ef3abdad510a25269","null","","null","","","","","","","","","","","","","","","","","","","fixation","",""
"","","","","","many-guess-6","121","465462","0.0-10.0-0.51-0.51","570b7b5fb9b52b00102d96f9","640759fa512f630a2bdc333d","6408c17ef3abdad510a25269","[1470]","","","[3,6,1,21,10,20,19,26,13,7,35,17,18,11,32,23,12,8,29,24,0,5,34,4,2,33,14,25,31,22,28,15,27,9,16,30]","[210,310,130,180,250,280,41,31,70,1,300,51,100,90,240,350,270,220,200,290,110,320,340,230,150,190,21,160,61,140,80,330,11,170,120,260]","210","201","197.1769693165012","[197.1769693165012]","[356.1769693165012]","[356]","[300,210,30,210,120,300,120,300,300]","0","36","0","147.85999999998603","23.20000000001164","16","[[[""img/mask27.png""],[""img/mask62.png""],[""img/mask41.png""],[""img/mask85.png""],[""img/mask73.png""],[""img/mask82.png""],[""img/mask79.png""],[""img/mask49.png""],[""img/mask24.png""],[""img/mask23.png""],[""img/mask16.png""],[""img/mask32.png""],[""img/mask44.png""],[""img/mask86.png""],[""img/mask55.png""],[""img/mask62.png""],[""img/mask86.png""],[""img/mask34.png""],[""img/mask10.png""],[""img/mask65.png""],[""img/mask65.png""],[""img/mask82.png""],[""img/mask19.png""],[""img/mask12.png""],[""img/mask86.png""],[""img/mask24.png""],[""img/mask46.png""],[""img/mask24.png""],[""img/mask35.png""],[""img/mask3.png""],[""img/mask64.png""],[""img/mask37.png""],[""img/mask9.png""],[""img/mask17.png""],[""img/mask9.png""],[""img/mask17.png""]]]","","[3,6,1,21,10,20,19,26,13,7,35,17,18,11,32,23,12,8,29,24,0,5,34,4,2,33,14,25,31,22,28,15,27,9,16,30]","main","201","many-guess-6"
"","","","","","html-keyboard-response","122","465965","0.0-10.0-1.51","570b7b5fb9b52b00102d96f9","640759fa512f630a2bdc333d","6408c17ef3abdad510a25269","null","","null","","","","","","","","","","","","","","","","","","","fixation","",""
"","","","","","color-precision2","123","468847","0.0-10.0-0.52-0.52","570b7b5fb9b52b00102d96f9","640759fa512f630a2bdc333d","6408c17ef3abdad510a25269","[452]","","","[21]","[314]","314","24","340.4073682918855","[340.4073682918855]","[316.4073682918855]","[317]","0","0","1","0","148.78000000002794","998.1199999999953","1000","[[[""img/mask89.png""]]]","","","main","24","color-precision2"
"","","","","","html-keyboard-response","124","469349","0.0-10.0-1.52","570b7b5fb9b52b00102d96f9","640759fa512f630a2bdc333d","6408c17ef3abdad510a25269","null","","null","","","","","","","","","","","","","","","","","","","fixation","",""
"","","","","","many-guess-6","125","473086","0.0-10.0-0.53-0.53","570b7b5fb9b52b00102d96f9","640759fa512f630a2bdc333d","6408c17ef3abdad510a25269","[2088]","","","[30,5,13,6,9,31,19,32,2,17,8,12,33,16,27,1,0,35,34,23,14,28,29,4,24,3,10,21,11,26,22,25,7,18,15,20]","[330,170,200,180,300,270,40,100,120,21,1,80,110,60,70,250,190,260,350,130,30,11,280,90,290,340,210,220,310,320,140,160,240,150,50,230]","330","54","278.38578946197094","[278.38578946197094]","[224.38578946197094]","[224]","[30,210,30,120,300,210,210,30,30]","0","36","0","148.7399999999907","20.080000000016298","16","[[[""img/mask54.png""],[""img/mask58.png""],[""img/mask98.png""],[""img/mask11.png""],[""img/mask51.png""],[""img/mask30.png""],[""img/mask95.png""],[""img/mask25.png""],[""img/mask45.png""],[""img/mask85.png""],[""img/mask88.png""],[""img/mask72.png""],[""img/mask85.png""],[""img/mask43.png""],[""img/mask28.png""],[""img/mask40.png""],[""img/mask43.png""],[""img/mask38.png""],[""img/mask11.png""],[""img/mask4.png""],[""img/mask89.png""],[""img/mask93.png""],[""img/mask15.png""],[""img/mask54.png""],[""img/mask28.png""],[""img/mask83.png""],[""img/mask70.png""],[""img/mask26.png""],[""img/mask64.png""],[""img/mask40.png""],[""img/mask46.png""],[""img/mask50.png""],[""img/mask74.png""],[""img/mask50.png""],[""img/mask68.png""],[""img/mask90.png""]]]","","[30,5,13,6,9,31,19,32,2,17,8,12,33,16,27,1,0,35,34,23,14,28,29,4,24,3,10,21,11,26,22,25,7,18,15,20]","main","54","many-guess-6"
"","","","","","html-keyboard-response","126","473593","0.0-10.0-1.53","570b7b5fb9b52b00102d96f9","640759fa512f630a2bdc333d","6408c17ef3abdad510a25269","null","","null","","","","","","","","","","","","","","","","","","","fixation","",""
"","","","","","many-guess-6","127","476370","0.0-10.0-0.54-0.54","570b7b5fb9b52b00102d96f9","640759fa512f630a2bdc333d","6408c17ef3abdad510a25269","[1319]","","","[25,29,27,16,12,2,0,23,18,35,1,26,5,34,33,10,7,17,11,30,28,8,14,21,13,32,31,6,19,22,4,15,9,3,20,24]","[3,103,132,53,23,113,152,352,292,172,232,312,73,123,162,332,242,83,182,63,33,302,13,192,212,202,43,93,142,322,252,342,262,222,272,282]","3","226","346.64175033543","[346.64175033543]","[120.64175033543]","[120]","[210,210,30,210,300,300,210,120,120]","0","36","0","148.6599999999744","24","16","[[[""img/mask7.png""],[""img/mask82.png""],[""img/mask2.png""],[""img/mask36.png""],[""img/mask79.png""],[""img/mask17.png""],[""img/mask71.png""],[""img/mask28.png""],[""img/mask12.png""],[""img/mask85.png""],[""img/mask27.png""],[""img/mask52.png""],[""img/mask51.png""],[""img/mask17.png""],[""img/mask44.png""],[""img/mask83.png""],[""img/mask2.png""],[""img/mask29.png""],[""img/mask96.png""],[""img/mask97.png""],[""img/mask55.png""],[""img/mask25.png""],[""img/mask74.png""],[""img/mask5.png""],[""img/mask5.png""],[""img/mask43.png""],[""img/mask75.png""],[""img/mask93.png""],[""img/mask15.png""],[""img/mask28.png""],[""img/mask57.png""],[""img/mask8.png""],[""img/mask25.png""],[""img/mask10.png""],[""img/mask98.png""],[""img/mask33.png""]]]","","[25,29,27,16,12,2,0,23,18,35,1,26,5,34,33,10,7,17,11,30,28,8,14,21,13,32,31,6,19,22,4,15,9,3,20,24]","main","226","many-guess-6"
"","","","","","html-keyboard-response","128","476882","0.0-10.0-1.54","570b7b5fb9b52b00102d96f9","640759fa512f630a2bdc333d","6408c17ef3abdad510a25269","null","","null","","","","","","","","","","","","","","","","","","","fixation","",""
"","","","","","many-guess-6","129","479728","0.0-10.0-0.55-0.55","570b7b5fb9b52b00102d96f9","640759fa512f630a2bdc333d","6408c17ef3abdad510a25269","[1524]","","","[28,9,4,26,31,1,11,35,29,6,19,3,10,17,2,13,5,14,21,0,20,32,30,33,8,22,15,34,7,25,24,16,27,23,18,12]","[329,239,309,39,349,219,149,339,159,358,79,259,199,169,89,179,139,109,249,299,129,119,9,289,59,69,209,279,19,269,229,49,189,99,319,29]","329","181","160.61271672301427","[160.61271672301427]","[339.6127167230143]","[338]","[120,300,210,120,30,30,120,210,120]","0","36","0","148.64000000001397","22.960000000020955","16","[[[""img/mask57.png""],[""img/mask9.png""],[""img/mask91.png""],[""img/mask26.png""],[""img/mask59.png""],[""img/mask95.png""],[""img/mask83.png""],[""img/mask74.png""],[""img/mask57.png""],[""img/mask91.png""],[""img/mask79.png""],[""img/mask88.png""],[""img/mask14.png""],[""img/mask45.png""],[""img/mask8.png""],[""img/mask41.png""],[""img/mask40.png""],[""img/mask94.png""],[""img/mask66.png""],[""img/mask89.png""],[""img/mask95.png""],[""img/mask34.png""],[""img/mask43.png""],[""img/mask8.png""],[""img/mask42.png""],[""img/mask92.png""],[""img/mask52.png""],[""img/mask20.png""],[""img/mask27.png""],[""img/mask72.png""],[""img/mask40.png""],[""img/mask19.png""],[""img/mask99.png""],[""img/mask64.png""],[""img/mask77.png""],[""img/mask83.png""]]]","","[28,9,4,26,31,1,11,35,29,6,19,3,10,17,2,13,5,14,21,0,20,32,30,33,8,22,15,34,7,25,24,16,27,23,18,12]","main","181","many-guess-6"
"","","","","","html-keyboard-response","130","480229","0.0-10.0-1.55","570b7b5fb9b52b00102d96f9","640759fa512f630a2bdc333d","6408c17ef3abdad510a25269","null","","null","","","","","","","","","","","","","","","","","","","fixation","",""
"","","","","","many-guess-6","131","483209","0.0-10.0-0.56-0.56","570b7b5fb9b52b00102d96f9","640759fa512f630a2bdc333d","6408c17ef3abdad510a25269","[1553]","","","[0,29,3,33,20,5,1,2,4,34,28,11,22,26,19,15,16,7,13,32,9,31,8,12,25,18,35,6,23,21,24,17,14,27,10,30]","[287,8,28,78,317,38,68,227,148,48,158,277,218,297,347,208,188,108,128,307,58,337,178,138,257,88,247,118,357,198,267,18,98,168,237,327]","287","233","90.8572850287463","[90.8572850287463]","[217.8572850287463]","[216]","[210,30,300,30,30,120,120,300,300]","0","36","0","149.53999999997905","12.880000000004657","16","[[[""img/mask96.png""],[""img/mask24.png""],[""img/mask68.png""],[""img/mask13.png""],[""img/mask2.png""],[""img/mask39.png""],[""img/mask64.png""],[""img/mask46.png""],[""img/mask80.png""],[""img/mask42.png""],[""img/mask12.png""],[""img/mask20.png""],[""img/mask20.png""],[""img/mask18.png""],[""img/mask87.png""],[""img/mask22.png""],[""img/mask43.png""],[""img/mask76.png""],[""img/mask93.png""],[""img/mask98.png""],[""img/mask44.png""],[""img/mask4.png""],[""img/mask63.png""],[""img/mask45.png""],[""img/mask2.png""],[""img/mask65.png""],[""img/mask95.png""],[""img/mask52.png""],[""img/mask40.png""],[""img/mask26.png""],[""img/mask46.png""],[""img/mask63.png""],[""img/mask97.png""],[""img/mask5.png""],[""img/mask69.png""],[""img/mask75.png""]]]","","[0,29,3,33,20,5,1,2,4,34,28,11,22,26,19,15,16,7,13,32,9,31,8,12,25,18,35,6,23,21,24,17,14,27,10,30]","main","233","many-guess-6"
"","","","","","html-keyboard-response","132","483722","0.0-10.0-1.56","570b7b5fb9b52b00102d96f9","640759fa512f630a2bdc333d","6408c17ef3abdad510a25269","null","","null","","","","","","","","","","","","","","","","","","","fixation","",""
"","","","","","color-precision2","133","486377","0.0-10.0-0.57-0.57","570b7b5fb9b52b00102d96f9","640759fa512f630a2bdc333d","6408c17ef3abdad510a25269","[384]","","","[6]","[92]","92","311","33.77998802607578","[33.77998802607578]","[82.77998802607578]","[81]","0","0","1","0","149.82000000000698","992.140000000014","1000","[[[""img/mask64.png""]]]","","","main","311","color-precision2"
"","","","","","html-keyboard-response","134","486882","0.0-10.0-1.57","570b7b5fb9b52b00102d96f9","640759fa512f630a2bdc333d","6408c17ef3abdad510a25269","null","","null","","","","","","","","","","","","","","","","","","","fixation","",""
"","","","","","color-precision2","135","489817","0.0-10.0-0.58-0.58","570b7b5fb9b52b00102d96f9","640759fa512f630a2bdc333d","6408c17ef3abdad510a25269","[387]","","","[14]","[17]","17","130","143.22631302319087","[143.22631302319087]","[13.226313023190869]","[12]","0","0","1","0","149.09999999997672","1007.4400000000023","1000","[[[""img/mask67.png""]]]","","","main","130","color-precision2"
"","","","","","html-keyboard-response","136","490321","0.0-10.0-1.58","570b7b5fb9b52b00102d96f9","640759fa512f630a2bdc333d","6408c17ef3abdad510a25269","null","","null","","","","","","","","","","","","","","","","","","","fixation","",""
"","","","","","color-precision2","137","493043","0.0-10.0-0.59-0.59","570b7b5fb9b52b00102d96f9","640759fa512f630a2bdc333d","6408c17ef3abdad510a25269","[244]","","","[23]","[163]","163","288","","[null]","[null]","[165]","0","0","1","0","148.7399999999907","999.0800000000163","1000","[[[""img/mask75.png""]]]","","","main","288","color-precision2"
"","","","","","html-keyboard-response","138","503037","0.0-10.0-1.59","570b7b5fb9b52b00102d96f9","640759fa512f630a2bdc333d","6408c17ef3abdad510a25269","9994","Wow! You've completed 60 out of 180 trials! </p> <p>  </p><p> Take a quick break, then press any key when you're ready to continue."," ","","","","","","","","","","","","","","","","","","","fixation","",""
"","","","","","color-precision2","139","506447","0.0-10.0-0.60-0.60","570b7b5fb9b52b00102d96f9","640759fa512f630a2bdc333d","6408c17ef3abdad510a25269","[637]","","","[12]","[218]","218","1","222.1185961120615","[222.1185961120615]","[221.1185961120615]","[221]","0","0","1","0","148.2600000000093","1006.5800000000163","1000","[[[""img/mask11.png""]]]","","","main","1","color-precision2"
"","","","","","html-keyboard-response","140","506949","0.0-10.0-1.60","570b7b5fb9b52b00102d96f9","640759fa512f630a2bdc333d","6408c17ef3abdad510a25269","null","","null","","","","","","","","","","","","","","","","","","","fixation","",""
"","","","","","many-guess-6","141","509818","0.0-10.0-0.61-0.61","570b7b5fb9b52b00102d96f9","640759fa512f630a2bdc333d","6408c17ef3abdad510a25269","[1489]","","","[35,30,25,31,18,9,34,24,29,4,21,6,26,12,1,15,3,14,17,16,8,0,5,28,11,32,13,22,2,33,23,27,10,19,20,7]","[15,105,305,235,145,65,344,75,225,324,5,275,195,165,175,265,245,285,25,215,315,295,45,125,155,35,115,135,185,205,95,55,354,255,334,85]","15","54","177.23523849861155","[177.23523849861155]","[123.23523849861155]","[122]","[210,30,30,210,120,300,120,300,30]","0","36","0","148.88000000000466","20.21999999997206","16","[[[""img/mask59.png""],[""img/mask67.png""],[""img/mask6.png""],[""img/mask58.png""],[""img/mask69.png""],[""img/mask78.png""],[""img/mask13.png""],[""img/mask24.png""],[""img/mask49.png""],[""img/mask5.png""],[""img/mask49.png""],[""img/mask50.png""],[""img/mask76.png""],[""img/mask48.png""],[""img/mask93.png""],[""img/mask96.png""],[""img/mask92.png""],[""img/mask97.png""],[""img/mask50.png""],[""img/mask60.png""],[""img/mask43.png""],[""img/mask70.png""],[""img/mask64.png""],[""img/mask81.png""],[""img/mask47.png""],[""img/mask86.png""],[""img/mask5.png""],[""img/mask46.png""],[""img/mask52.png""],[""img/mask12.png""],[""img/mask65.png""],[""img/mask42.png""],[""img/mask36.png""],[""img/mask39.png""],[""img/mask76.png""],[""img/mask74.png""]]]","","[35,30,25,31,18,9,34,24,29,4,21,6,26,12,1,15,3,14,17,16,8,0,5,28,11,32,13,22,2,33,23,27,10,19,20,7]","main","54","many-guess-6"
"","","","","","html-keyboard-response","142","510326","0.0-10.0-1.61","570b7b5fb9b52b00102d96f9","640759fa512f630a2bdc333d","6408c17ef3abdad510a25269","null","","null","","","","","","","","","","","","","","","","","","","fixation","",""
"","","","","","many-guess-6","143","513111","0.0-10.0-0.62-0.62","570b7b5fb9b52b00102d96f9","640759fa512f630a2bdc333d","6408c17ef3abdad510a25269","[1331]","","","[33,18,20,7,11,15,5,24,23,16,32,25,6,26,0,27,17,31,19,4,10,2,29,1,3,21,22,12,28,14,8,34,13,35,30,9]","[105,145,225,215,85,66,76,36,95,16,135,46,295,345,195,185,165,205,56,275,155,26,245,115,355,6,125,235,265,315,175,305,325,335,285,255]","105","305","182.08433212279712","[182.08433212279712]","[237.08433212279712]","[236]","[30,120,300,210,120,300,300,30,30]","0","36","0","149.67999999999302","19.020000000018626","16","[[[""img/mask41.png""],[""img/mask88.png""],[""img/mask93.png""],[""img/mask61.png""],[""img/mask44.png""],[""img/mask60.png""],[""img/mask47.png""],[""img/mask81.png""],[""img/mask63.png""],[""img/mask9.png""],[""img/mask96.png""],[""img/mask46.png""],[""img/mask95.png""],[""img/mask39.png""],[""img/mask17.png""],[""img/mask91.png""],[""img/mask91.png""],[""img/mask21.png""],[""img/mask79.png""],[""img/mask100.png""],[""img/mask100.png""],[""img/mask63.png""],[""img/mask51.png""],[""img/mask81.png""],[""img/mask21.png""],[""img/mask53.png""],[""img/mask14.png""],[""img/mask96.png""],[""img/mask43.png""],[""img/mask49.png""],[""img/mask58.png""],[""img/mask28.png""],[""img/mask72.png""],[""img/mask22.png""],[""img/mask80.png""],[""img/mask53.png""]]]","","[33,18,20,7,11,15,5,24,23,16,32,25,6,26,0,27,17,31,19,4,10,2,29,1,3,21,22,12,28,14,8,34,13,35,30,9]","main","305","many-guess-6"
"","","","","","html-keyboard-response","144","513616","0.0-10.0-1.62","570b7b5fb9b52b00102d96f9","640759fa512f630a2bdc333d","6408c17ef3abdad510a25269","null","","null","","","","","","","","","","","","","","","","","","","fixation","",""
"","","","","","many-guess-6","145","517180","0.0-10.0-0.63-0.63","570b7b5fb9b52b00102d96f9","640759fa512f630a2bdc333d","6408c17ef3abdad510a25269","[1947]","","","[15,13,27,34,12,28,25,2,8,10,20,14,26,30,7,16,0,31,18,29,19,4,32,3,17,5,9,11,21,1,33,24,35,6,23,22]","[63,143,53,352,83,322,272,252,302,33,182,3,202,43,162,23,93,312,73,172,123,242,282,133,292,212,103,153,222,113,332,262,13,342,232,192]","63","201","137.0700329541668","[137.0700329541668]","[296.0700329541668]","[294]","[120,120,300,30,300,300,210,120,300]","0","36","0","148.64000000001397","14.960000000020955","16","[[[""img/mask73.png""],[""img/mask78.png""],[""img/mask63.png""],[""img/mask99.png""],[""img/mask74.png""],[""img/mask6.png""],[""img/mask13.png""],[""img/mask98.png""],[""img/mask11.png""],[""img/mask35.png""],[""img/mask88.png""],[""img/mask85.png""],[""img/mask70.png""],[""img/mask67.png""],[""img/mask53.png""],[""img/mask94.png""],[""img/mask91.png""],[""img/mask74.png""],[""img/mask63.png""],[""img/mask68.png""],[""img/mask73.png""],[""img/mask99.png""],[""img/mask10.png""],[""img/mask76.png""],[""img/mask61.png""],[""img/mask63.png""],[""img/mask28.png""],[""img/mask32.png""],[""img/mask54.png""],[""img/mask20.png""],[""img/mask1.png""],[""img/mask34.png""],[""img/mask72.png""],[""img/mask70.png""],[""img/mask19.png""],[""img/mask5.png""]]]","","[15,13,27,34,12,28,25,2,8,10,20,14,26,30,7,16,0,31,18,29,19,4,32,3,17,5,9,11,21,1,33,24,35,6,23,22]","main","201","many-guess-6"
"","","","","","html-keyboard-response","146","517683","0.0-10.0-1.63","570b7b5fb9b52b00102d96f9","640759fa512f630a2bdc333d","6408c17ef3abdad510a25269","null","","null","","","","","","","","","","","","","","","","","","","fixation","",""
"","","","","","color-precision2","147","520321","0.0-10.0-0.64-0.64","570b7b5fb9b52b00102d96f9","640759fa512f630a2bdc333d","6408c17ef3abdad510a25269","[449]","","","[3]","[67]","67","282","349.09478952623283","[349.09478952623283]","[67.09478952623283]","[67]","0","0","1","0","148.90000000002328","1007.2399999999907","1000","[[[""img/mask63.png""]]]","","","main","282","color-precision2"
"","","","","","html-keyboard-response","148","520829","0.0-10.0-1.64","570b7b5fb9b52b00102d96f9","640759fa512f630a2bdc333d","6408c17ef3abdad510a25269","null","","null","","","","","","","","","","","","","","","","","","","fixation","",""
"","","","","","many-guess-6","149","524343","0.0-10.0-0.65-0.65","570b7b5fb9b52b00102d96f9","640759fa512f630a2bdc333d","6408c17ef3abdad510a25269","[1402]","","","[3,1,26,32,22,9,27,18,11,12,8,15,7,33,2,10,0,14,17,19,23,25,4,34,16,5,35,29,28,21,6,13,31,20,30,24]","[195,335,355,305,46,325,345,86,265,26,185,76,135,225,275,145,6,56,106,165,96,155,36,255,295,175,205,115,285,245,235,16,315,125,215,66]","195","102","270.686098393916","[270.686098393916]","[168.68609839391598]","[169]","[300,120,30,300,300,30,120,300,30]","0","36","0","148.54000000003725","20.85999999998603","16","[[[""img/mask48.png""],[""img/mask68.png""],[""img/mask45.png""],[""img/mask45.png""],[""img/mask50.png""],[""img/mask77.png""],[""img/mask7.png""],[""img/mask55.png""],[""img/mask12.png""],[""img/mask100.png""],[""img/mask91.png""],[""img/mask32.png""],[""img/mask12.png""],[""img/mask48.png""],[""img/mask50.png""],[""img/mask86.png""],[""img/mask22.png""],[""img/mask10.png""],[""img/mask95.png""],[""img/mask28.png""],[""img/mask35.png""],[""img/mask41.png""],[""img/mask66.png""],[""img/mask55.png""],[""img/mask48.png""],[""img/mask30.png""],[""img/mask66.png""],[""img/mask23.png""],[""img/mask83.png""],[""img/mask44.png""],[""img/mask79.png""],[""img/mask13.png""],[""img/mask53.png""],[""img/mask65.png""],[""img/mask23.png""],[""img/mask85.png""]]]","","[3,1,26,32,22,9,27,18,11,12,8,15,7,33,2,10,0,14,17,19,23,25,4,34,16,5,35,29,28,21,6,13,31,20,30,24]","main","102","many-guess-6"
"","","","","","html-keyboard-response","150","524852","0.0-10.0-1.65","570b7b5fb9b52b00102d96f9","640759fa512f630a2bdc333d","6408c17ef3abdad510a25269","null","","null","","","","","","","","","","","","","","","","","","","fixation","",""
"","","","","","color-precision2","151","527807","0.0-10.0-0.66-0.66","570b7b5fb9b52b00102d96f9","640759fa512f630a2bdc333d","6408c17ef3abdad510a25269","[380]","","","[27]","[147]","147","170","328.34417683699775","[328.34417683699775]","[158.34417683699775]","[158]","0","0","1","0","147.78000000002794","1002.1199999999953","1000","[[[""img/mask63.png""]]]","","","main","170","color-precision2"
"","","","","","html-keyboard-response","152","528319","0.0-10.0-1.66","570b7b5fb9b52b00102d96f9","640759fa512f630a2bdc333d","6408c17ef3abdad510a25269","null","","null","","","","","","","","","","","","","","","","","","","fixation","",""
"","","","","","color-precision2","153","531379","0.0-10.0-0.67-0.67","570b7b5fb9b52b00102d96f9","640759fa512f630a2bdc333d","6408c17ef3abdad510a25269","[815]","","","[9]","[94]","94","61","161.1819171985279","[161.1819171985279]","[100.18191719852791]","[99]","0","0","1","0","150.04000000003725","1002.4000000000233","1000","[[[""img/mask18.png""]]]","","","main","61","color-precision2"
"","","","","","html-keyboard-response","154","531882","0.0-10.0-1.67","570b7b5fb9b52b00102d96f9","640759fa512f630a2bdc333d","6408c17ef3abdad510a25269","null","","null","","","","","","","","","","","","","","","","","","","fixation","",""
"","","","","","many-guess-6","155","534806","0.0-10.0-0.68-0.68","570b7b5fb9b52b00102d96f9","640759fa512f630a2bdc333d","6408c17ef3abdad510a25269","[1257]","","","[3,13,32,12,16,25,2,17,8,5,27,7,28,31,1,6,26,34,11,21,0,22,30,9,4,10,20,29,14,24,23,35,15,18,33,19]","[238,178,148,49,68,39,168,288,268,58,128,118,228,158,208,298,348,29,328,218,108,248,278,198,88,138,308,19,78,98,318,338,9,358,188,258]","238","261","240.44314745187967","[240.44314745187967]","[339.44314745187967]","[339]","[210,120,30,120,120,30,30,120,210]","0","36","0","149.3399999999674","24.680000000051223","16","[[[""img/mask20.png""],[""img/mask98.png""],[""img/mask84.png""],[""img/mask60.png""],[""img/mask76.png""],[""img/mask43.png""],[""img/mask85.png""],[""img/mask64.png""],[""img/mask20.png""],[""img/mask54.png""],[""img/mask30.png""],[""img/mask42.png""],[""img/mask67.png""],[""img/mask19.png""],[""img/mask39.png""],[""img/mask73.png""],[""img/mask30.png""],[""img/mask41.png""],[""img/mask34.png""],[""img/mask16.png""],[""img/mask45.png""],[""img/mask84.png""],[""img/mask11.png""],[""img/mask23.png""],[""img/mask33.png""],[""img/mask7.png""],[""img/mask58.png""],[""img/mask35.png""],[""img/mask62.png""],[""img/mask87.png""],[""img/mask20.png""],[""img/mask59.png""],[""img/mask61.png""],[""img/mask52.png""],[""img/mask14.png""],[""img/mask7.png""]]]","","[3,13,32,12,16,25,2,17,8,5,27,7,28,31,1,6,26,34,11,21,0,22,30,9,4,10,20,29,14,24,23,35,15,18,33,19]","main","261","many-guess-6"
"","","","","","html-keyboard-response","156","535311","0.0-10.0-1.68","570b7b5fb9b52b00102d96f9","640759fa512f630a2bdc333d","6408c17ef3abdad510a25269","null","","null","","","","","","","","","","","","","","","","","","","fixation","",""
"","","","","","many-guess-6","157","538769","0.0-10.0-0.69-0.69","570b7b5fb9b52b00102d96f9","640759fa512f630a2bdc333d","6408c17ef3abdad510a25269","[1967]","","","[17,32,30,27,8,9,3,25,34,28,0,13,21,35,4,31,5,26,18,2,12,24,23,19,15,16,33,1,10,6,11,20,29,14,7,22]","[139,90,269,159,289,229,80,70,279,30,40,189,199,100,119,209,60,20,219,169,299,110,339,10,129,149,179,359,259,239,50,349,319,309,249,329]","139","293","91.57312512682144","[91.57312512682144]","[158.57312512682142]","[157]","[120,210,30,210,300,300,120,120,300]","0","36","0","148.31999999994878","12.64000000001397","16","[[[""img/mask16.png""],[""img/mask16.png""],[""img/mask99.png""],[""img/mask34.png""],[""img/mask22.png""],[""img/mask38.png""],[""img/mask69.png""],[""img/mask11.png""],[""img/mask5.png""],[""img/mask44.png""],[""img/mask54.png""],[""img/mask89.png""],[""img/mask64.png""],[""img/mask29.png""],[""img/mask74.png""],[""img/mask48.png""],[""img/mask82.png""],[""img/mask48.png""],[""img/mask36.png""],[""img/mask19.png""],[""img/mask96.png""],[""img/mask68.png""],[""img/mask50.png""],[""img/mask74.png""],[""img/mask21.png""],[""img/mask74.png""],[""img/mask11.png""],[""img/mask26.png""],[""img/mask28.png""],[""img/mask48.png""],[""img/mask95.png""],[""img/mask26.png""],[""img/mask96.png""],[""img/mask68.png""],[""img/mask33.png""],[""img/mask55.png""]]]","","[17,32,30,27,8,9,3,25,34,28,0,13,21,35,4,31,5,26,18,2,12,24,23,19,15,16,33,1,10,6,11,20,29,14,7,22]","main","293","many-guess-6"
"","","","","","html-keyboard-response","158","539281","0.0-10.0-1.69","570b7b5fb9b52b00102d96f9","640759fa512f630a2bdc333d","6408c17ef3abdad510a25269","null","","null","","","","","","","","","","","","","","","","","","","fixation","",""
"","","","","","color-precision2","159","541812","0.0-10.0-0.70-0.70","570b7b5fb9b52b00102d96f9","640759fa512f630a2bdc333d","6408c17ef3abdad510a25269","[90]","","","[28]","[331]","331","18","","[null]","[null]","[333]","0","0","1","0","147.90000000002328","996.2399999999907","1000","[[[""img/mask51.png""]]]","","","main","18","color-precision2"
"","","","","","html-keyboard-response","160","542314","0.0-10.0-1.70","570b7b5fb9b52b00102d96f9","640759fa512f630a2bdc333d","6408c17ef3abdad510a25269","null","","null","","","","","","","","","","","","","","","","","","","fixation","",""
"","","","","","color-precision2","161","544768","0.0-10.0-0.71-0.71","570b7b5fb9b52b00102d96f9","640759fa512f630a2bdc333d","6408c17ef3abdad510a25269","[226]","","","[24]","[52]","52","20","","[null]","[null]","[52]","0","0","1","0","148.52000000001863","991.859999999986","1000","[[[""img/mask32.png""]]]","","","main","20","color-precision2"
"","","","","","html-keyboard-response","162","545278","0.0-10.0-1.71","570b7b5fb9b52b00102d96f9","640759fa512f630a2bdc333d","6408c17ef3abdad510a25269","null","","null","","","","","","","","","","","","","","","","","","","fixation","",""
"","","","","","color-precision2","163","548578","0.0-10.0-0.72-0.72","570b7b5fb9b52b00102d96f9","640759fa512f630a2bdc333d","6408c17ef3abdad510a25269","[967]","","","[21]","[125]","125","218","342.18910356456223","[342.18910356456223]","[124.18910356456223]","[125]","0","0","1","0","149","1003.3399999999674","1000","[[[""img/mask36.png""]]]","","","main","218","color-precision2"
"","","","","","html-keyboard-response","164","549090","0.0-10.0-1.72","570b7b5fb9b52b00102d96f9","640759fa512f630a2bdc333d","6408c17ef3abdad510a25269","null","","null","","","","","","","","","","","","","","","","","","","fixation","",""
"","","","","","color-precision2","165","551576","0.0-10.0-0.73-0.73","570b7b5fb9b52b00102d96f9","640759fa512f630a2bdc333d","6408c17ef3abdad510a25269","[144]","","","[35]","[22]","22","304","","[null]","[null]","[13]","0","0","1","0","148.61999999999534","999.9599999999627","1000","[[[""img/mask96.png""]]]","","","main","304","color-precision2"
"","","","","","html-keyboard-response","166","552082","0.0-10.0-1.73","570b7b5fb9b52b00102d96f9","640759fa512f630a2bdc333d","6408c17ef3abdad510a25269","null","","null","","","","","","","","","","","","","","","","","","","fixation","",""
"","","","","","color-precision2","167","555599","0.0-10.0-0.74-0.74","570b7b5fb9b52b00102d96f9","640759fa512f630a2bdc333d","6408c17ef3abdad510a25269","[466]","","","[34]","[319]","319","69","33.11773414332232","[33.11773414332232]","[324.1177341433223]","[323]","0","0","1","0","148.56000000005588","995.8800000000047","1000","[[[""img/mask16.png""]]]","","","main","69","color-precision2"
"","","","","","html-keyboard-response","168","556107","0.0-10.0-1.74","570b7b5fb9b52b00102d96f9","640759fa512f630a2bdc333d","6408c17ef3abdad510a25269","null","","null","","","","","","","","","","","","","","","","","","","fixation","",""
"","","","","","many-guess-6","169","560010","0.0-10.0-0.75-0.75","570b7b5fb9b52b00102d96f9","640759fa512f630a2bdc333d","6408c17ef3abdad510a25269","[2374]","","","[22,5,0,31,29,9,26,8,15,21,4,13,14,35,16,25,1,23,24,11,12,28,33,18,17,3,6,30,19,27,2,32,10,20,34,7]","[286,326,316,226,146,27,136,346,106,166,47,356,17,126,156,206,276,186,296,246,96,306,37,236,266,86,176,57,336,116,216,7,76,256,66,196]","286","14","159.4990756783136","[159.4990756783136]","[145.4990756783136]","[144]","[300,210,210,120,120,210,210,30,30]","0","36","0","149.52000000001863","12.839999999967404","16","[[[""img/mask29.png""],[""img/mask11.png""],[""img/mask91.png""],[""img/mask65.png""],[""img/mask77.png""],[""img/mask39.png""],[""img/mask77.png""],[""img/mask95.png""],[""img/mask70.png""],[""img/mask91.png""],[""img/mask94.png""],[""img/mask31.png""],[""img/mask48.png""],[""img/mask18.png""],[""img/mask44.png""],[""img/mask92.png""],[""img/mask16.png""],[""img/mask60.png""],[""img/mask66.png""],[""img/mask68.png""],[""img/mask99.png""],[""img/mask29.png""],[""img/mask26.png""],[""img/mask94.png""],[""img/mask98.png""],[""img/mask90.png""],[""img/mask3.png""],[""img/mask93.png""],[""img/mask93.png""],[""img/mask76.png""],[""img/mask36.png""],[""img/mask60.png""],[""img/mask96.png""],[""img/mask29.png""],[""img/mask12.png""],[""img/mask13.png""]]]","","[22,5,0,31,29,9,26,8,15,21,4,13,14,35,16,25,1,23,24,11,12,28,33,18,17,3,6,30,19,27,2,32,10,20,34,7]","main","14","many-guess-6"
"","","","","","html-keyboard-response","170","560515","0.0-10.0-1.75","570b7b5fb9b52b00102d96f9","640759fa512f630a2bdc333d","6408c17ef3abdad510a25269","null","","null","","","","","","","","","","","","","","","","","","","fixation","",""
"","","","","","color-precision2","171","564193","0.0-10.0-0.76-0.76","570b7b5fb9b52b00102d96f9","640759fa512f630a2bdc333d","6408c17ef3abdad510a25269","[1336]","","","[15]","[138]","138","288","74.8743683919243","[74.8743683919243]","[146.8743683919243]","[145]","0","0","1","0","148.11999999999534","999.4599999999627","1000","[[[""img/mask15.png""]]]","","","main","288","color-precision2"
"","","","","","html-keyboard-response","172","564702","0.0-10.0-1.76","570b7b5fb9b52b00102d96f9","640759fa512f630a2bdc333d","6408c17ef3abdad510a25269","null","","null","","","","","","","","","","","","","","","","","","","fixation","",""
"","","","","","color-precision2","173","567686","0.0-10.0-0.77-0.77","570b7b5fb9b52b00102d96f9","640759fa512f630a2bdc333d","6408c17ef3abdad510a25269","[275]","","","[11]","[101]","101","234","333.42544758921485","[333.42544758921485]","[99.42544758921485]","[101]","0","0","1","0","148.02000000001863","996.359999999986","1000","[[[""img/mask29.png""]]]","","","main","234","color-precision2"
"","","","","","html-keyboard-response","174","568198","0.0-10.0-1.77","570b7b5fb9b52b00102d96f9","640759fa512f630a2bdc333d","6408c17ef3abdad510a25269","null","","null","","","","","","","","","","","","","","","","","","","fixation","",""
"","","","","","color-precision2","175","570817","0.0-10.0-0.78-0.78","570b7b5fb9b52b00102d96f9","640759fa512f630a2bdc333d","6408c17ef3abdad510a25269","[203]","","","[28]","[87]","87","253","339.63511534393473","[339.63511534393473]","[86.63511534393473]","[87]","0","0","1","0","147.97999999998137","997.3199999999488","1000","[[[""img/mask38.png""]]]","","","main","253","color-precision2"
"","","","","","html-keyboard-response","176","571324","0.0-10.0-1.78","570b7b5fb9b52b00102d96f9","640759fa512f630a2bdc333d","6408c17ef3abdad510a25269","null","","null","","","","","","","","","","","","","","","","","","","fixation","",""
"","","","","","color-precision2","177","574084","0.0-10.0-0.79-0.79","570b7b5fb9b52b00102d96f9","640759fa512f630a2bdc333d","6408c17ef3abdad510a25269","[468]","","","[22]","[337]","337","295","270.54734650622936","[270.54734650622936]","[335.54734650622936]","[337]","0","0","1","0","149.90000000002328","1000.2399999999907","1000","[[[""img/mask84.png""]]]","","","main","295","color-precision2"
"","","","","","html-keyboard-response","178","604994","0.0-10.0-1.79","570b7b5fb9b52b00102d96f9","640759fa512f630a2bdc333d","6408c17ef3abdad510a25269","30910","Wow! You've completed 80 out of 180 trials! </p> <p>  </p><p> Take a quick break, then press any key when you're ready to continue."," ","","","","","","","","","","","","","","","","","","","fixation","",""
"","","","","","many-guess-6","179","608407","0.0-10.0-0.80-0.80","570b7b5fb9b52b00102d96f9","640759fa512f630a2bdc333d","6408c17ef3abdad510a25269","[1263]","","","[20,28,10,13,34,18,11,2,27,26,3,14,16,31,24,9,32,33,0,6,5,17,1,4,22,7,15,8,30,19,21,12,23,35,25,29]","[74,343,34,64,264,303,164,24,144,114,234,204,284,244,194,333,274,134,104,214,174,323,353,313,84,124,14,54,154,44,94,184,224,293,254,4]","74","356","257.9142006195475","[257.9142006195475]","[261.9142006195475]","[263]","[300,300,300,120,300,300,210,210,30]","0","36","0","149","14.339999999967404","16","[[[""img/mask61.png""],[""img/mask38.png""],[""img/mask77.png""],[""img/mask91.png""],[""img/mask10.png""],[""img/mask100.png""],[""img/mask76.png""],[""img/mask75.png""],[""img/mask56.png""],[""img/mask57.png""],[""img/mask21.png""],[""img/mask33.png""],[""img/mask89.png""],[""img/mask12.png""],[""img/mask94.png""],[""img/mask56.png""],[""img/mask9.png""],[""img/mask37.png""],[""img/mask54.png""],[""img/mask17.png""],[""img/mask34.png""],[""img/mask51.png""],[""img/mask23.png""],[""img/mask9.png""],[""img/mask51.png""],[""img/mask97.png""],[""img/mask1.png""],[""img/mask24.png""],[""img/mask24.png""],[""img/mask47.png""],[""img/mask24.png""],[""img/mask27.png""],[""img/mask51.png""],[""img/mask27.png""],[""img/mask22.png""],[""img/mask11.png""]]]","","[20,28,10,13,34,18,11,2,27,26,3,14,16,31,24,9,32,33,0,6,5,17,1,4,22,7,15,8,30,19,21,12,23,35,25,29]","main","356","many-guess-6"
"","","","","","html-keyboard-response","180","608918","0.0-10.0-1.80","570b7b5fb9b52b00102d96f9","640759fa512f630a2bdc333d","6408c17ef3abdad510a25269","null","","null","","","","","","","","","","","","","","","","","","","fixation","",""
