"success","timeout","failed_images","failed_audio","failed_video","trial_type","trial_index","time_elapsed","internal_node_id","subject_id","study_id","session_id","rt","stimulus","response","position_of_items","colors_of_items","color_of_target","wheel_spin","response_angle","physical_response_angle","reported_color_angle","reported_color_discrete","locs","which_test","set_size","wheel_num_options","actual_mask_duration","actual_stim_duration","CMDispTime","maskArray","maskRotation","item_positions","task","randomSpinAmount","mainTask"
"true","false","[]","[]","[]","preload","0","2038","0.0-0.0","578b5756160201000103fe40","640759fa512f630a2bdc333d","64077cebe938bc776f9bb271","","","","","","","","","","","","","","","","","","","","","","","",""
"true","","","","","fullscreen","1","4265","0.0-1.0","578b5756160201000103fe40","640759fa512f630a2bdc333d","64077cebe938bc776f9bb271","","","","","","","","","","","","","","","","","","","","","","","",""
"","","","","","html-keyboard-response","2","6839","0.0-2.0","578b5756160201000103fe40","640759fa512f630a2bdc333d","64077cebe938bc776f9bb271","2571","What a beautiful Tuesday to do some awesome science! </p> <p>  </p><p> </p>
    By completing this survey or questionnaire, you are consenting to be in this research study. </p>
    Your participation is voluntary and you can stop at any time.<p> [Press any key to continue] </p>"," ","","","","","","","","","","","","","","","","","","","","",""
"","","","","","html-keyboard-response","3","16846","0.0-3.0","578b5756160201000103fe40","640759fa512f630a2bdc333d","64077cebe938bc776f9bb271","5165","
    <div style='width: 1000px;'>
    <div style='float: center;'><img src='img/TaskInstructions1.png'></img>
    </div>
    "," ","","","","","","","","","","","","","","","","","","","","",""
"","","","","","html-keyboard-response","4","17357","0.0-4.0","578b5756160201000103fe40","640759fa512f630a2bdc333d","64077cebe938bc776f9bb271","510","
    <div style='width: 1000px;'>
    <div style='float: center;'><img src='img/TaskInstructions1.png'></img>
    </div>
    ","enter","","","","","","","","","","","","","","","","","","","","",""
"","","","","","html-keyboard-response","5","27364","0.0-5.0","578b5756160201000103fe40","640759fa512f630a2bdc333d","64077cebe938bc776f9bb271","86","
    <div style='width: 1000px;'>
    <div style='float: center;'><img src='img/TaskInstructions2.png'></img>
    </div>
    ","enter","","","","","","","","","","","","","","","","","","","","",""
"","","","","","html-keyboard-response","6","34390","0.0-6.0","578b5756160201000103fe40","640759fa512f630a2bdc333d","64077cebe938bc776f9bb271","7024","
    <div style='width: 1000px;'>
    <div style='float: center;'><img src='img/TaskInstructions2.png'></img>
    </div>
    ","enter","","","","","","","","","","","","","","","","","","","","",""
"","","","","","video-keyboard-response","7","43974","0.0-7.0","578b5756160201000103fe40","640759fa512f630a2bdc333d","64077cebe938bc776f9bb271","9566","[""video/TaskInstructions3.mp4""]","enter","","","","","","","","","","","","","","","","","","","","",""
"","","","","","image-keyboard-response","8","48005","0.0-8.0-0.0","578b5756160201000103fe40","640759fa512f630a2bdc333d","64077cebe938bc776f9bb271","4030","img/training1.png","enter","","","","","","","","","","","","","","","","","","","","",""
"","","","","","color-precision2","9","58129","0.0-8.0-1.0-0.0","578b5756160201000103fe40","640759fa512f630a2bdc333d","64077cebe938bc776f9bb271","[4082]","","","[22]","[177]","177","261","81.23183197384442","[81.23183197384442]","[180.2318319738444]","[178]","0","0","1","0","499.90000000000146","1008.2200000000012","1000","","","0","training","",""
"","","","","","image-keyboard-response","10","61150","0.0-8.0-0.1","578b5756160201000103fe40","640759fa512f630a2bdc333d","64077cebe938bc776f9bb271","3019","img/training2.png"," ","","","","","","","","","","","","","","","","","","","","",""
"","","","","","many-guess-6","11","67831","0.0-8.0-1.1-0.1","578b5756160201000103fe40","640759fa512f630a2bdc333d","64077cebe938bc776f9bb271","[1785]","","","[26,0,28]","[47,77,28]","47","339","358.1920651888128","[358.1920651888128]","[19.19206518881282]","[19]","[210,210,300,120,210,210,300,30,120,300,30,300,210,120,120,30,300,30,300,210,210,120,210,210,210,210,300,120,300,300,120,30,120,30,120,120]","0","3","0","999.7599999999948","997.1000000000058","1000","[[[""img/mask46.png""],[""img/mask71.png""],[""img/mask59.png""]]]","","[26,0,28]","training","",""
"","","","","","image-keyboard-response","12","72044","0.0-8.0-0.2","578b5756160201000103fe40","640759fa512f630a2bdc333d","64077cebe938bc776f9bb271","4212","img/training3.png","enter","","","","","","","","","","","","","","","","","","","","",""
"","","","","","[""many-guess-6""]","13","77285","0.0-8.0-1.2-0.2","578b5756160201000103fe40","640759fa512f630a2bdc333d","64077cebe938bc776f9bb271","[2354]","","","[24,5,34,16,13]","[330,250,192,168,269]","330","36","46.23443723140171","[46.23443723140171]","[10.234437231401706]","[9]","[30,30,210,210,120,300,30,120,300,120,210,30,120,30,210,300,210,120,210,30,210,300,120,30,300,120,210,300,300,210,120,300,30,210,210,30]","0","5","0","500.0599999999977","499.3999999999942","500","[[[""img/mask40.png""],[""img/mask87.png""],[""img/mask93.png""],[""img/mask67.png""],[""img/mask69.png""]]]","","[24,5,34,16,13]","training","",""
"","","","","","image-keyboard-response","14","79861","0.0-8.0-0.3","578b5756160201000103fe40","640759fa512f630a2bdc333d","64077cebe938bc776f9bb271","2574","img/training4.png","enter","","","","","","","","","","","","","","","","","","","","",""
"","","","","","[""many-guess-6""]","15","83986","0.0-8.0-1.3-0.3","578b5756160201000103fe40","640759fa512f630a2bdc333d","64077cebe938bc776f9bb271","[1839]","","","[6,19,0,33,34,15,18,4,16,7]","[131,62,96,275,241,252,225,35,191,163]","131","15","116.58353371263877","[116.58353371263877]","[101.58353371263877]","[100]","[210,210,120,210,210,210,210,30,120,300,30,30,120,210,300,120,300,300,120,300,120,300,120,210,210,30,210,300,120,210,30,300,120,210,30,30]","0","10","0","132.6999999999971","129.74000000000524","132","[[[""img/mask7.png""],[""img/mask93.png""],[""img/mask11.png""],[""img/mask28.png""],[""img/mask63.png""],[""img/mask13.png""],[""img/mask67.png""],[""img/mask30.png""],[""img/mask95.png""],[""img/mask49.png""]]]","","[6,19,0,33,34,15,18,4,16,7]","training","",""
"","","","","","image-keyboard-response","16","86244","0.0-8.0-0.4","578b5756160201000103fe40","640759fa512f630a2bdc333d","64077cebe938bc776f9bb271","2256","img/training5.png","enter","","","","","","","","","","","","","","","","","","","","",""
"","","","","","[""many-guess-6""]","17","90401","0.0-8.0-1.4-0.4","578b5756160201000103fe40","640759fa512f630a2bdc333d","64077cebe938bc776f9bb271","[1970]","","","[7,29,17,21,6,3,14,11,9,13,2,22,25,27,15,30,20,4,12,35,8,24,26,19,18,33,5,34,0,32,16,28,1,10,23,31]","[88,118,308,39,348,9,48,29,78,258,278,328,338,268,228,188,128,218,238,148,168,208,98,19,68,358,298,248,178,138,288,58,318,108,198,158]","88","140","209.2870807776931","[209.2870807776931]","[69.28708077769309]","[69]","[30,300,210,300,120,120,30,300,30,210,120,120,120,30,210,120,300,30,210,120,30,30,210,30,210,300,300,210,210,30,210,210,210,300,30,120]","0","36","0","132.97999999999593","12.119999999995343","16","[[[""img/mask90.png""],[""img/mask12.png""],[""img/mask83.png""],[""img/mask31.png""],[""img/mask15.png""],[""img/mask32.png""],[""img/mask26.png""],[""img/mask1.png""],[""img/mask72.png""],[""img/mask72.png""],[""img/mask30.png""],[""img/mask42.png""],[""img/mask31.png""],[""img/mask61.png""],[""img/mask56.png""],[""img/mask80.png""],[""img/mask67.png""],[""img/mask26.png""],[""img/mask72.png""],[""img/mask82.png""],[""img/mask76.png""],[""img/mask49.png""],[""img/mask98.png""],[""img/mask26.png""],[""img/mask2.png""],[""img/mask79.png""],[""img/mask37.png""],[""img/mask88.png""],[""img/mask67.png""],[""img/mask33.png""],[""img/mask97.png""],[""img/mask98.png""],[""img/mask43.png""],[""img/mask67.png""],[""img/mask9.png""],[""img/mask49.png""]]]","","[7,29,17,21,6,3,14,11,9,13,2,22,25,27,15,30,20,4,12,35,8,24,26,19,18,33,5,34,0,32,16,28,1,10,23,31]","training","",""
"","","","","","image-keyboard-response","18","92845","0.0-9.0","578b5756160201000103fe40","640759fa512f630a2bdc333d","64077cebe938bc776f9bb271","2423","[""img/endTraining.png""]","enter","","","","","","","","","","","","","","","","","","","","",""
"","","","","","color-precision2","19","97009","0.0-10.0-0.0-0.0","578b5756160201000103fe40","640759fa512f630a2bdc333d","64077cebe938bc776f9bb271","[1547]","","","[7]","[134]","134","263","55.01386284188483","[55.01386284188483]","[152.01386284188482]","[151]","0","0","1","0","149.27999999999884","997.6199999999953","1000","[[[""img/mask9.png""]]]","","","main","263","color-precision2"
"","","","","","html-keyboard-response","20","97517","0.0-10.0-1.0","578b5756160201000103fe40","640759fa512f630a2bdc333d","64077cebe938bc776f9bb271","null","","null","","","","","","","","","","","","","","","","","","","fixation","",""
"","","","","","color-precision2","21","100727","0.0-10.0-0.1-0.1","578b5756160201000103fe40","640759fa512f630a2bdc333d","64077cebe938bc776f9bb271","[782]","","","[9]","[36]","36","209","222.04538635499645","[222.04538635499645]","[13.045386354996452]","[13]","0","0","1","0","149.52000000000407","1000.8399999999965","1000","[[[""img/mask40.png""]]]","","","main","209","color-precision2"
"","","","","","html-keyboard-response","22","101236","0.0-10.0-1.1","578b5756160201000103fe40","640759fa512f630a2bdc333d","64077cebe938bc776f9bb271","null","","null","","","","","","","","","","","","","","","","","","","fixation","",""
"","","","","","color-precision2","23","105096","0.0-10.0-0.2-0.2","578b5756160201000103fe40","640759fa512f630a2bdc333d","64077cebe938bc776f9bb271","[1300]","","","[7]","[314]","314","165","119.54078189389271","[119.54078189389271]","[314.5407818938927]","[314]","0","0","1","0","149.5399999999936","1003.8800000000047","1000","[[[""img/mask74.png""]]]","","","main","165","color-precision2"
"","","","","","html-keyboard-response","24","105610","0.0-10.0-1.2","578b5756160201000103fe40","640759fa512f630a2bdc333d","64077cebe938bc776f9bb271","null","","null","","","","","","","","","","","","","","","","","","","fixation","",""
"","","","","","many-guess-6","25","108682","0.0-10.0-0.3-0.3","578b5756160201000103fe40","640759fa512f630a2bdc333d","64077cebe938bc776f9bb271","[1602]","","","[10,34,33,32,29,2,9,21,22,31,24,6,3,5,28,8,4,27,17,0,20,35,11,12,7,19,23,26,16,25,30,13,18,15,1,14]","[22,121,52,191,261,211,131,2,161,321,301,331,271,91,241,81,351,42,32,181,281,291,341,251,12,141,311,201,221,71,151,171,111,62,101,231]","22","74","326.4524427491884","[326.4524427491884]","[252.45244274918838]","[253]","[120,30,210,300,120,300,300,210,300]","0","36","0","148.82000000000698","25.30000000000291","16","[[[""img/mask32.png""],[""img/mask60.png""],[""img/mask81.png""],[""img/mask96.png""],[""img/mask70.png""],[""img/mask100.png""],[""img/mask30.png""],[""img/mask49.png""],[""img/mask64.png""],[""img/mask56.png""],[""img/mask81.png""],[""img/mask14.png""],[""img/mask37.png""],[""img/mask88.png""],[""img/mask23.png""],[""img/mask7.png""],[""img/mask59.png""],[""img/mask37.png""],[""img/mask86.png""],[""img/mask18.png""],[""img/mask25.png""],[""img/mask5.png""],[""img/mask50.png""],[""img/mask86.png""],[""img/mask35.png""],[""img/mask62.png""],[""img/mask99.png""],[""img/mask62.png""],[""img/mask11.png""],[""img/mask73.png""],[""img/mask42.png""],[""img/mask23.png""],[""img/mask83.png""],[""img/mask54.png""],[""img/mask5.png""],[""img/mask57.png""]]]","","[10,34,33,32,29,2,9,21,22,31,24,6,3,5,28,8,4,27,17,0,20,35,11,12,7,19,23,26,16,25,30,13,18,15,1,14]","main","74","many-guess-6"
"","","","","","html-keyboard-response","26","109186","0.0-10.0-1.3","578b5756160201000103fe40","640759fa512f630a2bdc333d","64077cebe938bc776f9bb271","null","","null","","","","","","","","","","","","","","","","","","","fixation","",""
"","","","","","color-precision2","27","112612","0.0-10.0-0.4-0.4","578b5756160201000103fe40","640759fa512f630a2bdc333d","64077cebe938bc776f9bb271","[1015]","","","[32]","[228]","228","343","221.84977475522547","[221.84977475522547]","[238.84977475522547]","[239]","0","0","1","0","149.47999999999593","998.820000000007","1000","[[[""img/mask17.png""]]]","","","main","343","color-precision2"
"","","","","","html-keyboard-response","28","113114","0.0-10.0-1.4","578b5756160201000103fe40","640759fa512f630a2bdc333d","64077cebe938bc776f9bb271","null","","null","","","","","","","","","","","","","","","","","","","fixation","",""
"","","","","","color-precision2","29","115814","0.0-10.0-0.5-0.5","578b5756160201000103fe40","640759fa512f630a2bdc333d","64077cebe938bc776f9bb271","[534]","","","[7]","[125]","125","356","135.1137726942603","[135.1137726942603]","[139.1137726942603]","[138]","0","0","1","0","149.75999999999476","1001.1000000000058","1000","[[[""img/mask8.png""]]]","","","main","356","color-precision2"
"","","","","","html-keyboard-response","30","116317","0.0-10.0-1.5","578b5756160201000103fe40","640759fa512f630a2bdc333d","64077cebe938bc776f9bb271","null","","null","","","","","","","","","","","","","","","","","","","fixation","",""
"","","","","","many-guess-6","31","119798","0.0-10.0-0.6-0.6","578b5756160201000103fe40","640759fa512f630a2bdc333d","64077cebe938bc776f9bb271","[2334]","","","[3,24,21,34,30,18,35,4,23,1,10,17,2,16,31,15,32,7,20,12,22,11,13,33,14,5,8,29,26,19,9,25,27,28,6,0]","[308,158,109,328,49,129,19,29,278,348,298,188,268,238,288,168,119,178,228,218,318,59,69,208,139,9,198,148,99,89,358,338,248,258,39,79]","308","192","293.06525575505407","[293.06525575505407]","[101.06525575505407]","[102]","[120,120,210,120,210,300,30,120,30]","0","36","0","150.08000000000175","12.580000000001746","16","[[[""img/mask40.png""],[""img/mask30.png""],[""img/mask72.png""],[""img/mask56.png""],[""img/mask45.png""],[""img/mask1.png""],[""img/mask17.png""],[""img/mask100.png""],[""img/mask29.png""],[""img/mask61.png""],[""img/mask3.png""],[""img/mask41.png""],[""img/mask76.png""],[""img/mask23.png""],[""img/mask72.png""],[""img/mask64.png""],[""img/mask19.png""],[""img/mask10.png""],[""img/mask51.png""],[""img/mask50.png""],[""img/mask62.png""],[""img/mask72.png""],[""img/mask67.png""],[""img/mask46.png""],[""img/mask37.png""],[""img/mask10.png""],[""img/mask67.png""],[""img/mask80.png""],[""img/mask23.png""],[""img/mask5.png""],[""img/mask70.png""],[""img/mask32.png""],[""img/mask85.png""],[""img/mask76.png""],[""img/mask9.png""],[""img/mask14.png""]]]","","[3,24,21,34,30,18,35,4,23,1,10,17,2,16,31,15,32,7,20,12,22,11,13,33,14,5,8,29,26,19,9,25,27,28,6,0]","main","192","many-guess-6"
"","","","","","html-keyboard-response","32","120312","0.0-10.0-1.6","578b5756160201000103fe40","640759fa512f630a2bdc333d","64077cebe938bc776f9bb271","null","","null","","","","","","","","","","","","","","","","","","","fixation","",""
"","","","","","many-guess-6","33","123392","0.0-10.0-0.7-0.7","578b5756160201000103fe40","640759fa512f630a2bdc333d","64077cebe938bc776f9bb271","[1479]","","","[17,4,24,28,6,30,9,0,14,27,33,10,32,11,22,25,3,31,19,20,12,8,35,15,29,34,7,26,5,18,13,2,16,1,23,21]","[65,305,25,345,175,135,145,335,5,205,185,35,115,295,155,255,165,85,95,315,125,55,215,275,225,45,105,75,265,325,245,15,195,354,285,235]","65","206","126.80214322642851","[126.80214322642851]","[280.8021432264285]","[280]","[210,210,300,120,120,120,210,120,120]","0","36","0","150.0399999999936","19.520000000004075","16","[[[""img/mask19.png""],[""img/mask71.png""],[""img/mask14.png""],[""img/mask3.png""],[""img/mask5.png""],[""img/mask78.png""],[""img/mask13.png""],[""img/mask29.png""],[""img/mask75.png""],[""img/mask66.png""],[""img/mask80.png""],[""img/mask4.png""],[""img/mask48.png""],[""img/mask3.png""],[""img/mask88.png""],[""img/mask61.png""],[""img/mask22.png""],[""img/mask36.png""],[""img/mask13.png""],[""img/mask95.png""],[""img/mask81.png""],[""img/mask22.png""],[""img/mask9.png""],[""img/mask72.png""],[""img/mask89.png""],[""img/mask35.png""],[""img/mask51.png""],[""img/mask85.png""],[""img/mask36.png""],[""img/mask96.png""],[""img/mask62.png""],[""img/mask4.png""],[""img/mask65.png""],[""img/mask28.png""],[""img/mask31.png""],[""img/mask2.png""]]]","","[17,4,24,28,6,30,9,0,14,27,33,10,32,11,22,25,3,31,19,20,12,8,35,15,29,34,7,26,5,18,13,2,16,1,23,21]","main","206","many-guess-6"
"","","","","","html-keyboard-response","34","123904","0.0-10.0-1.7","578b5756160201000103fe40","640759fa512f630a2bdc333d","64077cebe938bc776f9bb271","null","","null","","","","","","","","","","","","","","","","","","","fixation","",""
"","","","","","color-precision2","35","128305","0.0-10.0-0.8-0.8","578b5756160201000103fe40","640759fa512f630a2bdc333d","64077cebe938bc776f9bb271","[1626]","","","[16]","[357]","357","317","317.51904271426287","[317.51904271426287]","[0.5190427142628664]","[0]","0","0","1","0","149.67999999999302","1002.0200000000041","1000","[[[""img/mask24.png""]]]","","","main","317","color-precision2"
"","","","","","html-keyboard-response","36","128814","0.0-10.0-1.8","578b5756160201000103fe40","640759fa512f630a2bdc333d","64077cebe938bc776f9bb271","null","","null","","","","","","","","","","","","","","","","","","","fixation","",""
"","","","","","many-guess-6","37","133187","0.0-10.0-0.9-0.9","578b5756160201000103fe40","640759fa512f630a2bdc333d","64077cebe938bc776f9bb271","[2209]","","","[29,9,6,3,11,10,34,20,27,19,2,31,1,13,8,18,12,5,32,15,23,22,4,25,14,28,0,7,17,30,21,16,24,35,26,33]","[346,236,17,226,67,336,127,356,187,266,147,216,27,286,87,246,167,296,177,157,256,306,197,107,97,117,37,57,316,137,326,47,77,7,276,207]","346","235","84.29651925576819","[84.29651925576819]","[209.2965192557682]","[208]","[300,120,210,210,120,120,120,300,120]","0","36","0","148.64000000001397","22.10000000000582","16","[[[""img/mask77.png""],[""img/mask1.png""],[""img/mask78.png""],[""img/mask15.png""],[""img/mask57.png""],[""img/mask11.png""],[""img/mask58.png""],[""img/mask83.png""],[""img/mask95.png""],[""img/mask75.png""],[""img/mask66.png""],[""img/mask57.png""],[""img/mask27.png""],[""img/mask92.png""],[""img/mask97.png""],[""img/mask62.png""],[""img/mask21.png""],[""img/mask25.png""],[""img/mask47.png""],[""img/mask4.png""],[""img/mask31.png""],[""img/mask100.png""],[""img/mask58.png""],[""img/mask64.png""],[""img/mask53.png""],[""img/mask31.png""],[""img/mask5.png""],[""img/mask35.png""],[""img/mask43.png""],[""img/mask22.png""],[""img/mask8.png""],[""img/mask100.png""],[""img/mask78.png""],[""img/mask3.png""],[""img/mask81.png""],[""img/mask91.png""]]]","","[29,9,6,3,11,10,34,20,27,19,2,31,1,13,8,18,12,5,32,15,23,22,4,25,14,28,0,7,17,30,21,16,24,35,26,33]","main","235","many-guess-6"
"","","","","","html-keyboard-response","38","133695","0.0-10.0-1.9","578b5756160201000103fe40","640759fa512f630a2bdc333d","64077cebe938bc776f9bb271","null","","null","","","","","","","","","","","","","","","","","","","fixation","",""
"","","","","","color-precision2","39","137055","0.0-10.0-0.10-0.10","578b5756160201000103fe40","640759fa512f630a2bdc333d","64077cebe938bc776f9bb271","[910]","","","[8]","[180]","180","247","76.69220681748526","[76.69220681748526]","[189.69220681748527]","[188]","0","0","1","0","149.2600000000093","993.5799999999872","1000","[[[""img/mask35.png""]]]","","","main","247","color-precision2"
"","","","","","html-keyboard-response","40","137568","0.0-10.0-1.10","578b5756160201000103fe40","640759fa512f630a2bdc333d","64077cebe938bc776f9bb271","null","","null","","","","","","","","","","","","","","","","","","","fixation","",""
"","","","","","color-precision2","41","141163","0.0-10.0-0.11-0.11","578b5756160201000103fe40","640759fa512f630a2bdc333d","64077cebe938bc776f9bb271","[1218]","","","[10]","[1]","1","184","181.38653252329752","[181.38653252329752]","[357.38653252329755]","[357]","0","0","1","0","149.2399999999907","994.5799999999872","1000","[[[""img/mask66.png""]]]","","","main","184","color-precision2"
"","","","","","html-keyboard-response","42","141672","0.0-10.0-1.11","578b5756160201000103fe40","640759fa512f630a2bdc333d","64077cebe938bc776f9bb271","null","","null","","","","","","","","","","","","","","","","","","","fixation","",""
"","","","","","color-precision2","43","145532","0.0-10.0-0.12-0.12","578b5756160201000103fe40","640759fa512f630a2bdc333d","64077cebe938bc776f9bb271","[1352]","","","[11]","[254]","254","271","163.15139101680475","[163.15139101680475]","[252.15139101680475]","[251]","0","0","1","0","149.55999999999767","1000.8999999999942","1000","[[[""img/mask10.png""]]]","","","main","271","color-precision2"
"","","","","","html-keyboard-response","44","146037","0.0-10.0-1.12","578b5756160201000103fe40","640759fa512f630a2bdc333d","64077cebe938bc776f9bb271","null","","null","","","","","","","","","","","","","","","","","","","fixation","",""
"","","","","","many-guess-6","45","148868","0.0-10.0-0.13-0.13","578b5756160201000103fe40","640759fa512f630a2bdc333d","64077cebe938bc776f9bb271","[1537]","","","[0,1,10,15,31,28,14,17,24,11,6,4,19,30,20,3,23,7,34,8,26,33,18,22,35,2,13,9,12,25,32,16,21,27,29,5]","[139,149,159,288,338,249,79,239,69,49,59,229,318,348,268,39,358,278,99,179,259,9,298,199,219,328,189,89,308,129,169,19,209,119,29,109]","139","277","233.9964582516568","[233.9964582516568]","[316.9964582516568]","[317]","[210,210,30,300,30,120,300,120,120]","0","36","0","150.51999999998952","15.959999999991851","16","[[[""img/mask13.png""],[""img/mask72.png""],[""img/mask26.png""],[""img/mask48.png""],[""img/mask95.png""],[""img/mask41.png""],[""img/mask68.png""],[""img/mask31.png""],[""img/mask6.png""],[""img/mask52.png""],[""img/mask26.png""],[""img/mask70.png""],[""img/mask47.png""],[""img/mask86.png""],[""img/mask41.png""],[""img/mask18.png""],[""img/mask81.png""],[""img/mask29.png""],[""img/mask25.png""],[""img/mask11.png""],[""img/mask61.png""],[""img/mask95.png""],[""img/mask38.png""],[""img/mask37.png""],[""img/mask96.png""],[""img/mask23.png""],[""img/mask85.png""],[""img/mask70.png""],[""img/mask55.png""],[""img/mask54.png""],[""img/mask5.png""],[""img/mask57.png""],[""img/mask77.png""],[""img/mask66.png""],[""img/mask18.png""],[""img/mask73.png""]]]","","[0,1,10,15,31,28,14,17,24,11,6,4,19,30,20,3,23,7,34,8,26,33,18,22,35,2,13,9,12,25,32,16,21,27,29,5]","main","277","many-guess-6"
"","","","","","html-keyboard-response","46","149368","0.0-10.0-1.13","578b5756160201000103fe40","640759fa512f630a2bdc333d","64077cebe938bc776f9bb271","null","","null","","","","","","","","","","","","","","","","","","","fixation","",""
"","","","","","color-precision2","47","152625","0.0-10.0-0.14-0.14","578b5756160201000103fe40","640759fa512f630a2bdc333d","64077cebe938bc776f9bb271","[813]","","","[15]","[201]","201","210","41.06543390613789","[41.06543390613789]","[191.06543390613788]","[190]","0","0","1","0","149.79999999998836","999.1199999999953","1000","[[[""img/mask11.png""]]]","","","main","210","color-precision2"
"","","","","","html-keyboard-response","48","153133","0.0-10.0-1.14","578b5756160201000103fe40","640759fa512f630a2bdc333d","64077cebe938bc776f9bb271","null","","null","","","","","","","","","","","","","","","","","","","fixation","",""
"","","","","","color-precision2","49","157055","0.0-10.0-0.15-0.15","578b5756160201000103fe40","640759fa512f630a2bdc333d","64077cebe938bc776f9bb271","[1827]","","","[20]","[349]","349","278","274.4419795382101","[274.4419795382101]","[356.4419795382101]","[357]","0","0","1","0","149.5","992.820000000007","1000","[[[""img/mask76.png""]]]","","","main","278","color-precision2"
"","","","","","html-keyboard-response","50","157563","0.0-10.0-1.15","578b5756160201000103fe40","640759fa512f630a2bdc333d","64077cebe938bc776f9bb271","null","","null","","","","","","","","","","","","","","","","","","","fixation","",""
"","","","","","many-guess-6","51","161664","0.0-10.0-0.16-0.16","578b5756160201000103fe40","640759fa512f630a2bdc333d","64077cebe938bc776f9bb271","[2700]","","","[9,34,19,26,4,30,10,18,5,15,31,2,1,12,0,8,35,11,3,33,23,25,29,32,22,7,21,27,14,17,6,20,16,13,28,24]","[93,63,33,263,173,253,103,293,123,213,153,183,243,273,3,352,23,283,323,203,223,313,193,333,73,133,113,343,143,163,53,83,13,43,303,233]","93","58","142.97442499093842","[142.97442499093842]","[84.97442499093842]","[84]","[30,120,120,210,30,300,120,120,30]","0","36","0","149.72000000000116","15.239999999990687","16","[[[""img/mask86.png""],[""img/mask45.png""],[""img/mask59.png""],[""img/mask5.png""],[""img/mask38.png""],[""img/mask93.png""],[""img/mask42.png""],[""img/mask51.png""],[""img/mask89.png""],[""img/mask47.png""],[""img/mask93.png""],[""img/mask66.png""],[""img/mask77.png""],[""img/mask29.png""],[""img/mask84.png""],[""img/mask26.png""],[""img/mask41.png""],[""img/mask48.png""],[""img/mask44.png""],[""img/mask45.png""],[""img/mask3.png""],[""img/mask33.png""],[""img/mask42.png""],[""img/mask26.png""],[""img/mask7.png""],[""img/mask64.png""],[""img/mask23.png""],[""img/mask53.png""],[""img/mask27.png""],[""img/mask24.png""],[""img/mask58.png""],[""img/mask62.png""],[""img/mask46.png""],[""img/mask1.png""],[""img/mask78.png""],[""img/mask26.png""]]]","","[9,34,19,26,4,30,10,18,5,15,31,2,1,12,0,8,35,11,3,33,23,25,29,32,22,7,21,27,14,17,6,20,16,13,28,24]","main","58","many-guess-6"
"","","","","","html-keyboard-response","52","162172","0.0-10.0-1.16","578b5756160201000103fe40","640759fa512f630a2bdc333d","64077cebe938bc776f9bb271","null","","null","","","","","","","","","","","","","","","","","","","fixation","",""
"","","","","","many-guess-6","53","165531","0.0-10.0-0.17-0.17","578b5756160201000103fe40","640759fa512f630a2bdc333d","64077cebe938bc776f9bb271","[2001]","","","[7,17,33,19,21,13,29,22,18,32,10,24,15,23,30,14,11,34,25,9,16,28,8,12,35,0,6,4,2,26,5,20,3,27,31,1]","[170,150,60,300,160,20,50,180,220,140,330,80,260,340,130,120,70,210,10,100,280,200,320,290,40,310,240,30,110,349,90,359,270,250,230,190]","170","166","185.0089783020794","[185.0089783020794]","[19.008978302079413]","[19]","[120,300,120,120,210,30,300,30,30]","0","36","0","149.38000000000466","24.880000000004657","16","[[[""img/mask42.png""],[""img/mask66.png""],[""img/mask48.png""],[""img/mask3.png""],[""img/mask81.png""],[""img/mask43.png""],[""img/mask94.png""],[""img/mask92.png""],[""img/mask27.png""],[""img/mask59.png""],[""img/mask67.png""],[""img/mask57.png""],[""img/mask74.png""],[""img/mask33.png""],[""img/mask60.png""],[""img/mask76.png""],[""img/mask75.png""],[""img/mask81.png""],[""img/mask25.png""],[""img/mask58.png""],[""img/mask75.png""],[""img/mask53.png""],[""img/mask92.png""],[""img/mask97.png""],[""img/mask27.png""],[""img/mask90.png""],[""img/mask97.png""],[""img/mask25.png""],[""img/mask76.png""],[""img/mask17.png""],[""img/mask56.png""],[""img/mask46.png""],[""img/mask32.png""],[""img/mask32.png""],[""img/mask46.png""],[""img/mask67.png""]]]","","[7,17,33,19,21,13,29,22,18,32,10,24,15,23,30,14,11,34,25,9,16,28,8,12,35,0,6,4,2,26,5,20,3,27,31,1]","main","166","many-guess-6"
"","","","","","html-keyboard-response","54","166040","0.0-10.0-1.17","578b5756160201000103fe40","640759fa512f630a2bdc333d","64077cebe938bc776f9bb271","null","","null","","","","","","","","","","","","","","","","","","","fixation","",""
"","","","","","many-guess-6","55","170967","0.0-10.0-0.18-0.18","578b5756160201000103fe40","640759fa512f630a2bdc333d","64077cebe938bc776f9bb271","[3404]","","","[8,28,20,23,18,34,33,0,3,30,14,2,32,26,25,24,6,10,1,31,22,5,13,11,12,4,16,17,19,27,21,7,29,15,35,9]","[40,180,10,339,130,299,319,70,279,60,229,289,120,140,309,110,80,160,249,30,239,20,190,100,220,90,349,170,50,200,150,259,210,269,329,359]","40","12","206.9280690570223","[206.9280690570223]","[194.9280690570223]","[195]","[210,300,300,120,120,30,210,120,120]","0","36","0","149.67999999999302","18.019999999989523","16","[[[""img/mask53.png""],[""img/mask9.png""],[""img/mask53.png""],[""img/mask97.png""],[""img/mask90.png""],[""img/mask65.png""],[""img/mask37.png""],[""img/mask12.png""],[""img/mask17.png""],[""img/mask28.png""],[""img/mask70.png""],[""img/mask82.png""],[""img/mask68.png""],[""img/mask28.png""],[""img/mask95.png""],[""img/mask57.png""],[""img/mask49.png""],[""img/mask94.png""],[""img/mask73.png""],[""img/mask63.png""],[""img/mask32.png""],[""img/mask72.png""],[""img/mask53.png""],[""img/mask26.png""],[""img/mask27.png""],[""img/mask29.png""],[""img/mask40.png""],[""img/mask50.png""],[""img/mask5.png""],[""img/mask51.png""],[""img/mask43.png""],[""img/mask68.png""],[""img/mask62.png""],[""img/mask22.png""],[""img/mask87.png""],[""img/mask64.png""]]]","","[8,28,20,23,18,34,33,0,3,30,14,2,32,26,25,24,6,10,1,31,22,5,13,11,12,4,16,17,19,27,21,7,29,15,35,9]","main","12","many-guess-6"
"","","","","","html-keyboard-response","56","171476","0.0-10.0-1.18","578b5756160201000103fe40","640759fa512f630a2bdc333d","64077cebe938bc776f9bb271","null","","null","","","","","","","","","","","","","","","","","","","fixation","",""
"","","","","","many-guess-6","57","174757","0.0-10.0-0.19-0.19","578b5756160201000103fe40","640759fa512f630a2bdc333d","64077cebe938bc776f9bb271","[2011]","","","[24,22,2,28,10,3,0,20,35,9,7,15,8,16,29,13,34,5,30,1,25,17,21,11,26,19,14,18,4,12,32,27,33,31,6,23]","[173,33,143,233,103,312,252,3,113,153,203,272,83,53,282,93,63,213,302,342,133,13,23,332,262,193,352,292,73,322,183,223,43,163,243,123]","173","309","105.5595390631696","[105.5595390631696]","[156.5595390631696]","[155]","[300,120,30,120,120,30,210,210,210]","0","36","0","148.98000000001048","26.480000000010477","16","[[[""img/mask44.png""],[""img/mask69.png""],[""img/mask49.png""],[""img/mask5.png""],[""img/mask20.png""],[""img/mask64.png""],[""img/mask56.png""],[""img/mask63.png""],[""img/mask93.png""],[""img/mask86.png""],[""img/mask72.png""],[""img/mask80.png""],[""img/mask6.png""],[""img/mask39.png""],[""img/mask52.png""],[""img/mask22.png""],[""img/mask61.png""],[""img/mask40.png""],[""img/mask13.png""],[""img/mask61.png""],[""img/mask72.png""],[""img/mask61.png""],[""img/mask20.png""],[""img/mask7.png""],[""img/mask69.png""],[""img/mask17.png""],[""img/mask91.png""],[""img/mask99.png""],[""img/mask100.png""],[""img/mask33.png""],[""img/mask11.png""],[""img/mask2.png""],[""img/mask55.png""],[""img/mask19.png""],[""img/mask40.png""],[""img/mask47.png""]]]","","[24,22,2,28,10,3,0,20,35,9,7,15,8,16,29,13,34,5,30,1,25,17,21,11,26,19,14,18,4,12,32,27,33,31,6,23]","main","309","many-guess-6"
"","","","","","html-keyboard-response","58","178843","0.0-10.0-1.19","578b5756160201000103fe40","640759fa512f630a2bdc333d","64077cebe938bc776f9bb271","4086","Wow! You've completed 20 out of 180 trials! </p> <p>  </p><p> Take a quick break, then press any key when you're ready to continue.","enter","","","","","","","","","","","","","","","","","","","fixation","",""
"","","","","","color-precision2","59","182451","0.0-10.0-0.20-0.20","578b5756160201000103fe40","640759fa512f630a2bdc333d","64077cebe938bc776f9bb271","[973]","","","[23]","[344]","344","63","53.97948578587017","[53.97948578587017]","[350.97948578587017]","[350]","0","0","1","0","149.29999999998836","1006.640000000014","1000","[[[""img/mask3.png""]]]","","","main","63","color-precision2"
"","","","","","html-keyboard-response","60","182962","0.0-10.0-1.20","578b5756160201000103fe40","640759fa512f630a2bdc333d","64077cebe938bc776f9bb271","null","","null","","","","","","","","","","","","","","","","","","","fixation","",""
"","","","","","color-precision2","61","186865","0.0-10.0-0.21-0.21","578b5756160201000103fe40","640759fa512f630a2bdc333d","64077cebe938bc776f9bb271","[902]","","","[0]","[296]","296","97","23.26306467773124","[23.26306467773124]","[286.2630646777312]","[285]","0","0","1","0","149.60000000000582","995.9400000000023","1000","[[[""img/mask16.png""]]]","","","main","97","color-precision2"
"","","","","","html-keyboard-response","62","187375","0.0-10.0-1.21","578b5756160201000103fe40","640759fa512f630a2bdc333d","64077cebe938bc776f9bb271","null","","null","","","","","","","","","","","","","","","","","","","fixation","",""
"","","","","","many-guess-6","63","191749","0.0-10.0-0.22-0.22","578b5756160201000103fe40","640759fa512f630a2bdc333d","64077cebe938bc776f9bb271","[3204]","","","[16,15,19,21,23,26,7,6,4,22,8,2,10,33,27,13,20,30,3,0,14,1,35,34,24,18,9,25,5,31,17,12,11,28,32,29]","[123,113,273,332,23,93,253,133,193,13,213,322,103,203,83,292,282,153,173,143,43,312,183,33,352,342,73,233,302,163,3,223,243,263,53,63]","123","173","332.9826381966204","[332.9826381966204]","[159.98263819662043]","[160]","[300,120,30,210,300,300,30,120,30]","0","36","0","149.88000000000466","20.339999999996508","16","[[[""img/mask11.png""],[""img/mask54.png""],[""img/mask9.png""],[""img/mask17.png""],[""img/mask40.png""],[""img/mask53.png""],[""img/mask83.png""],[""img/mask29.png""],[""img/mask4.png""],[""img/mask37.png""],[""img/mask93.png""],[""img/mask100.png""],[""img/mask20.png""],[""img/mask84.png""],[""img/mask43.png""],[""img/mask25.png""],[""img/mask70.png""],[""img/mask67.png""],[""img/mask87.png""],[""img/mask15.png""],[""img/mask63.png""],[""img/mask46.png""],[""img/mask58.png""],[""img/mask87.png""],[""img/mask13.png""],[""img/mask23.png""],[""img/mask86.png""],[""img/mask96.png""],[""img/mask3.png""],[""img/mask30.png""],[""img/mask48.png""],[""img/mask72.png""],[""img/mask23.png""],[""img/mask52.png""],[""img/mask93.png""],[""img/mask20.png""]]]","","[16,15,19,21,23,26,7,6,4,22,8,2,10,33,27,13,20,30,3,0,14,1,35,34,24,18,9,25,5,31,17,12,11,28,32,29]","main","173","many-guess-6"
"","","","","","html-keyboard-response","64","192264","0.0-10.0-1.22","578b5756160201000103fe40","640759fa512f630a2bdc333d","64077cebe938bc776f9bb271","null","","null","","","","","","","","","","","","","","","","","","","fixation","",""
"","","","","","many-guess-6","65","195991","0.0-10.0-0.23-0.23","578b5756160201000103fe40","640759fa512f630a2bdc333d","64077cebe938bc776f9bb271","[2012]","","","[6,2,12,3,19,18,23,29,24,1,10,11,5,21,0,15,32,9,7,17,31,35,8,28,33,26,4,20,13,30,22,14,16,27,34,25]","[220,210,340,1,230,190,290,320,330,280,200,61,41,31,310,300,260,21,90,250,80,350,100,270,51,11,160,120,110,180,70,240,150,140,170,130]","220","35","205.68225418355757","[205.68225418355757]","[170.68225418355757]","[170]","[300,300,120,120,120,300,120,300,210]","0","36","0","149.2600000000093","22.660000000003492","16","[[[""img/mask95.png""],[""img/mask63.png""],[""img/mask77.png""],[""img/mask77.png""],[""img/mask81.png""],[""img/mask19.png""],[""img/mask67.png""],[""img/mask92.png""],[""img/mask73.png""],[""img/mask39.png""],[""img/mask83.png""],[""img/mask72.png""],[""img/mask37.png""],[""img/mask89.png""],[""img/mask93.png""],[""img/mask54.png""],[""img/mask5.png""],[""img/mask44.png""],[""img/mask35.png""],[""img/mask14.png""],[""img/mask74.png""],[""img/mask94.png""],[""img/mask36.png""],[""img/mask57.png""],[""img/mask18.png""],[""img/mask100.png""],[""img/mask73.png""],[""img/mask90.png""],[""img/mask75.png""],[""img/mask77.png""],[""img/mask65.png""],[""img/mask53.png""],[""img/mask25.png""],[""img/mask10.png""],[""img/mask62.png""],[""img/mask88.png""]]]","","[6,2,12,3,19,18,23,29,24,1,10,11,5,21,0,15,32,9,7,17,31,35,8,28,33,26,4,20,13,30,22,14,16,27,34,25]","main","35","many-guess-6"
"","","","","","html-keyboard-response","66","196505","0.0-10.0-1.23","578b5756160201000103fe40","640759fa512f630a2bdc333d","64077cebe938bc776f9bb271","null","","null","","","","","","","","","","","","","","","","","","","fixation","",""
"","","","","","many-guess-6","67","200373","0.0-10.0-0.24-0.24","578b5756160201000103fe40","640759fa512f630a2bdc333d","64077cebe938bc776f9bb271","[2260]","","","[11,9,19,8,12,14,21,24,29,27,20,3,15,17,30,31,13,6,32,5,10,4,16,23,33,26,28,22,2,7,0,35,1,18,34,25]","[202,102,92,282,2,142,122,272,312,62,112,212,52,22,302,352,222,252,162,192,12,152,342,182,232,242,42,332,262,32,82,172,292,322,132,72]","202","301","277.29902063378773","[277.29902063378773]","[336.29902063378773]","[337]","[300,300,210,210,120,210,30,210,300]","0","36","0","149.51999999998952","23.95999999999185","16","[[[""img/mask92.png""],[""img/mask39.png""],[""img/mask72.png""],[""img/mask96.png""],[""img/mask63.png""],[""img/mask20.png""],[""img/mask39.png""],[""img/mask83.png""],[""img/mask76.png""],[""img/mask69.png""],[""img/mask34.png""],[""img/mask69.png""],[""img/mask80.png""],[""img/mask21.png""],[""img/mask90.png""],[""img/mask47.png""],[""img/mask28.png""],[""img/mask92.png""],[""img/mask17.png""],[""img/mask2.png""],[""img/mask92.png""],[""img/mask95.png""],[""img/mask11.png""],[""img/mask57.png""],[""img/mask5.png""],[""img/mask33.png""],[""img/mask84.png""],[""img/mask29.png""],[""img/mask92.png""],[""img/mask61.png""],[""img/mask98.png""],[""img/mask13.png""],[""img/mask52.png""],[""img/mask74.png""],[""img/mask70.png""],[""img/mask27.png""]]]","","[11,9,19,8,12,14,21,24,29,27,20,3,15,17,30,31,13,6,32,5,10,4,16,23,33,26,28,22,2,7,0,35,1,18,34,25]","main","301","many-guess-6"
"","","","","","html-keyboard-response","68","200885","0.0-10.0-1.24","578b5756160201000103fe40","640759fa512f630a2bdc333d","64077cebe938bc776f9bb271","null","","null","","","","","","","","","","","","","","","","","","","fixation","",""
"","","","","","color-precision2","69","203919","0.0-10.0-0.25-0.25","578b5756160201000103fe40","640759fa512f630a2bdc333d","64077cebe938bc776f9bb271","[590]","","","[9]","[188]","188","320","143.35851853935384","[143.35851853935384]","[183.35851853935384]","[182]","0","0","1","0","149.04000000000815","993.359999999986","1000","[[[""img/mask100.png""]]]","","","main","320","color-precision2"
"","","","","","html-keyboard-response","70","204421","0.0-10.0-1.25","578b5756160201000103fe40","640759fa512f630a2bdc333d","64077cebe938bc776f9bb271","null","","null","","","","","","","","","","","","","","","","","","","fixation","",""
"","","","","","many-guess-6","71","207825","0.0-10.0-0.26-0.26","578b5756160201000103fe40","640759fa512f630a2bdc333d","64077cebe938bc776f9bb271","[1746]","","","[12,21,6,30,32,4,13,8,1,23,33,34,2,9,35,0,22,19,26,18,17,25,10,24,31,5,3,14,28,20,29,16,11,15,7,27]","[259,289,328,358,199,169,309,229,69,269,39,189,239,159,318,279,129,49,249,79,149,9,338,89,109,219,209,59,99,139,119,299,348,19,179,29]","259","106","314.3794898624123","[314.3794898624123]","[208.3794898624123]","[208]","[300,120,210,210,30,300,210,120,210]","0","36","0","149.10000000000582","26.60000000000582","16","[[[""img/mask70.png""],[""img/mask21.png""],[""img/mask95.png""],[""img/mask61.png""],[""img/mask70.png""],[""img/mask48.png""],[""img/mask47.png""],[""img/mask71.png""],[""img/mask97.png""],[""img/mask41.png""],[""img/mask32.png""],[""img/mask10.png""],[""img/mask62.png""],[""img/mask52.png""],[""img/mask29.png""],[""img/mask80.png""],[""img/mask32.png""],[""img/mask26.png""],[""img/mask89.png""],[""img/mask37.png""],[""img/mask47.png""],[""img/mask69.png""],[""img/mask60.png""],[""img/mask53.png""],[""img/mask21.png""],[""img/mask49.png""],[""img/mask30.png""],[""img/mask78.png""],[""img/mask8.png""],[""img/mask35.png""],[""img/mask41.png""],[""img/mask85.png""],[""img/mask81.png""],[""img/mask11.png""],[""img/mask28.png""],[""img/mask49.png""]]]","","[12,21,6,30,32,4,13,8,1,23,33,34,2,9,35,0,22,19,26,18,17,25,10,24,31,5,3,14,28,20,29,16,11,15,7,27]","main","106","many-guess-6"
"","","","","","html-keyboard-response","72","208327","0.0-10.0-1.26","578b5756160201000103fe40","640759fa512f630a2bdc333d","64077cebe938bc776f9bb271","null","","null","","","","","","","","","","","","","","","","","","","fixation","",""
"","","","","","color-precision2","73","211139","0.0-10.0-0.27-0.27","578b5756160201000103fe40","640759fa512f630a2bdc333d","64077cebe938bc776f9bb271","[559]","","","[32]","[259]","259","230","142.35253541763964","[142.35253541763964]","[272.3525354176396]","[271]","0","0","1","0","149.0799999999872","1007.3999999999942","1000","[[[""img/mask65.png""]]]","","","main","230","color-precision2"
"","","","","","html-keyboard-response","74","211644","0.0-10.0-1.27","578b5756160201000103fe40","640759fa512f630a2bdc333d","64077cebe938bc776f9bb271","null","","null","","","","","","","","","","","","","","","","","","","fixation","",""
"","","","","","color-precision2","75","214442","0.0-10.0-0.28-0.28","578b5756160201000103fe40","640759fa512f630a2bdc333d","64077cebe938bc776f9bb271","[646]","","","[5]","[285]","285","175","96.25201547767449","[96.25201547767449]","[281.2520154776745]","[280]","0","0","1","0","148.72000000000116","1000.0599999999977","1000","[[[""img/mask57.png""]]]","","","main","175","color-precision2"
"","","","","","html-keyboard-response","76","214950","0.0-10.0-1.28","578b5756160201000103fe40","640759fa512f630a2bdc333d","64077cebe938bc776f9bb271","null","","null","","","","","","","","","","","","","","","","","","","fixation","",""
"","","","","","color-precision2","77","218724","0.0-10.0-0.29-0.29","578b5756160201000103fe40","640759fa512f630a2bdc333d","64077cebe938bc776f9bb271","[1012]","","","[29]","[106]","106","252","359.0143027844692","[359.0143027844692]","[107.01430278446918]","[106]","0","0","1","0","149.3399999999965","993.6600000000035","1000","[[[""img/mask54.png""]]]","","","main","252","color-precision2"
"","","","","","html-keyboard-response","78","219227","0.0-10.0-1.29","578b5756160201000103fe40","640759fa512f630a2bdc333d","64077cebe938bc776f9bb271","null","","null","","","","","","","","","","","","","","","","","","","fixation","",""
"","","","","","color-precision2","79","222442","0.0-10.0-0.30-0.30","578b5756160201000103fe40","640759fa512f630a2bdc333d","64077cebe938bc776f9bb271","[613]","","","[16]","[249]","249","262","145.47468273006155","[145.47468273006155]","[243.47468273006155]","[242]","0","0","1","0","149.01999999998952","1002.359999999986","1000","[[[""img/mask97.png""]]]","","","main","262","color-precision2"
"","","","","","html-keyboard-response","80","222945","0.0-10.0-1.30","578b5756160201000103fe40","640759fa512f630a2bdc333d","64077cebe938bc776f9bb271","null","","null","","","","","","","","","","","","","","","","","","","fixation","",""
"","","","","","color-precision2","81","226394","0.0-10.0-0.31-0.31","578b5756160201000103fe40","640759fa512f630a2bdc333d","64077cebe938bc776f9bb271","[799]","","","[26]","[238]","238","108","349.18526319749094","[349.18526319749094]","[241.18526319749094]","[241]","0","0","1","0","148.64000000001397","1002.9800000000105","1000","[[[""img/mask63.png""]]]","","","main","108","color-precision2"
"","","","","","html-keyboard-response","82","226896","0.0-10.0-1.31","578b5756160201000103fe40","640759fa512f630a2bdc333d","64077cebe938bc776f9bb271","null","","null","","","","","","","","","","","","","","","","","","","fixation","",""
"","","","","","color-precision2","83","230271","0.0-10.0-0.32-0.32","578b5756160201000103fe40","640759fa512f630a2bdc333d","64077cebe938bc776f9bb271","[1159]","","","[0]","[221]","221","359","217.72066706457701","[217.72066706457701]","[218.72066706457701]","[219]","0","0","1","0","149.29999999998836","1002.6199999999953","1000","[[[""img/mask92.png""]]]","","","main","359","color-precision2"
"","","","","","html-keyboard-response","84","230772","0.0-10.0-1.32","578b5756160201000103fe40","640759fa512f630a2bdc333d","64077cebe938bc776f9bb271","null","","null","","","","","","","","","","","","","","","","","","","fixation","",""
"","","","","","color-precision2","85","234550","0.0-10.0-0.33-0.33","578b5756160201000103fe40","640759fa512f630a2bdc333d","64077cebe938bc776f9bb271","[1205]","","","[4]","[99]","99","310","53.40018706815332","[53.40018706815332]","[103.40018706815334]","[102]","0","0","1","0","149.60000000000582","1003.9200000000128","1000","[[[""img/mask82.png""]]]","","","main","310","color-precision2"
"","","","","","html-keyboard-response","86","235065","0.0-10.0-1.33","578b5756160201000103fe40","640759fa512f630a2bdc333d","64077cebe938bc776f9bb271","null","","null","","","","","","","","","","","","","","","","","","","fixation","",""
"","","","","","color-precision2","87","238886","0.0-10.0-0.34-0.34","578b5756160201000103fe40","640759fa512f630a2bdc333d","64077cebe938bc776f9bb271","[1473]","","","[16]","[199]","199","315","151.46566194764426","[151.46566194764426]","[196.46566194764426]","[195]","0","0","1","0","150.22000000000116","1000.5400000000081","1000","[[[""img/mask20.png""]]]","","","main","315","color-precision2"
"","","","","","html-keyboard-response","88","239389","0.0-10.0-1.34","578b5756160201000103fe40","640759fa512f630a2bdc333d","64077cebe938bc776f9bb271","null","","null","","","","","","","","","","","","","","","","","","","fixation","",""
"","","","","","many-guess-6","89","243020","0.0-10.0-0.35-0.35","578b5756160201000103fe40","640759fa512f630a2bdc333d","64077cebe938bc776f9bb271","[2325]","","","[12,24,34,16,5,10,13,9,22,19,31,29,33,23,28,14,1,35,0,8,15,21,2,4,25,17,11,18,20,30,6,26,32,7,27,3]","[99,49,129,19,209,328,159,259,288,169,358,109,219,348,269,179,119,69,79,239,249,59,199,9,29,149,189,229,338,139,308,278,318,39,298,89]","99","160","165.4657936060363","[165.4657936060363]","[5.4657936060363]","[4]","[300,210,120,210,300,120,300,210,300]","0","36","0","149.54000000000815","16.980000000010477","16","[[[""img/mask62.png""],[""img/mask100.png""],[""img/mask80.png""],[""img/mask97.png""],[""img/mask86.png""],[""img/mask44.png""],[""img/mask53.png""],[""img/mask23.png""],[""img/mask31.png""],[""img/mask7.png""],[""img/mask87.png""],[""img/mask34.png""],[""img/mask46.png""],[""img/mask24.png""],[""img/mask41.png""],[""img/mask51.png""],[""img/mask37.png""],[""img/mask94.png""],[""img/mask37.png""],[""img/mask42.png""],[""img/mask85.png""],[""img/mask82.png""],[""img/mask80.png""],[""img/mask42.png""],[""img/mask34.png""],[""img/mask86.png""],[""img/mask77.png""],[""img/mask17.png""],[""img/mask99.png""],[""img/mask80.png""],[""img/mask71.png""],[""img/mask61.png""],[""img/mask91.png""],[""img/mask47.png""],[""img/mask88.png""],[""img/mask82.png""]]]","","[12,24,34,16,5,10,13,9,22,19,31,29,33,23,28,14,1,35,0,8,15,21,2,4,25,17,11,18,20,30,6,26,32,7,27,3]","main","160","many-guess-6"
"","","","","","html-keyboard-response","90","243522","0.0-10.0-1.35","578b5756160201000103fe40","640759fa512f630a2bdc333d","64077cebe938bc776f9bb271","null","","null","","","","","","","","","","","","","","","","","","","fixation","",""
"","","","","","many-guess-6","91","247012","0.0-10.0-0.36-0.36","578b5756160201000103fe40","640759fa512f630a2bdc333d","64077cebe938bc776f9bb271","[1884]","","","[22,16,27,11,17,1,26,14,9,4,19,12,25,24,35,13,10,34,15,30,29,6,20,2,32,28,21,7,31,23,0,33,5,18,3,8]","[68,318,228,258,98,268,248,308,128,158,198,338,48,298,328,19,148,38,9,238,358,208,108,168,188,348,218,288,28,278,58,88,138,178,78,118]","68","164","235.75810778295175","[235.75810778295175]","[71.75810778295175]","[72]","[210,120,30,30,120,300,210,30,300]","0","36","0","149.82000000000698","22.220000000001164","16","[[[""img/mask97.png""],[""img/mask41.png""],[""img/mask42.png""],[""img/mask28.png""],[""img/mask35.png""],[""img/mask69.png""],[""img/mask100.png""],[""img/mask2.png""],[""img/mask82.png""],[""img/mask4.png""],[""img/mask74.png""],[""img/mask96.png""],[""img/mask17.png""],[""img/mask59.png""],[""img/mask81.png""],[""img/mask27.png""],[""img/mask90.png""],[""img/mask6.png""],[""img/mask17.png""],[""img/mask38.png""],[""img/mask79.png""],[""img/mask55.png""],[""img/mask75.png""],[""img/mask71.png""],[""img/mask23.png""],[""img/mask88.png""],[""img/mask38.png""],[""img/mask67.png""],[""img/mask31.png""],[""img/mask77.png""],[""img/mask72.png""],[""img/mask90.png""],[""img/mask14.png""],[""img/mask72.png""],[""img/mask1.png""],[""img/mask47.png""]]]","","[22,16,27,11,17,1,26,14,9,4,19,12,25,24,35,13,10,34,15,30,29,6,20,2,32,28,21,7,31,23,0,33,5,18,3,8]","main","164","many-guess-6"
"","","","","","html-keyboard-response","92","247515","0.0-10.0-1.36","578b5756160201000103fe40","640759fa512f630a2bdc333d","64077cebe938bc776f9bb271","null","","null","","","","","","","","","","","","","","","","","","","fixation","",""
"","","","","","color-precision2","93","250948","0.0-10.0-0.37-0.37","578b5756160201000103fe40","640759fa512f630a2bdc333d","64077cebe938bc776f9bb271","[1069]","","","[14]","[344]","344","305","331.7663930295114","[331.7663930295114]","[26.76639302951139]","[26]","0","0","1","0","149.79999999998836","997.1199999999953","1000","[[[""img/mask29.png""]]]","","","main","305","color-precision2"
"","","","","","html-keyboard-response","94","251450","0.0-10.0-1.37","578b5756160201000103fe40","640759fa512f630a2bdc333d","64077cebe938bc776f9bb271","null","","null","","","","","","","","","","","","","","","","","","","fixation","",""
"","","","","","color-precision2","95","254518","0.0-10.0-0.38-0.38","578b5756160201000103fe40","640759fa512f630a2bdc333d","64077cebe938bc776f9bb271","[522]","","","[23]","[121]","121","255","26.062919905506817","[26.062919905506817]","[131.06291990550682]","[130]","0","0","1","0","149.4200000000128","1004.7399999999907","1000","[[[""img/mask66.png""]]]","","","main","255","color-precision2"
"","","","","","html-keyboard-response","96","255026","0.0-10.0-1.38","578b5756160201000103fe40","640759fa512f630a2bdc333d","64077cebe938bc776f9bb271","null","","null","","","","","","","","","","","","","","","","","","","fixation","",""
"","","","","","many-guess-6","97","258871","0.0-10.0-0.39-0.39","578b5756160201000103fe40","640759fa512f630a2bdc333d","64077cebe938bc776f9bb271","[2392]","","","[26,31,18,32,16,9,27,17,21,25,3,35,30,34,14,4,2,1,29,19,5,0,15,33,23,10,12,24,20,8,11,13,22,28,7,6]","[87,216,326,246,136,276,286,67,356,57,316,27,256,146,97,17,236,7,226,127,166,77,117,306,206,107,196,296,346,266,37,336,156,47,176,186]","87","216","200.11638783707807","[200.11638783707807]","[344.11638783707804]","[344]","[300,120,300,120,30,120,120,120,120]","0","36","0","149.72000000000116","12.200000000011642","16","[[[""img/mask37.png""],[""img/mask100.png""],[""img/mask9.png""],[""img/mask5.png""],[""img/mask82.png""],[""img/mask26.png""],[""img/mask51.png""],[""img/mask49.png""],[""img/mask63.png""],[""img/mask35.png""],[""img/mask27.png""],[""img/mask4.png""],[""img/mask84.png""],[""img/mask6.png""],[""img/mask73.png""],[""img/mask83.png""],[""img/mask81.png""],[""img/mask62.png""],[""img/mask75.png""],[""img/mask3.png""],[""img/mask99.png""],[""img/mask38.png""],[""img/mask98.png""],[""img/mask32.png""],[""img/mask7.png""],[""img/mask86.png""],[""img/mask71.png""],[""img/mask55.png""],[""img/mask21.png""],[""img/mask54.png""],[""img/mask38.png""],[""img/mask40.png""],[""img/mask32.png""],[""img/mask8.png""],[""img/mask77.png""],[""img/mask2.png""]]]","","[26,31,18,32,16,9,27,17,21,25,3,35,30,34,14,4,2,1,29,19,5,0,15,33,23,10,12,24,20,8,11,13,22,28,7,6]","main","216","many-guess-6"
"","","","","","html-keyboard-response","98","260227","0.0-10.0-1.39","578b5756160201000103fe40","640759fa512f630a2bdc333d","64077cebe938bc776f9bb271","1356","Wow! You've completed 40 out of 180 trials! </p> <p>  </p><p> Take a quick break, then press any key when you're ready to continue."," ","","","","","","","","","","","","","","","","","","","fixation","",""
"","","","","","color-precision2","99","262956","0.0-10.0-0.40-0.40","578b5756160201000103fe40","640759fa512f630a2bdc333d","64077cebe938bc776f9bb271","[212]","","","[18]","[268]","268","273","","[null]","[null]","[275]","0","0","1","0","149.28000000002794","1004.7199999999721","1000","[[[""img/mask79.png""]]]","","","main","273","color-precision2"
"","","","","","html-keyboard-response","100","263464","0.0-10.0-1.40","578b5756160201000103fe40","640759fa512f630a2bdc333d","64077cebe938bc776f9bb271","null","","null","","","","","","","","","","","","","","","","","","","fixation","",""
"","","","","","color-precision2","101","266222","0.0-10.0-0.41-0.41","578b5756160201000103fe40","640759fa512f630a2bdc333d","64077cebe938bc776f9bb271","[443]","","","[21]","[334]","334","245","226.3220099755684","[226.3220099755684]","[341.3220099755684]","[342]","0","0","1","0","148.6599999999744","1006","1000","[[[""img/mask17.png""]]]","","","main","245","color-precision2"
"","","","","","html-keyboard-response","102","266736","0.0-10.0-1.41","578b5756160201000103fe40","640759fa512f630a2bdc333d","64077cebe938bc776f9bb271","null","","null","","","","","","","","","","","","","","","","","","","fixation","",""
"","","","","","many-guess-6","103","269674","0.0-10.0-0.42-0.42","578b5756160201000103fe40","640759fa512f630a2bdc333d","64077cebe938bc776f9bb271","[1661]","","","[16,10,25,26,8,11,32,22,3,33,21,4,12,17,9,30,19,18,20,1,13,14,15,23,0,35,7,5,6,27,2,34,24,29,28,31]","[194,304,184,354,324,24,74,15,334,44,144,154,64,134,294,314,84,284,34,204,344,54,214,244,224,234,104,5,174,124,114,274,94,164,264,254]","194","35","121.22185221346548","[121.22185221346548]","[86.22185221346548]","[85]","[30,30,120,30,300,30,300,30,210]","0","36","0","150.05999999999767","13.400000000023283","16","[[[""img/mask49.png""],[""img/mask64.png""],[""img/mask56.png""],[""img/mask84.png""],[""img/mask83.png""],[""img/mask10.png""],[""img/mask99.png""],[""img/mask90.png""],[""img/mask97.png""],[""img/mask86.png""],[""img/mask100.png""],[""img/mask40.png""],[""img/mask16.png""],[""img/mask50.png""],[""img/mask18.png""],[""img/mask28.png""],[""img/mask48.png""],[""img/mask84.png""],[""img/mask19.png""],[""img/mask7.png""],[""img/mask24.png""],[""img/mask27.png""],[""img/mask49.png""],[""img/mask66.png""],[""img/mask25.png""],[""img/mask70.png""],[""img/mask16.png""],[""img/mask62.png""],[""img/mask88.png""],[""img/mask57.png""],[""img/mask43.png""],[""img/mask28.png""],[""img/mask96.png""],[""img/mask4.png""],[""img/mask6.png""],[""img/mask13.png""]]]","","[16,10,25,26,8,11,32,22,3,33,21,4,12,17,9,30,19,18,20,1,13,14,15,23,0,35,7,5,6,27,2,34,24,29,28,31]","main","35","many-guess-6"
"","","","","","html-keyboard-response","104","270184","0.0-10.0-1.42","578b5756160201000103fe40","640759fa512f630a2bdc333d","64077cebe938bc776f9bb271","null","","null","","","","","","","","","","","","","","","","","","","fixation","",""
"","","","","","many-guess-6","105","273658","0.0-10.0-0.43-0.43","578b5756160201000103fe40","640759fa512f630a2bdc333d","64077cebe938bc776f9bb271","[2162]","","","[32,22,33,26,25,10,14,31,6,21,4,29,27,9,5,13,7,15,24,20,35,34,23,28,19,2,30,0,11,3,16,8,18,1,17,12]","[320,110,130,180,41,210,260,170,250,90,190,80,160,330,230,280,350,310,1,21,120,70,140,300,31,150,51,220,270,60,200,240,290,100,11,340]","320","305","212.5758205111633","[212.5758205111633]","[267.57582051116333]","[267]","[210,300,210,120,120,210,300,210,210]","0","36","0","150.3400000000256","18.71999999997206","16","[[[""img/mask97.png""],[""img/mask3.png""],[""img/mask77.png""],[""img/mask63.png""],[""img/mask58.png""],[""img/mask24.png""],[""img/mask64.png""],[""img/mask73.png""],[""img/mask35.png""],[""img/mask55.png""],[""img/mask14.png""],[""img/mask93.png""],[""img/mask18.png""],[""img/mask73.png""],[""img/mask43.png""],[""img/mask44.png""],[""img/mask66.png""],[""img/mask72.png""],[""img/mask92.png""],[""img/mask97.png""],[""img/mask11.png""],[""img/mask8.png""],[""img/mask61.png""],[""img/mask26.png""],[""img/mask10.png""],[""img/mask24.png""],[""img/mask44.png""],[""img/mask38.png""],[""img/mask68.png""],[""img/mask20.png""],[""img/mask23.png""],[""img/mask78.png""],[""img/mask76.png""],[""img/mask37.png""],[""img/mask13.png""],[""img/mask73.png""]]]","","[32,22,33,26,25,10,14,31,6,21,4,29,27,9,5,13,7,15,24,20,35,34,23,28,19,2,30,0,11,3,16,8,18,1,17,12]","main","305","many-guess-6"
"","","","","","html-keyboard-response","106","274171","0.0-10.0-1.43","578b5756160201000103fe40","640759fa512f630a2bdc333d","64077cebe938bc776f9bb271","null","","null","","","","","","","","","","","","","","","","","","","fixation","",""
"","","","","","color-precision2","107","277136","0.0-10.0-0.44-0.44","578b5756160201000103fe40","640759fa512f630a2bdc333d","64077cebe938bc776f9bb271","[675]","","","[33]","[253]","253","336","241.7281160911487","[241.7281160911487]","[265.7281160911487]","[266]","0","0","1","0","148.90000000002328","999.2199999999721","1000","[[[""img/mask82.png""]]]","","","main","336","color-precision2"
"","","","","","html-keyboard-response","108","277646","0.0-10.0-1.44","578b5756160201000103fe40","640759fa512f630a2bdc333d","64077cebe938bc776f9bb271","null","","null","","","","","","","","","","","","","","","","","","","fixation","",""
"","","","","","many-guess-6","109","282767","0.0-10.0-0.45-0.45","578b5756160201000103fe40","640759fa512f630a2bdc333d","64077cebe938bc776f9bb271","[3039]","","","[1,31,25,33,15,18,27,23,19,2,32,9,0,26,30,12,13,7,16,35,21,11,34,20,4,10,24,5,29,28,22,3,14,8,6,17]","[228,298,328,168,9,49,348,29,79,358,59,99,258,188,148,19,69,308,268,238,218,208,89,109,198,138,248,158,39,288,178,118,278,338,128,318]","228","107","342.3073360003853","[342.3073360003853]","[235.3073360003853]","[235]","[30,210,30,300,210,120,300,210,300]","0","36","0","149.52000000001863","11.940000000002328","16","[[[""img/mask30.png""],[""img/mask70.png""],[""img/mask10.png""],[""img/mask16.png""],[""img/mask61.png""],[""img/mask14.png""],[""img/mask41.png""],[""img/mask31.png""],[""img/mask77.png""],[""img/mask85.png""],[""img/mask31.png""],[""img/mask76.png""],[""img/mask26.png""],[""img/mask90.png""],[""img/mask19.png""],[""img/mask21.png""],[""img/mask36.png""],[""img/mask100.png""],[""img/mask1.png""],[""img/mask69.png""],[""img/mask79.png""],[""img/mask33.png""],[""img/mask9.png""],[""img/mask72.png""],[""img/mask38.png""],[""img/mask59.png""],[""img/mask33.png""],[""img/mask20.png""],[""img/mask80.png""],[""img/mask16.png""],[""img/mask54.png""],[""img/mask90.png""],[""img/mask41.png""],[""img/mask31.png""],[""img/mask52.png""],[""img/mask45.png""]]]","","[1,31,25,33,15,18,27,23,19,2,32,9,0,26,30,12,13,7,16,35,21,11,34,20,4,10,24,5,29,28,22,3,14,8,6,17]","main","107","many-guess-6"
"","","","","","html-keyboard-response","110","283269","0.0-10.0-1.45","578b5756160201000103fe40","640759fa512f630a2bdc333d","64077cebe938bc776f9bb271","null","","null","","","","","","","","","","","","","","","","","","","fixation","",""
"","","","","","color-precision2","111","286415","0.0-10.0-0.46-0.46","578b5756160201000103fe40","640759fa512f630a2bdc333d","64077cebe938bc776f9bb271","[770]","","","[9]","[227]","227","282","162.85210836055072","[162.85210836055072]","[240.85210836055072]","[240]","0","0","1","0","149.20000000001164","996.5200000000186","1000","[[[""img/mask43.png""]]]","","","main","282","color-precision2"
"","","","","","html-keyboard-response","112","286919","0.0-10.0-1.46","578b5756160201000103fe40","640759fa512f630a2bdc333d","64077cebe938bc776f9bb271","null","","null","","","","","","","","","","","","","","","","","","","fixation","",""
"","","","","","many-guess-6","113","290283","0.0-10.0-0.47-0.47","578b5756160201000103fe40","640759fa512f630a2bdc333d","64077cebe938bc776f9bb271","[1506]","","","[24,22,32,25,33,34,27,9,30,2,1,28,26,8,10,20,11,6,23,4,12,15,17,13,29,7,31,19,35,3,21,14,0,16,5,18]","[221,211,181,291,12,171,241,91,261,331,121,151,301,111,32,191,62,2,81,341,311,321,231,201,52,251,72,42,131,141,351,271,161,281,22,101]","221","72","205.53006004131112","[205.53006004131112]","[133.53006004131112]","[134]","[300,30,210,120,30,30,120,210,210]","0","36","0","149.5","11.979999999981374","16","[[[""img/mask88.png""],[""img/mask7.png""],[""img/mask49.png""],[""img/mask91.png""],[""img/mask11.png""],[""img/mask38.png""],[""img/mask84.png""],[""img/mask30.png""],[""img/mask13.png""],[""img/mask80.png""],[""img/mask20.png""],[""img/mask76.png""],[""img/mask92.png""],[""img/mask48.png""],[""img/mask85.png""],[""img/mask14.png""],[""img/mask87.png""],[""img/mask24.png""],[""img/mask69.png""],[""img/mask41.png""],[""img/mask98.png""],[""img/mask14.png""],[""img/mask43.png""],[""img/mask17.png""],[""img/mask42.png""],[""img/mask36.png""],[""img/mask47.png""],[""img/mask65.png""],[""img/mask73.png""],[""img/mask7.png""],[""img/mask13.png""],[""img/mask63.png""],[""img/mask35.png""],[""img/mask27.png""],[""img/mask91.png""],[""img/mask26.png""]]]","","[24,22,32,25,33,34,27,9,30,2,1,28,26,8,10,20,11,6,23,4,12,15,17,13,29,7,31,19,35,3,21,14,0,16,5,18]","main","72","many-guess-6"
"","","","","","html-keyboard-response","114","290792","0.0-10.0-1.47","578b5756160201000103fe40","640759fa512f630a2bdc333d","64077cebe938bc776f9bb271","null","","null","","","","","","","","","","","","","","","","","","","fixation","",""
"","","","","","many-guess-6","115","293784","0.0-10.0-0.48-0.48","578b5756160201000103fe40","640759fa512f630a2bdc333d","64077cebe938bc776f9bb271","[1638]","","","[0,33,9,22,5,6,27,15,7,2,19,25,34,18,13,11,14,23,21,3,30,4,24,26,20,10,32,17,35,31,16,1,29,12,28,8]","[232,123,173,143,352,73,213,3,23,223,103,312,183,302,193,292,133,63,342,332,252,113,262,282,322,163,33,83,53,242,153,43,272,203,13,93]","232","284","326.4536991500747","[326.4536991500747]","[42.453699150074726]","[42]","[120,120,300,30,120,210,210,30,120]","0","36","0","149.2399999999907","19.55999999999767","16","[[[""img/mask55.png""],[""img/mask74.png""],[""img/mask37.png""],[""img/mask97.png""],[""img/mask46.png""],[""img/mask58.png""],[""img/mask71.png""],[""img/mask87.png""],[""img/mask55.png""],[""img/mask14.png""],[""img/mask68.png""],[""img/mask38.png""],[""img/mask67.png""],[""img/mask43.png""],[""img/mask6.png""],[""img/mask47.png""],[""img/mask56.png""],[""img/mask93.png""],[""img/mask20.png""],[""img/mask93.png""],[""img/mask73.png""],[""img/mask42.png""],[""img/mask87.png""],[""img/mask40.png""],[""img/mask27.png""],[""img/mask12.png""],[""img/mask65.png""],[""img/mask86.png""],[""img/mask17.png""],[""img/mask62.png""],[""img/mask95.png""],[""img/mask4.png""],[""img/mask77.png""],[""img/mask16.png""],[""img/mask84.png""],[""img/mask35.png""]]]","","[0,33,9,22,5,6,27,15,7,2,19,25,34,18,13,11,14,23,21,3,30,4,24,26,20,10,32,17,35,31,16,1,29,12,28,8]","main","284","many-guess-6"
"","","","","","html-keyboard-response","116","294299","0.0-10.0-1.48","578b5756160201000103fe40","640759fa512f630a2bdc333d","64077cebe938bc776f9bb271","null","","null","","","","","","","","","","","","","","","","","","","fixation","",""
"","","","","","color-precision2","117","297665","0.0-10.0-0.49-0.49","578b5756160201000103fe40","640759fa512f630a2bdc333d","64077cebe938bc776f9bb271","[804]","","","[35]","[288]","288","278","200.42062549330976","[200.42062549330976]","[282.4206254933098]","[282]","0","0","1","0","149.79999999998836","993.1199999999953","1000","[[[""img/mask49.png""]]]","","","main","278","color-precision2"
"","","","","","html-keyboard-response","118","298181","0.0-10.0-1.49","578b5756160201000103fe40","640759fa512f630a2bdc333d","64077cebe938bc776f9bb271","null","","null","","","","","","","","","","","","","","","","","","","fixation","",""
"","","","","","color-precision2","119","301926","0.0-10.0-0.50-0.50","578b5756160201000103fe40","640759fa512f630a2bdc333d","64077cebe938bc776f9bb271","[1612]","","","[15]","[170]","170","329","142.6827435876484","[142.6827435876484]","[173.6827435876484]","[173]","0","0","1","0","149.71999999997206","996.0599999999977","1000","[[[""img/mask5.png""]]]","","","main","329","color-precision2"
"","","","","","html-keyboard-response","120","302430","0.0-10.0-1.50","578b5756160201000103fe40","640759fa512f630a2bdc333d","64077cebe938bc776f9bb271","null","","null","","","","","","","","","","","","","","","","","","","fixation","",""
"","","","","","color-precision2","121","305751","0.0-10.0-0.51-0.51","578b5756160201000103fe40","640759fa512f630a2bdc333d","64077cebe938bc776f9bb271","[773]","","","[0]","[279]","279","74","358.7296352245988","[358.7296352245988]","[284.7296352245988]","[284]","0","0","1","0","149.4199999999837","996.7399999999907","1000","[[[""img/mask96.png""]]]","","","main","74","color-precision2"
"","","","","","html-keyboard-response","122","306259","0.0-10.0-1.51","578b5756160201000103fe40","640759fa512f630a2bdc333d","64077cebe938bc776f9bb271","null","","null","","","","","","","","","","","","","","","","","","","fixation","",""
"","","","","","color-precision2","123","308760","0.0-10.0-0.52-0.52","578b5756160201000103fe40","640759fa512f630a2bdc333d","64077cebe938bc776f9bb271","[297]","","","[31]","[177]","177","272","","[null]","[null]","[148]","0","0","1","0","148.61999999999534","1005.960000000021","1000","[[[""img/mask44.png""]]]","","","main","272","color-precision2"
"","","","","","html-keyboard-response","124","309263","0.0-10.0-1.52","578b5756160201000103fe40","640759fa512f630a2bdc333d","64077cebe938bc776f9bb271","null","","null","","","","","","","","","","","","","","","","","","","fixation","",""
"","","","","","color-precision2","125","312329","0.0-10.0-0.53-0.53","578b5756160201000103fe40","640759fa512f630a2bdc333d","64077cebe938bc776f9bb271","[950]","","","[31]","[315]","315","268","224.78766395650587","[224.78766395650587]","[316.78766395650587]","[317]","0","0","1","0","149.32000000000698","996.6599999999744","1000","[[[""img/mask58.png""]]]","","","main","268","color-precision2"
"","","","","","html-keyboard-response","126","312837","0.0-10.0-1.53","578b5756160201000103fe40","640759fa512f630a2bdc333d","64077cebe938bc776f9bb271","null","","null","","","","","","","","","","","","","","","","","","","fixation","",""
"","","","","","color-precision2","127","315399","0.0-10.0-0.54-0.54","578b5756160201000103fe40","640759fa512f630a2bdc333d","64077cebe938bc776f9bb271","[471]","","","[35]","[255]","255","123","35.09551008134681","[35.09551008134681]","[272.0955100813468]","[271]","0","0","1","0","149.2399999999907","1003.640000000014","1000","[[[""img/mask2.png""]]]","","","main","123","color-precision2"
"","","","","","html-keyboard-response","128","315904","0.0-10.0-1.54","578b5756160201000103fe40","640759fa512f630a2bdc333d","64077cebe938bc776f9bb271","null","","null","","","","","","","","","","","","","","","","","","","fixation","",""
"","","","","","many-guess-6","129","318970","0.0-10.0-0.55-0.55","578b5756160201000103fe40","640759fa512f630a2bdc333d","64077cebe938bc776f9bb271","[1941]","","","[17,23,28,14,12,7,25,10,33,31,0,8,26,34,24,3,18,32,9,2,11,16,35,1,4,20,21,15,19,30,27,22,6,13,5,29]","[102,63,352,132,302,152,282,122,33,272,82,212,312,262,252,23,162,242,43,222,13,342,73,172,53,182,3,292,192,202,142,112,332,322,92,232]","102","35","160.65142978766235","[160.65142978766235]","[125.65142978766235]","[124]","[30,300,120,300,30,300,300,120,210]","0","36","0","149.40000000002328","22.739999999990687","16","[[[""img/mask99.png""],[""img/mask89.png""],[""img/mask31.png""],[""img/mask32.png""],[""img/mask97.png""],[""img/mask76.png""],[""img/mask16.png""],[""img/mask16.png""],[""img/mask99.png""],[""img/mask96.png""],[""img/mask81.png""],[""img/mask87.png""],[""img/mask59.png""],[""img/mask62.png""],[""img/mask28.png""],[""img/mask16.png""],[""img/mask12.png""],[""img/mask46.png""],[""img/mask30.png""],[""img/mask78.png""],[""img/mask27.png""],[""img/mask52.png""],[""img/mask86.png""],[""img/mask26.png""],[""img/mask41.png""],[""img/mask98.png""],[""img/mask14.png""],[""img/mask87.png""],[""img/mask6.png""],[""img/mask55.png""],[""img/mask27.png""],[""img/mask90.png""],[""img/mask49.png""],[""img/mask6.png""],[""img/mask88.png""],[""img/mask77.png""]]]","","[17,23,28,14,12,7,25,10,33,31,0,8,26,34,24,3,18,32,9,2,11,16,35,1,4,20,21,15,19,30,27,22,6,13,5,29]","main","35","many-guess-6"
"","","","","","html-keyboard-response","130","319478","0.0-10.0-1.55","578b5756160201000103fe40","640759fa512f630a2bdc333d","64077cebe938bc776f9bb271","null","","null","","","","","","","","","","","","","","","","","","","fixation","",""
"","","","","","color-precision2","131","323281","0.0-10.0-0.56-0.56","578b5756160201000103fe40","640759fa512f630a2bdc333d","64077cebe938bc776f9bb271","[1553]","","","[13]","[93]","93","176","277.6484480063575","[277.6484480063575]","[101.64844800635751]","[102]","0","0","1","0","149.28000000002794","993.5999999999767","1000","[[[""img/mask3.png""]]]","","","main","176","color-precision2"
"","","","","","html-keyboard-response","132","323789","0.0-10.0-1.56","578b5756160201000103fe40","640759fa512f630a2bdc333d","64077cebe938bc776f9bb271","null","","null","","","","","","","","","","","","","","","","","","","fixation","",""
"","","","","","color-precision2","133","326765","0.0-10.0-0.57-0.57","578b5756160201000103fe40","640759fa512f630a2bdc333d","64077cebe938bc776f9bb271","[672]","","","[28]","[293]","293","128","48.573485128882105","[48.573485128882105]","[280.5734851288821]","[279]","0","0","1","0","148.88000000000466","998.2199999999721","1000","[[[""img/mask98.png""]]]","","","main","128","color-precision2"
"","","","","","html-keyboard-response","134","327277","0.0-10.0-1.57","578b5756160201000103fe40","640759fa512f630a2bdc333d","64077cebe938bc776f9bb271","null","","null","","","","","","","","","","","","","","","","","","","fixation","",""
"","","","","","many-guess-6","135","331298","0.0-10.0-0.58-0.58","578b5756160201000103fe40","640759fa512f630a2bdc333d","64077cebe938bc776f9bb271","[2853]","","","[16,2,11,21,7,5,12,6,4,17,20,35,26,19,29,34,25,14,18,31,0,8,1,32,10,13,9,3,22,27,28,30,33,23,24,15]","[309,149,189,119,339,329,40,79,229,30,199,319,59,219,269,169,239,129,139,50,249,289,159,20,359,10,179,349,279,89,99,109,299,259,209,69]","309","300","106.83817170894199","[106.83817170894199]","[166.83817170894199]","[165]","[120,210,120,30,300,30,210,30,300]","0","36","0","149.79999999998836","18.320000000006985","16","[[[""img/mask86.png""],[""img/mask18.png""],[""img/mask49.png""],[""img/mask83.png""],[""img/mask89.png""],[""img/mask38.png""],[""img/mask76.png""],[""img/mask54.png""],[""img/mask47.png""],[""img/mask82.png""],[""img/mask74.png""],[""img/mask87.png""],[""img/mask48.png""],[""img/mask48.png""],[""img/mask57.png""],[""img/mask90.png""],[""img/mask67.png""],[""img/mask45.png""],[""img/mask21.png""],[""img/mask25.png""],[""img/mask81.png""],[""img/mask21.png""],[""img/mask81.png""],[""img/mask18.png""],[""img/mask40.png""],[""img/mask80.png""],[""img/mask68.png""],[""img/mask61.png""],[""img/mask62.png""],[""img/mask45.png""],[""img/mask91.png""],[""img/mask87.png""],[""img/mask2.png""],[""img/mask48.png""],[""img/mask92.png""],[""img/mask90.png""]]]","","[16,2,11,21,7,5,12,6,4,17,20,35,26,19,29,34,25,14,18,31,0,8,1,32,10,13,9,3,22,27,28,30,33,23,24,15]","main","300","many-guess-6"
"","","","","","html-keyboard-response","136","331798","0.0-10.0-1.58","578b5756160201000103fe40","640759fa512f630a2bdc333d","64077cebe938bc776f9bb271","null","","null","","","","","","","","","","","","","","","","","","","fixation","",""
"","","","","","color-precision2","137","335195","0.0-10.0-0.59-0.59","578b5756160201000103fe40","640759fa512f630a2bdc333d","64077cebe938bc776f9bb271","[900]","","","[25]","[80]","80","61","148.810211192089","[148.810211192089]","[87.81021119208901]","[86]","0","0","1","0","149.82000000000698","1002.1599999999744","1000","[[[""img/mask61.png""]]]","","","main","61","color-precision2"
"","","","","","html-keyboard-response","138","337346","0.0-10.0-1.59","578b5756160201000103fe40","640759fa512f630a2bdc333d","64077cebe938bc776f9bb271","2151","Wow! You've completed 60 out of 180 trials! </p> <p>  </p><p> Take a quick break, then press any key when you're ready to continue."," ","","","","","","","","","","","","","","","","","","","fixation","",""
"","","","","","many-guess-6","139","341594","0.0-10.0-0.60-0.60","578b5756160201000103fe40","640759fa512f630a2bdc333d","64077cebe938bc776f9bb271","[2231]","","","[8,28,4,21,12,5,33,29,17,31,35,34,20,2,3,1,9,7,16,24,32,15,27,10,18,6,25,23,30,11,19,13,26,22,0,14]","[299,20,199,269,209,120,309,90,329,170,239,180,339,289,279,60,359,70,349,130,219,249,80,30,110,160,10,40,259,140,319,150,189,50,229,100]","299","298","17.429944558893638","[17.429944558893638]","[79.42994455889362]","[79]","[210,120,210,30,300,300,120,300,120]","0","36","0","149.47999999998137","22.919999999983702","16","[[[""img/mask35.png""],[""img/mask100.png""],[""img/mask67.png""],[""img/mask98.png""],[""img/mask76.png""],[""img/mask50.png""],[""img/mask89.png""],[""img/mask45.png""],[""img/mask12.png""],[""img/mask13.png""],[""img/mask74.png""],[""img/mask35.png""],[""img/mask78.png""],[""img/mask57.png""],[""img/mask7.png""],[""img/mask75.png""],[""img/mask56.png""],[""img/mask86.png""],[""img/mask43.png""],[""img/mask25.png""],[""img/mask30.png""],[""img/mask83.png""],[""img/mask27.png""],[""img/mask39.png""],[""img/mask26.png""],[""img/mask30.png""],[""img/mask2.png""],[""img/mask99.png""],[""img/mask59.png""],[""img/mask82.png""],[""img/mask35.png""],[""img/mask32.png""],[""img/mask33.png""],[""img/mask28.png""],[""img/mask79.png""],[""img/mask28.png""]]]","","[8,28,4,21,12,5,33,29,17,31,35,34,20,2,3,1,9,7,16,24,32,15,27,10,18,6,25,23,30,11,19,13,26,22,0,14]","main","298","many-guess-6"
"","","","","","html-keyboard-response","140","342102","0.0-10.0-1.60","578b5756160201000103fe40","640759fa512f630a2bdc333d","64077cebe938bc776f9bb271","null","","null","","","","","","","","","","","","","","","","","","","fixation","",""
"","","","","","color-precision2","141","345007","0.0-10.0-0.61-0.61","578b5756160201000103fe40","640759fa512f630a2bdc333d","64077cebe938bc776f9bb271","[595]","","","[2]","[328]","328","137","110.39931280555395","[110.39931280555395]","[333.39931280555396]","[332]","0","0","1","0","149.4199999999837","1003.7600000000093","1000","[[[""img/mask61.png""]]]","","","main","137","color-precision2"
"","","","","","html-keyboard-response","142","345510","0.0-10.0-1.61","578b5756160201000103fe40","640759fa512f630a2bdc333d","64077cebe938bc776f9bb271","null","","null","","","","","","","","","","","","","","","","","","","fixation","",""
"","","","","","many-guess-6","143","349318","0.0-10.0-0.62-0.62","578b5756160201000103fe40","640759fa512f630a2bdc333d","64077cebe938bc776f9bb271","[1891]","","","[16,29,35,8,0,34,32,20,13,31,12,26,28,19,18,1,21,25,17,14,15,11,23,6,9,5,10,24,30,3,27,33,2,4,7,22]","[293,333,54,323,203,124,64,193,104,303,233,74,213,313,134,253,94,173,343,4,34,44,283,144,273,353,263,24,183,84,14,243,114,154,223,163]","293","88","235.43036374166383","[235.43036374166383]","[147.43036374166383]","[148]","[210,30,30,300,210,30,210,30,300]","0","36","0","150.09999999997672","22.44000000000233","16","[[[""img/mask24.png""],[""img/mask17.png""],[""img/mask58.png""],[""img/mask48.png""],[""img/mask96.png""],[""img/mask18.png""],[""img/mask99.png""],[""img/mask6.png""],[""img/mask43.png""],[""img/mask31.png""],[""img/mask58.png""],[""img/mask81.png""],[""img/mask85.png""],[""img/mask97.png""],[""img/mask4.png""],[""img/mask81.png""],[""img/mask85.png""],[""img/mask75.png""],[""img/mask82.png""],[""img/mask78.png""],[""img/mask18.png""],[""img/mask96.png""],[""img/mask44.png""],[""img/mask59.png""],[""img/mask30.png""],[""img/mask17.png""],[""img/mask49.png""],[""img/mask95.png""],[""img/mask83.png""],[""img/mask98.png""],[""img/mask28.png""],[""img/mask50.png""],[""img/mask2.png""],[""img/mask1.png""],[""img/mask61.png""],[""img/mask80.png""]]]","","[16,29,35,8,0,34,32,20,13,31,12,26,28,19,18,1,21,25,17,14,15,11,23,6,9,5,10,24,30,3,27,33,2,4,7,22]","main","88","many-guess-6"
"","","","","","html-keyboard-response","144","349820","0.0-10.0-1.62","578b5756160201000103fe40","640759fa512f630a2bdc333d","64077cebe938bc776f9bb271","null","","null","","","","","","","","","","","","","","","","","","","fixation","",""
"","","","","","color-precision2","145","353405","0.0-10.0-0.63-0.63","578b5756160201000103fe40","640759fa512f630a2bdc333d","64077cebe938bc776f9bb271","[843]","","","[3]","[205]","205","324","158.40691628147323","[158.40691628147323]","[194.40691628147323]","[194]","0","0","1","0","149.35999999998603","1003.679999999993","1000","[[[""img/mask43.png""]]]","","","main","324","color-precision2"
"","","","","","html-keyboard-response","146","353908","0.0-10.0-1.63","578b5756160201000103fe40","640759fa512f630a2bdc333d","64077cebe938bc776f9bb271","null","","null","","","","","","","","","","","","","","","","","","","fixation","",""
"","","","","","color-precision2","147","357224","0.0-10.0-0.64-0.64","578b5756160201000103fe40","640759fa512f630a2bdc333d","64077cebe938bc776f9bb271","[264]","","","[32]","[296]","296","157","93.65831155041337","[93.65831155041337]","[296.6583115504134]","[296]","0","0","1","0","150.32000000000698","999.679999999993","1000","[[[""img/mask57.png""]]]","","","main","157","color-precision2"
"","","","","","html-keyboard-response","148","357734","0.0-10.0-1.64","578b5756160201000103fe40","640759fa512f630a2bdc333d","64077cebe938bc776f9bb271","null","","null","","","","","","","","","","","","","","","","","","","fixation","",""
"","","","","","color-precision2","149","360711","0.0-10.0-0.65-0.65","578b5756160201000103fe40","640759fa512f630a2bdc333d","64077cebe938bc776f9bb271","[866]","","","[13]","[233]","233","313","196.6404750023385","[196.6404750023385]","[243.6404750023385]","[243]","0","0","1","0","149.6599999999744","1004.9799999999814","1000","[[[""img/mask70.png""]]]","","","main","313","color-precision2"
"","","","","","html-keyboard-response","150","361224","0.0-10.0-1.65","578b5756160201000103fe40","640759fa512f630a2bdc333d","64077cebe938bc776f9bb271","null","","null","","","","","","","","","","","","","","","","","","","fixation","",""
"","","","","","many-guess-6","151","364233","0.0-10.0-0.66-0.66","578b5756160201000103fe40","640759fa512f630a2bdc333d","64077cebe938bc776f9bb271","[1921]","","","[7,31,13,15,21,27,20,2,32,1,9,23,19,0,8,17,30,4,26,16,14,28,35,3,10,5,12,18,34,25,24,22,33,11,6,29]","[325,66,185,116,355,215,16,56,6,305,255,136,265,205,225,285,46,175,26,76,245,86,36,335,126,145,235,345,106,155,195,295,96,275,315,165]","325","337","193.93085815292793","[193.93085815292793]","[216.93085815292793]","[216]","[120,120,300,300,30,300,30,30,30]","0","36","0","149.2600000000093","17.580000000016298","16","[[[""img/mask79.png""],[""img/mask55.png""],[""img/mask27.png""],[""img/mask60.png""],[""img/mask67.png""],[""img/mask46.png""],[""img/mask71.png""],[""img/mask57.png""],[""img/mask26.png""],[""img/mask44.png""],[""img/mask98.png""],[""img/mask30.png""],[""img/mask23.png""],[""img/mask75.png""],[""img/mask79.png""],[""img/mask79.png""],[""img/mask55.png""],[""img/mask63.png""],[""img/mask94.png""],[""img/mask10.png""],[""img/mask15.png""],[""img/mask35.png""],[""img/mask19.png""],[""img/mask29.png""],[""img/mask73.png""],[""img/mask79.png""],[""img/mask14.png""],[""img/mask68.png""],[""img/mask73.png""],[""img/mask66.png""],[""img/mask6.png""],[""img/mask23.png""],[""img/mask45.png""],[""img/mask10.png""],[""img/mask82.png""],[""img/mask100.png""]]]","","[7,31,13,15,21,27,20,2,32,1,9,23,19,0,8,17,30,4,26,16,14,28,35,3,10,5,12,18,34,25,24,22,33,11,6,29]","main","337","many-guess-6"
"","","","","","html-keyboard-response","152","364736","0.0-10.0-1.66","578b5756160201000103fe40","640759fa512f630a2bdc333d","64077cebe938bc776f9bb271","null","","null","","","","","","","","","","","","","","","","","","","fixation","",""
"","","","","","many-guess-6","153","368766","0.0-10.0-0.67-0.67","578b5756160201000103fe40","640759fa512f630a2bdc333d","64077cebe938bc776f9bb271","[1738]","","","[0,34,13,35,20,28,10,30,14,33,3,1,5,7,32,11,22,26,31,18,25,12,21,29,8,16,17,6,4,9,24,23,27,19,2,15]","[344,15,85,65,125,155,244,45,234,334,55,135,145,35,314,304,205,354,324,185,284,115,175,195,75,264,105,274,25,5,165,95,215,294,224,254]","344","31","276.7053410404577","[276.7053410404577]","[245.7053410404577]","[246]","[120,30,210,120,120,210,30,300,120]","0","36","0","149.8400000000256","21.380000000004657","16","[[[""img/mask51.png""],[""img/mask58.png""],[""img/mask15.png""],[""img/mask5.png""],[""img/mask25.png""],[""img/mask72.png""],[""img/mask77.png""],[""img/mask16.png""],[""img/mask8.png""],[""img/mask12.png""],[""img/mask33.png""],[""img/mask23.png""],[""img/mask64.png""],[""img/mask24.png""],[""img/mask47.png""],[""img/mask15.png""],[""img/mask47.png""],[""img/mask1.png""],[""img/mask22.png""],[""img/mask40.png""],[""img/mask82.png""],[""img/mask71.png""],[""img/mask68.png""],[""img/mask18.png""],[""img/mask33.png""],[""img/mask69.png""],[""img/mask98.png""],[""img/mask8.png""],[""img/mask89.png""],[""img/mask29.png""],[""img/mask36.png""],[""img/mask5.png""],[""img/mask14.png""],[""img/mask58.png""],[""img/mask48.png""],[""img/mask96.png""]]]","","[0,34,13,35,20,28,10,30,14,33,3,1,5,7,32,11,22,26,31,18,25,12,21,29,8,16,17,6,4,9,24,23,27,19,2,15]","main","31","many-guess-6"
"","","","","","html-keyboard-response","154","369279","0.0-10.0-1.67","578b5756160201000103fe40","640759fa512f630a2bdc333d","64077cebe938bc776f9bb271","null","","null","","","","","","","","","","","","","","","","","","","fixation","",""
"","","","","","many-guess-6","155","373662","0.0-10.0-0.68-0.68","578b5756160201000103fe40","640759fa512f630a2bdc333d","64077cebe938bc776f9bb271","[2852]","","","[22,35,26,29,15,34,17,14,10,24,8,11,19,1,33,0,16,5,28,30,21,20,13,4,12,25,32,31,27,2,6,7,18,23,9,3]","[311,182,202,341,251,321,291,112,271,351,22,2,222,132,72,62,32,301,82,92,122,102,212,172,331,12,162,281,241,42,152,192,52,142,232,261]","311","108","44.0027302991361","[44.0027302991361]","[296.0027302991361]","[295]","[300,210,120,210,300,120,120,120,30]","0","36","0","150.2399999999907","25.679999999993015","16","[[[""img/mask38.png""],[""img/mask43.png""],[""img/mask29.png""],[""img/mask90.png""],[""img/mask70.png""],[""img/mask60.png""],[""img/mask36.png""],[""img/mask52.png""],[""img/mask14.png""],[""img/mask65.png""],[""img/mask98.png""],[""img/mask45.png""],[""img/mask73.png""],[""img/mask53.png""],[""img/mask100.png""],[""img/mask84.png""],[""img/mask60.png""],[""img/mask18.png""],[""img/mask57.png""],[""img/mask67.png""],[""img/mask4.png""],[""img/mask45.png""],[""img/mask65.png""],[""img/mask88.png""],[""img/mask54.png""],[""img/mask75.png""],[""img/mask23.png""],[""img/mask1.png""],[""img/mask14.png""],[""img/mask89.png""],[""img/mask70.png""],[""img/mask70.png""],[""img/mask25.png""],[""img/mask92.png""],[""img/mask75.png""],[""img/mask91.png""]]]","","[22,35,26,29,15,34,17,14,10,24,8,11,19,1,33,0,16,5,28,30,21,20,13,4,12,25,32,31,27,2,6,7,18,23,9,3]","main","108","many-guess-6"
"","","","","","html-keyboard-response","156","374165","0.0-10.0-1.68","578b5756160201000103fe40","640759fa512f630a2bdc333d","64077cebe938bc776f9bb271","null","","null","","","","","","","","","","","","","","","","","","","fixation","",""
"","","","","","color-precision2","157","377545","0.0-10.0-0.69-0.69","578b5756160201000103fe40","640759fa512f630a2bdc333d","64077cebe938bc776f9bb271","[700]","","","[3]","[290]","290","284","206.67886589661092","[206.67886589661092]","[282.6788658966109]","[282]","0","0","1","0","149.52000000001863","1002.859999999986","1000","[[[""img/mask71.png""]]]","","","main","284","color-precision2"
"","","","","","html-keyboard-response","158","378045","0.0-10.0-1.69","578b5756160201000103fe40","640759fa512f630a2bdc333d","64077cebe938bc776f9bb271","null","","null","","","","","","","","","","","","","","","","","","","fixation","",""
"","","","","","many-guess-6","159","381856","0.0-10.0-0.70-0.70","578b5756160201000103fe40","640759fa512f630a2bdc333d","64077cebe938bc776f9bb271","[2563]","","","[29,19,15,23,35,12,30,2,20,3,27,1,31,8,11,16,32,18,5,22,6,13,4,33,0,25,24,17,34,10,7,28,14,9,21,26]","[178,208,118,68,338,238,168,88,158,258,278,138,318,268,48,248,298,28,218,98,188,78,198,228,358,148,108,38,308,9,18,348,288,328,58,128]","178","47","147.1336651390258","[147.1336651390258]","[100.1336651390258]","[99]","[30,30,300,300,300,30,300,300,30]","0","36","0","149.52000000001863","21.960000000020955","16","[[[""img/mask86.png""],[""img/mask45.png""],[""img/mask58.png""],[""img/mask22.png""],[""img/mask94.png""],[""img/mask13.png""],[""img/mask98.png""],[""img/mask35.png""],[""img/mask61.png""],[""img/mask99.png""],[""img/mask18.png""],[""img/mask56.png""],[""img/mask28.png""],[""img/mask10.png""],[""img/mask40.png""],[""img/mask41.png""],[""img/mask78.png""],[""img/mask92.png""],[""img/mask84.png""],[""img/mask12.png""],[""img/mask81.png""],[""img/mask58.png""],[""img/mask53.png""],[""img/mask32.png""],[""img/mask43.png""],[""img/mask69.png""],[""img/mask92.png""],[""img/mask30.png""],[""img/mask95.png""],[""img/mask18.png""],[""img/mask70.png""],[""img/mask90.png""],[""img/mask98.png""],[""img/mask23.png""],[""img/mask69.png""],[""img/mask56.png""]]]","","[29,19,15,23,35,12,30,2,20,3,27,1,31,8,11,16,32,18,5,22,6,13,4,33,0,25,24,17,34,10,7,28,14,9,21,26]","main","47","many-guess-6"
"","","","","","html-keyboard-response","160","382369","0.0-10.0-1.70","578b5756160201000103fe40","640759fa512f630a2bdc333d","64077cebe938bc776f9bb271","null","","null","","","","","","","","","","","","","","","","","","","fixation","",""
"","","","","","many-guess-6","161","385856","0.0-10.0-0.71-0.71","578b5756160201000103fe40","640759fa512f630a2bdc333d","64077cebe938bc776f9bb271","[2329]","","","[7,17,8,30,27,21,0,15,33,23,35,12,14,25,29,18,13,24,26,1,20,19,34,22,16,5,6,31,3,10,4,9,32,28,11,2]","[167,128,217,48,98,197,317,108,148,187,327,237,138,68,8,88,207,78,337,18,307,347,118,38,28,58,157,247,287,277,297,267,227,357,257,177]","167","66","300.8486070371148","[300.8486070371148]","[234.8486070371148]","[235]","[120,120,120,120,300,300,120,210,120]","0","36","0","149.8400000000256","26.179999999993015","16","[[[""img/mask72.png""],[""img/mask80.png""],[""img/mask16.png""],[""img/mask3.png""],[""img/mask82.png""],[""img/mask99.png""],[""img/mask17.png""],[""img/mask68.png""],[""img/mask67.png""],[""img/mask43.png""],[""img/mask95.png""],[""img/mask77.png""],[""img/mask37.png""],[""img/mask27.png""],[""img/mask18.png""],[""img/mask51.png""],[""img/mask1.png""],[""img/mask32.png""],[""img/mask5.png""],[""img/mask17.png""],[""img/mask84.png""],[""img/mask57.png""],[""img/mask54.png""],[""img/mask31.png""],[""img/mask19.png""],[""img/mask13.png""],[""img/mask15.png""],[""img/mask64.png""],[""img/mask100.png""],[""img/mask54.png""],[""img/mask33.png""],[""img/mask56.png""],[""img/mask15.png""],[""img/mask19.png""],[""img/mask69.png""],[""img/mask94.png""]]]","","[7,17,8,30,27,21,0,15,33,23,35,12,14,25,29,18,13,24,26,1,20,19,34,22,16,5,6,31,3,10,4,9,32,28,11,2]","main","66","many-guess-6"
"","","","","","html-keyboard-response","162","386366","0.0-10.0-1.71","578b5756160201000103fe40","640759fa512f630a2bdc333d","64077cebe938bc776f9bb271","null","","null","","","","","","","","","","","","","","","","","","","fixation","",""
"","","","","","many-guess-6","163","389388","0.0-10.0-0.72-0.72","578b5756160201000103fe40","640759fa512f630a2bdc333d","64077cebe938bc776f9bb271","[1645]","","","[34,4,20,35,18,5,25,7,24,8,22,23,11,2,33,32,31,6,29,19,10,3,16,26,17,12,27,28,9,15,14,1,30,13,21,0]","[287,48,147,8,167,187,38,277,197,307,217,107,227,58,177,28,267,18,327,257,68,247,337,137,87,347,317,117,127,297,78,207,237,357,97,157]","287","169","93.0405547975394","[93.0405547975394]","[284.0405547975394]","[283]","[120,120,30,300,300,300,210,210,300]","0","36","0","149.44000000000233","25.919999999983702","16","[[[""img/mask40.png""],[""img/mask42.png""],[""img/mask97.png""],[""img/mask73.png""],[""img/mask73.png""],[""img/mask84.png""],[""img/mask94.png""],[""img/mask62.png""],[""img/mask88.png""],[""img/mask34.png""],[""img/mask46.png""],[""img/mask48.png""],[""img/mask75.png""],[""img/mask67.png""],[""img/mask81.png""],[""img/mask52.png""],[""img/mask28.png""],[""img/mask77.png""],[""img/mask50.png""],[""img/mask99.png""],[""img/mask4.png""],[""img/mask97.png""],[""img/mask17.png""],[""img/mask31.png""],[""img/mask65.png""],[""img/mask59.png""],[""img/mask6.png""],[""img/mask29.png""],[""img/mask15.png""],[""img/mask82.png""],[""img/mask60.png""],[""img/mask36.png""],[""img/mask45.png""],[""img/mask100.png""],[""img/mask12.png""],[""img/mask4.png""]]]","","[34,4,20,35,18,5,25,7,24,8,22,23,11,2,33,32,31,6,29,19,10,3,16,26,17,12,27,28,9,15,14,1,30,13,21,0]","main","169","many-guess-6"
"","","","","","html-keyboard-response","164","389896","0.0-10.0-1.72","578b5756160201000103fe40","640759fa512f630a2bdc333d","64077cebe938bc776f9bb271","null","","null","","","","","","","","","","","","","","","","","","","fixation","",""
"","","","","","many-guess-6","165","392545","0.0-10.0-0.73-0.73","578b5756160201000103fe40","640759fa512f630a2bdc333d","64077cebe938bc776f9bb271","[1517]","","","[25,24,13,33,19,14,26,16,0,27,3,22,7,29,28,18,11,1,34,15,21,4,20,2,23,17,10,35,5,8,9,31,32,30,6,12]","[108,288,208,39,9,78,88,178,138,148,49,268,118,188,68,158,338,318,128,98,19,168,238,198,358,308,298,258,218,348,248,328,278,59,228,29]","108","100","349.27158129307253","[349.27158129307253]","[249.27158129307253]","[249]","[210,30,210,30,300,120,300,210,30]","0","36","0","149.7600000000093","13.21999999997206","16","[[[""img/mask45.png""],[""img/mask88.png""],[""img/mask24.png""],[""img/mask84.png""],[""img/mask46.png""],[""img/mask59.png""],[""img/mask38.png""],[""img/mask6.png""],[""img/mask99.png""],[""img/mask63.png""],[""img/mask86.png""],[""img/mask28.png""],[""img/mask8.png""],[""img/mask11.png""],[""img/mask7.png""],[""img/mask16.png""],[""img/mask75.png""],[""img/mask27.png""],[""img/mask57.png""],[""img/mask87.png""],[""img/mask61.png""],[""img/mask25.png""],[""img/mask81.png""],[""img/mask51.png""],[""img/mask44.png""],[""img/mask62.png""],[""img/mask15.png""],[""img/mask88.png""],[""img/mask45.png""],[""img/mask99.png""],[""img/mask48.png""],[""img/mask85.png""],[""img/mask65.png""],[""img/mask2.png""],[""img/mask63.png""],[""img/mask80.png""]]]","","[25,24,13,33,19,14,26,16,0,27,3,22,7,29,28,18,11,1,34,15,21,4,20,2,23,17,10,35,5,8,9,31,32,30,6,12]","main","100","many-guess-6"
"","","","","","html-keyboard-response","166","393060","0.0-10.0-1.73","578b5756160201000103fe40","640759fa512f630a2bdc333d","64077cebe938bc776f9bb271","null","","null","","","","","","","","","","","","","","","","","","","fixation","",""
"","","","","","color-precision2","167","396178","0.0-10.0-0.74-0.74","578b5756160201000103fe40","640759fa512f630a2bdc333d","64077cebe938bc776f9bb271","[517]","","","[32]","[358]","358","30","57.89292681777236","[57.89292681777236]","[27.892926817772363]","[26]","0","0","1","0","148.94000000000233","1004.4000000000233","1000","[[[""img/mask49.png""]]]","","","main","30","color-precision2"
"","","","","","html-keyboard-response","168","396684","0.0-10.0-1.74","578b5756160201000103fe40","640759fa512f630a2bdc333d","64077cebe938bc776f9bb271","null","","null","","","","","","","","","","","","","","","","","","","fixation","",""
"","","","","","many-guess-6","169","400114","0.0-10.0-0.75-0.75","578b5756160201000103fe40","640759fa512f630a2bdc333d","64077cebe938bc776f9bb271","[2136]","","","[5,29,0,22,27,3,33,25,15,6,9,14,23,17,31,7,11,21,24,1,30,19,12,4,10,28,26,34,32,8,13,35,2,16,20,18]","[268,258,297,327,128,48,218,78,228,198,307,18,288,98,118,248,68,108,278,8,337,158,238,208,138,38,58,178,357,88,347,188,148,168,28,317]","268","330","158.1804990534148","[158.1804990534148]","[188.1804990534148]","[187]","[210,120,30,30,30,30,300,30,210]","0","36","0","149.70000000001164","22.099999999976717","16","[[[""img/mask45.png""],[""img/mask21.png""],[""img/mask6.png""],[""img/mask84.png""],[""img/mask75.png""],[""img/mask56.png""],[""img/mask36.png""],[""img/mask47.png""],[""img/mask1.png""],[""img/mask95.png""],[""img/mask63.png""],[""img/mask11.png""],[""img/mask28.png""],[""img/mask19.png""],[""img/mask91.png""],[""img/mask45.png""],[""img/mask70.png""],[""img/mask29.png""],[""img/mask70.png""],[""img/mask51.png""],[""img/mask12.png""],[""img/mask39.png""],[""img/mask93.png""],[""img/mask95.png""],[""img/mask87.png""],[""img/mask21.png""],[""img/mask4.png""],[""img/mask4.png""],[""img/mask36.png""],[""img/mask60.png""],[""img/mask38.png""],[""img/mask75.png""],[""img/mask79.png""],[""img/mask22.png""],[""img/mask48.png""],[""img/mask48.png""]]]","","[5,29,0,22,27,3,33,25,15,6,9,14,23,17,31,7,11,21,24,1,30,19,12,4,10,28,26,34,32,8,13,35,2,16,20,18]","main","330","many-guess-6"
"","","","","","html-keyboard-response","170","400629","0.0-10.0-1.75","578b5756160201000103fe40","640759fa512f630a2bdc333d","64077cebe938bc776f9bb271","null","","null","","","","","","","","","","","","","","","","","","","fixation","",""
"","","","","","color-precision2","171","404082","0.0-10.0-0.76-0.76","578b5756160201000103fe40","640759fa512f630a2bdc333d","64077cebe938bc776f9bb271","[821]","","","[22]","[4]","4","1","30.606928854778126","[30.606928854778126]","[29.606928854778126]","[28]","0","0","1","0","149.02000000001863","999.3400000000256","1000","[[[""img/mask5.png""]]]","","","main","1","color-precision2"
"","","","","","html-keyboard-response","172","404596","0.0-10.0-1.76","578b5756160201000103fe40","640759fa512f630a2bdc333d","64077cebe938bc776f9bb271","null","","null","","","","","","","","","","","","","","","","","","","fixation","",""
"","","","","","many-guess-6","173","407974","0.0-10.0-0.77-0.77","578b5756160201000103fe40","640759fa512f630a2bdc333d","64077cebe938bc776f9bb271","[2197]","","","[14,13,33,16,5,19,26,32,10,34,24,6,27,8,9,1,2,11,12,7,23,20,31,15,28,25,30,4,21,17,18,22,35,0,3,29]","[23,153,63,53,342,113,322,233,223,143,183,283,43,3,203,253,243,103,193,332,263,293,302,13,33,312,133,123,273,93,352,163,73,213,173,83]","23","214","112.1617504998441","[112.1617504998441]","[258.1617504998441]","[257]","[300,210,30,30,120,30,120,30,30]","0","36","0","149.64000000001397","14.099999999976717","16","[[[""img/mask34.png""],[""img/mask56.png""],[""img/mask63.png""],[""img/mask84.png""],[""img/mask27.png""],[""img/mask95.png""],[""img/mask40.png""],[""img/mask1.png""],[""img/mask37.png""],[""img/mask36.png""],[""img/mask44.png""],[""img/mask39.png""],[""img/mask13.png""],[""img/mask94.png""],[""img/mask95.png""],[""img/mask32.png""],[""img/mask50.png""],[""img/mask28.png""],[""img/mask88.png""],[""img/mask17.png""],[""img/mask73.png""],[""img/mask87.png""],[""img/mask25.png""],[""img/mask13.png""],[""img/mask73.png""],[""img/mask57.png""],[""img/mask66.png""],[""img/mask70.png""],[""img/mask95.png""],[""img/mask28.png""],[""img/mask3.png""],[""img/mask36.png""],[""img/mask23.png""],[""img/mask71.png""],[""img/mask40.png""],[""img/mask88.png""]]]","","[14,13,33,16,5,19,26,32,10,34,24,6,27,8,9,1,2,11,12,7,23,20,31,15,28,25,30,4,21,17,18,22,35,0,3,29]","main","214","many-guess-6"
"","","","","","html-keyboard-response","174","408490","0.0-10.0-1.77","578b5756160201000103fe40","640759fa512f630a2bdc333d","64077cebe938bc776f9bb271","null","","null","","","","","","","","","","","","","","","","","","","fixation","",""
"","","","","","color-precision2","175","412457","0.0-10.0-0.78-0.78","578b5756160201000103fe40","640759fa512f630a2bdc333d","64077cebe938bc776f9bb271","[680]","","","[0]","[343]","343","78","71.49746033928649","[71.49746033928649]","[353.4974603392865]","[352]","0","0","1","0","149.55999999999767","999.9000000000233","1000","[[[""img/mask76.png""]]]","","","main","78","color-precision2"
"","","","","","html-keyboard-response","176","412959","0.0-10.0-1.78","578b5756160201000103fe40","640759fa512f630a2bdc333d","64077cebe938bc776f9bb271","null","","null","","","","","","","","","","","","","","","","","","","fixation","",""
"","","","","","color-precision2","177","415990","0.0-10.0-0.79-0.79","578b5756160201000103fe40","640759fa512f630a2bdc333d","64077cebe938bc776f9bb271","[545]","","","[7]","[335]","335","263","253.56598044823448","[253.56598044823448]","[350.5659804482345]","[351]","0","0","1","0","149.21999999997206","1006.5599999999977","1000","[[[""img/mask54.png""]]]","","","main","263","color-precision2"
"","","","","","html-keyboard-response","178","417601","0.0-10.0-1.79","578b5756160201000103fe40","640759fa512f630a2bdc333d","64077cebe938bc776f9bb271","1611","Wow! You've completed 80 out of 180 trials! </p> <p>  </p><p> Take a quick break, then press any key when you're ready to continue."," ","","","","","","","","","","","","","","","","","","","fixation","",""
"","","","","","many-guess-6","179","421568","0.0-10.0-0.80-0.80","578b5756160201000103fe40","640759fa512f630a2bdc333d","64077cebe938bc776f9bb271","[1723]","","","[7,12,21,27,6,15,29,3,11,19,28,0,5,26,17,4,23,22,32,16,34,25,8,35,13,18,10,14,1,24,31,20,9,30,33,2]","[351,271,241,221,52,72,281,122,102,251,181,22,291,152,191,12,311,82,321,301,201,112,2,161,92,171,261,331,211,132,62,341,142,32,42,231]","351","131","23.942088252967572","[23.942088252967572]","[252.94208825296758]","[252]","[300,30,30,300,300,30,30,210,210]","0","36","0","149.20000000001164","16.679999999993015","16","[[[""img/mask53.png""],[""img/mask25.png""],[""img/mask53.png""],[""img/mask12.png""],[""img/mask75.png""],[""img/mask8.png""],[""img/mask54.png""],[""img/mask39.png""],[""img/mask56.png""],[""img/mask59.png""],[""img/mask88.png""],[""img/mask89.png""],[""img/mask17.png""],[""img/mask86.png""],[""img/mask82.png""],[""img/mask69.png""],[""img/mask58.png""],[""img/mask91.png""],[""img/mask36.png""],[""img/mask21.png""],[""img/mask63.png""],[""img/mask30.png""],[""img/mask14.png""],[""img/mask30.png""],[""img/mask43.png""],[""img/mask50.png""],[""img/mask56.png""],[""img/mask25.png""],[""img/mask33.png""],[""img/mask93.png""],[""img/mask43.png""],[""img/mask46.png""],[""img/mask85.png""],[""img/mask94.png""],[""img/mask10.png""],[""img/mask37.png""]]]","","[7,12,21,27,6,15,29,3,11,19,28,0,5,26,17,4,23,22,32,16,34,25,8,35,13,18,10,14,1,24,31,20,9,30,33,2]","main","131","many-guess-6"
"","","","","","html-keyboard-response","180","422083","0.0-10.0-1.80","578b5756160201000103fe40","640759fa512f630a2bdc333d","64077cebe938bc776f9bb271","null","","null","","","","","","","","","","","","","","","","","","","fixation","",""
"","","","","","color-precision2","181","425802","0.0-10.0-0.81-0.81","578b5756160201000103fe40","640759fa512f630a2bdc333d","64077cebe938bc776f9bb271","[409]","","","[31]","[27]","27","280","288.89396340830325","[288.89396340830325]","[8.89396340830325]","[10]","0","0","1","0","149.14000000001397","998.4799999999814","1000","[[[""img/mask57.png""]]]","","","main","280","color-precision2"
"","","","","","html-keyboard-response","182","426308","0.0-10.0-1.81","578b5756160201000103fe40","640759fa512f630a2bdc333d","64077cebe938bc776f9bb271","null","","null","","","","","","","","","","","","","","","","","","","fixation","",""
