"success","timeout","failed_images","failed_audio","failed_video","trial_type","trial_index","time_elapsed","internal_node_id","subject_id","study_id","session_id","rt","stimulus","response","position_of_items","colors_of_items","color_of_target","wheel_spin","response_angle","physical_response_angle","reported_color_angle","reported_color_discrete","locs","which_test","set_size","wheel_num_options","actual_mask_duration","actual_stim_duration","CMDispTime","maskArray","maskRotation","item_positions","task","randomSpinAmount","mainTask"
"true","false","[]","[]","[]","preload","0","1837","0.0-0.0","57dd186e6598aa0001992616","640759fa512f630a2bdc333d","6407b7e9891ff34e00dc333d","","","","","","","","","","","","","","","","","","","","","","","",""
"true","","","","","fullscreen","1","516543","0.0-1.0","57dd186e6598aa0001992616","640759fa512f630a2bdc333d","6407b7e9891ff34e00dc333d","","","","","","","","","","","","","","","","","","","","","","","",""
"","","","","","html-keyboard-response","2","520536","0.0-2.0","57dd186e6598aa0001992616","640759fa512f630a2bdc333d","6407b7e9891ff34e00dc333d","3991.300000011921","What a beautiful Tuesday to do some awesome science! </p> <p>  </p><p> </p>
    By completing this survey or questionnaire, you are consenting to be in this research study. </p>
    Your participation is voluntary and you can stop at any time.<p> [Press any key to continue] </p>","arrowright","","","","","","","","","","","","","","","","","","","","",""
"","","","","","html-keyboard-response","3","530546","0.0-3.0","57dd186e6598aa0001992616","640759fa512f630a2bdc333d","6407b7e9891ff34e00dc333d","5825.5","
    <div style='width: 1000px;'>
    <div style='float: center;'><img src='img/TaskInstructions1.png'></img>
    </div>
    ","arrowright","","","","","","","","","","","","","","","","","","","","",""
"","","","","","html-keyboard-response","4","531458","0.0-4.0","57dd186e6598aa0001992616","640759fa512f630a2bdc333d","6407b7e9891ff34e00dc333d","910.1999999880791","
    <div style='width: 1000px;'>
    <div style='float: center;'><img src='img/TaskInstructions1.png'></img>
    </div>
    "," ","","","","","","","","","","","","","","","","","","","","",""
"","","","","","html-keyboard-response","5","541469","0.0-5.0","57dd186e6598aa0001992616","640759fa512f630a2bdc333d","6407b7e9891ff34e00dc333d","null","
    <div style='width: 1000px;'>
    <div style='float: center;'><img src='img/TaskInstructions2.png'></img>
    </div>
    ","null","","","","","","","","","","","","","","","","","","","","",""
"","","","","","html-keyboard-response","6","549471","0.0-6.0","57dd186e6598aa0001992616","640759fa512f630a2bdc333d","6407b7e9891ff34e00dc333d","8001.200000017881","
    <div style='width: 1000px;'>
    <div style='float: center;'><img src='img/TaskInstructions2.png'></img>
    </div>
    ","arrowright","","","","","","","","","","","","","","","","","","","","",""
"","","","","","video-keyboard-response","7","559836","0.0-7.0","57dd186e6598aa0001992616","640759fa512f630a2bdc333d","6407b7e9891ff34e00dc333d","10363","[""video/TaskInstructions3.mp4""]","arrowright","","","","","","","","","","","","","","","","","","","","",""
"","","","","","image-keyboard-response","8","564691","0.0-8.0-0.0","57dd186e6598aa0001992616","640759fa512f630a2bdc333d","6407b7e9891ff34e00dc333d","4854.0999999940395","img/training1.png","arrowright","","","","","","","","","","","","","","","","","","","","",""
"","","","","","color-precision2","9","575352","0.0-8.0-1.0-0.0","57dd186e6598aa0001992616","640759fa512f630a2bdc333d","6407b7e9891ff34e00dc333d","[3869.300000011921]","","","[13]","[355]","355","174","153.93609392689538","[153.93609392689538]","[339.9360939268954]","[338]","0","0","1","0","499.02700000593904","1008.3400000178954","1000","","","0","training","",""
"","","","","","image-keyboard-response","10","584171","0.0-8.0-0.1","57dd186e6598aa0001992616","640759fa512f630a2bdc333d","6407b7e9891ff34e00dc333d","8818","img/training2.png","arrowright","","","","","","","","","","","","","","","","","","","","",""
"","","","","","many-guess-6","11","592727","0.0-8.0-1.1-0.1","57dd186e6598aa0001992616","640759fa512f630a2bdc333d","6407b7e9891ff34e00dc333d","[2760.2999999821186]","","","[24,5,23]","[317,61,262]","317","277","247.8959108532146","[247.8959108532146]","[330.89591085321456]","[331]","[210,30,210,30,300,30,210,30,300,120,300,300,300,30,300,30,30,210,120,210,210,30,120,210,210,210,300,30,120,30,210,300,120,30,210,210]","0","3","0","999.5650000119349","1015.6760000119684","1000","[[[""img/mask54.png""],[""img/mask55.png""],[""img/mask54.png""]]]","","[24,5,23]","training","",""
"","","","","","image-keyboard-response","12","597599","0.0-8.0-0.2","57dd186e6598aa0001992616","640759fa512f630a2bdc333d","6407b7e9891ff34e00dc333d","4871.4000000059605","img/training3.png","arrowright","","","","","","","","","","","","","","","","","","","","",""
"","","","","","[""many-guess-6""]","13","605160","0.0-8.0-1.2-0.2","57dd186e6598aa0001992616","640759fa512f630a2bdc333d","6407b7e9891ff34e00dc333d","[3080.699999988079]","","","[21,20,0,6,17]","[63,256,24,288,356]","63","339","40.630594940673085","[40.630594940673085]","[61.63059494067306]","[60]","[120,30,300,300,120,120,210,120,120,210,300,210,210,30,120,210,30,300,210,210,30,120,120,210,210,300,210,210,30,120,30,120,300,300,300,210]","0","5","0","499.3390000000363","495.32100000593346","500","[[[""img/mask56.png""],[""img/mask8.png""],[""img/mask72.png""],[""img/mask52.png""],[""img/mask66.png""]]]","","[21,20,0,6,17]","training","",""
"","","","","","image-keyboard-response","14","609630","0.0-8.0-0.3","57dd186e6598aa0001992616","640759fa512f630a2bdc333d","6407b7e9891ff34e00dc333d","4469.300000011921","img/training4.png"," ","","","","","","","","","","","","","","","","","","","","",""
"","","","","","[""many-guess-6""]","15","615924","0.0-8.0-1.3-0.3","57dd186e6598aa0001992616","640759fa512f630a2bdc333d","6407b7e9891ff34e00dc333d","[2466.5]","","","[29,6,5,15,1,9,20,17,21,3]","[256,331,288,6,314,28,78,278,42,347]","256","236","70.91569569428945","[70.91569569428945]","[194.91569569428947]","[193]","[120,300,120,210,300,210,210,300,210,30,120,30,120,300,30,30,30,120,300,210,300,120,300,30,210,300,300,210,120,210,300,210,120,210,300,300]","0","10","0","132.77300000598188","147.95000000600703","132","[[[""img/mask68.png""],[""img/mask72.png""],[""img/mask96.png""],[""img/mask46.png""],[""img/mask89.png""],[""img/mask56.png""],[""img/mask91.png""],[""img/mask57.png""],[""img/mask99.png""],[""img/mask25.png""]]]","","[29,6,5,15,1,9,20,17,21,3]","training","",""
"","","","","","image-keyboard-response","16","620221","0.0-8.0-0.4","57dd186e6598aa0001992616","640759fa512f630a2bdc333d","6407b7e9891ff34e00dc333d","4296.5","img/training5.png"," ","","","","","","","","","","","","","","","","","","","","",""
"","","","","","[""many-guess-6""]","17","626018","0.0-8.0-1.4-0.4","57dd186e6598aa0001992616","640759fa512f630a2bdc333d","6407b7e9891ff34e00dc333d","[2283]","","","[21,31,6,3,33,11,30,0,13,17,19,29,4,23,8,28,10,32,5,18,16,34,27,20,7,14,25,9,12,26,22,35,24,1,15,2]","[116,16,305,245,146,56,345,325,136,126,315,235,76,96,215,46,175,36,155,185,225,335,275,285,355,106,255,295,86,6,165,26,195,205,265,66]","116","173","177.68845002399698","[177.68845002399698]","[4.688450023996978]","[4]","[30,30,120,300,300,210,30,120,30,120,30,210,30,30,30,120,300,210,120,30,120,210,120,210,300,210,120,30,30,120,210,300,210,30,300,120]","0","36","0","132.41500002378598","10.59500001790002","16","[[[""img/mask22.png""],[""img/mask33.png""],[""img/mask33.png""],[""img/mask19.png""],[""img/mask94.png""],[""img/mask73.png""],[""img/mask75.png""],[""img/mask84.png""],[""img/mask57.png""],[""img/mask44.png""],[""img/mask17.png""],[""img/mask9.png""],[""img/mask65.png""],[""img/mask21.png""],[""img/mask30.png""],[""img/mask74.png""],[""img/mask77.png""],[""img/mask64.png""],[""img/mask48.png""],[""img/mask53.png""],[""img/mask97.png""],[""img/mask10.png""],[""img/mask98.png""],[""img/mask5.png""],[""img/mask75.png""],[""img/mask22.png""],[""img/mask33.png""],[""img/mask62.png""],[""img/mask88.png""],[""img/mask70.png""],[""img/mask51.png""],[""img/mask62.png""],[""img/mask83.png""],[""img/mask38.png""],[""img/mask86.png""],[""img/mask84.png""]]]","","[21,31,6,3,33,11,30,0,13,17,19,29,4,23,8,28,10,32,5,18,16,34,27,20,7,14,25,9,12,26,22,35,24,1,15,2]","training","",""
"","","","","","image-keyboard-response","18","629795","0.0-9.0","57dd186e6598aa0001992616","640759fa512f630a2bdc333d","6407b7e9891ff34e00dc333d","3776.199999988079","[""img/endTraining.png""]"," ","","","","","","","","","","","","","","","","","","","","",""
"","","","","","many-guess-6","19","635275","0.0-10.0-0.0-0.0","57dd186e6598aa0001992616","640759fa512f630a2bdc333d","6407b7e9891ff34e00dc333d","[2666]","","","[24,35,28,7,23,3,26,32,19,11,34,25,14,13,9,4,8,12,2,15,21,22,5,18,30,31,1,16,33,29,20,10,27,17,6,0]","[136,236,106,196,206,306,286,166,66,346,116,36,316,126,216,336,226,26,6,56,16,76,46,326,296,146,186,176,246,355,276,86,266,256,96,156]","136","76","275.99605503264723","[275.99605503264723]","[199.99605503264723]","[200]","[120,120,210,120,30,300,30,120,30]","0","36","0","165.98100001784042","32.1230000059586","16","[[[""img/mask50.png""],[""img/mask39.png""],[""img/mask60.png""],[""img/mask100.png""],[""img/mask14.png""],[""img/mask32.png""],[""img/mask66.png""],[""img/mask22.png""],[""img/mask53.png""],[""img/mask7.png""],[""img/mask85.png""],[""img/mask19.png""],[""img/mask53.png""],[""img/mask45.png""],[""img/mask18.png""],[""img/mask17.png""],[""img/mask39.png""],[""img/mask40.png""],[""img/mask66.png""],[""img/mask9.png""],[""img/mask43.png""],[""img/mask30.png""],[""img/mask24.png""],[""img/mask18.png""],[""img/mask75.png""],[""img/mask81.png""],[""img/mask24.png""],[""img/mask34.png""],[""img/mask24.png""],[""img/mask26.png""],[""img/mask91.png""],[""img/mask19.png""],[""img/mask62.png""],[""img/mask22.png""],[""img/mask29.png""],[""img/mask18.png""]]]","","[24,35,28,7,23,3,26,32,19,11,34,25,14,13,9,4,8,12,2,15,21,22,5,18,30,31,1,16,33,29,20,10,27,17,6,0]","main","76","many-guess-6"
"","","","","","html-keyboard-response","20","635778","0.0-10.0-1.0","57dd186e6598aa0001992616","640759fa512f630a2bdc333d","6407b7e9891ff34e00dc333d","null","","null","","","","","","","","","","","","","","","","","","","fixation","",""
"","","","","","color-precision2","21","642526","0.0-10.0-0.1-0.1","57dd186e6598aa0001992616","640759fa512f630a2bdc333d","6407b7e9891ff34e00dc333d","[2975]","","","[7]","[281]","281","190","115.2120994133201","[115.2120994133201]","[285.2120994133201]","[283]","0","0","1","0","165.69400002388284","991.5860000179382","1000","[[[""img/mask74.png""]]]","","","main","190","color-precision2"
"","","","","","html-keyboard-response","22","643037","0.0-10.0-1.1","57dd186e6598aa0001992616","640759fa512f630a2bdc333d","6407b7e9891ff34e00dc333d","null","","null","","","","","","","","","","","","","","","","","","","fixation","",""
"","","","","","color-precision2","23","649251","0.0-10.0-0.2-0.2","57dd186e6598aa0001992616","640759fa512f630a2bdc333d","6407b7e9891ff34e00dc333d","[1827.199999988079]","","","[17]","[142]","142","342","127.47387083389339","[127.47387083389339]","[145.4738708338934]","[144]","0","0","1","0","166.14099999994505","990.9370000238996","1000","[[[""img/mask68.png""]]]","","","main","342","color-precision2"
"","","","","","html-keyboard-response","24","649766","0.0-10.0-1.2","57dd186e6598aa0001992616","640759fa512f630a2bdc333d","6407b7e9891ff34e00dc333d","null","","null","","","","","","","","","","","","","","","","","","","fixation","",""
"","","","","","many-guess-6","25","655821","0.0-10.0-0.3-0.3","57dd186e6598aa0001992616","640759fa512f630a2bdc333d","6407b7e9891ff34e00dc333d","[3458.699999988079]","","","[0,3,14,30,10,31,12,25,23,8,5,17,16,22,33,24,21,20,7,19,32,9,34,11,27,6,13,18,15,28,26,2,29,1,35,4]","[149,259,99,159,109,39,9,19,289,129,69,239,119,219,79,349,209,179,189,139,29,89,329,359,299,319,339,269,229,169,309,249,199,279,49,59]","149","204","186.3992783361399","[186.3992783361399]","[342.3992783361399]","[342]","[210,300,120,300,30,300,30,300,300]","0","36","0","165.68100001197308","4.5090000060154125","16","[[[""img/mask33.png""],[""img/mask17.png""],[""img/mask56.png""],[""img/mask85.png""],[""img/mask17.png""],[""img/mask29.png""],[""img/mask83.png""],[""img/mask84.png""],[""img/mask40.png""],[""img/mask99.png""],[""img/mask60.png""],[""img/mask45.png""],[""img/mask18.png""],[""img/mask47.png""],[""img/mask45.png""],[""img/mask51.png""],[""img/mask82.png""],[""img/mask31.png""],[""img/mask23.png""],[""img/mask21.png""],[""img/mask16.png""],[""img/mask76.png""],[""img/mask94.png""],[""img/mask50.png""],[""img/mask36.png""],[""img/mask32.png""],[""img/mask61.png""],[""img/mask61.png""],[""img/mask41.png""],[""img/mask86.png""],[""img/mask94.png""],[""img/mask54.png""],[""img/mask34.png""],[""img/mask88.png""],[""img/mask67.png""],[""img/mask11.png""]]]","","[0,3,14,30,10,31,12,25,23,8,5,17,16,22,33,24,21,20,7,19,32,9,34,11,27,6,13,18,15,28,26,2,29,1,35,4]","main","204","many-guess-6"
"","","","","","html-keyboard-response","26","656336","0.0-10.0-1.3","57dd186e6598aa0001992616","640759fa512f630a2bdc333d","6407b7e9891ff34e00dc333d","null","","null","","","","","","","","","","","","","","","","","","","fixation","",""
"","","","","","many-guess-6","27","660370","0.0-10.0-0.4-0.4","57dd186e6598aa0001992616","640759fa512f630a2bdc333d","6407b7e9891ff34e00dc333d","[2001.5]","","","[14,35,24,28,25,17,9,13,32,5,31,6,1,26,0,34,7,30,4,16,12,22,15,27,2,21,8,33,3,18,23,10,19,29,20,11]","[284,195,45,165,274,175,85,245,294,95,334,15,314,205,5,115,75,135,324,25,264,145,155,344,125,185,254,235,304,225,65,35,55,215,105,354]","284","225","55.187420941159","[55.187420941159]","[190.187420941159]","[188]","[300,300,120,300,30,120,210,210,210]","0","36","0","166.37899999995716","7.25000001792796","16","[[[""img/mask42.png""],[""img/mask8.png""],[""img/mask36.png""],[""img/mask88.png""],[""img/mask15.png""],[""img/mask16.png""],[""img/mask35.png""],[""img/mask14.png""],[""img/mask14.png""],[""img/mask56.png""],[""img/mask45.png""],[""img/mask89.png""],[""img/mask20.png""],[""img/mask97.png""],[""img/mask71.png""],[""img/mask94.png""],[""img/mask8.png""],[""img/mask59.png""],[""img/mask36.png""],[""img/mask42.png""],[""img/mask41.png""],[""img/mask33.png""],[""img/mask92.png""],[""img/mask64.png""],[""img/mask88.png""],[""img/mask90.png""],[""img/mask46.png""],[""img/mask35.png""],[""img/mask71.png""],[""img/mask38.png""],[""img/mask87.png""],[""img/mask71.png""],[""img/mask12.png""],[""img/mask48.png""],[""img/mask88.png""],[""img/mask54.png""]]]","","[14,35,24,28,25,17,9,13,32,5,31,6,1,26,0,34,7,30,4,16,12,22,15,27,2,21,8,33,3,18,23,10,19,29,20,11]","main","225","many-guess-6"
"","","","","","html-keyboard-response","28","660875","0.0-10.0-1.4","57dd186e6598aa0001992616","640759fa512f630a2bdc333d","6407b7e9891ff34e00dc333d","null","","null","","","","","","","","","","","","","","","","","","","fixation","",""
"","","","","","color-precision2","29","665869","0.0-10.0-0.5-0.5","57dd186e6598aa0001992616","640759fa512f630a2bdc333d","6407b7e9891ff34e00dc333d","[1694.9000000059605]","","","[29]","[39]","39","219","224.10453557231935","[224.10453557231935]","[5.1045355723193495]","[5]","0","0","1","0","165.68700000003446","983.6540000179084","1000","[[[""img/mask73.png""]]]","","","main","219","color-precision2"
"","","","","","html-keyboard-response","30","666371","0.0-10.0-1.5","57dd186e6598aa0001992616","640759fa512f630a2bdc333d","6407b7e9891ff34e00dc333d","null","","null","","","","","","","","","","","","","","","","","","","fixation","",""
"","","","","","many-guess-6","31","670469","0.0-10.0-0.6-0.6","57dd186e6598aa0001992616","640759fa512f630a2bdc333d","6407b7e9891ff34e00dc333d","[2191.199999988079]","","","[27,1,29,20,24,17,31,26,14,35,16,5,9,2,12,18,25,30,10,0,28,22,6,4,15,13,34,33,23,8,32,21,7,3,11,19]","[42,142,172,242,262,152,272,32,332,302,72,182,12,292,202,132,312,92,282,82,252,112,62,22,222,232,322,192,351,341,122,2,212,162,52,102]","42","66","287.44297559925536","[287.44297559925536]","[221.44297559925536]","[222]","[210,300,300,30,210,300,120,30,300]","0","36","0","166.47900001786184","13.167000023880973","16","[[[""img/mask46.png""],[""img/mask57.png""],[""img/mask81.png""],[""img/mask92.png""],[""img/mask100.png""],[""img/mask11.png""],[""img/mask48.png""],[""img/mask57.png""],[""img/mask92.png""],[""img/mask72.png""],[""img/mask65.png""],[""img/mask41.png""],[""img/mask76.png""],[""img/mask17.png""],[""img/mask15.png""],[""img/mask6.png""],[""img/mask52.png""],[""img/mask95.png""],[""img/mask78.png""],[""img/mask44.png""],[""img/mask63.png""],[""img/mask1.png""],[""img/mask40.png""],[""img/mask7.png""],[""img/mask26.png""],[""img/mask45.png""],[""img/mask5.png""],[""img/mask12.png""],[""img/mask75.png""],[""img/mask12.png""],[""img/mask61.png""],[""img/mask43.png""],[""img/mask8.png""],[""img/mask83.png""],[""img/mask8.png""],[""img/mask15.png""]]]","","[27,1,29,20,24,17,31,26,14,35,16,5,9,2,12,18,25,30,10,0,28,22,6,4,15,13,34,33,23,8,32,21,7,3,11,19]","main","66","many-guess-6"
"","","","","","html-keyboard-response","32","670971","0.0-10.0-1.6","57dd186e6598aa0001992616","640759fa512f630a2bdc333d","6407b7e9891ff34e00dc333d","null","","null","","","","","","","","","","","","","","","","","","","fixation","",""
"","","","","","many-guess-6","33","676149","0.0-10.0-0.7-0.7","57dd186e6598aa0001992616","640759fa512f630a2bdc333d","6407b7e9891ff34e00dc333d","[3232.699999988079]","","","[1,27,4,13,2,16,34,5,18,10,19,7,21,0,23,29,26,32,28,35,14,17,25,8,3,33,9,20,12,24,31,11,30,6,15,22]","[315,76,216,225,146,166,66,265,325,86,295,136,285,235,26,156,126,96,206,56,335,6,36,275,305,245,355,196,16,116,106,186,46,345,176,255]","315","62","309.173907356662","[309.173907356662]","[247.17390735666203]","[247]","[210,210,210,30,30,300,30,30,30]","0","36","0","166.33900002378505","26.07600000000093","16","[[[""img/mask11.png""],[""img/mask26.png""],[""img/mask35.png""],[""img/mask22.png""],[""img/mask5.png""],[""img/mask9.png""],[""img/mask70.png""],[""img/mask21.png""],[""img/mask92.png""],[""img/mask64.png""],[""img/mask92.png""],[""img/mask11.png""],[""img/mask5.png""],[""img/mask22.png""],[""img/mask98.png""],[""img/mask53.png""],[""img/mask61.png""],[""img/mask1.png""],[""img/mask63.png""],[""img/mask13.png""],[""img/mask47.png""],[""img/mask40.png""],[""img/mask22.png""],[""img/mask74.png""],[""img/mask47.png""],[""img/mask3.png""],[""img/mask54.png""],[""img/mask68.png""],[""img/mask86.png""],[""img/mask11.png""],[""img/mask48.png""],[""img/mask53.png""],[""img/mask5.png""],[""img/mask47.png""],[""img/mask47.png""],[""img/mask9.png""]]]","","[1,27,4,13,2,16,34,5,18,10,19,7,21,0,23,29,26,32,28,35,14,17,25,8,3,33,9,20,12,24,31,11,30,6,15,22]","main","62","many-guess-6"
"","","","","","html-keyboard-response","34","676651","0.0-10.0-1.7","57dd186e6598aa0001992616","640759fa512f630a2bdc333d","6407b7e9891ff34e00dc333d","null","","null","","","","","","","","","","","","","","","","","","","fixation","",""
"","","","","","many-guess-6","35","680719","0.0-10.0-0.8-0.8","57dd186e6598aa0001992616","640759fa512f630a2bdc333d","6407b7e9891ff34e00dc333d","[2163.5]","","","[29,31,35,16,30,8,22,14,11,5,9,19,10,12,7,20,26,15,3,17,25,23,18,24,4,2,32,34,6,33,28,27,1,21,0,13]","[14,113,353,333,153,4,143,183,343,83,303,243,233,203,283,323,93,293,73,133,253,103,193,34,163,263,44,173,223,63,54,273,123,213,313,24]","14","222","65.7521931612869","[65.7521931612869]","[203.7521931612869]","[202]","[210,300,210,300,30,120,120,120,300]","0","36","0","164.80800002382603","27.168000023812056","16","[[[""img/mask21.png""],[""img/mask24.png""],[""img/mask100.png""],[""img/mask34.png""],[""img/mask84.png""],[""img/mask21.png""],[""img/mask77.png""],[""img/mask77.png""],[""img/mask73.png""],[""img/mask19.png""],[""img/mask74.png""],[""img/mask35.png""],[""img/mask62.png""],[""img/mask28.png""],[""img/mask60.png""],[""img/mask40.png""],[""img/mask84.png""],[""img/mask31.png""],[""img/mask56.png""],[""img/mask85.png""],[""img/mask100.png""],[""img/mask81.png""],[""img/mask41.png""],[""img/mask73.png""],[""img/mask35.png""],[""img/mask22.png""],[""img/mask79.png""],[""img/mask4.png""],[""img/mask46.png""],[""img/mask86.png""],[""img/mask29.png""],[""img/mask100.png""],[""img/mask16.png""],[""img/mask81.png""],[""img/mask17.png""],[""img/mask95.png""]]]","","[29,31,35,16,30,8,22,14,11,5,9,19,10,12,7,20,26,15,3,17,25,23,18,24,4,2,32,34,6,33,28,27,1,21,0,13]","main","222","many-guess-6"
"","","","","","html-keyboard-response","36","681223","0.0-10.0-1.8","57dd186e6598aa0001992616","640759fa512f630a2bdc333d","6407b7e9891ff34e00dc333d","null","","null","","","","","","","","","","","","","","","","","","","fixation","",""
"","","","","","many-guess-6","37","685219","0.0-10.0-0.9-0.9","57dd186e6598aa0001992616","640759fa512f630a2bdc333d","6407b7e9891ff34e00dc333d","[2126.5999999940395]","","","[15,34,1,5,14,21,20,7,18,29,27,24,6,0,13,17,12,31,22,35,4,19,30,11,28,26,3,23,16,2,10,25,32,9,33,8]","[281,321,112,351,211,291,171,141,201,72,92,341,191,301,52,121,241,311,221,22,102,42,231,62,151,181,12,261,331,271,2,32,82,131,161,251]","281","208","214.48289690363038","[214.48289690363038]","[6.482896903630376]","[6]","[120,120,210,30,300,210,210,120,210]","0","36","0","165.3980000000447","18.014000023831613","16","[[[""img/mask26.png""],[""img/mask93.png""],[""img/mask79.png""],[""img/mask61.png""],[""img/mask10.png""],[""img/mask54.png""],[""img/mask92.png""],[""img/mask68.png""],[""img/mask89.png""],[""img/mask45.png""],[""img/mask92.png""],[""img/mask33.png""],[""img/mask96.png""],[""img/mask7.png""],[""img/mask1.png""],[""img/mask25.png""],[""img/mask58.png""],[""img/mask62.png""],[""img/mask24.png""],[""img/mask17.png""],[""img/mask7.png""],[""img/mask49.png""],[""img/mask74.png""],[""img/mask2.png""],[""img/mask54.png""],[""img/mask39.png""],[""img/mask25.png""],[""img/mask42.png""],[""img/mask63.png""],[""img/mask6.png""],[""img/mask61.png""],[""img/mask53.png""],[""img/mask52.png""],[""img/mask29.png""],[""img/mask20.png""],[""img/mask63.png""]]]","","[15,34,1,5,14,21,20,7,18,29,27,24,6,0,13,17,12,31,22,35,4,19,30,11,28,26,3,23,16,2,10,25,32,9,33,8]","main","208","many-guess-6"
"","","","","","html-keyboard-response","38","685729","0.0-10.0-1.9","57dd186e6598aa0001992616","640759fa512f630a2bdc333d","6407b7e9891ff34e00dc333d","null","","null","","","","","","","","","","","","","","","","","","","fixation","",""
"","","","","","many-guess-6","39","690493","0.0-10.0-0.10-0.10","57dd186e6598aa0001992616","640759fa512f630a2bdc333d","6407b7e9891ff34e00dc333d","[2428.800000011921]","","","[3,7,27,8,9,11,19,24,32,13,0,28,21,4,20,29,14,5,30,15,6,10,22,12,23,25,17,31,35,16,33,26,18,34,1,2]","[259,169,69,358,89,29,129,79,99,179,229,109,189,269,159,348,318,308,49,209,19,59,199,39,139,299,328,279,219,239,149,338,9,249,289,119]","259","278","191.1451330956734","[191.1451330956734]","[273.1451330956734]","[272]","[210,210,210,30,300,30,210,30,300]","0","36","0","165.13199999998324","46.43700000597164","16","[[[""img/mask8.png""],[""img/mask38.png""],[""img/mask94.png""],[""img/mask85.png""],[""img/mask30.png""],[""img/mask4.png""],[""img/mask99.png""],[""img/mask59.png""],[""img/mask45.png""],[""img/mask50.png""],[""img/mask100.png""],[""img/mask6.png""],[""img/mask31.png""],[""img/mask11.png""],[""img/mask73.png""],[""img/mask92.png""],[""img/mask25.png""],[""img/mask28.png""],[""img/mask3.png""],[""img/mask82.png""],[""img/mask51.png""],[""img/mask50.png""],[""img/mask89.png""],[""img/mask20.png""],[""img/mask13.png""],[""img/mask35.png""],[""img/mask31.png""],[""img/mask46.png""],[""img/mask45.png""],[""img/mask56.png""],[""img/mask36.png""],[""img/mask63.png""],[""img/mask50.png""],[""img/mask89.png""],[""img/mask58.png""],[""img/mask86.png""]]]","","[3,7,27,8,9,11,19,24,32,13,0,28,21,4,20,29,14,5,30,15,6,10,22,12,23,25,17,31,35,16,33,26,18,34,1,2]","main","278","many-guess-6"
"","","","","","html-keyboard-response","40","691001","0.0-10.0-1.10","57dd186e6598aa0001992616","640759fa512f630a2bdc333d","6407b7e9891ff34e00dc333d","null","","null","","","","","","","","","","","","","","","","","","","fixation","",""
"","","","","","many-guess-6","41","695923","0.0-10.0-0.11-0.11","57dd186e6598aa0001992616","640759fa512f630a2bdc333d","6407b7e9891ff34e00dc333d","[2219.699999988079]","","","[5,13,14,24,21,18,35,23,27,4,6,22,32,8,33,10,17,3,9,2,30,20,0,16,26,31,25,15,28,7,1,29,12,19,34,11]","[284,65,85,264,204,244,164,134,194,224,75,214,154,5,184,114,294,314,354,55,35,45,304,174,95,344,15,324,254,124,144,104,234,274,334,25]","284","166","337.5970093527831","[337.5970093527831]","[171.59700935278312]","[172]","[30,120,210,30,210,30,210,120,210]","0","36","0","166.34300001792144","8.508000023895875","16","[[[""img/mask61.png""],[""img/mask9.png""],[""img/mask92.png""],[""img/mask11.png""],[""img/mask43.png""],[""img/mask22.png""],[""img/mask89.png""],[""img/mask53.png""],[""img/mask70.png""],[""img/mask23.png""],[""img/mask28.png""],[""img/mask96.png""],[""img/mask92.png""],[""img/mask45.png""],[""img/mask49.png""],[""img/mask2.png""],[""img/mask93.png""],[""img/mask70.png""],[""img/mask91.png""],[""img/mask27.png""],[""img/mask74.png""],[""img/mask91.png""],[""img/mask65.png""],[""img/mask33.png""],[""img/mask80.png""],[""img/mask42.png""],[""img/mask49.png""],[""img/mask22.png""],[""img/mask78.png""],[""img/mask5.png""],[""img/mask72.png""],[""img/mask72.png""],[""img/mask25.png""],[""img/mask86.png""],[""img/mask11.png""],[""img/mask46.png""]]]","","[5,13,14,24,21,18,35,23,27,4,6,22,32,8,33,10,17,3,9,2,30,20,0,16,26,31,25,15,28,7,1,29,12,19,34,11]","main","166","many-guess-6"
"","","","","","html-keyboard-response","42","696425","0.0-10.0-1.11","57dd186e6598aa0001992616","640759fa512f630a2bdc333d","6407b7e9891ff34e00dc333d","null","","null","","","","","","","","","","","","","","","","","","","fixation","",""
"","","","","","color-precision2","43","701157","0.0-10.0-0.12-0.12","57dd186e6598aa0001992616","640759fa512f630a2bdc333d","6407b7e9891ff34e00dc333d","[1680.6000000238419]","","","[26]","[107]","107","41","148.95227316799176","[148.95227316799176]","[107.95227316799176]","[107]","0","0","1","0","165.67900002386887","1006.8830000000307","1000","[[[""img/mask48.png""]]]","","","main","41","color-precision2"
"","","","","","html-keyboard-response","44","701668","0.0-10.0-1.12","57dd186e6598aa0001992616","640759fa512f630a2bdc333d","6407b7e9891ff34e00dc333d","null","","null","","","","","","","","","","","","","","","","","","","fixation","",""
"","","","","","many-guess-6","45","705899","0.0-10.0-0.13-0.13","57dd186e6598aa0001992616","640759fa512f630a2bdc333d","6407b7e9891ff34e00dc333d","[2218.699999988079]","","","[6,3,9,2,12,26,23,7,25,24,15,35,33,21,30,1,28,5,32,31,27,13,8,20,19,0,4,29,18,22,17,10,34,14,16,11]","[93,313,253,173,83,233,54,213,283,4,64,223,113,44,183,24,353,273,103,163,193,243,323,123,34,333,143,203,263,133,303,293,14,153,73,343]","93","212","50.576031469076085","[50.576031469076085]","[198.5760314690761]","[197]","[300,300,120,300,210,120,300,210,30]","0","36","0","166.29000000003725","8.70900001784321","16","[[[""img/mask4.png""],[""img/mask16.png""],[""img/mask75.png""],[""img/mask7.png""],[""img/mask89.png""],[""img/mask16.png""],[""img/mask50.png""],[""img/mask11.png""],[""img/mask74.png""],[""img/mask64.png""],[""img/mask39.png""],[""img/mask50.png""],[""img/mask15.png""],[""img/mask59.png""],[""img/mask9.png""],[""img/mask56.png""],[""img/mask88.png""],[""img/mask13.png""],[""img/mask20.png""],[""img/mask45.png""],[""img/mask80.png""],[""img/mask59.png""],[""img/mask81.png""],[""img/mask80.png""],[""img/mask9.png""],[""img/mask49.png""],[""img/mask47.png""],[""img/mask97.png""],[""img/mask37.png""],[""img/mask31.png""],[""img/mask1.png""],[""img/mask40.png""],[""img/mask7.png""],[""img/mask68.png""],[""img/mask3.png""],[""img/mask31.png""]]]","","[6,3,9,2,12,26,23,7,25,24,15,35,33,21,30,1,28,5,32,31,27,13,8,20,19,0,4,29,18,22,17,10,34,14,16,11]","main","212","many-guess-6"
"","","","","","html-keyboard-response","46","706402","0.0-10.0-1.13","57dd186e6598aa0001992616","640759fa512f630a2bdc333d","6407b7e9891ff34e00dc333d","null","","null","","","","","","","","","","","","","","","","","","","fixation","",""
"","","","","","color-precision2","47","710635","0.0-10.0-0.14-0.14","57dd186e6598aa0001992616","640759fa512f630a2bdc333d","6407b7e9891ff34e00dc333d","[1415.9000000059605]","","","[3]","[84]","84","339","64.14055376133682","[64.14055376133682]","[85.14055376133683]","[84]","0","0","1","0","165.57500000600703","986.8570000060135","1000","[[[""img/mask81.png""]]]","","","main","339","color-precision2"
"","","","","","html-keyboard-response","48","711143","0.0-10.0-1.14","57dd186e6598aa0001992616","640759fa512f630a2bdc333d","6407b7e9891ff34e00dc333d","null","","null","","","","","","","","","","","","","","","","","","","fixation","",""
"","","","","","many-guess-6","49","714837","0.0-10.0-0.15-0.15","57dd186e6598aa0001992616","640759fa512f630a2bdc333d","6407b7e9891ff34e00dc333d","[1981.300000011921]","","","[22,12,3,9,23,29,13,11,2,31,14,25,6,18,17,30,21,19,8,5,32,4,33,34,7,28,10,35,0,20,1,26,24,27,16,15]","[153,352,223,53,93,83,183,23,73,143,113,193,302,103,203,243,233,13,292,322,312,272,282,133,123,63,213,253,263,173,342,43,163,332,3,33]","153","85","297.7468860755406","[297.7468860755406]","[212.7468860755406]","[213]","[210,30,210,210,300,120,300,300,30]","0","36","0","166.5210000060033","20.849000005982816","16","[[[""img/mask81.png""],[""img/mask35.png""],[""img/mask39.png""],[""img/mask41.png""],[""img/mask51.png""],[""img/mask46.png""],[""img/mask3.png""],[""img/mask21.png""],[""img/mask15.png""],[""img/mask85.png""],[""img/mask18.png""],[""img/mask51.png""],[""img/mask4.png""],[""img/mask49.png""],[""img/mask9.png""],[""img/mask86.png""],[""img/mask53.png""],[""img/mask7.png""],[""img/mask44.png""],[""img/mask68.png""],[""img/mask69.png""],[""img/mask93.png""],[""img/mask51.png""],[""img/mask64.png""],[""img/mask80.png""],[""img/mask21.png""],[""img/mask84.png""],[""img/mask79.png""],[""img/mask74.png""],[""img/mask74.png""],[""img/mask87.png""],[""img/mask69.png""],[""img/mask35.png""],[""img/mask30.png""],[""img/mask22.png""],[""img/mask74.png""]]]","","[22,12,3,9,23,29,13,11,2,31,14,25,6,18,17,30,21,19,8,5,32,4,33,34,7,28,10,35,0,20,1,26,24,27,16,15]","main","85","many-guess-6"
"","","","","","html-keyboard-response","50","715342","0.0-10.0-1.15","57dd186e6598aa0001992616","640759fa512f630a2bdc333d","6407b7e9891ff34e00dc333d","null","","null","","","","","","","","","","","","","","","","","","","fixation","",""
"","","","","","many-guess-6","51","720097","0.0-10.0-0.16-0.16","57dd186e6598aa0001992616","640759fa512f630a2bdc333d","6407b7e9891ff34e00dc333d","[2769.800000011921]","","","[0,10,12,1,8,11,13,28,17,18,27,25,33,23,6,3,9,14,32,26,31,16,20,2,21,5,7,15,30,35,22,4,19,24,34,29]","[216,86,146,345,176,276,256,96,266,16,335,76,186,66,156,246,226,286,325,355,126,315,206,196,296,36,46,6,116,305,106,166,56,26,136,236]","216","311","157.37723118030564","[157.37723118030564]","[206.37723118030564]","[205]","[30,30,120,300,30,120,30,30,210]","0","36","0","166.1110000059707","45.65800000005402","16","[[[""img/mask7.png""],[""img/mask75.png""],[""img/mask7.png""],[""img/mask75.png""],[""img/mask46.png""],[""img/mask100.png""],[""img/mask19.png""],[""img/mask8.png""],[""img/mask24.png""],[""img/mask95.png""],[""img/mask51.png""],[""img/mask43.png""],[""img/mask75.png""],[""img/mask63.png""],[""img/mask87.png""],[""img/mask68.png""],[""img/mask31.png""],[""img/mask21.png""],[""img/mask14.png""],[""img/mask55.png""],[""img/mask91.png""],[""img/mask34.png""],[""img/mask21.png""],[""img/mask49.png""],[""img/mask56.png""],[""img/mask67.png""],[""img/mask59.png""],[""img/mask51.png""],[""img/mask52.png""],[""img/mask68.png""],[""img/mask50.png""],[""img/mask67.png""],[""img/mask44.png""],[""img/mask41.png""],[""img/mask69.png""],[""img/mask85.png""]]]","","[0,10,12,1,8,11,13,28,17,18,27,25,33,23,6,3,9,14,32,26,31,16,20,2,21,5,7,15,30,35,22,4,19,24,34,29]","main","311","many-guess-6"
"","","","","","html-keyboard-response","52","720603","0.0-10.0-1.16","57dd186e6598aa0001992616","640759fa512f630a2bdc333d","6407b7e9891ff34e00dc333d","null","","null","","","","","","","","","","","","","","","","","","","fixation","",""
"","","","","","many-guess-6","53","725017","0.0-10.0-0.17-0.17","57dd186e6598aa0001992616","640759fa512f630a2bdc333d","6407b7e9891ff34e00dc333d","[2518.4000000059605]","","","[7,24,3,2,30,16,6,25,11,18,19,21,17,13,15,20,5,8,28,34,35,31,32,9,29,10,26,27,0,1,33,22,12,14,4,23]","[28,88,18,357,208,288,118,268,218,58,168,347,198,258,298,98,228,188,248,78,108,68,278,128,317,327,138,158,148,48,238,38,8,178,337,308]","28","57","84.16829944505356","[84.16829944505356]","[27.168299445053563]","[25]","[30,120,120,300,30,300,300,120,120]","0","36","0","166.37700001196936","7.645000005955808","16","[[[""img/mask34.png""],[""img/mask55.png""],[""img/mask74.png""],[""img/mask5.png""],[""img/mask73.png""],[""img/mask87.png""],[""img/mask87.png""],[""img/mask62.png""],[""img/mask42.png""],[""img/mask33.png""],[""img/mask51.png""],[""img/mask17.png""],[""img/mask84.png""],[""img/mask80.png""],[""img/mask29.png""],[""img/mask70.png""],[""img/mask51.png""],[""img/mask94.png""],[""img/mask67.png""],[""img/mask58.png""],[""img/mask54.png""],[""img/mask71.png""],[""img/mask55.png""],[""img/mask51.png""],[""img/mask92.png""],[""img/mask74.png""],[""img/mask30.png""],[""img/mask1.png""],[""img/mask50.png""],[""img/mask1.png""],[""img/mask13.png""],[""img/mask82.png""],[""img/mask95.png""],[""img/mask55.png""],[""img/mask32.png""],[""img/mask65.png""]]]","","[7,24,3,2,30,16,6,25,11,18,19,21,17,13,15,20,5,8,28,34,35,31,32,9,29,10,26,27,0,1,33,22,12,14,4,23]","main","57","many-guess-6"
"","","","","","html-keyboard-response","54","725527","0.0-10.0-1.17","57dd186e6598aa0001992616","640759fa512f630a2bdc333d","6407b7e9891ff34e00dc333d","null","","null","","","","","","","","","","","","","","","","","","","fixation","",""
"","","","","","color-precision2","55","729877","0.0-10.0-0.18-0.18","57dd186e6598aa0001992616","640759fa512f630a2bdc333d","6407b7e9891ff34e00dc333d","[1472.300000011921]","","","[1]","[211]","211","291","145.50308627437843","[145.50308627437843]","[214.50308627437843]","[213]","0","0","1","0","166.338000005926","985.0980000118725","1000","[[[""img/mask32.png""]]]","","","main","291","color-precision2"
"","","","","","html-keyboard-response","56","730380","0.0-10.0-1.18","57dd186e6598aa0001992616","640759fa512f630a2bdc333d","6407b7e9891ff34e00dc333d","null","","null","","","","","","","","","","","","","","","","","","","fixation","",""
"","","","","","color-precision2","57","734665","0.0-10.0-0.19-0.19","57dd186e6598aa0001992616","640759fa512f630a2bdc333d","6407b7e9891ff34e00dc333d","[1220]","","","[33]","[264]","264","154","71.49477812566408","[71.49477812566408]","[277.4947781256641]","[276]","0","0","1","0","165.62400001194328","1012.2250000238419","1000","[[[""img/mask81.png""]]]","","","main","154","color-precision2"
"","","","","","html-keyboard-response","58","784987","0.0-10.0-1.19","57dd186e6598aa0001992616","640759fa512f630a2bdc333d","6407b7e9891ff34e00dc333d","50321","Wow! You've completed 20 out of 180 trials! </p> <p>  </p><p> Take a quick break, then press any key when you're ready to continue."," ","","","","","","","","","","","","","","","","","","","fixation","",""
"","","","","","color-precision2","59","789716","0.0-10.0-0.20-0.20","57dd186e6598aa0001992616","640759fa512f630a2bdc333d","6407b7e9891ff34e00dc333d","[1250]","","","[17]","[290]","290","316","242.67865015697126","[242.67865015697126]","[286.67865015697123]","[287]","0","0","1","0","165.08800001791678","988.32300002384","1000","[[[""img/mask91.png""]]]","","","main","316","color-precision2"
"","","","","","html-keyboard-response","60","790225","0.0-10.0-1.20","57dd186e6598aa0001992616","640759fa512f630a2bdc333d","6407b7e9891ff34e00dc333d","null","","null","","","","","","","","","","","","","","","","","","","fixation","",""
"","","","","","many-guess-6","61","794492","0.0-10.0-0.21-0.21","57dd186e6598aa0001992616","640759fa512f630a2bdc333d","6407b7e9891ff34e00dc333d","[2622.800000011921]","","","[16,22,5,31,2,35,13,28,1,19,11,14,25,15,3,21,29,23,30,32,27,34,12,6,20,0,7,26,18,9,10,4,33,8,17,24]","[137,48,337,227,18,257,157,187,277,327,38,28,78,247,127,97,8,237,177,307,147,347,88,297,167,58,68,107,287,267,117,217,197,207,317,357]","137","25","201.43580918559644","[201.43580918559644]","[176.43580918559644]","[176]","[300,30,120,30,120,120,120,210,300]","0","36","0","165.55800001788884","32.96900001191534","16","[[[""img/mask92.png""],[""img/mask37.png""],[""img/mask37.png""],[""img/mask74.png""],[""img/mask29.png""],[""img/mask39.png""],[""img/mask11.png""],[""img/mask10.png""],[""img/mask5.png""],[""img/mask17.png""],[""img/mask26.png""],[""img/mask72.png""],[""img/mask24.png""],[""img/mask85.png""],[""img/mask71.png""],[""img/mask70.png""],[""img/mask21.png""],[""img/mask75.png""],[""img/mask99.png""],[""img/mask51.png""],[""img/mask36.png""],[""img/mask90.png""],[""img/mask67.png""],[""img/mask14.png""],[""img/mask97.png""],[""img/mask35.png""],[""img/mask33.png""],[""img/mask1.png""],[""img/mask69.png""],[""img/mask49.png""],[""img/mask19.png""],[""img/mask33.png""],[""img/mask55.png""],[""img/mask34.png""],[""img/mask12.png""],[""img/mask47.png""]]]","","[16,22,5,31,2,35,13,28,1,19,11,14,25,15,3,21,29,23,30,32,27,34,12,6,20,0,7,26,18,9,10,4,33,8,17,24]","main","25","many-guess-6"
"","","","","","html-keyboard-response","62","795001","0.0-10.0-1.21","57dd186e6598aa0001992616","640759fa512f630a2bdc333d","6407b7e9891ff34e00dc333d","null","","null","","","","","","","","","","","","","","","","","","","fixation","",""
"","","","","","color-precision2","63","798852","0.0-10.0-0.22-0.22","57dd186e6598aa0001992616","640759fa512f630a2bdc333d","6407b7e9891ff34e00dc333d","[876.5999999940395]","","","[24]","[314]","314","36","333.23659628901714","[333.23659628901714]","[297.23659628901714]","[297]","0","0","1","0","164.6080000179354","1002.2929999999469","1000","[[[""img/mask32.png""]]]","","","main","36","color-precision2"
"","","","","","html-keyboard-response","64","799353","0.0-10.0-1.22","57dd186e6598aa0001992616","640759fa512f630a2bdc333d","6407b7e9891ff34e00dc333d","null","","null","","","","","","","","","","","","","","","","","","","fixation","",""
"","","","","","color-precision2","65","803657","0.0-10.0-0.23-0.23","57dd186e6598aa0001992616","640759fa512f630a2bdc333d","6407b7e9891ff34e00dc333d","[1643.5]","","","[21]","[191]","191","339","172.25025604722927","[172.25025604722927]","[193.25025604722927]","[193]","0","0","1","0","163.95700001786463","1012.4000000118976","1000","[[[""img/mask32.png""]]]","","","main","339","color-precision2"
"","","","","","html-keyboard-response","66","804159","0.0-10.0-1.23","57dd186e6598aa0001992616","640759fa512f630a2bdc333d","6407b7e9891ff34e00dc333d","null","","null","","","","","","","","","","","","","","","","","","","fixation","",""
"","","","","","many-guess-6","67","808454","0.0-10.0-0.24-0.24","57dd186e6598aa0001992616","640759fa512f630a2bdc333d","6407b7e9891ff34e00dc333d","[2503.9000000059605]","","","[31,12,32,34,19,1,18,3,16,4,26,20,0,15,13,35,23,5,8,17,21,27,28,33,25,11,9,24,30,14,6,2,7,10,22,29]","[281,311,321,162,32,142,102,171,12,181,122,132,201,72,92,112,231,341,351,22,271,52,251,62,42,331,221,261,2,301,82,241,211,291,191,152]","281","121","105.71964920362163","[105.71964920362163]","[344.71964920362166]","[343]","[210,120,30,120,120,210,30,210,30]","0","36","0","165.57600000000093","21.700000011944212","16","[[[""img/mask72.png""],[""img/mask51.png""],[""img/mask40.png""],[""img/mask73.png""],[""img/mask8.png""],[""img/mask69.png""],[""img/mask30.png""],[""img/mask40.png""],[""img/mask58.png""],[""img/mask87.png""],[""img/mask100.png""],[""img/mask42.png""],[""img/mask54.png""],[""img/mask99.png""],[""img/mask10.png""],[""img/mask68.png""],[""img/mask57.png""],[""img/mask57.png""],[""img/mask99.png""],[""img/mask32.png""],[""img/mask68.png""],[""img/mask99.png""],[""img/mask57.png""],[""img/mask38.png""],[""img/mask42.png""],[""img/mask14.png""],[""img/mask79.png""],[""img/mask28.png""],[""img/mask62.png""],[""img/mask14.png""],[""img/mask23.png""],[""img/mask55.png""],[""img/mask74.png""],[""img/mask74.png""],[""img/mask52.png""],[""img/mask41.png""]]]","","[31,12,32,34,19,1,18,3,16,4,26,20,0,15,13,35,23,5,8,17,21,27,28,33,25,11,9,24,30,14,6,2,7,10,22,29]","main","121","many-guess-6"
"","","","","","html-keyboard-response","68","808959","0.0-10.0-1.24","57dd186e6598aa0001992616","640759fa512f630a2bdc333d","6407b7e9891ff34e00dc333d","null","","null","","","","","","","","","","","","","","","","","","","fixation","",""
"","","","","","many-guess-6","69","813921","0.0-10.0-0.25-0.25","57dd186e6598aa0001992616","640759fa512f630a2bdc333d","6407b7e9891ff34e00dc333d","[2366.600000023842]","","","[6,19,24,34,17,32,14,18,20,3,21,26,10,5,27,28,16,4,29,1,33,0,9,11,30,8,13,35,31,25,7,2,12,23,15,22]","[338,248,59,228,258,238,19,328,188,218,138,128,29,208,148,178,288,99,358,89,268,49,278,348,39,198,109,69,158,298,168,79,318,119,9,308]","338","277","80.06969637997743","[80.06969637997743]","[163.06969637997742]","[161]","[210,30,300,120,30,300,120,300,300]","0","36","0","165.5430000060005","17.9660000000149","16","[[[""img/mask66.png""],[""img/mask47.png""],[""img/mask73.png""],[""img/mask56.png""],[""img/mask15.png""],[""img/mask73.png""],[""img/mask67.png""],[""img/mask95.png""],[""img/mask75.png""],[""img/mask93.png""],[""img/mask49.png""],[""img/mask49.png""],[""img/mask47.png""],[""img/mask59.png""],[""img/mask97.png""],[""img/mask32.png""],[""img/mask37.png""],[""img/mask68.png""],[""img/mask62.png""],[""img/mask4.png""],[""img/mask10.png""],[""img/mask54.png""],[""img/mask17.png""],[""img/mask42.png""],[""img/mask68.png""],[""img/mask91.png""],[""img/mask59.png""],[""img/mask41.png""],[""img/mask68.png""],[""img/mask26.png""],[""img/mask62.png""],[""img/mask69.png""],[""img/mask83.png""],[""img/mask11.png""],[""img/mask46.png""],[""img/mask70.png""]]]","","[6,19,24,34,17,32,14,18,20,3,21,26,10,5,27,28,16,4,29,1,33,0,9,11,30,8,13,35,31,25,7,2,12,23,15,22]","main","277","many-guess-6"
"","","","","","html-keyboard-response","70","814437","0.0-10.0-1.25","57dd186e6598aa0001992616","640759fa512f630a2bdc333d","6407b7e9891ff34e00dc333d","null","","null","","","","","","","","","","","","","","","","","","","fixation","",""
"","","","","","many-guess-6","71","818562","0.0-10.0-0.26-0.26","57dd186e6598aa0001992616","640759fa512f630a2bdc333d","6407b7e9891ff34e00dc333d","[2001.2999999821186]","","","[21,35,4,9,18,15,31,1,24,11,17,29,10,16,34,27,22,19,30,23,25,8,20,6,12,14,26,28,33,7,0,5,3,32,2,13]","[283,113,63,263,193,323,53,173,123,153,163,243,203,303,333,24,223,83,133,4,33,353,253,73,14,313,43,273,93,343,233,183,103,213,293,143]","283","249","118.7299040657142","[118.7299040657142]","[229.7299040657142]","[228]","[300,210,30,300,120,300,30,120,210]","0","36","0","165.542000005953","15.743000005953945","16","[[[""img/mask90.png""],[""img/mask8.png""],[""img/mask67.png""],[""img/mask54.png""],[""img/mask30.png""],[""img/mask41.png""],[""img/mask27.png""],[""img/mask20.png""],[""img/mask57.png""],[""img/mask99.png""],[""img/mask5.png""],[""img/mask26.png""],[""img/mask42.png""],[""img/mask11.png""],[""img/mask87.png""],[""img/mask39.png""],[""img/mask33.png""],[""img/mask64.png""],[""img/mask48.png""],[""img/mask78.png""],[""img/mask18.png""],[""img/mask23.png""],[""img/mask2.png""],[""img/mask59.png""],[""img/mask99.png""],[""img/mask34.png""],[""img/mask67.png""],[""img/mask75.png""],[""img/mask80.png""],[""img/mask91.png""],[""img/mask61.png""],[""img/mask93.png""],[""img/mask94.png""],[""img/mask36.png""],[""img/mask24.png""],[""img/mask2.png""]]]","","[21,35,4,9,18,15,31,1,24,11,17,29,10,16,34,27,22,19,30,23,25,8,20,6,12,14,26,28,33,7,0,5,3,32,2,13]","main","249","many-guess-6"
"","","","","","html-keyboard-response","72","819063","0.0-10.0-1.26","57dd186e6598aa0001992616","640759fa512f630a2bdc333d","6407b7e9891ff34e00dc333d","null","","null","","","","","","","","","","","","","","","","","","","fixation","",""
"","","","","","many-guess-6","73","823744","0.0-10.0-0.27-0.27","57dd186e6598aa0001992616","640759fa512f630a2bdc333d","6407b7e9891ff34e00dc333d","[2412.4000000059605]","","","[22,17,28,18,5,33,34,10,11,21,32,29,35,12,15,2,26,3,20,30,8,13,6,16,0,7,27,14,24,23,25,4,1,9,31,19]","[111,171,131,350,261,101,340,211,280,181,320,221,31,121,41,330,231,290,71,270,300,51,241,201,161,81,151,11,91,251,21,141,310,61,1,191]","111","159","44.31688081423814","[44.31688081423814]","[245.31688081423815]","[244]","[210,120,30,300,30,30,30,300,210]","0","36","0","166.14700002386235","18.835000006016344","16","[[[""img/mask64.png""],[""img/mask82.png""],[""img/mask57.png""],[""img/mask62.png""],[""img/mask28.png""],[""img/mask82.png""],[""img/mask90.png""],[""img/mask32.png""],[""img/mask84.png""],[""img/mask43.png""],[""img/mask87.png""],[""img/mask50.png""],[""img/mask85.png""],[""img/mask85.png""],[""img/mask34.png""],[""img/mask63.png""],[""img/mask99.png""],[""img/mask27.png""],[""img/mask5.png""],[""img/mask10.png""],[""img/mask95.png""],[""img/mask30.png""],[""img/mask67.png""],[""img/mask63.png""],[""img/mask15.png""],[""img/mask16.png""],[""img/mask72.png""],[""img/mask96.png""],[""img/mask85.png""],[""img/mask46.png""],[""img/mask60.png""],[""img/mask66.png""],[""img/mask55.png""],[""img/mask17.png""],[""img/mask47.png""],[""img/mask84.png""]]]","","[22,17,28,18,5,33,34,10,11,21,32,29,35,12,15,2,26,3,20,30,8,13,6,16,0,7,27,14,24,23,25,4,1,9,31,19]","main","159","many-guess-6"
"","","","","","html-keyboard-response","74","824252","0.0-10.0-1.27","57dd186e6598aa0001992616","640759fa512f630a2bdc333d","6407b7e9891ff34e00dc333d","null","","null","","","","","","","","","","","","","","","","","","","fixation","",""
"","","","","","color-precision2","75","829108","0.0-10.0-0.28-0.28","57dd186e6598aa0001992616","640759fa512f630a2bdc333d","6407b7e9891ff34e00dc333d","[1002.4000000059605]","","","[27]","[347]","347","336","333.4886258618296","[333.4886258618296]","[357.4886258618296]","[357]","0","0","1","0","165.60900002380367","984.3090000000084","1000","[[[""img/mask28.png""]]]","","","main","336","color-precision2"
"","","","","","html-keyboard-response","76","829620","0.0-10.0-1.28","57dd186e6598aa0001992616","640759fa512f630a2bdc333d","6407b7e9891ff34e00dc333d","null","","null","","","","","","","","","","","","","","","","","","","fixation","",""
"","","","","","color-precision2","77","834328","0.0-10.0-0.29-0.29","57dd186e6598aa0001992616","640759fa512f630a2bdc333d","6407b7e9891ff34e00dc333d","[1784.800000011921]","","","[35]","[44]","44","317","340.42587241801004","[340.42587241801004]","[23.425872418010044]","[23]","0","0","1","0","165.66400000592694","1015.2560000178637","1000","[[[""img/mask92.png""]]]","","","main","317","color-precision2"
"","","","","","html-keyboard-response","78","834838","0.0-10.0-1.29","57dd186e6598aa0001992616","640759fa512f630a2bdc333d","6407b7e9891ff34e00dc333d","null","","null","","","","","","","","","","","","","","","","","","","fixation","",""
"","","","","","many-guess-6","79","839184","0.0-10.0-0.30-0.30","57dd186e6598aa0001992616","640759fa512f630a2bdc333d","6407b7e9891ff34e00dc333d","[2636.2000000178814]","","","[12,26,23,3,17,18,0,4,16,22,21,30,32,1,19,25,24,35,9,34,20,6,33,2,27,11,14,5,15,29,13,8,7,10,28,31]","[329,309,70,280,40,140,220,270,130,230,200,60,180,349,30,290,300,319,250,339,120,90,240,170,359,260,100,10,20,160,190,50,110,150,80,210]","329","27","221.0583089140073","[221.0583089140073]","[194.0583089140073]","[194]","[30,120,30,30,30,30,300,120,300]","0","36","0","166.32800002384465","17.399000011966564","16","[[[""img/mask79.png""],[""img/mask66.png""],[""img/mask26.png""],[""img/mask75.png""],[""img/mask95.png""],[""img/mask41.png""],[""img/mask85.png""],[""img/mask95.png""],[""img/mask37.png""],[""img/mask32.png""],[""img/mask99.png""],[""img/mask28.png""],[""img/mask37.png""],[""img/mask37.png""],[""img/mask58.png""],[""img/mask81.png""],[""img/mask74.png""],[""img/mask95.png""],[""img/mask45.png""],[""img/mask74.png""],[""img/mask88.png""],[""img/mask3.png""],[""img/mask34.png""],[""img/mask70.png""],[""img/mask6.png""],[""img/mask46.png""],[""img/mask64.png""],[""img/mask82.png""],[""img/mask8.png""],[""img/mask58.png""],[""img/mask22.png""],[""img/mask78.png""],[""img/mask59.png""],[""img/mask90.png""],[""img/mask55.png""],[""img/mask56.png""]]]","","[12,26,23,3,17,18,0,4,16,22,21,30,32,1,19,25,24,35,9,34,20,6,33,2,27,11,14,5,15,29,13,8,7,10,28,31]","main","27","many-guess-6"
"","","","","","html-keyboard-response","80","839698","0.0-10.0-1.30","57dd186e6598aa0001992616","640759fa512f630a2bdc333d","6407b7e9891ff34e00dc333d","null","","null","","","","","","","","","","","","","","","","","","","fixation","",""
"","","","","","many-guess-6","81","847858","0.0-10.0-0.31-0.31","57dd186e6598aa0001992616","640759fa512f630a2bdc333d","6407b7e9891ff34e00dc333d","[5671.4000000059605]","","","[28,11,27,25,17,33,32,1,15,22,6,12,2,18,4,31,26,8,7,34,0,35,5,14,19,9,3,16,24,30,29,20,13,21,10,23]","[138,218,308,89,278,158,128,9,59,188,69,318,198,328,348,109,29,288,228,298,178,238,268,148,39,118,99,248,208,358,258,338,19,168,49,79]","138","72","306.43320210822804","[306.43320210822804]","[234.43320210822804]","[235]","[30,120,210,120,30,30,300,120,300]","0","36","0","166.33600002387539","25.31800000590738","16","[[[""img/mask40.png""],[""img/mask50.png""],[""img/mask100.png""],[""img/mask32.png""],[""img/mask4.png""],[""img/mask7.png""],[""img/mask15.png""],[""img/mask34.png""],[""img/mask66.png""],[""img/mask48.png""],[""img/mask75.png""],[""img/mask17.png""],[""img/mask67.png""],[""img/mask25.png""],[""img/mask7.png""],[""img/mask36.png""],[""img/mask77.png""],[""img/mask99.png""],[""img/mask54.png""],[""img/mask9.png""],[""img/mask52.png""],[""img/mask24.png""],[""img/mask83.png""],[""img/mask5.png""],[""img/mask33.png""],[""img/mask64.png""],[""img/mask28.png""],[""img/mask32.png""],[""img/mask42.png""],[""img/mask73.png""],[""img/mask8.png""],[""img/mask74.png""],[""img/mask97.png""],[""img/mask49.png""],[""img/mask25.png""],[""img/mask84.png""]]]","","[28,11,27,25,17,33,32,1,15,22,6,12,2,18,4,31,26,8,7,34,0,35,5,14,19,9,3,16,24,30,29,20,13,21,10,23]","main","72","many-guess-6"
"","","","","","html-keyboard-response","82","848358","0.0-10.0-1.31","57dd186e6598aa0001992616","640759fa512f630a2bdc333d","6407b7e9891ff34e00dc333d","null","","null","","","","","","","","","","","","","","","","","","","fixation","",""
"","","","","","many-guess-6","83","852387","0.0-10.0-0.32-0.32","57dd186e6598aa0001992616","640759fa512f630a2bdc333d","6407b7e9891ff34e00dc333d","[2227.2000000178814]","","","[34,11,23,4,18,26,15,24,25,10,17,21,12,3,22,14,19,8,35,5,30,33,13,27,2,28,31,6,1,20,29,7,9,32,0,16]","[138,28,278,228,308,98,188,128,258,268,318,148,288,298,198,238,58,8,248,337,178,78,18,88,347,218,68,108,168,208,118,357,327,38,48,158]","138","355","220.97773654058486","[220.97773654058486]","[225.97773654058486]","[226]","[120,120,120,30,210,30,120,120,30]","0","36","0","166.35699999995995","5.891000005998649","16","[[[""img/mask99.png""],[""img/mask96.png""],[""img/mask53.png""],[""img/mask5.png""],[""img/mask96.png""],[""img/mask83.png""],[""img/mask18.png""],[""img/mask5.png""],[""img/mask92.png""],[""img/mask28.png""],[""img/mask70.png""],[""img/mask42.png""],[""img/mask14.png""],[""img/mask68.png""],[""img/mask3.png""],[""img/mask57.png""],[""img/mask18.png""],[""img/mask37.png""],[""img/mask59.png""],[""img/mask13.png""],[""img/mask80.png""],[""img/mask98.png""],[""img/mask68.png""],[""img/mask4.png""],[""img/mask63.png""],[""img/mask77.png""],[""img/mask96.png""],[""img/mask18.png""],[""img/mask96.png""],[""img/mask67.png""],[""img/mask58.png""],[""img/mask44.png""],[""img/mask79.png""],[""img/mask97.png""],[""img/mask27.png""],[""img/mask9.png""]]]","","[34,11,23,4,18,26,15,24,25,10,17,21,12,3,22,14,19,8,35,5,30,33,13,27,2,28,31,6,1,20,29,7,9,32,0,16]","main","355","many-guess-6"
"","","","","","html-keyboard-response","84","852890","0.0-10.0-1.32","57dd186e6598aa0001992616","640759fa512f630a2bdc333d","6407b7e9891ff34e00dc333d","null","","null","","","","","","","","","","","","","","","","","","","fixation","",""
"","","","","","many-guess-6","85","857411","0.0-10.0-0.33-0.33","57dd186e6598aa0001992616","640759fa512f630a2bdc333d","6407b7e9891ff34e00dc333d","[2479.800000011921]","","","[13,17,7,34,28,6,32,19,23,0,2,33,24,16,25,35,10,1,4,30,29,22,15,21,9,8,26,20,3,11,31,5,27,18,14,12]","[175,105,284,115,85,15,95,274,354,5,344,304,294,215,254,55,264,205,25,334,234,195,155,125,314,145,185,244,224,35,75,324,65,165,135,45]","175","45","48.37008511119962","[48.37008511119962]","[3.3700851111996215]","[2]","[210,120,120,30,210,210,120,30,300]","0","36","0","166.29099999996834","2.6660000178962946","16","[[[""img/mask77.png""],[""img/mask45.png""],[""img/mask28.png""],[""img/mask60.png""],[""img/mask5.png""],[""img/mask43.png""],[""img/mask77.png""],[""img/mask69.png""],[""img/mask10.png""],[""img/mask51.png""],[""img/mask7.png""],[""img/mask98.png""],[""img/mask3.png""],[""img/mask57.png""],[""img/mask91.png""],[""img/mask21.png""],[""img/mask78.png""],[""img/mask27.png""],[""img/mask49.png""],[""img/mask30.png""],[""img/mask57.png""],[""img/mask42.png""],[""img/mask47.png""],[""img/mask48.png""],[""img/mask77.png""],[""img/mask33.png""],[""img/mask30.png""],[""img/mask95.png""],[""img/mask67.png""],[""img/mask22.png""],[""img/mask20.png""],[""img/mask34.png""],[""img/mask83.png""],[""img/mask66.png""],[""img/mask22.png""],[""img/mask77.png""]]]","","[13,17,7,34,28,6,32,19,23,0,2,33,24,16,25,35,10,1,4,30,29,22,15,21,9,8,26,20,3,11,31,5,27,18,14,12]","main","45","many-guess-6"
"","","","","","html-keyboard-response","86","857915","0.0-10.0-1.33","57dd186e6598aa0001992616","640759fa512f630a2bdc333d","6407b7e9891ff34e00dc333d","null","","null","","","","","","","","","","","","","","","","","","","fixation","",""
"","","","","","color-precision2","87","861654","0.0-10.0-0.34-0.34","57dd186e6598aa0001992616","640759fa512f630a2bdc333d","6407b7e9891ff34e00dc333d","[915.4000000059605]","","","[4]","[135]","135","304","89.32168795595469","[89.32168795595469]","[145.3216879559547]","[143]","0","0","1","0","165.5779999999795","990.5810000179335","1000","[[[""img/mask73.png""]]]","","","main","304","color-precision2"
"","","","","","html-keyboard-response","88","862156","0.0-10.0-1.34","57dd186e6598aa0001992616","640759fa512f630a2bdc333d","6407b7e9891ff34e00dc333d","null","","null","","","","","","","","","","","","","","","","","","","fixation","",""
"","","","","","color-precision2","89","866594","0.0-10.0-0.35-0.35","57dd186e6598aa0001992616","640759fa512f630a2bdc333d","6407b7e9891ff34e00dc333d","[1651.5]","","","[1]","[147]","147","216","10.781513584240127","[10.781513584240127]","[154.78151358424012]","[154]","0","0","1","0","164.57000001193956","984.8730000118958","1000","[[[""img/mask72.png""]]]","","","main","216","color-precision2"
"","","","","","html-keyboard-response","90","867107","0.0-10.0-1.35","57dd186e6598aa0001992616","640759fa512f630a2bdc333d","6407b7e9891ff34e00dc333d","null","","null","","","","","","","","","","","","","","","","","","","fixation","",""
"","","","","","color-precision2","91","875610","0.0-10.0-0.36-0.36","57dd186e6598aa0001992616","640759fa512f630a2bdc333d","6407b7e9891ff34e00dc333d","[5563.0999999940395]","","","[19]","[21]","21","316","329.09781927334313","[329.09781927334313]","[13.097819273343134]","[13]","0","0","1","0","165.58800001791678","1011.6809999999823","1000","[[[""img/mask42.png""]]]","","","main","316","color-precision2"
"","","","","","html-keyboard-response","92","876112","0.0-10.0-1.36","57dd186e6598aa0001992616","640759fa512f630a2bdc333d","6407b7e9891ff34e00dc333d","null","","null","","","","","","","","","","","","","","","","","","","fixation","",""
"","","","","","color-precision2","93","881411","0.0-10.0-0.37-0.37","57dd186e6598aa0001992616","640759fa512f630a2bdc333d","6407b7e9891ff34e00dc333d","[1221]","","","[30]","[261]","261","285","197.94874666069558","[197.94874666069558]","[272.9487466606956]","[272]","0","0","1","0","165.6200000118697","1006.0350000059698","1000","[[[""img/mask56.png""]]]","","","main","285","color-precision2"
"","","","","","html-keyboard-response","94","881922","0.0-10.0-1.37","57dd186e6598aa0001992616","640759fa512f630a2bdc333d","6407b7e9891ff34e00dc333d","null","","null","","","","","","","","","","","","","","","","","","","fixation","",""
"","","","","","color-precision2","95","885482","0.0-10.0-0.38-0.38","57dd186e6598aa0001992616","640759fa512f630a2bdc333d","6407b7e9891ff34e00dc333d","[752.4000000059605]","","","[25]","[133]","133","102","241.44875123400243","[241.44875123400243]","[139.44875123400243]","[139]","0","0","1","0","163.7420000238344","1003.0010000237962","1000","[[[""img/mask11.png""]]]","","","main","102","color-precision2"
"","","","","","html-keyboard-response","96","885986","0.0-10.0-1.38","57dd186e6598aa0001992616","640759fa512f630a2bdc333d","6407b7e9891ff34e00dc333d","null","","null","","","","","","","","","","","","","","","","","","","fixation","",""
"","","","","","color-precision2","97","890287","0.0-10.0-0.39-0.39","57dd186e6598aa0001992616","640759fa512f630a2bdc333d","6407b7e9891ff34e00dc333d","[1221.4000000059605]","","","[17]","[94]","94","20","118.21428398284829","[118.21428398284829]","[98.21428398284829]","[96]","0","0","1","0","164.64700001187157","1000.4750000119675","1000","[[[""img/mask58.png""]]]","","","main","20","color-precision2"
"","","","","","html-keyboard-response","98","898585","0.0-10.0-1.39","57dd186e6598aa0001992616","640759fa512f630a2bdc333d","6407b7e9891ff34e00dc333d","8296.699999988079","Wow! You've completed 40 out of 180 trials! </p> <p>  </p><p> Take a quick break, then press any key when you're ready to continue."," ","","","","","","","","","","","","","","","","","","","fixation","",""
"","","","","","color-precision2","99","904851","0.0-10.0-0.40-0.40","57dd186e6598aa0001992616","640759fa512f630a2bdc333d","6407b7e9891ff34e00dc333d","[1137.300000011921]","","","[4]","[182]","182","179","346.49952342369767","[346.49952342369767]","[167.49952342369767]","[167]","0","0","1","0","164.81299999996554","1011.6019999999553","1000","[[[""img/mask1.png""]]]","","","main","179","color-precision2"
"","","","","","html-keyboard-response","100","905358","0.0-10.0-1.40","57dd186e6598aa0001992616","640759fa512f630a2bdc333d","6407b7e9891ff34e00dc333d","null","","null","","","","","","","","","","","","","","","","","","","fixation","",""
"","","","","","color-precision2","101","908874","0.0-10.0-0.41-0.41","57dd186e6598aa0001992616","640759fa512f630a2bdc333d","6407b7e9891ff34e00dc333d","[720.5999999940395]","","","[26]","[256]","256","156","63.708820902947345","[63.708820902947345]","[267.7088209029473]","[266]","0","0","1","0","165.41100001195446","996.0180000237888","1000","[[[""img/mask33.png""]]]","","","main","156","color-precision2"
"","","","","","html-keyboard-response","102","909380","0.0-10.0-1.41","57dd186e6598aa0001992616","640759fa512f630a2bdc333d","6407b7e9891ff34e00dc333d","null","","null","","","","","","","","","","","","","","","","","","","fixation","",""
"","","","","","color-precision2","103","912780","0.0-10.0-0.42-0.42","57dd186e6598aa0001992616","640759fa512f630a2bdc333d","6407b7e9891ff34e00dc333d","[822.7000000178814]","","","[21]","[335]","335","69","66.7278831438853","[66.7278831438853]","[357.72788314388526]","[356]","0","0","1","0","163.6220000119647","1001.9700000119628","1000","[[[""img/mask37.png""]]]","","","main","69","color-precision2"
"","","","","","html-keyboard-response","104","913290","0.0-10.0-1.42","57dd186e6598aa0001992616","640759fa512f630a2bdc333d","6407b7e9891ff34e00dc333d","null","","null","","","","","","","","","","","","","","","","","","","fixation","",""
"","","","","","color-precision2","105","916646","0.0-10.0-0.43-0.43","57dd186e6598aa0001992616","640759fa512f630a2bdc333d","6407b7e9891ff34e00dc333d","[719.4000000059605]","","","[14]","[274]","274","315","235.57982072423636","[235.57982072423636]","[280.57982072423636]","[281]","0","0","1","0","165.770000011893","1006.2929999999469","1000","[[[""img/mask59.png""]]]","","","main","315","color-precision2"
"","","","","","html-keyboard-response","106","917148","0.0-10.0-1.43","57dd186e6598aa0001992616","640759fa512f630a2bdc333d","6407b7e9891ff34e00dc333d","null","","null","","","","","","","","","","","","","","","","","","","fixation","",""
"","","","","","color-precision2","107","920666","0.0-10.0-0.44-0.44","57dd186e6598aa0001992616","640759fa512f630a2bdc333d","6407b7e9891ff34e00dc333d","[869]","","","[23]","[158]","158","214","22.3413309860272","[22.3413309860272]","[168.3413309860272]","[167]","0","0","1","0","163.84300001186784","991.3890000238316","1000","[[[""img/mask13.png""]]]","","","main","214","color-precision2"
"","","","","","html-keyboard-response","108","921181","0.0-10.0-1.44","57dd186e6598aa0001992616","640759fa512f630a2bdc333d","6407b7e9891ff34e00dc333d","null","","null","","","","","","","","","","","","","","","","","","","fixation","",""
"","","","","","color-precision2","109","924490","0.0-10.0-0.45-0.45","57dd186e6598aa0001992616","640759fa512f630a2bdc333d","6407b7e9891ff34e00dc333d","[853.7000000178814]","","","[6]","[359]","359","236","227.4744176311363","[227.4744176311363]","[351.4744176311363]","[352]","0","0","1","0","163.88800001190975","993.4570000000531","1000","[[[""img/mask74.png""]]]","","","main","236","color-precision2"
"","","","","","html-keyboard-response","110","924991","0.0-10.0-1.45","57dd186e6598aa0001992616","640759fa512f630a2bdc333d","6407b7e9891ff34e00dc333d","null","","null","","","","","","","","","","","","","","","","","","","fixation","",""
"","","","","","many-guess-6","111","929006","0.0-10.0-0.46-0.46","57dd186e6598aa0001992616","640759fa512f630a2bdc333d","6407b7e9891ff34e00dc333d","[2469]","","","[31,27,2,16,9,25,19,20,8,18,22,30,24,14,17,32,21,12,26,11,6,13,34,28,4,35,29,3,23,0,33,10,5,15,1,7]","[33,13,303,263,103,73,163,83,123,23,173,113,213,63,332,203,273,293,253,43,233,342,223,193,3,352,183,322,153,143,93,283,133,312,53,243]","33","359","176.6511123909551","[176.6511123909551]","[177.6511123909551]","[177]","[30,210,120,300,210,30,210,30,300]","0","36","0","165.60499999998137","8.227000006008893","16","[[[""img/mask11.png""],[""img/mask90.png""],[""img/mask88.png""],[""img/mask84.png""],[""img/mask24.png""],[""img/mask82.png""],[""img/mask85.png""],[""img/mask53.png""],[""img/mask75.png""],[""img/mask22.png""],[""img/mask1.png""],[""img/mask31.png""],[""img/mask31.png""],[""img/mask56.png""],[""img/mask17.png""],[""img/mask55.png""],[""img/mask37.png""],[""img/mask63.png""],[""img/mask17.png""],[""img/mask76.png""],[""img/mask36.png""],[""img/mask93.png""],[""img/mask70.png""],[""img/mask63.png""],[""img/mask37.png""],[""img/mask79.png""],[""img/mask45.png""],[""img/mask45.png""],[""img/mask54.png""],[""img/mask90.png""],[""img/mask26.png""],[""img/mask39.png""],[""img/mask7.png""],[""img/mask22.png""],[""img/mask22.png""],[""img/mask7.png""]]]","","[31,27,2,16,9,25,19,20,8,18,22,30,24,14,17,32,21,12,26,11,6,13,34,28,4,35,29,3,23,0,33,10,5,15,1,7]","main","359","many-guess-6"
"","","","","","html-keyboard-response","112","929518","0.0-10.0-1.46","57dd186e6598aa0001992616","640759fa512f630a2bdc333d","6407b7e9891ff34e00dc333d","null","","null","","","","","","","","","","","","","","","","","","","fixation","",""
"","","","","","color-precision2","113","932835","0.0-10.0-0.47-0.47","57dd186e6598aa0001992616","640759fa512f630a2bdc333d","6407b7e9891ff34e00dc333d","[826.4000000059605]","","","[26]","[136]","136","355","132.2243340461216","[132.2243340461216]","[137.2243340461216]","[136]","0","0","1","0","164.38300001784228","998.4230000060052","1000","[[[""img/mask70.png""]]]","","","main","355","color-precision2"
"","","","","","html-keyboard-response","114","933344","0.0-10.0-1.47","57dd186e6598aa0001992616","640759fa512f630a2bdc333d","6407b7e9891ff34e00dc333d","null","","null","","","","","","","","","","","","","","","","","","","fixation","",""
"","","","","","color-precision2","115","937022","0.0-10.0-0.48-0.48","57dd186e6598aa0001992616","640759fa512f630a2bdc333d","6407b7e9891ff34e00dc333d","[1042.1000000238419]","","","[28]","[214]","214","179","42.77252097032979","[42.77252097032979]","[223.7725209703298]","[222]","0","0","1","0","163.99000002385583","983.5690000059549","1000","[[[""img/mask57.png""]]]","","","main","179","color-precision2"
"","","","","","html-keyboard-response","116","937528","0.0-10.0-1.48","57dd186e6598aa0001992616","640759fa512f630a2bdc333d","6407b7e9891ff34e00dc333d","null","","null","","","","","","","","","","","","","","","","","","","fixation","",""
"","","","","","color-precision2","117","941170","0.0-10.0-0.49-0.49","57dd186e6598aa0001992616","640759fa512f630a2bdc333d","6407b7e9891ff34e00dc333d","[1219.4000000059605]","","","[9]","[347]","347","117","112.96073805340217","[112.96073805340217]","[355.96073805340217]","[354]","0","0","1","0","165.07900001783855","1002.0940000119153","1000","[[[""img/mask77.png""]]]","","","main","117","color-precision2"
"","","","","","html-keyboard-response","118","941671","0.0-10.0-1.49","57dd186e6598aa0001992616","640759fa512f630a2bdc333d","6407b7e9891ff34e00dc333d","null","","null","","","","","","","","","","","","","","","","","","","fixation","",""
"","","","","","color-precision2","119","945992","0.0-10.0-0.50-0.50","57dd186e6598aa0001992616","640759fa512f630a2bdc333d","6407b7e9891ff34e00dc333d","[1870.2000000178814]","","","[34]","[175]","175","292","112.46713837110478","[112.46713837110478]","[180.4671383711048]","[179]","0","0","1","0","163.83200000005309","999.928000011947","1000","[[[""img/mask44.png""]]]","","","main","292","color-precision2"
"","","","","","html-keyboard-response","120","946508","0.0-10.0-1.50","57dd186e6598aa0001992616","640759fa512f630a2bdc333d","6407b7e9891ff34e00dc333d","null","","null","","","","","","","","","","","","","","","","","","","fixation","",""
"","","","","","many-guess-6","121","951086","0.0-10.0-0.51-0.51","57dd186e6598aa0001992616","640759fa512f630a2bdc333d","6407b7e9891ff34e00dc333d","[2894]","","","[16,30,7,0,9,21,13,28,20,27,34,19,1,23,11,17,4,5,18,24,15,25,29,6,35,26,33,12,31,14,22,10,3,32,8,2]","[232,261,42,341,331,192,152,72,242,182,62,142,112,351,301,122,202,92,32,172,212,321,132,22,12,291,2,281,52,82,162,271,102,251,222,311]","232","217","219.47219322919395","[219.47219322919395]","[2.472193229193948]","[2]","[210,30,30,30,210,300,30,300,30]","0","36","0","166.2560000178637","24.210000011953525","16","[[[""img/mask96.png""],[""img/mask81.png""],[""img/mask100.png""],[""img/mask61.png""],[""img/mask92.png""],[""img/mask53.png""],[""img/mask35.png""],[""img/mask1.png""],[""img/mask64.png""],[""img/mask27.png""],[""img/mask99.png""],[""img/mask93.png""],[""img/mask41.png""],[""img/mask94.png""],[""img/mask38.png""],[""img/mask85.png""],[""img/mask88.png""],[""img/mask16.png""],[""img/mask100.png""],[""img/mask73.png""],[""img/mask25.png""],[""img/mask58.png""],[""img/mask20.png""],[""img/mask28.png""],[""img/mask1.png""],[""img/mask50.png""],[""img/mask99.png""],[""img/mask56.png""],[""img/mask25.png""],[""img/mask14.png""],[""img/mask29.png""],[""img/mask43.png""],[""img/mask17.png""],[""img/mask74.png""],[""img/mask36.png""],[""img/mask94.png""]]]","","[16,30,7,0,9,21,13,28,20,27,34,19,1,23,11,17,4,5,18,24,15,25,29,6,35,26,33,12,31,14,22,10,3,32,8,2]","main","217","many-guess-6"
"","","","","","html-keyboard-response","122","951595","0.0-10.0-1.51","57dd186e6598aa0001992616","640759fa512f630a2bdc333d","6407b7e9891ff34e00dc333d","null","","null","","","","","","","","","","","","","","","","","","","fixation","",""
"","","","","","many-guess-6","123","955390","0.0-10.0-0.52-0.52","57dd186e6598aa0001992616","640759fa512f630a2bdc333d","6407b7e9891ff34e00dc333d","[1959.7999999821186]","","","[12,23,1,35,11,21,22,30,14,9,7,10,16,8,17,32,15,28,13,19,34,4,6,0,3,20,31,27,26,24,18,25,2,29,33,5]","[123,133,63,333,113,273,153,263,73,4,54,313,173,343,233,213,83,44,14,243,163,293,223,203,34,283,183,303,253,143,193,323,24,353,93,103]","123","175","49.33740785508115","[49.33740785508115]","[234.33740785508115]","[233]","[210,120,300,210,30,120,210,30,210]","0","36","0","166.45500001194887","4.761000000056811","16","[[[""img/mask72.png""],[""img/mask55.png""],[""img/mask58.png""],[""img/mask93.png""],[""img/mask13.png""],[""img/mask13.png""],[""img/mask96.png""],[""img/mask1.png""],[""img/mask64.png""],[""img/mask37.png""],[""img/mask63.png""],[""img/mask99.png""],[""img/mask46.png""],[""img/mask35.png""],[""img/mask19.png""],[""img/mask83.png""],[""img/mask58.png""],[""img/mask89.png""],[""img/mask87.png""],[""img/mask81.png""],[""img/mask6.png""],[""img/mask49.png""],[""img/mask63.png""],[""img/mask75.png""],[""img/mask92.png""],[""img/mask92.png""],[""img/mask3.png""],[""img/mask92.png""],[""img/mask29.png""],[""img/mask66.png""],[""img/mask31.png""],[""img/mask9.png""],[""img/mask80.png""],[""img/mask98.png""],[""img/mask39.png""],[""img/mask100.png""]]]","","[12,23,1,35,11,21,22,30,14,9,7,10,16,8,17,32,15,28,13,19,34,4,6,0,3,20,31,27,26,24,18,25,2,29,33,5]","main","175","many-guess-6"
"","","","","","html-keyboard-response","124","955901","0.0-10.0-1.52","57dd186e6598aa0001992616","640759fa512f630a2bdc333d","6407b7e9891ff34e00dc333d","null","","null","","","","","","","","","","","","","","","","","","","fixation","",""
"","","","","","color-precision2","125","959702","0.0-10.0-0.53-0.53","57dd186e6598aa0001992616","640759fa512f630a2bdc333d","6407b7e9891ff34e00dc333d","[1263.9000000059605]","","","[21]","[359]","359","348","342.09750011751754","[342.09750011751754]","[354.09750011751754]","[354]","0","0","1","0","165.84000001789536","999.6240000119433","1000","[[[""img/mask47.png""]]]","","","main","348","color-precision2"
"","","","","","html-keyboard-response","126","960203","0.0-10.0-1.53","57dd186e6598aa0001992616","640759fa512f630a2bdc333d","6407b7e9891ff34e00dc333d","null","","null","","","","","","","","","","","","","","","","","","","fixation","",""
"","","","","","color-precision2","127","963295","0.0-10.0-0.54-0.54","57dd186e6598aa0001992616","640759fa512f630a2bdc333d","6407b7e9891ff34e00dc333d","[522.4000000059605]","","","[13]","[270]","270","147","55.2513955592213","[55.2513955592213]","[268.2513955592213]","[267]","0","0","1","0","163.66500000003725","996.6940000238828","1000","[[[""img/mask35.png""]]]","","","main","147","color-precision2"
"","","","","","html-keyboard-response","128","963802","0.0-10.0-1.54","57dd186e6598aa0001992616","640759fa512f630a2bdc333d","6407b7e9891ff34e00dc333d","null","","null","","","","","","","","","","","","","","","","","","","fixation","",""
"","","","","","color-precision2","129","966997","0.0-10.0-0.55-0.55","57dd186e6598aa0001992616","640759fa512f630a2bdc333d","6407b7e9891ff34e00dc333d","[619.7999999821186]","","","[5]","[182]","182","249","76.94090298132267","[76.94090298132267]","[187.94090298132267]","[186]","0","0","1","0","164.43900002387818","990.3830000178423","1000","[[[""img/mask94.png""]]]","","","main","249","color-precision2"
"","","","","","html-keyboard-response","130","967507","0.0-10.0-1.55","57dd186e6598aa0001992616","640759fa512f630a2bdc333d","6407b7e9891ff34e00dc333d","null","","null","","","","","","","","","","","","","","","","","","","fixation","",""
"","","","","","color-precision2","131","970817","0.0-10.0-0.56-0.56","57dd186e6598aa0001992616","640759fa512f630a2bdc333d","6407b7e9891ff34e00dc333d","[936.9000000059605]","","","[28]","[115]","115","5","122.46695555159405","[122.46695555159405]","[117.46695555159405]","[116]","0","0","1","0","165.77300000598188","988.0400000059744","1000","[[[""img/mask7.png""]]]","","","main","5","color-precision2"
"","","","","","html-keyboard-response","132","971318","0.0-10.0-1.56","57dd186e6598aa0001992616","640759fa512f630a2bdc333d","6407b7e9891ff34e00dc333d","null","","null","","","","","","","","","","","","","","","","","","","fixation","",""
"","","","","","many-guess-6","133","975247","0.0-10.0-0.57-0.57","57dd186e6598aa0001992616","640759fa512f630a2bdc333d","6407b7e9891ff34e00dc333d","[2364.7000000178814]","","","[6,34,31,9,26,7,8,30,0,35,2,11,23,22,28,12,16,4,10,17,32,3,29,25,18,14,20,15,19,5,21,24,27,13,33,1]","[193,343,213,4,353,64,54,134,243,173,124,94,273,114,44,283,143,303,233,163,293,323,14,223,74,24,153,104,34,183,333,313,263,253,84,203]","193","211","34.805883858254624","[34.805883858254624]","[183.80588385825462]","[182]","[30,210,30,210,30,120,300,210,210]","0","36","0","165.46700002381112","28.709999999962747","16","[[[""img/mask32.png""],[""img/mask51.png""],[""img/mask59.png""],[""img/mask92.png""],[""img/mask54.png""],[""img/mask13.png""],[""img/mask74.png""],[""img/mask87.png""],[""img/mask62.png""],[""img/mask45.png""],[""img/mask37.png""],[""img/mask85.png""],[""img/mask30.png""],[""img/mask27.png""],[""img/mask79.png""],[""img/mask19.png""],[""img/mask8.png""],[""img/mask82.png""],[""img/mask26.png""],[""img/mask8.png""],[""img/mask8.png""],[""img/mask14.png""],[""img/mask85.png""],[""img/mask17.png""],[""img/mask79.png""],[""img/mask32.png""],[""img/mask48.png""],[""img/mask33.png""],[""img/mask39.png""],[""img/mask54.png""],[""img/mask66.png""],[""img/mask49.png""],[""img/mask70.png""],[""img/mask3.png""],[""img/mask38.png""],[""img/mask13.png""]]]","","[6,34,31,9,26,7,8,30,0,35,2,11,23,22,28,12,16,4,10,17,32,3,29,25,18,14,20,15,19,5,21,24,27,13,33,1]","main","211","many-guess-6"
"","","","","","html-keyboard-response","134","975750","0.0-10.0-1.57","57dd186e6598aa0001992616","640759fa512f630a2bdc333d","6407b7e9891ff34e00dc333d","null","","null","","","","","","","","","","","","","","","","","","","fixation","",""
"","","","","","many-guess-6","135","979709","0.0-10.0-0.58-0.58","57dd186e6598aa0001992616","640759fa512f630a2bdc333d","6407b7e9891ff34e00dc333d","[2155.4000000059605]","","","[4,2,13,6,12,5,18,11,26,31,3,34,8,29,7,22,21,28,33,24,30,23,32,17,35,9,19,20,10,16,15,25,14,27,1,0]","[70,150,240,339,329,190,220,210,260,270,170,230,10,130,289,60,110,250,40,319,90,20,349,200,180,279,359,140,160,100,309,50,120,299,80,30]","70","296","164.25089813185463","[164.25089813185463]","[228.25089813185463]","[227]","[300,30,30,120,120,120,30,120,210]","0","36","0","165.76200002385303","46.132000011974014","16","[[[""img/mask58.png""],[""img/mask67.png""],[""img/mask37.png""],[""img/mask75.png""],[""img/mask83.png""],[""img/mask41.png""],[""img/mask67.png""],[""img/mask85.png""],[""img/mask28.png""],[""img/mask19.png""],[""img/mask74.png""],[""img/mask36.png""],[""img/mask59.png""],[""img/mask95.png""],[""img/mask41.png""],[""img/mask86.png""],[""img/mask29.png""],[""img/mask54.png""],[""img/mask31.png""],[""img/mask50.png""],[""img/mask25.png""],[""img/mask63.png""],[""img/mask12.png""],[""img/mask17.png""],[""img/mask36.png""],[""img/mask43.png""],[""img/mask40.png""],[""img/mask20.png""],[""img/mask2.png""],[""img/mask61.png""],[""img/mask8.png""],[""img/mask38.png""],[""img/mask3.png""],[""img/mask75.png""],[""img/mask1.png""],[""img/mask47.png""]]]","","[4,2,13,6,12,5,18,11,26,31,3,34,8,29,7,22,21,28,33,24,30,23,32,17,35,9,19,20,10,16,15,25,14,27,1,0]","main","296","many-guess-6"
"","","","","","html-keyboard-response","136","980215","0.0-10.0-1.58","57dd186e6598aa0001992616","640759fa512f630a2bdc333d","6407b7e9891ff34e00dc333d","null","","null","","","","","","","","","","","","","","","","","","","fixation","",""
"","","","","","many-guess-6","137","983739","0.0-10.0-0.59-0.59","57dd186e6598aa0001992616","640759fa512f630a2bdc333d","6407b7e9891ff34e00dc333d","[1846.9000000059605]","","","[35,1,16,4,29,26,13,31,2,15,30,7,8,21,25,19,20,11,3,0,10,28,32,14,33,27,12,23,24,17,9,22,6,34,18,5]","[23,352,143,342,292,13,322,133,282,232,33,272,43,53,153,93,222,73,202,212,163,123,332,262,302,192,63,242,182,173,103,312,252,3,83,113]","23","5","28.205924539719312","[28.205924539719312]","[23.205924539719312]","[23]","[300,120,30,210,30,210,30,120,120]","0","36","0","166.38199999998324","30.620000005932525","16","[[[""img/mask64.png""],[""img/mask9.png""],[""img/mask98.png""],[""img/mask62.png""],[""img/mask90.png""],[""img/mask12.png""],[""img/mask67.png""],[""img/mask77.png""],[""img/mask79.png""],[""img/mask93.png""],[""img/mask5.png""],[""img/mask9.png""],[""img/mask72.png""],[""img/mask76.png""],[""img/mask26.png""],[""img/mask95.png""],[""img/mask43.png""],[""img/mask73.png""],[""img/mask5.png""],[""img/mask22.png""],[""img/mask70.png""],[""img/mask13.png""],[""img/mask32.png""],[""img/mask79.png""],[""img/mask83.png""],[""img/mask11.png""],[""img/mask5.png""],[""img/mask3.png""],[""img/mask86.png""],[""img/mask69.png""],[""img/mask17.png""],[""img/mask24.png""],[""img/mask16.png""],[""img/mask95.png""],[""img/mask34.png""],[""img/mask61.png""]]]","","[35,1,16,4,29,26,13,31,2,15,30,7,8,21,25,19,20,11,3,0,10,28,32,14,33,27,12,23,24,17,9,22,6,34,18,5]","main","5","many-guess-6"
"","","","","","html-keyboard-response","138","985177","0.0-10.0-1.59","57dd186e6598aa0001992616","640759fa512f630a2bdc333d","6407b7e9891ff34e00dc333d","1436.9000000059605","Wow! You've completed 60 out of 180 trials! </p> <p>  </p><p> Take a quick break, then press any key when you're ready to continue."," ","","","","","","","","","","","","","","","","","","","fixation","",""
"","","","","","color-precision2","139","989123","0.0-10.0-0.60-0.60","57dd186e6598aa0001992616","640759fa512f630a2bdc333d","6407b7e9891ff34e00dc333d","[658.3000000119209]","","","[30]","[136]","136","283","70.36578811260716","[70.36578811260716]","[147.36578811260716]","[146]","0","0","1","0","166.20600001793355","1000.4830000238726","1000","[[[""img/mask11.png""]]]","","","main","283","color-precision2"
"","","","","","html-keyboard-response","140","989624","0.0-10.0-1.60","57dd186e6598aa0001992616","640759fa512f630a2bdc333d","6407b7e9891ff34e00dc333d","null","","null","","","","","","","","","","","","","","","","","","","fixation","",""
"","","","","","many-guess-6","141","994013","0.0-10.0-0.61-0.61","57dd186e6598aa0001992616","640759fa512f630a2bdc333d","6407b7e9891ff34e00dc333d","[2745.600000023842]","","","[31,24,20,6,5,13,27,19,16,7,17,30,8,9,32,12,33,22,18,4,28,23,15,29,10,35,14,11,25,2,34,3,0,21,26,1]","[95,135,15,225,354,175,55,75,314,285,295,344,275,165,5,145,195,235,65,205,45,85,115,324,265,125,215,255,155,334,105,185,25,245,305,35]","95","208","194.43492097819652","[194.43492097819652]","[346.4349209781965]","[346]","[30,300,30,120,120,30,120,120,120]","0","36","0","166.40099999995437","21.8450000238372","16","[[[""img/mask100.png""],[""img/mask80.png""],[""img/mask22.png""],[""img/mask63.png""],[""img/mask11.png""],[""img/mask29.png""],[""img/mask97.png""],[""img/mask67.png""],[""img/mask94.png""],[""img/mask72.png""],[""img/mask66.png""],[""img/mask49.png""],[""img/mask92.png""],[""img/mask3.png""],[""img/mask86.png""],[""img/mask16.png""],[""img/mask36.png""],[""img/mask52.png""],[""img/mask5.png""],[""img/mask82.png""],[""img/mask57.png""],[""img/mask12.png""],[""img/mask20.png""],[""img/mask89.png""],[""img/mask37.png""],[""img/mask67.png""],[""img/mask98.png""],[""img/mask61.png""],[""img/mask82.png""],[""img/mask83.png""],[""img/mask20.png""],[""img/mask15.png""],[""img/mask82.png""],[""img/mask67.png""],[""img/mask11.png""],[""img/mask88.png""]]]","","[31,24,20,6,5,13,27,19,16,7,17,30,8,9,32,12,33,22,18,4,28,23,15,29,10,35,14,11,25,2,34,3,0,21,26,1]","main","208","many-guess-6"
"","","","","","html-keyboard-response","142","994523","0.0-10.0-1.61","57dd186e6598aa0001992616","640759fa512f630a2bdc333d","6407b7e9891ff34e00dc333d","null","","null","","","","","","","","","","","","","","","","","","","fixation","",""
"","","","","","color-precision2","143","997935","0.0-10.0-0.62-0.62","57dd186e6598aa0001992616","640759fa512f630a2bdc333d","6407b7e9891ff34e00dc333d","[627.7999999821186]","","","[30]","[24]","24","93","111.58721080348099","[111.58721080348099]","[18.587210803480986]","[17]","0","0","1","0","163.9940000178758","1003.0620000000345","1000","[[[""img/mask30.png""]]]","","","main","93","color-precision2"
"","","","","","html-keyboard-response","144","998438","0.0-10.0-1.62","57dd186e6598aa0001992616","640759fa512f630a2bdc333d","6407b7e9891ff34e00dc333d","null","","null","","","","","","","","","","","","","","","","","","","fixation","",""
"","","","","","color-precision2","145","1002357","0.0-10.0-0.63-0.63","57dd186e6598aa0001992616","640759fa512f630a2bdc333d","6407b7e9891ff34e00dc333d","[1212.5]","","","[13]","[5]","5","353","16.827394423383705","[16.827394423383705]","[23.82739442338368]","[23]","0","0","1","0","165.52200002386235","1014.8270000237972","1000","[[[""img/mask61.png""]]]","","","main","353","color-precision2"
"","","","","","html-keyboard-response","146","1002858","0.0-10.0-1.63","57dd186e6598aa0001992616","640759fa512f630a2bdc333d","6407b7e9891ff34e00dc333d","null","","null","","","","","","","","","","","","","","","","","","","fixation","",""
"","","","","","color-precision2","147","1006169","0.0-10.0-0.64-0.64","57dd186e6598aa0001992616","640759fa512f630a2bdc333d","6407b7e9891ff34e00dc333d","[787.0999999940395]","","","[14]","[209]","209","98","318.98665820005067","[318.98665820005067]","[220.98665820005067]","[221]","0","0","1","0","164.34800000593532","985.6120000060182","1000","[[[""img/mask37.png""]]]","","","main","98","color-precision2"
"","","","","","html-keyboard-response","148","1006674","0.0-10.0-1.64","57dd186e6598aa0001992616","640759fa512f630a2bdc333d","6407b7e9891ff34e00dc333d","null","","null","","","","","","","","","","","","","","","","","","","fixation","",""
"","","","","","many-guess-6","149","1010787","0.0-10.0-0.65-0.65","57dd186e6598aa0001992616","640759fa512f630a2bdc333d","6407b7e9891ff34e00dc333d","[2535.800000011921]","","","[29,22,13,21,27,12,24,9,33,19,18,11,32,23,15,28,4,34,0,2,20,17,5,7,26,10,31,14,3,8,25,1,16,35,30,6]","[234,55,5,304,35,254,214,145,354,115,25,125,45,185,105,224,175,15,75,195,324,284,155,344,264,135,314,274,244,95,334,65,205,165,294,85]","234","295","309.1458197090711","[309.1458197090711]","[14.145819709071077]","[14]","[210,300,300,300,300,210,300,30,300]","0","36","0","166.12100002379157","27.274000005912967","16","[[[""img/mask44.png""],[""img/mask97.png""],[""img/mask43.png""],[""img/mask25.png""],[""img/mask15.png""],[""img/mask34.png""],[""img/mask99.png""],[""img/mask91.png""],[""img/mask93.png""],[""img/mask51.png""],[""img/mask47.png""],[""img/mask6.png""],[""img/mask44.png""],[""img/mask75.png""],[""img/mask68.png""],[""img/mask57.png""],[""img/mask43.png""],[""img/mask9.png""],[""img/mask37.png""],[""img/mask78.png""],[""img/mask47.png""],[""img/mask73.png""],[""img/mask24.png""],[""img/mask50.png""],[""img/mask9.png""],[""img/mask55.png""],[""img/mask10.png""],[""img/mask4.png""],[""img/mask20.png""],[""img/mask55.png""],[""img/mask87.png""],[""img/mask69.png""],[""img/mask77.png""],[""img/mask20.png""],[""img/mask93.png""],[""img/mask43.png""]]]","","[29,22,13,21,27,12,24,9,33,19,18,11,32,23,15,28,4,34,0,2,20,17,5,7,26,10,31,14,3,8,25,1,16,35,30,6]","main","295","many-guess-6"
"","","","","","html-keyboard-response","150","1011288","0.0-10.0-1.65","57dd186e6598aa0001992616","640759fa512f630a2bdc333d","6407b7e9891ff34e00dc333d","null","","null","","","","","","","","","","","","","","","","","","","fixation","",""
"","","","","","color-precision2","151","1014733","0.0-10.0-0.66-0.66","57dd186e6598aa0001992616","640759fa512f630a2bdc333d","6407b7e9891ff34e00dc333d","[809.3999999761581]","","","[16]","[167]","167","339","143.169921710763","[143.169921710763]","[164.169921710763]","[162]","0","0","1","0","164.3680000238819","1011.5330000059912","1000","[[[""img/mask99.png""]]]","","","main","339","color-precision2"
"","","","","","html-keyboard-response","152","1015241","0.0-10.0-1.66","57dd186e6598aa0001992616","640759fa512f630a2bdc333d","6407b7e9891ff34e00dc333d","null","","null","","","","","","","","","","","","","","","","","","","fixation","",""
"","","","","","color-precision2","153","1018365","0.0-10.0-0.67-0.67","57dd186e6598aa0001992616","640759fa512f630a2bdc333d","6407b7e9891ff34e00dc333d","[771.6000000238419]","","","[33]","[329]","329","241","194.73146413430666","[194.73146413430666]","[313.73146413430663]","[313]","0","0","1","0","165.9530000119703","983.984999999986","1000","[[[""img/mask24.png""]]]","","","main","241","color-precision2"
"","","","","","html-keyboard-response","154","1018874","0.0-10.0-1.67","57dd186e6598aa0001992616","640759fa512f630a2bdc333d","6407b7e9891ff34e00dc333d","null","","null","","","","","","","","","","","","","","","","","","","fixation","",""
"","","","","","color-precision2","155","1023451","0.0-10.0-0.68-0.68","57dd186e6598aa0001992616","640759fa512f630a2bdc333d","6407b7e9891ff34e00dc333d","[1084.2999999821186]","","","[20]","[307]","307","69","9.961694160916643","[9.961694160916643]","[300.96169416091664]","[300]","0","0","1","0","164.41500001191162","996.70600001188","1000","[[[""img/mask87.png""]]]","","","main","69","color-precision2"
"","","","","","html-keyboard-response","156","1023961","0.0-10.0-1.68","57dd186e6598aa0001992616","640759fa512f630a2bdc333d","6407b7e9891ff34e00dc333d","null","","null","","","","","","","","","","","","","","","","","","","fixation","",""
"","","","","","many-guess-6","157","1027513","0.0-10.0-0.69-0.69","57dd186e6598aa0001992616","640759fa512f630a2bdc333d","6407b7e9891ff34e00dc333d","[2078.2000000178814]","","","[12,32,3,24,4,2,22,1,26,23,34,7,16,27,8,20,25,5,33,19,35,29,28,31,9,18,17,0,6,10,11,30,15,13,21,14]","[14,174,104,134,304,284,334,154,204,224,124,184,254,324,344,44,264,114,144,274,84,94,234,64,5,214,314,54,24,34,164,74,294,194,354,244]","14","139","145.58248648885865","[145.58248648885865]","[6.582486488858649]","[5]","[210,210,120,30,210,30,300,120,300]","0","36","0","166.45600002387073","3.9810000059660524","16","[[[""img/mask16.png""],[""img/mask30.png""],[""img/mask93.png""],[""img/mask9.png""],[""img/mask93.png""],[""img/mask31.png""],[""img/mask97.png""],[""img/mask80.png""],[""img/mask90.png""],[""img/mask100.png""],[""img/mask100.png""],[""img/mask87.png""],[""img/mask59.png""],[""img/mask40.png""],[""img/mask21.png""],[""img/mask82.png""],[""img/mask29.png""],[""img/mask81.png""],[""img/mask98.png""],[""img/mask69.png""],[""img/mask30.png""],[""img/mask53.png""],[""img/mask92.png""],[""img/mask49.png""],[""img/mask71.png""],[""img/mask40.png""],[""img/mask41.png""],[""img/mask27.png""],[""img/mask9.png""],[""img/mask51.png""],[""img/mask74.png""],[""img/mask48.png""],[""img/mask53.png""],[""img/mask17.png""],[""img/mask17.png""],[""img/mask34.png""]]]","","[12,32,3,24,4,2,22,1,26,23,34,7,16,27,8,20,25,5,33,19,35,29,28,31,9,18,17,0,6,10,11,30,15,13,21,14]","main","139","many-guess-6"
"","","","","","html-keyboard-response","158","1028022","0.0-10.0-1.69","57dd186e6598aa0001992616","640759fa512f630a2bdc333d","6407b7e9891ff34e00dc333d","null","","null","","","","","","","","","","","","","","","","","","","fixation","",""
"","","","","","many-guess-6","159","1031771","0.0-10.0-0.70-0.70","57dd186e6598aa0001992616","640759fa512f630a2bdc333d","6407b7e9891ff34e00dc333d","[2098.4000000059605]","","","[29,31,32,10,23,8,33,7,6,9,18,30,12,14,24,25,27,28,2,16,20,11,21,19,0,35,15,4,1,34,3,5,26,22,17,13]","[353,223,303,163,343,24,253,333,273,94,64,323,233,203,14,123,213,193,44,183,54,263,313,34,74,103,4,133,143,243,173,283,293,153,84,113]","353","52","222.72704361479956","[222.72704361479956]","[170.72704361479956]","[171]","[210,120,120,120,30,210,300,210,210]","0","36","0","165.99900002381764","8.929000011878088","16","[[[""img/mask44.png""],[""img/mask16.png""],[""img/mask27.png""],[""img/mask42.png""],[""img/mask47.png""],[""img/mask16.png""],[""img/mask3.png""],[""img/mask68.png""],[""img/mask83.png""],[""img/mask73.png""],[""img/mask34.png""],[""img/mask38.png""],[""img/mask67.png""],[""img/mask28.png""],[""img/mask72.png""],[""img/mask68.png""],[""img/mask29.png""],[""img/mask27.png""],[""img/mask83.png""],[""img/mask16.png""],[""img/mask64.png""],[""img/mask30.png""],[""img/mask31.png""],[""img/mask96.png""],[""img/mask11.png""],[""img/mask41.png""],[""img/mask7.png""],[""img/mask7.png""],[""img/mask92.png""],[""img/mask88.png""],[""img/mask3.png""],[""img/mask34.png""],[""img/mask51.png""],[""img/mask17.png""],[""img/mask92.png""],[""img/mask20.png""]]]","","[29,31,32,10,23,8,33,7,6,9,18,30,12,14,24,25,27,28,2,16,20,11,21,19,0,35,15,4,1,34,3,5,26,22,17,13]","main","52","many-guess-6"
"","","","","","html-keyboard-response","160","1032275","0.0-10.0-1.70","57dd186e6598aa0001992616","640759fa512f630a2bdc333d","6407b7e9891ff34e00dc333d","null","","null","","","","","","","","","","","","","","","","","","","fixation","",""
"","","","","","color-precision2","161","1035357","0.0-10.0-0.71-0.71","57dd186e6598aa0001992616","640759fa512f630a2bdc333d","6407b7e9891ff34e00dc333d","[478.7000000178814]","","","[33]","[220]","220","141","10.371726735283396","[10.371726735283396]","[229.3717267352834]","[228]","0","0","1","0","163.76000001793727","994.3950000000186","1000","[[[""img/mask9.png""]]]","","","main","141","color-precision2"
"","","","","","html-keyboard-response","162","1035867","0.0-10.0-1.71","57dd186e6598aa0001992616","640759fa512f630a2bdc333d","6407b7e9891ff34e00dc333d","null","","null","","","","","","","","","","","","","","","","","","","fixation","",""
"","","","","","color-precision2","163","1038873","0.0-10.0-0.72-0.72","57dd186e6598aa0001992616","640759fa512f630a2bdc333d","6407b7e9891ff34e00dc333d","[625.1000000238419]","","","[30]","[67]","67","136","204.39133464905035","[204.39133464905035]","[68.39133464905035]","[68]","0","0","1","0","164.02600000600796","995.1590000119759","1000","[[[""img/mask18.png""]]]","","","main","136","color-precision2"
"","","","","","html-keyboard-response","164","1039382","0.0-10.0-1.72","57dd186e6598aa0001992616","640759fa512f630a2bdc333d","6407b7e9891ff34e00dc333d","null","","null","","","","","","","","","","","","","","","","","","","fixation","",""
"","","","","","color-precision2","165","1042679","0.0-10.0-0.73-0.73","57dd186e6598aa0001992616","640759fa512f630a2bdc333d","6407b7e9891ff34e00dc333d","[894.9000000059605]","","","[8]","[51]","51","324","20.994104156032627","[20.994104156032627]","[56.99410415603262]","[56]","0","0","1","0","163.761000005994","993.5900000119582","1000","[[[""img/mask59.png""]]]","","","main","324","color-precision2"
"","","","","","html-keyboard-response","166","1043181","0.0-10.0-1.73","57dd186e6598aa0001992616","640759fa512f630a2bdc333d","6407b7e9891ff34e00dc333d","null","","null","","","","","","","","","","","","","","","","","","","fixation","",""
"","","","","","color-precision2","167","1046185","0.0-10.0-0.74-0.74","57dd186e6598aa0001992616","640759fa512f630a2bdc333d","6407b7e9891ff34e00dc333d","[596.2999999821186]","","","[11]","[210]","210","301","151.3769698770677","[151.3769698770677]","[210.3769698770677]","[210]","0","0","1","0","165.67400000593625","995.9610000059474","1000","[[[""img/mask92.png""]]]","","","main","301","color-precision2"
"","","","","","html-keyboard-response","168","1046687","0.0-10.0-1.74","57dd186e6598aa0001992616","640759fa512f630a2bdc333d","6407b7e9891ff34e00dc333d","null","","null","","","","","","","","","","","","","","","","","","","fixation","",""
"","","","","","many-guess-6","169","1049843","0.0-10.0-0.75-0.75","57dd186e6598aa0001992616","640759fa512f630a2bdc333d","6407b7e9891ff34e00dc333d","[1752.1000000238419]","","","[22,10,23,17,4,7,31,16,6,26,35,5,32,1,15,25,34,8,3,19,18,21,2,12,20,30,11,29,0,13,24,33,9,28,14,27]","[329,359,70,20,180,160,100,30,10,210,300,50,150,270,190,200,349,80,220,260,120,250,309,90,339,170,230,319,110,40,240,280,140,290,60,130]","329","136","351.57003825810517","[351.57003825810517]","[215.57003825810517]","[215]","[30,300,30,120,30,300,30,300,210]","0","36","0","166.28799999994226","33.62800000002608","16","[[[""img/mask88.png""],[""img/mask25.png""],[""img/mask78.png""],[""img/mask53.png""],[""img/mask46.png""],[""img/mask96.png""],[""img/mask96.png""],[""img/mask83.png""],[""img/mask70.png""],[""img/mask70.png""],[""img/mask57.png""],[""img/mask88.png""],[""img/mask89.png""],[""img/mask73.png""],[""img/mask45.png""],[""img/mask51.png""],[""img/mask23.png""],[""img/mask75.png""],[""img/mask62.png""],[""img/mask92.png""],[""img/mask37.png""],[""img/mask25.png""],[""img/mask99.png""],[""img/mask83.png""],[""img/mask86.png""],[""img/mask8.png""],[""img/mask39.png""],[""img/mask32.png""],[""img/mask23.png""],[""img/mask69.png""],[""img/mask45.png""],[""img/mask37.png""],[""img/mask1.png""],[""img/mask23.png""],[""img/mask33.png""],[""img/mask74.png""]]]","","[22,10,23,17,4,7,31,16,6,26,35,5,32,1,15,25,34,8,3,19,18,21,2,12,20,30,11,29,0,13,24,33,9,28,14,27]","main","136","many-guess-6"
"","","","","","html-keyboard-response","170","1050349","0.0-10.0-1.75","57dd186e6598aa0001992616","640759fa512f630a2bdc333d","6407b7e9891ff34e00dc333d","null","","null","","","","","","","","","","","","","","","","","","","fixation","",""
"","","","","","many-guess-6","171","1054265","0.0-10.0-0.76-0.76","57dd186e6598aa0001992616","640759fa512f630a2bdc333d","6407b7e9891ff34e00dc333d","[2336.7999999821186]","","","[2,18,35,30,9,33,3,28,15,22,17,12,13,26,16,10,34,29,23,11,24,27,8,1,14,25,0,21,5,4,6,31,19,20,7,32]","[1,130,260,340,90,180,270,240,210,220,120,140,160,300,11,200,51,330,110,100,280,150,230,190,310,61,350,320,170,80,250,70,31,21,41,290]","1","85","302.20906208380495","[302.20906208380495]","[217.20906208380495]","[218]","[300,210,30,300,300,120,300,300,30]","0","36","0","166.3610000058543","10.743000000016764","16","[[[""img/mask42.png""],[""img/mask10.png""],[""img/mask28.png""],[""img/mask68.png""],[""img/mask68.png""],[""img/mask90.png""],[""img/mask66.png""],[""img/mask26.png""],[""img/mask3.png""],[""img/mask49.png""],[""img/mask65.png""],[""img/mask89.png""],[""img/mask68.png""],[""img/mask66.png""],[""img/mask32.png""],[""img/mask68.png""],[""img/mask72.png""],[""img/mask1.png""],[""img/mask40.png""],[""img/mask17.png""],[""img/mask28.png""],[""img/mask88.png""],[""img/mask11.png""],[""img/mask12.png""],[""img/mask5.png""],[""img/mask72.png""],[""img/mask24.png""],[""img/mask63.png""],[""img/mask95.png""],[""img/mask11.png""],[""img/mask86.png""],[""img/mask47.png""],[""img/mask22.png""],[""img/mask32.png""],[""img/mask69.png""],[""img/mask8.png""]]]","","[2,18,35,30,9,33,3,28,15,22,17,12,13,26,16,10,34,29,23,11,24,27,8,1,14,25,0,21,5,4,6,31,19,20,7,32]","main","85","many-guess-6"
"","","","","","html-keyboard-response","172","1054767","0.0-10.0-1.76","57dd186e6598aa0001992616","640759fa512f630a2bdc333d","6407b7e9891ff34e00dc333d","null","","null","","","","","","","","","","","","","","","","","","","fixation","",""
"","","","","","color-precision2","173","1058335","0.0-10.0-0.77-0.77","57dd186e6598aa0001992616","640759fa512f630a2bdc333d","6407b7e9891ff34e00dc333d","[1001.5]","","","[2]","[87]","87","83","156.773143917297","[156.773143917297]","[73.773143917297]","[72]","0","0","1","0","163.36000000010245","997.6510000000708","1000","[[[""img/mask44.png""]]]","","","main","83","color-precision2"
"","","","","","html-keyboard-response","174","1058846","0.0-10.0-1.77","57dd186e6598aa0001992616","640759fa512f630a2bdc333d","6407b7e9891ff34e00dc333d","null","","null","","","","","","","","","","","","","","","","","","","fixation","",""
"","","","","","color-precision2","175","1063545","0.0-10.0-0.78-0.78","57dd186e6598aa0001992616","640759fa512f630a2bdc333d","6407b7e9891ff34e00dc333d","[2240.7999999821186]","","","[8]","[10]","10","266","266.61312519345023","[266.61312519345023]","[0.6131251934502302]","[1]","0","0","1","0","164.55400000000373","1013.8620000239462","1000","[[[""img/mask68.png""]]]","","","main","266","color-precision2"
"","","","","","html-keyboard-response","176","1064054","0.0-10.0-1.78","57dd186e6598aa0001992616","640759fa512f630a2bdc333d","6407b7e9891ff34e00dc333d","null","","null","","","","","","","","","","","","","","","","","","","fixation","",""
"","","","","","many-guess-6","177","1067725","0.0-10.0-0.79-0.79","57dd186e6598aa0001992616","640759fa512f630a2bdc333d","6407b7e9891ff34e00dc333d","[2083.5999999940395]","","","[1,2,35,22,5,25,18,3,7,30,28,20,11,13,12,6,33,34,27,24,8,14,26,31,17,23,16,10,29,19,32,0,15,21,9,4]","[56,46,195,325,16,355,76,26,66,295,116,335,126,225,156,235,106,345,275,205,6,265,136,86,215,315,175,96,305,36,166,245,146,185,285,255]","56","185","345.3739031776041","[345.3739031776041]","[160.37390317760412]","[160]","[210,30,120,300,210,120,210,120,120]","0","36","0","166.2420000238344","24.063000017777085","16","[[[""img/mask52.png""],[""img/mask21.png""],[""img/mask24.png""],[""img/mask8.png""],[""img/mask14.png""],[""img/mask99.png""],[""img/mask38.png""],[""img/mask91.png""],[""img/mask11.png""],[""img/mask28.png""],[""img/mask56.png""],[""img/mask47.png""],[""img/mask63.png""],[""img/mask53.png""],[""img/mask39.png""],[""img/mask16.png""],[""img/mask60.png""],[""img/mask96.png""],[""img/mask28.png""],[""img/mask23.png""],[""img/mask58.png""],[""img/mask8.png""],[""img/mask56.png""],[""img/mask47.png""],[""img/mask27.png""],[""img/mask16.png""],[""img/mask93.png""],[""img/mask10.png""],[""img/mask63.png""],[""img/mask52.png""],[""img/mask86.png""],[""img/mask80.png""],[""img/mask56.png""],[""img/mask69.png""],[""img/mask14.png""],[""img/mask32.png""]]]","","[1,2,35,22,5,25,18,3,7,30,28,20,11,13,12,6,33,34,27,24,8,14,26,31,17,23,16,10,29,19,32,0,15,21,9,4]","main","185","many-guess-6"
"","","","","","html-keyboard-response","178","1069538","0.0-10.0-1.79","57dd186e6598aa0001992616","640759fa512f630a2bdc333d","6407b7e9891ff34e00dc333d","1812.5999999940395","Wow! You've completed 80 out of 180 trials! </p> <p>  </p><p> Take a quick break, then press any key when you're ready to continue."," ","","","","","","","","","","","","","","","","","","","fixation","",""
