"success","timeout","failed_images","failed_audio","failed_video","trial_type","trial_index","time_elapsed","internal_node_id","subject_id","study_id","session_id","rt","stimulus","response","position_of_items","colors_of_items","color_of_target","wheel_spin","response_angle","physical_response_angle","reported_color_angle","reported_color_discrete","locs","which_test","set_size","wheel_num_options","actual_mask_duration","actual_stim_duration","CMDispTime","maskArray","maskRotation","item_positions","task","randomSpinAmount","mainTask"
"true","false","[]","[]","[]","preload","0","7321","0.0-0.0","58a202ac66e4640001c52bfd","640759fa512f630a2bdc333d","6408c182ea35d7b036dbc9b7","","","","","","","","","","","","","","","","","","","","","","","",""
"true","","","","","fullscreen","1","10523","0.0-1.0","58a202ac66e4640001c52bfd","640759fa512f630a2bdc333d","6408c182ea35d7b036dbc9b7","","","","","","","","","","","","","","","","","","","","","","","",""
"","","","","","html-keyboard-response","2","19369","0.0-2.0","58a202ac66e4640001c52bfd","640759fa512f630a2bdc333d","6408c182ea35d7b036dbc9b7","8844.799999952316","What a beautiful Wednesday to do some awesome science! </p> <p>  </p><p> </p>
    By completing this survey or questionnaire, you are consenting to be in this research study. </p>
    Your participation is voluntary and you can stop at any time.<p> [Press any key to continue] </p>"," ","","","","","","","","","","","","","","","","","","","","",""
"","","","","","html-keyboard-response","3","29371","0.0-3.0","58a202ac66e4640001c52bfd","640759fa512f630a2bdc333d","6408c182ea35d7b036dbc9b7","9769.900000095367","
    <div style='width: 1000px;'>
    <div style='float: center;'><img src='img/TaskInstructions1.png'></img>
    </div>
    "," ","","","","","","","","","","","","","","","","","","","","",""
"","","","","","html-keyboard-response","4","33116","0.0-4.0","58a202ac66e4640001c52bfd","640759fa512f630a2bdc333d","6408c182ea35d7b036dbc9b7","3743.7999999523163","
    <div style='width: 1000px;'>
    <div style='float: center;'><img src='img/TaskInstructions1.png'></img>
    </div>
    ","b","","","","","","","","","","","","","","","","","","","","",""
"","","","","","html-keyboard-response","5","43119","0.0-5.0","58a202ac66e4640001c52bfd","640759fa512f630a2bdc333d","6408c182ea35d7b036dbc9b7","null","
    <div style='width: 1000px;'>
    <div style='float: center;'><img src='img/TaskInstructions2.png'></img>
    </div>
    ","null","","","","","","","","","","","","","","","","","","","","",""
"","","","","","html-keyboard-response","6","64836","0.0-6.0","58a202ac66e4640001c52bfd","640759fa512f630a2bdc333d","6408c182ea35d7b036dbc9b7","21716.200000047684","
    <div style='width: 1000px;'>
    <div style='float: center;'><img src='img/TaskInstructions2.png'></img>
    </div>
    "," ","","","","","","","","","","","","","","","","","","","","",""
"","","","","","video-keyboard-response","7","100407","0.0-7.0","58a202ac66e4640001c52bfd","640759fa512f630a2bdc333d","6408c182ea35d7b036dbc9b7","35565.10000014305","[""video/TaskInstructions3.mp4""]"," ","","","","","","","","","","","","","","","","","","","","",""
"","","","","","image-keyboard-response","8","107075","0.0-8.0-0.0","58a202ac66e4640001c52bfd","640759fa512f630a2bdc333d","6408c182ea35d7b036dbc9b7","6654.5","img/training1.png"," ","","","","","","","","","","","","","","","","","","","","",""
"","","","","","color-precision2","9","126924","0.0-8.0-1.0-0.0","58a202ac66e4640001c52bfd","640759fa512f630a2bdc333d","6408c182ea35d7b036dbc9b7","[4918.299999952316]","","","[2]","[144]","144","163","293.0137315311058","[293.0137315311058]","[130.0137315311058]","[130]","0","0","1","0","498.71300004769","1007.7869998569513","1000","","","0","training","",""
"","","","","","image-keyboard-response","10","143775","0.0-8.0-0.1","58a202ac66e4640001c52bfd","640759fa512f630a2bdc333d","6408c182ea35d7b036dbc9b7","16849.400000095367","img/training2.png"," ","","","","","","","","","","","","","","","","","","","","",""
"","","","","","many-guess-6","11","154241","0.0-8.0-1.1-0.1","58a202ac66e4640001c52bfd","640759fa512f630a2bdc333d","6408c182ea35d7b036dbc9b7","[3917.300000190735]","","","[23,0,6]","[247,132,66]","247","3","143.56205767647808","[143.56205767647808]","[140.56205767647808]","[139]","[210,300,30,120,30,120,30,30,210,210,30,300,30,300,120,30,300,210,120,210,300,300,120,120,300,210,300,30,210,300,300,120,210,300,30,120]","0","3","0","998.7219999523077","993.4990000476828","1000","[[[""img/mask88.png""],[""img/mask40.png""],[""img/mask53.png""]]]","","[23,0,6]","training","",""
"","","","","","image-keyboard-response","12","163413","0.0-8.0-0.2","58a202ac66e4640001c52bfd","640759fa512f630a2bdc333d","6408c182ea35d7b036dbc9b7","9170.099999904633","img/training3.png"," ","","","","","","","","","","","","","","","","","","","","",""
"","","","","","[""many-guess-6""]","13","170824","0.0-8.0-1.2-0.2","58a202ac66e4640001c52bfd","640759fa512f630a2bdc333d","6408c182ea35d7b036dbc9b7","[2768.800000190735]","","","[4,3,26,6,19]","[155,267,201,281,329]","155","173","139.80048556628915","[139.80048556628915]","[326.8004855662891]","[325]","[300,210,210,210,210,300,210,300,210,30,120,300,210,300,300,210,300,120,300,300,300,120,210,30,210,300,30,210,210,120,210,30,120,120,30,300]","0","5","0","498.9269998569507","505.7259999999951","500","[[[""img/mask91.png""],[""img/mask60.png""],[""img/mask28.png""],[""img/mask18.png""],[""img/mask37.png""]]]","","[4,3,26,6,19]","training","",""
"","","","","","image-keyboard-response","14","177293","0.0-8.0-0.3","58a202ac66e4640001c52bfd","640759fa512f630a2bdc333d","6408c182ea35d7b036dbc9b7","6467.699999809265","img/training4.png"," ","","","","","","","","","","","","","","","","","","","","",""
"","","","","","[""many-guess-6""]","15","184856","0.0-8.0-1.3-0.3","58a202ac66e4640001c52bfd","640759fa512f630a2bdc333d","6408c182ea35d7b036dbc9b7","[4117.099999904633]","","","[24,22,5,35,33,23,32,12,2,27]","[347,306,253,263,235,320,275,286,10,45]","347","132","230.7833381212033","[230.7833381212033]","[98.78333812120329]","[99]","[300,120,300,120,210,300,120,30,300,30,30,30,300,210,30,30,210,300,120,300,300,210,120,120,30,30,120,120,210,30,120,300,30,30,210,300]","0","10","0","132.62099995231256","129.19799995230278","132","[[[""img/mask23.png""],[""img/mask80.png""],[""img/mask6.png""],[""img/mask19.png""],[""img/mask55.png""],[""img/mask27.png""],[""img/mask62.png""],[""img/mask30.png""],[""img/mask63.png""],[""img/mask77.png""]]]","","[24,22,5,35,33,23,32,12,2,27]","training","",""
"","","","","","image-keyboard-response","16","192388","0.0-8.0-0.4","58a202ac66e4640001c52bfd","640759fa512f630a2bdc333d","6408c182ea35d7b036dbc9b7","7531.300000190735","img/training5.png"," ","","","","","","","","","","","","","","","","","","","","",""
"","","","","","[""many-guess-6""]","17","201378","0.0-8.0-1.4-0.4","58a202ac66e4640001c52bfd","640759fa512f630a2bdc333d","6408c182ea35d7b036dbc9b7","[3622.5]","","","[27,11,32,2,13,22,21,1,34,25,26,31,4,9,15,35,24,18,14,30,23,8,28,16,3,10,33,0,6,19,7,5,17,29,12,20]","[82,271,281,2,72,62,122,351,261,112,251,221,211,52,132,102,311,241,291,201,321,191,32,301,172,22,12,231,341,42,142,331,92,182,152,162]","82","323","11.146749146213335","[11.146749146213335]","[48.146749146213324]","[47]","[120,30,30,300,120,210,120,210,120,300,210,30,30,120,300,120,210,30,120,120,300,120,210,120,120,300,30,300,210,300,210,120,120,300,300,300]","0","36","0","131.94999995231046","18.352999856957467","16","[[[""img/mask22.png""],[""img/mask81.png""],[""img/mask4.png""],[""img/mask49.png""],[""img/mask32.png""],[""img/mask6.png""],[""img/mask93.png""],[""img/mask29.png""],[""img/mask96.png""],[""img/mask77.png""],[""img/mask1.png""],[""img/mask40.png""],[""img/mask74.png""],[""img/mask91.png""],[""img/mask54.png""],[""img/mask21.png""],[""img/mask33.png""],[""img/mask61.png""],[""img/mask32.png""],[""img/mask14.png""],[""img/mask57.png""],[""img/mask79.png""],[""img/mask99.png""],[""img/mask54.png""],[""img/mask90.png""],[""img/mask36.png""],[""img/mask86.png""],[""img/mask89.png""],[""img/mask85.png""],[""img/mask45.png""],[""img/mask46.png""],[""img/mask6.png""],[""img/mask49.png""],[""img/mask83.png""],[""img/mask86.png""],[""img/mask99.png""]]]","","[27,11,32,2,13,22,21,1,34,25,26,31,4,9,15,35,24,18,14,30,23,8,28,16,3,10,33,0,6,19,7,5,17,29,12,20]","training","",""
"","","","","","image-keyboard-response","18","204804","0.0-9.0","58a202ac66e4640001c52bfd","640759fa512f630a2bdc333d","6408c182ea35d7b036dbc9b7","3425.2000000476837","[""img/endTraining.png""]"," ","","","","","","","","","","","","","","","","","","","","",""
"","","","","","color-precision2","19","210840","0.0-10.0-0.0-0.0","58a202ac66e4640001c52bfd","640759fa512f630a2bdc333d","6408c182ea35d7b036dbc9b7","[1867.8999998569489]","","","[27]","[335]","335","65","36.91050066630076","[36.91050066630076]","[331.9105006663008]","[330]","0","0","1","0","149.22399995231535","993.4979999046191","1000","[[[""img/mask73.png""]]]","","","main","65","color-precision2"
"","","","","","html-keyboard-response","20","211341","0.0-10.0-1.0","58a202ac66e4640001c52bfd","640759fa512f630a2bdc333d","6408c182ea35d7b036dbc9b7","null","","null","","","","","","","","","","","","","","","","","","","fixation","",""
"","","","","","color-precision2","21","215612","0.0-10.0-0.1-0.1","58a202ac66e4640001c52bfd","640759fa512f630a2bdc333d","6408c182ea35d7b036dbc9b7","[871.5]","","","[11]","[135]","135","222","4.477730627099927","[4.477730627099927]","[142.47773062709993]","[142]","0","0","1","0","148.25199990463443","992.7390000476735","1000","[[[""img/mask3.png""]]]","","","main","222","color-precision2"
"","","","","","html-keyboard-response","22","216114","0.0-10.0-1.1","58a202ac66e4640001c52bfd","640759fa512f630a2bdc333d","6408c182ea35d7b036dbc9b7","null","","null","","","","","","","","","","","","","","","","","","","fixation","",""
"","","","","","color-precision2","23","220089","0.0-10.0-0.2-0.2","58a202ac66e4640001c52bfd","640759fa512f630a2bdc333d","6408c182ea35d7b036dbc9b7","[980.6000001430511]","","","[22]","[116]","116","19","145.78607676006905","[145.78607676006905]","[126.78607676006905]","[125]","0","0","1","0","148.8619999999937","1005.679999999993","1000","[[[""img/mask20.png""]]]","","","main","19","color-precision2"
"","","","","","html-keyboard-response","24","220590","0.0-10.0-1.2","58a202ac66e4640001c52bfd","640759fa512f630a2bdc333d","6408c182ea35d7b036dbc9b7","null","","null","","","","","","","","","","","","","","","","","","","fixation","",""
"","","","","","color-precision2","25","227414","0.0-10.0-0.3-0.3","58a202ac66e4640001c52bfd","640759fa512f630a2bdc333d","6408c182ea35d7b036dbc9b7","[1940.7000000476837]","","","[31]","[258]","258","132","38.225850114118266","[38.225850114118266]","[266.22585011411826]","[265]","0","0","1","0","148.01600000000326","992.9469999999856","1000","[[[""img/mask43.png""]]]","","","main","132","color-precision2"
"","","","","","html-keyboard-response","26","227916","0.0-10.0-1.3","58a202ac66e4640001c52bfd","640759fa512f630a2bdc333d","6408c182ea35d7b036dbc9b7","null","","null","","","","","","","","","","","","","","","","","","","fixation","",""
"","","","","","color-precision2","27","231875","0.0-10.0-0.4-0.4","58a202ac66e4640001c52bfd","640759fa512f630a2bdc333d","6408c182ea35d7b036dbc9b7","[786.3999998569489]","","","[28]","[242]","242","272","155.50635495585544","[155.50635495585544]","[243.50635495585544]","[242]","0","0","1","0","149.6340000476921","1000.7499999046267","1000","[[[""img/mask79.png""]]]","","","main","272","color-precision2"
"","","","","","html-keyboard-response","28","232377","0.0-10.0-1.4","58a202ac66e4640001c52bfd","640759fa512f630a2bdc333d","6408c182ea35d7b036dbc9b7","null","","null","","","","","","","","","","","","","","","","","","","fixation","",""
"","","","","","many-guess-6","29","239461","0.0-10.0-0.5-0.5","58a202ac66e4640001c52bfd","640759fa512f630a2bdc333d","6408c182ea35d7b036dbc9b7","[3054.300000190735]","","","[33,26,9,2,16,11,27,20,21,28,4,8,15,29,6,24,31,34,14,32,12,17,25,5,19,22,7,35,23,13,0,18,10,30,3,1]","[275,205,295,45,5,185,125,25,225,175,145,85,315,65,35,265,245,305,195,355,285,335,15,255,135,325,165,215,115,105,235,345,95,155,55,75]","275","119","298.6712321683546","[298.6712321683546]","[179.6712321683546]","[180]","[300,300,120,120,120,210,210,30,300]","0","36","0","149.09899990464328","17.919999904639553","16","[[[""img/mask47.png""],[""img/mask44.png""],[""img/mask61.png""],[""img/mask3.png""],[""img/mask16.png""],[""img/mask89.png""],[""img/mask2.png""],[""img/mask2.png""],[""img/mask88.png""],[""img/mask46.png""],[""img/mask23.png""],[""img/mask96.png""],[""img/mask53.png""],[""img/mask9.png""],[""img/mask16.png""],[""img/mask86.png""],[""img/mask3.png""],[""img/mask39.png""],[""img/mask58.png""],[""img/mask79.png""],[""img/mask82.png""],[""img/mask8.png""],[""img/mask66.png""],[""img/mask67.png""],[""img/mask78.png""],[""img/mask72.png""],[""img/mask96.png""],[""img/mask82.png""],[""img/mask61.png""],[""img/mask5.png""],[""img/mask11.png""],[""img/mask92.png""],[""img/mask18.png""],[""img/mask19.png""],[""img/mask54.png""],[""img/mask10.png""]]]","","[33,26,9,2,16,11,27,20,21,28,4,8,15,29,6,24,31,34,14,32,12,17,25,5,19,22,7,35,23,13,0,18,10,30,3,1]","main","119","many-guess-6"
"","","","","","html-keyboard-response","30","239962","0.0-10.0-1.5","58a202ac66e4640001c52bfd","640759fa512f630a2bdc333d","6408c182ea35d7b036dbc9b7","null","","null","","","","","","","","","","","","","","","","","","","fixation","",""
"","","","","","color-precision2","31","245427","0.0-10.0-0.6-0.6","58a202ac66e4640001c52bfd","640759fa512f630a2bdc333d","6408c182ea35d7b036dbc9b7","[2052.7999999523163]","","","[34]","[290]","290","13","286.45020081834707","[286.45020081834707]","[273.45020081834707]","[274]","0","0","1","0","149.08899995230604","1002.8629999523109","1000","[[[""img/mask80.png""]]]","","","main","13","color-precision2"
"","","","","","html-keyboard-response","32","245929","0.0-10.0-1.6","58a202ac66e4640001c52bfd","640759fa512f630a2bdc333d","6408c182ea35d7b036dbc9b7","null","","null","","","","","","","","","","","","","","","","","","","fixation","",""
"","","","","","color-precision2","33","249816","0.0-10.0-0.7-0.7","58a202ac66e4640001c52bfd","640759fa512f630a2bdc333d","6408c182ea35d7b036dbc9b7","[1026.1000001430511]","","","[26]","[120]","120","292","60.18517414557192","[60.18517414557192]","[128.18517414557192]","[126]","0","0","1","0","148.69500004767906","992.2079998569388","1000","[[[""img/mask15.png""]]]","","","main","292","color-precision2"
"","","","","","html-keyboard-response","34","250318","0.0-10.0-1.7","58a202ac66e4640001c52bfd","640759fa512f630a2bdc333d","6408c182ea35d7b036dbc9b7","null","","null","","","","","","","","","","","","","","","","","","","fixation","",""
"","","","","","many-guess-6","35","257025","0.0-10.0-0.8-0.8","58a202ac66e4640001c52bfd","640759fa512f630a2bdc333d","6408c182ea35d7b036dbc9b7","[3802.0999999046326]","","","[8,30,27,22,33,16,28,15,34,26,9,11,17,6,29,2,32,35,7,31,0,12,1,5,3,10,18,19,13,14,25,23,4,24,21,20]","[310,260,31,320,90,1,270,210,40,350,80,230,240,140,70,160,300,170,220,250,130,21,11,150,290,60,200,110,100,280,120,180,330,340,190,50]","310","283","237.99281354222452","[237.99281354222452]","[314.99281354222455]","[315]","[210,30,210,120,30,120,300,210,120]","0","36","0","148.11399995232932","14.44400004768977","16","[[[""img/mask17.png""],[""img/mask8.png""],[""img/mask15.png""],[""img/mask47.png""],[""img/mask20.png""],[""img/mask92.png""],[""img/mask43.png""],[""img/mask89.png""],[""img/mask61.png""],[""img/mask6.png""],[""img/mask33.png""],[""img/mask60.png""],[""img/mask96.png""],[""img/mask63.png""],[""img/mask63.png""],[""img/mask64.png""],[""img/mask40.png""],[""img/mask18.png""],[""img/mask90.png""],[""img/mask100.png""],[""img/mask56.png""],[""img/mask25.png""],[""img/mask71.png""],[""img/mask83.png""],[""img/mask89.png""],[""img/mask89.png""],[""img/mask35.png""],[""img/mask33.png""],[""img/mask71.png""],[""img/mask62.png""],[""img/mask94.png""],[""img/mask25.png""],[""img/mask67.png""],[""img/mask98.png""],[""img/mask66.png""],[""img/mask50.png""]]]","","[8,30,27,22,33,16,28,15,34,26,9,11,17,6,29,2,32,35,7,31,0,12,1,5,3,10,18,19,13,14,25,23,4,24,21,20]","main","283","many-guess-6"
"","","","","","html-keyboard-response","36","257527","0.0-10.0-1.8","58a202ac66e4640001c52bfd","640759fa512f630a2bdc333d","6408c182ea35d7b036dbc9b7","null","","null","","","","","","","","","","","","","","","","","","","fixation","",""
"","","","","","many-guess-6","37","263786","0.0-10.0-0.9-0.9","58a202ac66e4640001c52bfd","640759fa512f630a2bdc333d","6408c182ea35d7b036dbc9b7","[3712.9000000953674]","","","[30,35,16,22,23,21,11,19,5,15,26,31,18,0,29,17,10,2,32,13,14,27,7,6,20,34,24,33,1,12,8,28,9,4,25,3]","[66,285,235,225,26,345,186,245,166,315,255,275,6,305,56,196,206,136,76,146,116,106,156,86,16,265,96,325,176,295,46,216,355,36,126,335]","66","237","18.486142698044766","[18.486142698044766]","[141.48614269804477]","[140]","[300,120,300,30,30,120,30,300,120]","0","36","0","149.40500000002794","11.614999856974464","16","[[[""img/mask6.png""],[""img/mask17.png""],[""img/mask85.png""],[""img/mask100.png""],[""img/mask58.png""],[""img/mask93.png""],[""img/mask79.png""],[""img/mask77.png""],[""img/mask35.png""],[""img/mask74.png""],[""img/mask12.png""],[""img/mask54.png""],[""img/mask64.png""],[""img/mask56.png""],[""img/mask43.png""],[""img/mask31.png""],[""img/mask99.png""],[""img/mask5.png""],[""img/mask21.png""],[""img/mask24.png""],[""img/mask55.png""],[""img/mask7.png""],[""img/mask40.png""],[""img/mask100.png""],[""img/mask2.png""],[""img/mask54.png""],[""img/mask51.png""],[""img/mask49.png""],[""img/mask64.png""],[""img/mask6.png""],[""img/mask13.png""],[""img/mask30.png""],[""img/mask61.png""],[""img/mask58.png""],[""img/mask99.png""],[""img/mask23.png""]]]","","[30,35,16,22,23,21,11,19,5,15,26,31,18,0,29,17,10,2,32,13,14,27,7,6,20,34,24,33,1,12,8,28,9,4,25,3]","main","237","many-guess-6"
"","","","","","html-keyboard-response","38","264289","0.0-10.0-1.9","58a202ac66e4640001c52bfd","640759fa512f630a2bdc333d","6408c182ea35d7b036dbc9b7","null","","null","","","","","","","","","","","","","","","","","","","fixation","",""
"","","","","","many-guess-6","39","269014","0.0-10.0-0.10-0.10","58a202ac66e4640001c52bfd","640759fa512f630a2bdc333d","6408c182ea35d7b036dbc9b7","[2241.0999999046326]","","","[29,2,10,16,17,9,35,24,34,15,3,1,20,26,12,14,18,22,5,19,23,28,25,6,31,33,8,21,27,11,4,7,13,0,32,30]","[328,29,9,209,149,288,199,308,348,139,358,39,248,19,239,129,119,229,298,268,49,278,79,258,189,179,99,89,219,338,69,169,318,109,159,59]","328","65","315.7929432658782","[315.7929432658782]","[250.7929432658782]","[251]","[30,120,120,210,120,210,30,30,210]","0","36","0","148.8379998569726","12.41200004768325","16","[[[""img/mask73.png""],[""img/mask52.png""],[""img/mask3.png""],[""img/mask35.png""],[""img/mask91.png""],[""img/mask16.png""],[""img/mask73.png""],[""img/mask30.png""],[""img/mask49.png""],[""img/mask35.png""],[""img/mask30.png""],[""img/mask16.png""],[""img/mask65.png""],[""img/mask20.png""],[""img/mask81.png""],[""img/mask46.png""],[""img/mask14.png""],[""img/mask39.png""],[""img/mask92.png""],[""img/mask41.png""],[""img/mask93.png""],[""img/mask1.png""],[""img/mask63.png""],[""img/mask43.png""],[""img/mask32.png""],[""img/mask98.png""],[""img/mask13.png""],[""img/mask6.png""],[""img/mask60.png""],[""img/mask21.png""],[""img/mask5.png""],[""img/mask30.png""],[""img/mask69.png""],[""img/mask46.png""],[""img/mask92.png""],[""img/mask14.png""]]]","","[29,2,10,16,17,9,35,24,34,15,3,1,20,26,12,14,18,22,5,19,23,28,25,6,31,33,8,21,27,11,4,7,13,0,32,30]","main","65","many-guess-6"
"","","","","","html-keyboard-response","40","269516","0.0-10.0-1.10","58a202ac66e4640001c52bfd","640759fa512f630a2bdc333d","6408c182ea35d7b036dbc9b7","null","","null","","","","","","","","","","","","","","","","","","","fixation","",""
"","","","","","many-guess-6","41","273796","0.0-10.0-0.11-0.11","58a202ac66e4640001c52bfd","640759fa512f630a2bdc333d","6408c182ea35d7b036dbc9b7","[1889.8000001907349]","","","[24,4,21,2,26,34,30,23,17,22,25,33,8,27,18,19,7,31,0,14,32,13,5,28,15,16,20,10,9,6,3,11,1,29,35,12]","[33,103,133,242,123,53,23,202,252,63,282,292,83,182,312,43,73,342,322,13,3,143,153,302,212,162,272,232,172,222,262,192,93,113,352,332]","33","332","159.61187006532904","[159.61187006532904]","[187.61187006532904]","[186]","[120,30,30,210,210,210,30,30,210]","0","36","0","148.78799985692604","20.798000047681853","16","[[[""img/mask40.png""],[""img/mask21.png""],[""img/mask89.png""],[""img/mask7.png""],[""img/mask68.png""],[""img/mask19.png""],[""img/mask92.png""],[""img/mask8.png""],[""img/mask66.png""],[""img/mask42.png""],[""img/mask79.png""],[""img/mask33.png""],[""img/mask62.png""],[""img/mask23.png""],[""img/mask51.png""],[""img/mask66.png""],[""img/mask17.png""],[""img/mask85.png""],[""img/mask56.png""],[""img/mask5.png""],[""img/mask14.png""],[""img/mask12.png""],[""img/mask2.png""],[""img/mask96.png""],[""img/mask21.png""],[""img/mask56.png""],[""img/mask57.png""],[""img/mask20.png""],[""img/mask51.png""],[""img/mask54.png""],[""img/mask18.png""],[""img/mask13.png""],[""img/mask5.png""],[""img/mask43.png""],[""img/mask41.png""],[""img/mask76.png""]]]","","[24,4,21,2,26,34,30,23,17,22,25,33,8,27,18,19,7,31,0,14,32,13,5,28,15,16,20,10,9,6,3,11,1,29,35,12]","main","332","many-guess-6"
"","","","","","html-keyboard-response","42","274298","0.0-10.0-1.11","58a202ac66e4640001c52bfd","640759fa512f630a2bdc333d","6408c182ea35d7b036dbc9b7","null","","null","","","","","","","","","","","","","","","","","","","fixation","",""
"","","","","","color-precision2","43","278775","0.0-10.0-0.12-0.12","58a202ac66e4640001c52bfd","640759fa512f630a2bdc333d","6408c182ea35d7b036dbc9b7","[1017.7999999523163]","","","[17]","[274]","274","310","211.3288514696234","[211.3288514696234]","[261.3288514696234]","[261]","0","0","1","0","149.326999856974","992.5709999523242","1000","[[[""img/mask61.png""]]]","","","main","310","color-precision2"
"","","","","","html-keyboard-response","44","279276","0.0-10.0-1.12","58a202ac66e4640001c52bfd","640759fa512f630a2bdc333d","6408c182ea35d7b036dbc9b7","null","","null","","","","","","","","","","","","","","","","","","","fixation","",""
"","","","","","many-guess-6","45","283743","0.0-10.0-0.13-0.13","58a202ac66e4640001c52bfd","640759fa512f630a2bdc333d","6408c182ea35d7b036dbc9b7","[2203.7000000476837]","","","[18,0,15,20,25,30,22,2,11,1,29,27,17,8,10,26,31,5,3,32,6,16,12,34,24,7,13,35,21,33,14,19,4,9,23,28]","[191,111,161,151,72,271,101,341,22,201,241,12,121,281,81,32,351,91,331,211,231,221,291,301,42,321,52,251,141,2,171,62,311,181,131,261]","191","341","176.0607961481005","[176.0607961481005]","[195.0607961481005]","[194]","[210,120,120,300,30,210,120,120,300]","0","36","0","148.89300004771212","12.023999999975786","16","[[[""img/mask92.png""],[""img/mask2.png""],[""img/mask99.png""],[""img/mask69.png""],[""img/mask89.png""],[""img/mask92.png""],[""img/mask59.png""],[""img/mask50.png""],[""img/mask62.png""],[""img/mask39.png""],[""img/mask21.png""],[""img/mask68.png""],[""img/mask41.png""],[""img/mask63.png""],[""img/mask15.png""],[""img/mask92.png""],[""img/mask86.png""],[""img/mask63.png""],[""img/mask65.png""],[""img/mask91.png""],[""img/mask70.png""],[""img/mask4.png""],[""img/mask22.png""],[""img/mask45.png""],[""img/mask81.png""],[""img/mask32.png""],[""img/mask3.png""],[""img/mask13.png""],[""img/mask79.png""],[""img/mask3.png""],[""img/mask66.png""],[""img/mask53.png""],[""img/mask59.png""],[""img/mask81.png""],[""img/mask23.png""],[""img/mask6.png""]]]","","[18,0,15,20,25,30,22,2,11,1,29,27,17,8,10,26,31,5,3,32,6,16,12,34,24,7,13,35,21,33,14,19,4,9,23,28]","main","341","many-guess-6"
"","","","","","html-keyboard-response","46","284245","0.0-10.0-1.13","58a202ac66e4640001c52bfd","640759fa512f630a2bdc333d","6408c182ea35d7b036dbc9b7","null","","null","","","","","","","","","","","","","","","","","","","fixation","",""
"","","","","","many-guess-6","47","288178","0.0-10.0-0.14-0.14","58a202ac66e4640001c52bfd","640759fa512f630a2bdc333d","6408c182ea35d7b036dbc9b7","[1971.4000000953674]","","","[34,7,19,1,16,6,25,0,9,2,29,33,24,5,3,12,28,20,21,27,10,17,14,31,26,22,4,15,18,23,13,30,32,35,8,11]","[190,340,50,110,250,140,260,200,40,230,320,359,180,270,60,330,80,170,290,120,300,100,160,70,150,220,349,10,240,210,310,20,30,90,130,280]","190","201","353.65762397672796","[353.65762397672796]","[152.65762397672796]","[152]","[210,120,120,30,30,210,30,300,300]","0","36","0","147.9430000000284","22.804000000003725","16","[[[""img/mask41.png""],[""img/mask19.png""],[""img/mask53.png""],[""img/mask77.png""],[""img/mask11.png""],[""img/mask8.png""],[""img/mask89.png""],[""img/mask40.png""],[""img/mask42.png""],[""img/mask90.png""],[""img/mask7.png""],[""img/mask23.png""],[""img/mask14.png""],[""img/mask69.png""],[""img/mask38.png""],[""img/mask55.png""],[""img/mask8.png""],[""img/mask93.png""],[""img/mask37.png""],[""img/mask76.png""],[""img/mask17.png""],[""img/mask80.png""],[""img/mask42.png""],[""img/mask75.png""],[""img/mask76.png""],[""img/mask8.png""],[""img/mask72.png""],[""img/mask37.png""],[""img/mask81.png""],[""img/mask2.png""],[""img/mask19.png""],[""img/mask16.png""],[""img/mask88.png""],[""img/mask93.png""],[""img/mask60.png""],[""img/mask29.png""]]]","","[34,7,19,1,16,6,25,0,9,2,29,33,24,5,3,12,28,20,21,27,10,17,14,31,26,22,4,15,18,23,13,30,32,35,8,11]","main","201","many-guess-6"
"","","","","","html-keyboard-response","48","288679","0.0-10.0-1.14","58a202ac66e4640001c52bfd","640759fa512f630a2bdc333d","6408c182ea35d7b036dbc9b7","null","","null","","","","","","","","","","","","","","","","","","","fixation","",""
"","","","","","many-guess-6","49","293634","0.0-10.0-0.15-0.15","58a202ac66e4640001c52bfd","640759fa512f630a2bdc333d","6408c182ea35d7b036dbc9b7","[2611]","","","[35,33,21,12,26,27,17,28,6,5,10,22,32,30,14,3,9,34,0,15,13,20,29,2,18,19,1,8,25,16,4,11,24,7,23,31]","[343,333,83,113,93,44,24,243,4,133,123,323,54,74,293,163,173,353,263,223,153,34,14,253,313,143,273,303,233,213,103,183,283,64,203,193]","343","317","299.9063333943653","[299.9063333943653]","[342.9063333943653]","[344]","[210,30,300,120,30,300,300,120,210]","0","36","0","148.16399999998976","11.236999952292535","16","[[[""img/mask44.png""],[""img/mask82.png""],[""img/mask20.png""],[""img/mask52.png""],[""img/mask75.png""],[""img/mask69.png""],[""img/mask39.png""],[""img/mask66.png""],[""img/mask58.png""],[""img/mask45.png""],[""img/mask12.png""],[""img/mask62.png""],[""img/mask57.png""],[""img/mask42.png""],[""img/mask76.png""],[""img/mask89.png""],[""img/mask87.png""],[""img/mask83.png""],[""img/mask75.png""],[""img/mask41.png""],[""img/mask69.png""],[""img/mask61.png""],[""img/mask72.png""],[""img/mask87.png""],[""img/mask24.png""],[""img/mask40.png""],[""img/mask64.png""],[""img/mask76.png""],[""img/mask85.png""],[""img/mask72.png""],[""img/mask31.png""],[""img/mask68.png""],[""img/mask4.png""],[""img/mask5.png""],[""img/mask67.png""],[""img/mask95.png""]]]","","[35,33,21,12,26,27,17,28,6,5,10,22,32,30,14,3,9,34,0,15,13,20,29,2,18,19,1,8,25,16,4,11,24,7,23,31]","main","317","many-guess-6"
"","","","","","html-keyboard-response","50","294136","0.0-10.0-1.15","58a202ac66e4640001c52bfd","640759fa512f630a2bdc333d","6408c182ea35d7b036dbc9b7","null","","null","","","","","","","","","","","","","","","","","","","fixation","",""
"","","","","","many-guess-6","51","298784","0.0-10.0-0.16-0.16","58a202ac66e4640001c52bfd","640759fa512f630a2bdc333d","6408c182ea35d7b036dbc9b7","[2369.800000190735]","","","[19,1,25,5,33,9,3,22,23,7,21,13,11,4,15,20,14,34,2,26,30,16,0,24,29,27,31,10,28,32,18,6,8,35,17,12]","[78,8,187,108,287,118,98,257,197,307,58,167,177,28,337,327,217,297,157,237,267,317,207,18,138,88,38,347,227,277,68,357,128,48,247,147]","78","357","240.2553821222401","[240.2553821222401]","[243.2553821222401]","[244]","[300,210,210,30,120,120,120,210,300]","0","36","0","148.81499995233025","12.525999904610217","16","[[[""img/mask85.png""],[""img/mask96.png""],[""img/mask74.png""],[""img/mask22.png""],[""img/mask51.png""],[""img/mask13.png""],[""img/mask86.png""],[""img/mask39.png""],[""img/mask72.png""],[""img/mask26.png""],[""img/mask65.png""],[""img/mask30.png""],[""img/mask66.png""],[""img/mask87.png""],[""img/mask47.png""],[""img/mask21.png""],[""img/mask56.png""],[""img/mask20.png""],[""img/mask36.png""],[""img/mask17.png""],[""img/mask6.png""],[""img/mask18.png""],[""img/mask41.png""],[""img/mask37.png""],[""img/mask67.png""],[""img/mask87.png""],[""img/mask35.png""],[""img/mask86.png""],[""img/mask71.png""],[""img/mask77.png""],[""img/mask36.png""],[""img/mask10.png""],[""img/mask16.png""],[""img/mask13.png""],[""img/mask74.png""],[""img/mask81.png""]]]","","[19,1,25,5,33,9,3,22,23,7,21,13,11,4,15,20,14,34,2,26,30,16,0,24,29,27,31,10,28,32,18,6,8,35,17,12]","main","357","many-guess-6"
"","","","","","html-keyboard-response","52","299285","0.0-10.0-1.16","58a202ac66e4640001c52bfd","640759fa512f630a2bdc333d","6408c182ea35d7b036dbc9b7","null","","null","","","","","","","","","","","","","","","","","","","fixation","",""
"","","","","","many-guess-6","53","303536","0.0-10.0-0.17-0.17","58a202ac66e4640001c52bfd","640759fa512f630a2bdc333d","6408c182ea35d7b036dbc9b7","[2128.300000190735]","","","[29,13,22,16,8,32,10,24,4,0,21,34,12,23,2,35,31,28,25,19,11,7,18,27,1,17,15,30,3,20,14,6,5,26,33,9]","[176,236,206,296,67,17,286,97,127,57,186,27,7,87,196,266,356,156,306,107,316,77,216,226,47,346,326,147,256,137,246,336,117,166,37,276]","176","104","348.71369110778306","[348.71369110778306]","[244.71369110778306]","[244]","[120,120,210,210,300,210,120,30,30]","0","36","0","148.94899985694792","12.411000000021886","16","[[[""img/mask55.png""],[""img/mask67.png""],[""img/mask40.png""],[""img/mask74.png""],[""img/mask23.png""],[""img/mask85.png""],[""img/mask48.png""],[""img/mask23.png""],[""img/mask71.png""],[""img/mask78.png""],[""img/mask22.png""],[""img/mask6.png""],[""img/mask22.png""],[""img/mask9.png""],[""img/mask7.png""],[""img/mask95.png""],[""img/mask80.png""],[""img/mask61.png""],[""img/mask28.png""],[""img/mask51.png""],[""img/mask2.png""],[""img/mask7.png""],[""img/mask91.png""],[""img/mask26.png""],[""img/mask97.png""],[""img/mask56.png""],[""img/mask6.png""],[""img/mask20.png""],[""img/mask17.png""],[""img/mask93.png""],[""img/mask68.png""],[""img/mask72.png""],[""img/mask33.png""],[""img/mask49.png""],[""img/mask53.png""],[""img/mask65.png""]]]","","[29,13,22,16,8,32,10,24,4,0,21,34,12,23,2,35,31,28,25,19,11,7,18,27,1,17,15,30,3,20,14,6,5,26,33,9]","main","104","many-guess-6"
"","","","","","html-keyboard-response","54","304037","0.0-10.0-1.17","58a202ac66e4640001c52bfd","640759fa512f630a2bdc333d","6408c182ea35d7b036dbc9b7","null","","null","","","","","","","","","","","","","","","","","","","fixation","",""
"","","","","","color-precision2","55","307910","0.0-10.0-0.18-0.18","58a202ac66e4640001c52bfd","640759fa512f630a2bdc333d","6408c182ea35d7b036dbc9b7","[919.2999999523163]","","","[8]","[203]","203","357","211.46454741136242","[211.46454741136242]","[214.46454741136242]","[214]","0","0","1","0","149.402999904647","996.3579999046051","1000","[[[""img/mask95.png""]]]","","","main","357","color-precision2"
"","","","","","html-keyboard-response","56","308413","0.0-10.0-1.18","58a202ac66e4640001c52bfd","640759fa512f630a2bdc333d","6408c182ea35d7b036dbc9b7","null","","null","","","","","","","","","","","","","","","","","","","fixation","",""
"","","","","","many-guess-6","57","318912","0.0-10.0-0.19-0.19","58a202ac66e4640001c52bfd","640759fa512f630a2bdc333d","6408c182ea35d7b036dbc9b7","[7605.600000143051]","","","[18,19,32,25,3,27,12,13,9,2,30,15,29,22,34,17,0,33,11,4,16,21,14,26,5,20,23,24,6,28,31,8,1,35,10,7]","[41,320,350,161,91,211,181,121,51,280,290,171,310,131,81,270,230,61,221,31,260,1,11,151,201,250,21,141,330,191,340,111,101,240,300,71]","41","194","309.53465759702283","[309.53465759702283]","[115.53465759702283]","[116]","[30,210,30,300,300,210,120,210,300]","0","36","0","149.35500004771166","9.061999904632103","16","[[[""img/mask44.png""],[""img/mask11.png""],[""img/mask9.png""],[""img/mask64.png""],[""img/mask6.png""],[""img/mask22.png""],[""img/mask25.png""],[""img/mask72.png""],[""img/mask97.png""],[""img/mask89.png""],[""img/mask4.png""],[""img/mask2.png""],[""img/mask35.png""],[""img/mask18.png""],[""img/mask41.png""],[""img/mask11.png""],[""img/mask5.png""],[""img/mask38.png""],[""img/mask89.png""],[""img/mask60.png""],[""img/mask71.png""],[""img/mask92.png""],[""img/mask32.png""],[""img/mask20.png""],[""img/mask90.png""],[""img/mask87.png""],[""img/mask77.png""],[""img/mask69.png""],[""img/mask63.png""],[""img/mask77.png""],[""img/mask36.png""],[""img/mask62.png""],[""img/mask1.png""],[""img/mask88.png""],[""img/mask75.png""],[""img/mask57.png""]]]","","[18,19,32,25,3,27,12,13,9,2,30,15,29,22,34,17,0,33,11,4,16,21,14,26,5,20,23,24,6,28,31,8,1,35,10,7]","main","194","many-guess-6"
"","","","","","html-keyboard-response","58","323181","0.0-10.0-1.19","58a202ac66e4640001c52bfd","640759fa512f630a2bdc333d","6408c182ea35d7b036dbc9b7","4267.699999809265","Wow! You've completed 20 out of 180 trials! </p> <p>  </p><p> Take a quick break, then press any key when you're ready to continue."," ","","","","","","","","","","","","","","","","","","","fixation","",""
"","","","","","color-precision2","59","327830","0.0-10.0-0.20-0.20","58a202ac66e4640001c52bfd","640759fa512f630a2bdc333d","6408c182ea35d7b036dbc9b7","[1106.1999998092651]","","","[26]","[319]","319","183","128.32317861969358","[128.32317861969358]","[305.3231786196936]","[304]","0","0","1","0","148.1789998569293","992.5589999523363","1000","[[[""img/mask18.png""]]]","","","main","183","color-precision2"
"","","","","","html-keyboard-response","60","328331","0.0-10.0-1.20","58a202ac66e4640001c52bfd","640759fa512f630a2bdc333d","6408c182ea35d7b036dbc9b7","null","","null","","","","","","","","","","","","","","","","","","","fixation","",""
"","","","","","many-guess-6","61","332445","0.0-10.0-0.21-0.21","58a202ac66e4640001c52bfd","640759fa512f630a2bdc333d","6408c182ea35d7b036dbc9b7","[2254.7999999523163]","","","[28,30,15,4,11,29,9,5,13,10,6,27,20,31,1,12,7,3,22,2,17,24,16,21,25,34,0,23,14,19,18,26,33,32,35,8]","[289,50,120,110,60,100,249,10,279,90,269,359,309,259,130,170,40,180,339,349,199,219,20,319,239,80,229,189,160,329,299,140,70,150,209,30]","289","299","210.44211699790432","[210.44211699790432]","[271.44211699790435]","[271]","[210,30,30,120,30,210,120,120,210]","0","36","0","149.37600004766136","17.27699995232979","16","[[[""img/mask87.png""],[""img/mask77.png""],[""img/mask35.png""],[""img/mask46.png""],[""img/mask40.png""],[""img/mask35.png""],[""img/mask20.png""],[""img/mask39.png""],[""img/mask92.png""],[""img/mask62.png""],[""img/mask60.png""],[""img/mask37.png""],[""img/mask26.png""],[""img/mask57.png""],[""img/mask59.png""],[""img/mask50.png""],[""img/mask97.png""],[""img/mask91.png""],[""img/mask72.png""],[""img/mask3.png""],[""img/mask17.png""],[""img/mask74.png""],[""img/mask3.png""],[""img/mask98.png""],[""img/mask98.png""],[""img/mask88.png""],[""img/mask77.png""],[""img/mask74.png""],[""img/mask80.png""],[""img/mask9.png""],[""img/mask99.png""],[""img/mask12.png""],[""img/mask95.png""],[""img/mask85.png""],[""img/mask60.png""],[""img/mask27.png""]]]","","[28,30,15,4,11,29,9,5,13,10,6,27,20,31,1,12,7,3,22,2,17,24,16,21,25,34,0,23,14,19,18,26,33,32,35,8]","main","299","many-guess-6"
"","","","","","html-keyboard-response","62","332947","0.0-10.0-1.21","58a202ac66e4640001c52bfd","640759fa512f630a2bdc333d","6408c182ea35d7b036dbc9b7","null","","null","","","","","","","","","","","","","","","","","","","fixation","",""
"","","","","","many-guess-6","63","336401","0.0-10.0-0.22-0.22","58a202ac66e4640001c52bfd","640759fa512f630a2bdc333d","6408c182ea35d7b036dbc9b7","[1643.0999999046326]","","","[33,30,35,27,29,31,19,22,8,7,14,4,15,28,20,11,1,10,6,24,18,9,5,16,17,13,32,23,21,0,26,2,12,34,25,3]","[293,114,164,323,24,144,214,94,174,264,313,333,134,124,283,74,244,104,274,224,184,353,34,303,204,254,343,4,154,64,234,14,84,194,44,54]","293","347","215.96651607740267","[215.96651607740267]","[228.96651607740267]","[229]","[300,300,120,210,210,300,30,210,300]","0","36","0","149.4409998569754","9.143999999971129","16","[[[""img/mask71.png""],[""img/mask14.png""],[""img/mask2.png""],[""img/mask79.png""],[""img/mask14.png""],[""img/mask80.png""],[""img/mask91.png""],[""img/mask6.png""],[""img/mask86.png""],[""img/mask52.png""],[""img/mask92.png""],[""img/mask3.png""],[""img/mask50.png""],[""img/mask23.png""],[""img/mask85.png""],[""img/mask72.png""],[""img/mask4.png""],[""img/mask56.png""],[""img/mask45.png""],[""img/mask30.png""],[""img/mask88.png""],[""img/mask5.png""],[""img/mask7.png""],[""img/mask52.png""],[""img/mask47.png""],[""img/mask45.png""],[""img/mask25.png""],[""img/mask35.png""],[""img/mask6.png""],[""img/mask8.png""],[""img/mask60.png""],[""img/mask71.png""],[""img/mask87.png""],[""img/mask67.png""],[""img/mask23.png""],[""img/mask20.png""]]]","","[33,30,35,27,29,31,19,22,8,7,14,4,15,28,20,11,1,10,6,24,18,9,5,16,17,13,32,23,21,0,26,2,12,34,25,3]","main","347","many-guess-6"
"","","","","","html-keyboard-response","64","336903","0.0-10.0-1.22","58a202ac66e4640001c52bfd","640759fa512f630a2bdc333d","6408c182ea35d7b036dbc9b7","null","","null","","","","","","","","","","","","","","","","","","","fixation","",""
"","","","","","many-guess-6","65","341842","0.0-10.0-0.23-0.23","58a202ac66e4640001c52bfd","640759fa512f630a2bdc333d","6408c182ea35d7b036dbc9b7","[3184.100000143051]","","","[13,31,7,32,35,18,11,15,8,19,30,27,26,0,16,34,23,4,2,29,33,25,20,28,5,9,10,6,22,21,17,3,14,12,24,1]","[146,226,176,166,156,306,116,236,296,276,46,56,345,16,6,186,196,96,256,136,76,66,106,36,216,126,335,26,86,246,326,316,286,266,206,355]","146","238","178.34825337074417","[178.34825337074417]","[300.34825337074415]","[299]","[30,210,120,30,300,210,300,300,300]","0","36","0","149.10900004766881","20.355999904626515","16","[[[""img/mask70.png""],[""img/mask50.png""],[""img/mask60.png""],[""img/mask86.png""],[""img/mask54.png""],[""img/mask52.png""],[""img/mask43.png""],[""img/mask73.png""],[""img/mask92.png""],[""img/mask18.png""],[""img/mask67.png""],[""img/mask23.png""],[""img/mask15.png""],[""img/mask84.png""],[""img/mask64.png""],[""img/mask50.png""],[""img/mask83.png""],[""img/mask99.png""],[""img/mask21.png""],[""img/mask24.png""],[""img/mask62.png""],[""img/mask60.png""],[""img/mask2.png""],[""img/mask64.png""],[""img/mask78.png""],[""img/mask88.png""],[""img/mask19.png""],[""img/mask80.png""],[""img/mask85.png""],[""img/mask38.png""],[""img/mask22.png""],[""img/mask4.png""],[""img/mask97.png""],[""img/mask29.png""],[""img/mask35.png""],[""img/mask83.png""]]]","","[13,31,7,32,35,18,11,15,8,19,30,27,26,0,16,34,23,4,2,29,33,25,20,28,5,9,10,6,22,21,17,3,14,12,24,1]","main","238","many-guess-6"
"","","","","","html-keyboard-response","66","342344","0.0-10.0-1.23","58a202ac66e4640001c52bfd","640759fa512f630a2bdc333d","6408c182ea35d7b036dbc9b7","null","","null","","","","","","","","","","","","","","","","","","","fixation","",""
"","","","","","many-guess-6","67","350793","0.0-10.0-0.24-0.24","58a202ac66e4640001c52bfd","640759fa512f630a2bdc333d","6408c182ea35d7b036dbc9b7","[6101.599999904633]","","","[19,29,12,14,1,31,20,27,32,30,15,9,10,34,13,3,35,16,18,2,7,4,26,17,25,11,0,21,5,8,28,24,22,33,6,23]","[121,62,22,181,171,2,82,351,221,101,341,301,131,291,211,141,271,231,261,281,311,42,72,92,321,201,331,151,251,32,241,161,191,111,52,12]","121","329","143.19581821866862","[143.19581821866862]","[174.19581821866862]","[173]","[30,300,210,30,30,120,120,300,30]","0","36","0","149.25300000002608","12.290000047709327","16","[[[""img/mask73.png""],[""img/mask35.png""],[""img/mask50.png""],[""img/mask47.png""],[""img/mask43.png""],[""img/mask93.png""],[""img/mask17.png""],[""img/mask12.png""],[""img/mask70.png""],[""img/mask43.png""],[""img/mask43.png""],[""img/mask55.png""],[""img/mask55.png""],[""img/mask18.png""],[""img/mask2.png""],[""img/mask24.png""],[""img/mask78.png""],[""img/mask34.png""],[""img/mask46.png""],[""img/mask60.png""],[""img/mask83.png""],[""img/mask1.png""],[""img/mask32.png""],[""img/mask27.png""],[""img/mask89.png""],[""img/mask53.png""],[""img/mask54.png""],[""img/mask60.png""],[""img/mask100.png""],[""img/mask70.png""],[""img/mask2.png""],[""img/mask67.png""],[""img/mask50.png""],[""img/mask76.png""],[""img/mask26.png""],[""img/mask78.png""]]]","","[19,29,12,14,1,31,20,27,32,30,15,9,10,34,13,3,35,16,18,2,7,4,26,17,25,11,0,21,5,8,28,24,22,33,6,23]","main","329","many-guess-6"
"","","","","","html-keyboard-response","68","351294","0.0-10.0-1.24","58a202ac66e4640001c52bfd","640759fa512f630a2bdc333d","6408c182ea35d7b036dbc9b7","null","","null","","","","","","","","","","","","","","","","","","","fixation","",""
"","","","","","color-precision2","69","354826","0.0-10.0-0.25-0.25","58a202ac66e4640001c52bfd","640759fa512f630a2bdc333d","6408c182ea35d7b036dbc9b7","[701.8999998569489]","","","[21]","[356]","356","284","284.73871653620347","[284.73871653620347]","[0.7387165362034693]","[1]","0","0","1","0","148.58999985695118","1005.0640000476851","1000","[[[""img/mask5.png""]]]","","","main","284","color-precision2"
"","","","","","html-keyboard-response","70","355326","0.0-10.0-1.25","58a202ac66e4640001c52bfd","640759fa512f630a2bdc333d","6408c182ea35d7b036dbc9b7","null","","null","","","","","","","","","","","","","","","","","","","fixation","",""
"","","","","","many-guess-6","71","359867","0.0-10.0-0.26-0.26","58a202ac66e4640001c52bfd","640759fa512f630a2bdc333d","6408c182ea35d7b036dbc9b7","[2360.7999999523163]","","","[30,0,26,3,22,25,15,34,7,13,27,32,4,1,16,20,9,17,5,35,33,10,14,6,31,21,24,19,29,2,8,28,18,12,23,11]","[338,39,308,129,219,199,298,259,209,179,318,288,109,99,268,19,189,149,328,169,139,59,249,278,29,9,49,348,358,79,89,69,159,229,119,239]","338","192","153.50504887684698","[153.50504887684698]","[321.505048876847]","[320]","[120,120,210,30,30,300,30,30,210]","0","36","0","149.3769999523065","8.156999952334445","16","[[[""img/mask63.png""],[""img/mask29.png""],[""img/mask12.png""],[""img/mask93.png""],[""img/mask41.png""],[""img/mask16.png""],[""img/mask38.png""],[""img/mask56.png""],[""img/mask65.png""],[""img/mask38.png""],[""img/mask34.png""],[""img/mask71.png""],[""img/mask84.png""],[""img/mask39.png""],[""img/mask49.png""],[""img/mask77.png""],[""img/mask64.png""],[""img/mask58.png""],[""img/mask84.png""],[""img/mask40.png""],[""img/mask44.png""],[""img/mask1.png""],[""img/mask12.png""],[""img/mask15.png""],[""img/mask15.png""],[""img/mask51.png""],[""img/mask72.png""],[""img/mask47.png""],[""img/mask72.png""],[""img/mask23.png""],[""img/mask60.png""],[""img/mask83.png""],[""img/mask15.png""],[""img/mask58.png""],[""img/mask63.png""],[""img/mask26.png""]]]","","[30,0,26,3,22,25,15,34,7,13,27,32,4,1,16,20,9,17,5,35,33,10,14,6,31,21,24,19,29,2,8,28,18,12,23,11]","main","192","many-guess-6"
"","","","","","html-keyboard-response","72","360370","0.0-10.0-1.26","58a202ac66e4640001c52bfd","640759fa512f630a2bdc333d","6408c182ea35d7b036dbc9b7","null","","null","","","","","","","","","","","","","","","","","","","fixation","",""
"","","","","","color-precision2","73","365196","0.0-10.0-0.27-0.27","58a202ac66e4640001c52bfd","640759fa512f630a2bdc333d","6408c182ea35d7b036dbc9b7","[671.6000001430511]","","","[1]","[202]","202","35","261.16024270968796","[261.16024270968796]","[226.16024270968796]","[226]","0","0","1","0","148.85499990463722","995.4789998569759","1000","[[[""img/mask70.png""]]]","","","main","35","color-precision2"
"","","","","","html-keyboard-response","74","365698","0.0-10.0-1.27","58a202ac66e4640001c52bfd","640759fa512f630a2bdc333d","6408c182ea35d7b036dbc9b7","null","","null","","","","","","","","","","","","","","","","","","","fixation","",""
"","","","","","color-precision2","75","370604","0.0-10.0-0.28-0.28","58a202ac66e4640001c52bfd","640759fa512f630a2bdc333d","6408c182ea35d7b036dbc9b7","[2179.7999999523163]","","","[19]","[355]","355","147","114.49558617261344","[114.49558617261344]","[327.49558617261346]","[326]","0","0","1","0","149.41199990460882","1003.3060000477126","1000","[[[""img/mask24.png""]]]","","","main","147","color-precision2"
"","","","","","html-keyboard-response","76","371106","0.0-10.0-1.28","58a202ac66e4640001c52bfd","640759fa512f630a2bdc333d","6408c182ea35d7b036dbc9b7","null","","null","","","","","","","","","","","","","","","","","","","fixation","",""
"","","","","","many-guess-6","77","375784","0.0-10.0-0.29-0.29","58a202ac66e4640001c52bfd","640759fa512f630a2bdc333d","6408c182ea35d7b036dbc9b7","[2743]","","","[30,16,11,19,23,12,0,22,20,14,27,26,2,32,31,7,8,17,34,9,1,24,13,33,10,29,6,3,4,18,28,25,21,5,15,35]","[137,97,57,207,356,316,346,167,217,296,197,306,117,257,17,326,336,237,27,177,187,87,286,247,157,227,7,47,107,127,77,277,67,37,267,147]","137","320","275.4274198988947","[275.4274198988947]","[315.4274198988947]","[316]","[30,210,210,30,120,210,300,120,300]","0","36","0","149.53700000001118","19.643999952299055","16","[[[""img/mask4.png""],[""img/mask8.png""],[""img/mask100.png""],[""img/mask54.png""],[""img/mask25.png""],[""img/mask95.png""],[""img/mask72.png""],[""img/mask87.png""],[""img/mask29.png""],[""img/mask82.png""],[""img/mask42.png""],[""img/mask82.png""],[""img/mask73.png""],[""img/mask4.png""],[""img/mask70.png""],[""img/mask62.png""],[""img/mask54.png""],[""img/mask8.png""],[""img/mask20.png""],[""img/mask38.png""],[""img/mask51.png""],[""img/mask44.png""],[""img/mask67.png""],[""img/mask37.png""],[""img/mask100.png""],[""img/mask54.png""],[""img/mask35.png""],[""img/mask2.png""],[""img/mask93.png""],[""img/mask34.png""],[""img/mask14.png""],[""img/mask100.png""],[""img/mask46.png""],[""img/mask61.png""],[""img/mask85.png""],[""img/mask31.png""]]]","","[30,16,11,19,23,12,0,22,20,14,27,26,2,32,31,7,8,17,34,9,1,24,13,33,10,29,6,3,4,18,28,25,21,5,15,35]","main","320","many-guess-6"
"","","","","","html-keyboard-response","78","376286","0.0-10.0-1.29","58a202ac66e4640001c52bfd","640759fa512f630a2bdc333d","6408c182ea35d7b036dbc9b7","null","","null","","","","","","","","","","","","","","","","","","","fixation","",""
"","","","","","many-guess-6","79","381137","0.0-10.0-0.30-0.30","58a202ac66e4640001c52bfd","640759fa512f630a2bdc333d","6408c182ea35d7b036dbc9b7","[2912.5999999046326]","","","[18,26,22,11,30,14,31,2,28,23,19,3,10,21,16,27,35,9,13,32,17,6,4,0,5,1,20,8,33,29,7,15,12,24,25,34]","[128,327,68,277,48,267,108,38,118,208,337,237,168,287,78,138,188,247,158,198,297,227,257,8,98,178,347,18,58,28,217,148,357,307,88,317]","128","110","62.20019485407092","[62.20019485407092]","[312.2001948540709]","[310]","[120,120,300,30,30,120,30,210,30]","0","36","0","149.48099990462651","7.910000047704671","16","[[[""img/mask10.png""],[""img/mask71.png""],[""img/mask56.png""],[""img/mask4.png""],[""img/mask88.png""],[""img/mask10.png""],[""img/mask18.png""],[""img/mask73.png""],[""img/mask35.png""],[""img/mask50.png""],[""img/mask63.png""],[""img/mask11.png""],[""img/mask9.png""],[""img/mask34.png""],[""img/mask35.png""],[""img/mask78.png""],[""img/mask64.png""],[""img/mask62.png""],[""img/mask49.png""],[""img/mask75.png""],[""img/mask10.png""],[""img/mask97.png""],[""img/mask86.png""],[""img/mask20.png""],[""img/mask41.png""],[""img/mask76.png""],[""img/mask34.png""],[""img/mask100.png""],[""img/mask69.png""],[""img/mask56.png""],[""img/mask83.png""],[""img/mask91.png""],[""img/mask90.png""],[""img/mask91.png""],[""img/mask31.png""],[""img/mask50.png""]]]","","[18,26,22,11,30,14,31,2,28,23,19,3,10,21,16,27,35,9,13,32,17,6,4,0,5,1,20,8,33,29,7,15,12,24,25,34]","main","110","many-guess-6"
"","","","","","html-keyboard-response","80","381639","0.0-10.0-1.30","58a202ac66e4640001c52bfd","640759fa512f630a2bdc333d","6408c182ea35d7b036dbc9b7","null","","null","","","","","","","","","","","","","","","","","","","fixation","",""
"","","","","","many-guess-6","81","386408","0.0-10.0-0.31-0.31","58a202ac66e4640001c52bfd","640759fa512f630a2bdc333d","6408c182ea35d7b036dbc9b7","[2950.2999999523163]","","","[7,20,8,0,18,30,23,17,5,34,32,28,6,1,25,33,24,21,10,29,2,35,11,9,19,13,31,22,27,4,26,12,15,3,14,16]","[224,14,353,293,174,114,254,303,4,74,154,244,333,313,204,64,264,283,234,44,214,34,144,273,54,124,84,184,194,323,134,343,164,94,104,24]","224","336","278.2891888363116","[278.2891888363116]","[302.2891888363116]","[302]","[210,210,30,210,300,120,300,120,120]","0","36","0","149.37299990461906","10.815000047674403","16","[[[""img/mask72.png""],[""img/mask72.png""],[""img/mask13.png""],[""img/mask12.png""],[""img/mask6.png""],[""img/mask67.png""],[""img/mask19.png""],[""img/mask14.png""],[""img/mask84.png""],[""img/mask32.png""],[""img/mask38.png""],[""img/mask19.png""],[""img/mask4.png""],[""img/mask82.png""],[""img/mask73.png""],[""img/mask76.png""],[""img/mask77.png""],[""img/mask29.png""],[""img/mask16.png""],[""img/mask100.png""],[""img/mask68.png""],[""img/mask45.png""],[""img/mask65.png""],[""img/mask89.png""],[""img/mask83.png""],[""img/mask81.png""],[""img/mask40.png""],[""img/mask38.png""],[""img/mask12.png""],[""img/mask37.png""],[""img/mask44.png""],[""img/mask4.png""],[""img/mask76.png""],[""img/mask16.png""],[""img/mask12.png""],[""img/mask14.png""]]]","","[7,20,8,0,18,30,23,17,5,34,32,28,6,1,25,33,24,21,10,29,2,35,11,9,19,13,31,22,27,4,26,12,15,3,14,16]","main","336","many-guess-6"
"","","","","","html-keyboard-response","82","386909","0.0-10.0-1.31","58a202ac66e4640001c52bfd","640759fa512f630a2bdc333d","6408c182ea35d7b036dbc9b7","null","","null","","","","","","","","","","","","","","","","","","","fixation","",""
"","","","","","color-precision2","83","392264","0.0-10.0-0.32-0.32","58a202ac66e4640001c52bfd","640759fa512f630a2bdc333d","6408c182ea35d7b036dbc9b7","[2189.7999999523163]","","","[13]","[338]","338","27","329.223937935782","[329.223937935782]","[302.223937935782]","[302]","0","0","1","0","148.3390000477084","1006.9699999999721","1000","[[[""img/mask35.png""]]]","","","main","27","color-precision2"
"","","","","","html-keyboard-response","84","392767","0.0-10.0-1.32","58a202ac66e4640001c52bfd","640759fa512f630a2bdc333d","6408c182ea35d7b036dbc9b7","null","","null","","","","","","","","","","","","","","","","","","","fixation","",""
"","","","","","many-guess-6","85","398109","0.0-10.0-0.33-0.33","58a202ac66e4640001c52bfd","640759fa512f630a2bdc333d","6408c182ea35d7b036dbc9b7","[3601.2000000476837]","","","[1,30,4,14,11,5,26,18,8,10,35,7,12,23,3,20,16,9,17,2,24,27,29,21,19,34,0,32,33,13,28,25,6,31,22,15]","[94,164,124,44,34,314,104,284,144,84,214,353,24,204,324,234,294,304,194,334,154,134,64,224,114,4,174,344,274,14,254,264,244,184,74,54]","94","344","246.6038977130199","[246.6038977130199]","[262.60389771301993]","[263]","[300,120,300,120,30,300,300,120,30]","0","36","0","149.3039998569293","9.878000047698151","16","[[[""img/mask92.png""],[""img/mask52.png""],[""img/mask9.png""],[""img/mask58.png""],[""img/mask5.png""],[""img/mask92.png""],[""img/mask49.png""],[""img/mask93.png""],[""img/mask69.png""],[""img/mask11.png""],[""img/mask13.png""],[""img/mask67.png""],[""img/mask50.png""],[""img/mask35.png""],[""img/mask3.png""],[""img/mask83.png""],[""img/mask69.png""],[""img/mask72.png""],[""img/mask55.png""],[""img/mask96.png""],[""img/mask50.png""],[""img/mask93.png""],[""img/mask66.png""],[""img/mask31.png""],[""img/mask34.png""],[""img/mask98.png""],[""img/mask45.png""],[""img/mask40.png""],[""img/mask85.png""],[""img/mask90.png""],[""img/mask48.png""],[""img/mask19.png""],[""img/mask44.png""],[""img/mask64.png""],[""img/mask99.png""],[""img/mask18.png""]]]","","[1,30,4,14,11,5,26,18,8,10,35,7,12,23,3,20,16,9,17,2,24,27,29,21,19,34,0,32,33,13,28,25,6,31,22,15]","main","344","many-guess-6"
"","","","","","html-keyboard-response","86","398611","0.0-10.0-1.33","58a202ac66e4640001c52bfd","640759fa512f630a2bdc333d","6408c182ea35d7b036dbc9b7","null","","null","","","","","","","","","","","","","","","","","","","fixation","",""
"","","","","","color-precision2","87","402303","0.0-10.0-0.34-0.34","58a202ac66e4640001c52bfd","640759fa512f630a2bdc333d","6408c182ea35d7b036dbc9b7","[662.7000000476837]","","","[33]","[258]","258","50","307.1649859050664","[307.1649859050664]","[257.1649859050664]","[258]","0","0","1","0","149.25900000002002","994.3849999523372","1000","[[[""img/mask15.png""]]]","","","main","50","color-precision2"
"","","","","","html-keyboard-response","88","402806","0.0-10.0-1.34","58a202ac66e4640001c52bfd","640759fa512f630a2bdc333d","6408c182ea35d7b036dbc9b7","null","","null","","","","","","","","","","","","","","","","","","","fixation","",""
"","","","","","color-precision2","89","407167","0.0-10.0-0.35-0.35","58a202ac66e4640001c52bfd","640759fa512f630a2bdc333d","6408c182ea35d7b036dbc9b7","[1609.2999999523163]","","","[29]","[289]","289","191","113.1072569569527","[113.1072569569527]","[282.1072569569527]","[280]","0","0","1","0","149.64499990461627","1003.7029998569633","1000","[[[""img/mask35.png""]]]","","","main","191","color-precision2"
"","","","","","html-keyboard-response","90","407669","0.0-10.0-1.35","58a202ac66e4640001c52bfd","640759fa512f630a2bdc333d","6408c182ea35d7b036dbc9b7","null","","null","","","","","","","","","","","","","","","","","","","fixation","",""
"","","","","","many-guess-6","91","412184","0.0-10.0-0.36-0.36","58a202ac66e4640001c52bfd","640759fa512f630a2bdc333d","6408c182ea35d7b036dbc9b7","[2609.7999999523163]","","","[6,35,20,24,3,14,10,16,27,22,11,7,5,28,26,1,0,23,13,18,17,21,19,29,12,9,8,31,34,2,33,25,30,4,32,15]","[157,247,326,47,117,227,87,77,277,7,107,237,137,67,297,346,257,57,287,316,197,336,97,187,167,147,37,217,207,306,127,17,356,267,177,27]","157","8","257.66303274852714","[257.66303274852714]","[249.66303274852714]","[250]","[120,210,30,210,300,30,120,300,210]","0","36","0","149.49300004768884","14.794999952311628","16","[[[""img/mask58.png""],[""img/mask98.png""],[""img/mask63.png""],[""img/mask2.png""],[""img/mask91.png""],[""img/mask15.png""],[""img/mask41.png""],[""img/mask29.png""],[""img/mask62.png""],[""img/mask12.png""],[""img/mask72.png""],[""img/mask28.png""],[""img/mask90.png""],[""img/mask57.png""],[""img/mask6.png""],[""img/mask48.png""],[""img/mask70.png""],[""img/mask62.png""],[""img/mask95.png""],[""img/mask14.png""],[""img/mask38.png""],[""img/mask10.png""],[""img/mask29.png""],[""img/mask67.png""],[""img/mask75.png""],[""img/mask35.png""],[""img/mask14.png""],[""img/mask72.png""],[""img/mask78.png""],[""img/mask1.png""],[""img/mask45.png""],[""img/mask16.png""],[""img/mask5.png""],[""img/mask49.png""],[""img/mask18.png""],[""img/mask4.png""]]]","","[6,35,20,24,3,14,10,16,27,22,11,7,5,28,26,1,0,23,13,18,17,21,19,29,12,9,8,31,34,2,33,25,30,4,32,15]","main","8","many-guess-6"
"","","","","","html-keyboard-response","92","412686","0.0-10.0-1.36","58a202ac66e4640001c52bfd","640759fa512f630a2bdc333d","6408c182ea35d7b036dbc9b7","null","","null","","","","","","","","","","","","","","","","","","","fixation","",""
"","","","","","color-precision2","93","416004","0.0-10.0-0.37-0.37","58a202ac66e4640001c52bfd","640759fa512f630a2bdc333d","6408c182ea35d7b036dbc9b7","[496.2000000476837]","","","[8]","[92]","92","1","109.72833411121685","[109.72833411121685]","[108.72833411121685]","[107]","0","0","1","0","149.3559999522986","1003.9660000000149","1000","[[[""img/mask10.png""]]]","","","main","1","color-precision2"
"","","","","","html-keyboard-response","94","416506","0.0-10.0-1.37","58a202ac66e4640001c52bfd","640759fa512f630a2bdc333d","6408c182ea35d7b036dbc9b7","null","","null","","","","","","","","","","","","","","","","","","","fixation","",""
"","","","","","color-precision2","95","419915","0.0-10.0-0.38-0.38","58a202ac66e4640001c52bfd","640759fa512f630a2bdc333d","6408c182ea35d7b036dbc9b7","[425]","","","[12]","[74]","74","113","196.5375415687365","[196.5375415687365]","[83.53754156873649]","[83]","0","0","1","0","148.91399999998976","1002.5470000476926","1000","[[[""img/mask74.png""]]]","","","main","113","color-precision2"
"","","","","","html-keyboard-response","96","420418","0.0-10.0-1.38","58a202ac66e4640001c52bfd","640759fa512f630a2bdc333d","6408c182ea35d7b036dbc9b7","null","","null","","","","","","","","","","","","","","","","","","","fixation","",""
"","","","","","many-guess-6","97","424934","0.0-10.0-0.39-0.39","58a202ac66e4640001c52bfd","640759fa512f630a2bdc333d","6408c182ea35d7b036dbc9b7","[2326.199999809265]","","","[6,16,20,14,21,2,28,35,13,18,5,1,30,4,31,34,33,25,0,27,9,19,29,17,22,32,8,7,11,23,12,24,26,3,10,15]","[276,256,136,326,16,146,156,96,226,346,296,56,206,46,176,116,266,126,306,355,6,106,216,66,26,236,316,166,76,36,86,336,286,186,246,196]","276","273","121.889024727607","[121.889024727607]","[208.889024727607]","[207]","[120,120,300,300,30,30,300,120,300]","0","36","0","149.34400004765484","21.58599990460789","16","[[[""img/mask10.png""],[""img/mask44.png""],[""img/mask94.png""],[""img/mask38.png""],[""img/mask70.png""],[""img/mask88.png""],[""img/mask65.png""],[""img/mask63.png""],[""img/mask83.png""],[""img/mask39.png""],[""img/mask68.png""],[""img/mask55.png""],[""img/mask19.png""],[""img/mask47.png""],[""img/mask71.png""],[""img/mask89.png""],[""img/mask33.png""],[""img/mask37.png""],[""img/mask94.png""],[""img/mask56.png""],[""img/mask78.png""],[""img/mask62.png""],[""img/mask64.png""],[""img/mask77.png""],[""img/mask81.png""],[""img/mask43.png""],[""img/mask41.png""],[""img/mask70.png""],[""img/mask83.png""],[""img/mask13.png""],[""img/mask34.png""],[""img/mask68.png""],[""img/mask46.png""],[""img/mask99.png""],[""img/mask31.png""],[""img/mask56.png""]]]","","[6,16,20,14,21,2,28,35,13,18,5,1,30,4,31,34,33,25,0,27,9,19,29,17,22,32,8,7,11,23,12,24,26,3,10,15]","main","273","many-guess-6"
"","","","","","html-keyboard-response","98","427356","0.0-10.0-1.39","58a202ac66e4640001c52bfd","640759fa512f630a2bdc333d","6408c182ea35d7b036dbc9b7","2421.0999999046326","Wow! You've completed 40 out of 180 trials! </p> <p>  </p><p> Take a quick break, then press any key when you're ready to continue."," ","","","","","","","","","","","","","","","","","","","fixation","",""
"","","","","","many-guess-6","99","431984","0.0-10.0-0.40-0.40","58a202ac66e4640001c52bfd","640759fa512f630a2bdc333d","6408c182ea35d7b036dbc9b7","[1827.2000000476837]","","","[7,26,35,10,4,24,23,13,0,12,17,30,22,3,32,2,8,6,5,29,33,20,16,19,1,15,34,28,31,14,18,25,27,21,11,9]","[133,93,54,4,213,24,323,113,233,103,353,44,183,193,263,123,143,83,63,34,283,203,343,14,243,303,333,313,163,273,173,253,73,153,293,223]","133","210","185.99966584533482","[185.99966584533482]","[335.9996658453348]","[335]","[210,210,30,300,210,300,30,210,120]","0","36","0","148.97599995229393","19.873999952338636","16","[[[""img/mask28.png""],[""img/mask7.png""],[""img/mask59.png""],[""img/mask14.png""],[""img/mask95.png""],[""img/mask4.png""],[""img/mask78.png""],[""img/mask54.png""],[""img/mask23.png""],[""img/mask66.png""],[""img/mask13.png""],[""img/mask37.png""],[""img/mask12.png""],[""img/mask51.png""],[""img/mask89.png""],[""img/mask11.png""],[""img/mask78.png""],[""img/mask16.png""],[""img/mask97.png""],[""img/mask34.png""],[""img/mask28.png""],[""img/mask44.png""],[""img/mask17.png""],[""img/mask49.png""],[""img/mask65.png""],[""img/mask38.png""],[""img/mask80.png""],[""img/mask95.png""],[""img/mask25.png""],[""img/mask30.png""],[""img/mask39.png""],[""img/mask26.png""],[""img/mask67.png""],[""img/mask56.png""],[""img/mask1.png""],[""img/mask28.png""]]]","","[7,26,35,10,4,24,23,13,0,12,17,30,22,3,32,2,8,6,5,29,33,20,16,19,1,15,34,28,31,14,18,25,27,21,11,9]","main","210","many-guess-6"
"","","","","","html-keyboard-response","100","432486","0.0-10.0-1.40","58a202ac66e4640001c52bfd","640759fa512f630a2bdc333d","6408c182ea35d7b036dbc9b7","null","","null","","","","","","","","","","","","","","","","","","","fixation","",""
"","","","","","color-precision2","101","436898","0.0-10.0-0.41-0.41","58a202ac66e4640001c52bfd","640759fa512f630a2bdc333d","6408c182ea35d7b036dbc9b7","[1189.7000000476837]","","","[27]","[267]","267","98","9.722945184291813","[9.722945184291813]","[271.7229451842918]","[271]","0","0","1","0","148.4740000476595","1008.1489999999758","1000","[[[""img/mask50.png""]]]","","","main","98","color-precision2"
"","","","","","html-keyboard-response","102","437400","0.0-10.0-1.41","58a202ac66e4640001c52bfd","640759fa512f630a2bdc333d","6408c182ea35d7b036dbc9b7","null","","null","","","","","","","","","","","","","","","","","","","fixation","",""
"","","","","","many-guess-6","103","441984","0.0-10.0-0.42-0.42","58a202ac66e4640001c52bfd","640759fa512f630a2bdc333d","6408c182ea35d7b036dbc9b7","[1342.1000001430511]","","","[28,33,9,32,22,34,17,8,24,15,26,29,14,21,11,4,3,2,31,7,13,35,25,19,6,12,30,27,23,18,1,20,0,16,10,5]","[298,19,178,288,188,308,128,348,49,268,9,29,69,99,79,238,248,228,168,158,89,109,118,148,278,39,258,138,198,59,328,318,358,338,218,208]","298","358","296.30068372887195","[296.30068372887195]","[298.30068372887195]","[299]","[210,210,30,300,30,120,210,210,30]","0","36","0","148.89199995232048","19.363999856926966","16","[[[""img/mask92.png""],[""img/mask34.png""],[""img/mask70.png""],[""img/mask24.png""],[""img/mask39.png""],[""img/mask61.png""],[""img/mask23.png""],[""img/mask28.png""],[""img/mask46.png""],[""img/mask3.png""],[""img/mask6.png""],[""img/mask12.png""],[""img/mask60.png""],[""img/mask5.png""],[""img/mask98.png""],[""img/mask14.png""],[""img/mask75.png""],[""img/mask19.png""],[""img/mask76.png""],[""img/mask88.png""],[""img/mask4.png""],[""img/mask55.png""],[""img/mask66.png""],[""img/mask1.png""],[""img/mask24.png""],[""img/mask67.png""],[""img/mask33.png""],[""img/mask72.png""],[""img/mask54.png""],[""img/mask41.png""],[""img/mask41.png""],[""img/mask61.png""],[""img/mask32.png""],[""img/mask69.png""],[""img/mask41.png""],[""img/mask71.png""]]]","","[28,33,9,32,22,34,17,8,24,15,26,29,14,21,11,4,3,2,31,7,13,35,25,19,6,12,30,27,23,18,1,20,0,16,10,5]","main","358","many-guess-6"
"","","","","","html-keyboard-response","104","442486","0.0-10.0-1.42","58a202ac66e4640001c52bfd","640759fa512f630a2bdc333d","6408c182ea35d7b036dbc9b7","null","","null","","","","","","","","","","","","","","","","","","","fixation","",""
"","","","","","color-precision2","105","446145","0.0-10.0-0.43-0.43","58a202ac66e4640001c52bfd","640759fa512f630a2bdc333d","6408c182ea35d7b036dbc9b7","[888.2000000476837]","","","[15]","[52]","52","246","298.8609312329768","[298.8609312329768]","[52.86093123297678]","[53]","0","0","1","0","148.49400004767813","996.7609999046545","1000","[[[""img/mask22.png""]]]","","","main","246","color-precision2"
"","","","","","html-keyboard-response","106","446646","0.0-10.0-1.43","58a202ac66e4640001c52bfd","640759fa512f630a2bdc333d","6408c182ea35d7b036dbc9b7","null","","null","","","","","","","","","","","","","","","","","","","fixation","",""
"","","","","","color-precision2","107","450450","0.0-10.0-0.44-0.44","58a202ac66e4640001c52bfd","640759fa512f630a2bdc333d","6408c182ea35d7b036dbc9b7","[591.7000000476837]","","","[33]","[10]","10","170","148.06267958010034","[148.06267958010034]","[338.06267958010034]","[336]","0","0","1","0","148.86200000002282","995.7660000000033","1000","[[[""img/mask5.png""]]]","","","main","170","color-precision2"
"","","","","","html-keyboard-response","108","450952","0.0-10.0-1.44","58a202ac66e4640001c52bfd","640759fa512f630a2bdc333d","6408c182ea35d7b036dbc9b7","null","","null","","","","","","","","","","","","","","","","","","","fixation","",""
"","","","","","many-guess-6","109","455177","0.0-10.0-0.45-0.45","58a202ac66e4640001c52bfd","640759fa512f630a2bdc333d","6408c182ea35d7b036dbc9b7","[2319.7000000476837]","","","[19,0,13,26,25,17,27,32,12,16,35,3,7,22,11,4,5,2,20,6,28,1,31,10,18,15,34,21,8,24,23,33,30,14,9,29]","[232,262,193,322,352,3,282,73,93,222,23,103,83,342,332,163,173,312,292,63,202,33,302,183,123,212,143,43,133,252,53,153,242,113,13,272]","232","221","185.04475747684668","[185.04475747684668]","[324.0447574768467]","[323]","[300,300,30,210,300,30,210,210,30]","0","36","0","149.54899990465492","21.787999904656317","16","[[[""img/mask53.png""],[""img/mask48.png""],[""img/mask30.png""],[""img/mask22.png""],[""img/mask79.png""],[""img/mask39.png""],[""img/mask94.png""],[""img/mask28.png""],[""img/mask15.png""],[""img/mask73.png""],[""img/mask67.png""],[""img/mask32.png""],[""img/mask26.png""],[""img/mask63.png""],[""img/mask15.png""],[""img/mask32.png""],[""img/mask59.png""],[""img/mask36.png""],[""img/mask59.png""],[""img/mask80.png""],[""img/mask36.png""],[""img/mask37.png""],[""img/mask9.png""],[""img/mask86.png""],[""img/mask88.png""],[""img/mask60.png""],[""img/mask28.png""],[""img/mask54.png""],[""img/mask58.png""],[""img/mask47.png""],[""img/mask25.png""],[""img/mask89.png""],[""img/mask75.png""],[""img/mask9.png""],[""img/mask86.png""],[""img/mask51.png""]]]","","[19,0,13,26,25,17,27,32,12,16,35,3,7,22,11,4,5,2,20,6,28,1,31,10,18,15,34,21,8,24,23,33,30,14,9,29]","main","221","many-guess-6"
"","","","","","html-keyboard-response","110","455679","0.0-10.0-1.45","58a202ac66e4640001c52bfd","640759fa512f630a2bdc333d","6408c182ea35d7b036dbc9b7","null","","null","","","","","","","","","","","","","","","","","","","fixation","",""
"","","","","","color-precision2","111","459850","0.0-10.0-0.46-0.46","58a202ac66e4640001c52bfd","640759fa512f630a2bdc333d","6408c182ea35d7b036dbc9b7","[1391.9000000953674]","","","[7]","[281]","281","136","40.95647189009808","[40.95647189009808]","[264.9564718900981]","[263]","0","0","1","0","148.7199999523","997.2609999999986","1000","[[[""img/mask96.png""]]]","","","main","136","color-precision2"
"","","","","","html-keyboard-response","112","460352","0.0-10.0-1.46","58a202ac66e4640001c52bfd","640759fa512f630a2bdc333d","6408c182ea35d7b036dbc9b7","null","","null","","","","","","","","","","","","","","","","","","","fixation","",""
"","","","","","many-guess-6","113","463755","0.0-10.0-0.47-0.47","58a202ac66e4640001c52bfd","640759fa512f630a2bdc333d","6408c182ea35d7b036dbc9b7","[1596.3999998569489]","","","[14,12,31,22,28,27,17,1,7,20,8,6,15,19,11,0,9,34,16,29,25,35,4,33,18,3,23,13,26,30,5,24,2,32,21,10]","[68,137,247,277,327,217,267,88,357,197,107,127,177,227,187,38,117,237,287,98,147,257,78,48,58,167,347,317,337,297,157,28,207,307,18,8]","68","37","340.9816875501244","[340.9816875501244]","[303.9816875501244]","[304]","[300,210,300,30,210,30,120,120,300]","0","36","0","149.52099985693349","15.11899995233398","16","[[[""img/mask31.png""],[""img/mask73.png""],[""img/mask49.png""],[""img/mask13.png""],[""img/mask50.png""],[""img/mask32.png""],[""img/mask62.png""],[""img/mask93.png""],[""img/mask79.png""],[""img/mask13.png""],[""img/mask65.png""],[""img/mask2.png""],[""img/mask89.png""],[""img/mask56.png""],[""img/mask16.png""],[""img/mask82.png""],[""img/mask91.png""],[""img/mask70.png""],[""img/mask24.png""],[""img/mask88.png""],[""img/mask7.png""],[""img/mask28.png""],[""img/mask85.png""],[""img/mask8.png""],[""img/mask3.png""],[""img/mask52.png""],[""img/mask64.png""],[""img/mask61.png""],[""img/mask94.png""],[""img/mask5.png""],[""img/mask93.png""],[""img/mask34.png""],[""img/mask99.png""],[""img/mask76.png""],[""img/mask61.png""],[""img/mask1.png""]]]","","[14,12,31,22,28,27,17,1,7,20,8,6,15,19,11,0,9,34,16,29,25,35,4,33,18,3,23,13,26,30,5,24,2,32,21,10]","main","37","many-guess-6"
"","","","","","html-keyboard-response","114","464256","0.0-10.0-1.47","58a202ac66e4640001c52bfd","640759fa512f630a2bdc333d","6408c182ea35d7b036dbc9b7","null","","null","","","","","","","","","","","","","","","","","","","fixation","",""
"","","","","","color-precision2","115","468843","0.0-10.0-0.48-0.48","58a202ac66e4640001c52bfd","640759fa512f630a2bdc333d","6408c182ea35d7b036dbc9b7","[1768]","","","[4]","[36]","36","283","310.18803631363016","[310.18803631363016]","[27.188036313630164]","[27]","0","0","1","0","148.00699995231116","995.4029998569749","1000","[[[""img/mask35.png""]]]","","","main","283","color-precision2"
"","","","","","html-keyboard-response","116","469345","0.0-10.0-1.48","58a202ac66e4640001c52bfd","640759fa512f630a2bdc333d","6408c182ea35d7b036dbc9b7","null","","null","","","","","","","","","","","","","","","","","","","fixation","",""
"","","","","","color-precision2","117","473687","0.0-10.0-0.49-0.49","58a202ac66e4640001c52bfd","640759fa512f630a2bdc333d","6408c182ea35d7b036dbc9b7","[1679.2999999523163]","","","[23]","[43]","43","58","104.80561854603384","[104.80561854603384]","[46.80561854603384]","[45]","0","0","1","0","148.72999990463722","992.0629999046214","1000","[[[""img/mask97.png""]]]","","","main","58","color-precision2"
"","","","","","html-keyboard-response","118","474190","0.0-10.0-1.49","58a202ac66e4640001c52bfd","640759fa512f630a2bdc333d","6408c182ea35d7b036dbc9b7","null","","null","","","","","","","","","","","","","","","","","","","fixation","",""
"","","","","","many-guess-6","119","478965","0.0-10.0-0.50-0.50","58a202ac66e4640001c52bfd","640759fa512f630a2bdc333d","6408c182ea35d7b036dbc9b7","[2857.100000143051]","","","[29,26,23,8,1,13,35,9,16,0,27,33,18,10,14,4,31,12,5,32,34,3,2,28,25,22,7,20,11,19,6,24,17,30,15,21]","[152,72,172,222,182,232,292,252,112,202,23,212,162,13,102,82,272,33,3,352,342,122,282,52,92,132,242,192,332,302,312,142,322,43,62,262]","152","118","121.83180238360818","[121.83180238360818]","[3.831802383608178]","[2]","[210,300,120,30,30,120,120,30,30]","0","36","0","149.48000004771166","19.027999904647004","16","[[[""img/mask57.png""],[""img/mask45.png""],[""img/mask51.png""],[""img/mask44.png""],[""img/mask73.png""],[""img/mask61.png""],[""img/mask91.png""],[""img/mask43.png""],[""img/mask43.png""],[""img/mask91.png""],[""img/mask41.png""],[""img/mask94.png""],[""img/mask33.png""],[""img/mask88.png""],[""img/mask91.png""],[""img/mask84.png""],[""img/mask58.png""],[""img/mask38.png""],[""img/mask17.png""],[""img/mask77.png""],[""img/mask5.png""],[""img/mask43.png""],[""img/mask9.png""],[""img/mask63.png""],[""img/mask97.png""],[""img/mask69.png""],[""img/mask22.png""],[""img/mask25.png""],[""img/mask53.png""],[""img/mask89.png""],[""img/mask59.png""],[""img/mask77.png""],[""img/mask25.png""],[""img/mask31.png""],[""img/mask96.png""],[""img/mask93.png""]]]","","[29,26,23,8,1,13,35,9,16,0,27,33,18,10,14,4,31,12,5,32,34,3,2,28,25,22,7,20,11,19,6,24,17,30,15,21]","main","118","many-guess-6"
"","","","","","html-keyboard-response","120","479468","0.0-10.0-1.50","58a202ac66e4640001c52bfd","640759fa512f630a2bdc333d","6408c182ea35d7b036dbc9b7","null","","null","","","","","","","","","","","","","","","","","","","fixation","",""
"","","","","","color-precision2","121","483608","0.0-10.0-0.51-0.51","58a202ac66e4640001c52bfd","640759fa512f630a2bdc333d","6408c182ea35d7b036dbc9b7","[933.1999998092651]","","","[34]","[125]","125","151","284.29174134856765","[284.29174134856765]","[133.29174134856765]","[133]","0","0","1","0","148.52300004765857","997.8209999046521","1000","[[[""img/mask88.png""]]]","","","main","151","color-precision2"
"","","","","","html-keyboard-response","122","484110","0.0-10.0-1.51","58a202ac66e4640001c52bfd","640759fa512f630a2bdc333d","6408c182ea35d7b036dbc9b7","null","","null","","","","","","","","","","","","","","","","","","","fixation","",""
"","","","","","color-precision2","123","487496","0.0-10.0-0.52-0.52","58a202ac66e4640001c52bfd","640759fa512f630a2bdc333d","6408c182ea35d7b036dbc9b7","[503.7000000476837]","","","[11]","[48]","48","59","115.59375110233076","[115.59375110233076]","[56.59375110233076]","[55]","0","0","1","0","147.11199990462046","1002.6699999523116","1000","[[[""img/mask88.png""]]]","","","main","59","color-precision2"
"","","","","","html-keyboard-response","124","487998","0.0-10.0-1.52","58a202ac66e4640001c52bfd","640759fa512f630a2bdc333d","6408c182ea35d7b036dbc9b7","null","","null","","","","","","","","","","","","","","","","","","","fixation","",""
"","","","","","color-precision2","125","491252","0.0-10.0-0.53-0.53","58a202ac66e4640001c52bfd","640759fa512f630a2bdc333d","6408c182ea35d7b036dbc9b7","[276.60000014305115]","","","[5]","[325]","325","59","353.08634149642774","[353.08634149642774]","[294.08634149642774]","[293]","0","0","1","0","149.1949999523349","1005.7420000000275","1000","[[[""img/mask97.png""]]]","","","main","59","color-precision2"
"","","","","","html-keyboard-response","126","491754","0.0-10.0-1.53","58a202ac66e4640001c52bfd","640759fa512f630a2bdc333d","6408c182ea35d7b036dbc9b7","null","","null","","","","","","","","","","","","","","","","","","","fixation","",""
"","","","","","many-guess-6","127","495392","0.0-10.0-0.54-0.54","58a202ac66e4640001c52bfd","640759fa512f630a2bdc333d","6408c182ea35d7b036dbc9b7","[1967.2000000476837]","","","[21,22,6,19,25,20,5,4,15,1,0,11,14,12,29,33,35,8,32,26,7,27,17,24,30,28,13,18,16,3,10,23,9,31,2,34]","[337,227,97,207,17,327,107,277,307,167,27,137,77,147,347,117,267,57,127,297,217,247,237,317,287,47,187,157,197,356,37,257,67,177,7,87]","337","55","5.002394332942639","[5.002394332942639]","[310.00239433294263]","[309]","[210,210,210,120,120,120,210,120,120]","0","36","0","149.60399999999208","11.722999999998137","16","[[[""img/mask39.png""],[""img/mask80.png""],[""img/mask7.png""],[""img/mask3.png""],[""img/mask94.png""],[""img/mask73.png""],[""img/mask30.png""],[""img/mask4.png""],[""img/mask64.png""],[""img/mask47.png""],[""img/mask90.png""],[""img/mask5.png""],[""img/mask46.png""],[""img/mask19.png""],[""img/mask19.png""],[""img/mask7.png""],[""img/mask72.png""],[""img/mask26.png""],[""img/mask30.png""],[""img/mask73.png""],[""img/mask63.png""],[""img/mask77.png""],[""img/mask57.png""],[""img/mask32.png""],[""img/mask31.png""],[""img/mask15.png""],[""img/mask3.png""],[""img/mask14.png""],[""img/mask92.png""],[""img/mask67.png""],[""img/mask94.png""],[""img/mask86.png""],[""img/mask68.png""],[""img/mask73.png""],[""img/mask66.png""],[""img/mask36.png""]]]","","[21,22,6,19,25,20,5,4,15,1,0,11,14,12,29,33,35,8,32,26,7,27,17,24,30,28,13,18,16,3,10,23,9,31,2,34]","main","55","many-guess-6"
"","","","","","html-keyboard-response","128","495893","0.0-10.0-1.54","58a202ac66e4640001c52bfd","640759fa512f630a2bdc333d","6408c182ea35d7b036dbc9b7","null","","null","","","","","","","","","","","","","","","","","","","fixation","",""
"","","","","","color-precision2","129","499094","0.0-10.0-0.55-0.55","58a202ac66e4640001c52bfd","640759fa512f630a2bdc333d","6408c182ea35d7b036dbc9b7","[535.4000000953674]","","","[30]","[95]","95","169","263.5321278311884","[263.5321278311884]","[94.5321278311884]","[95]","0","0","1","0","147.80099999997765","998.0729998569586","1000","[[[""img/mask66.png""]]]","","","main","169","color-precision2"
"","","","","","html-keyboard-response","130","499596","0.0-10.0-1.55","58a202ac66e4640001c52bfd","640759fa512f630a2bdc333d","6408c182ea35d7b036dbc9b7","null","","null","","","","","","","","","","","","","","","","","","","fixation","",""
"","","","","","many-guess-6","131","503627","0.0-10.0-0.56-0.56","58a202ac66e4640001c52bfd","640759fa512f630a2bdc333d","6408c182ea35d7b036dbc9b7","[2067.7000000476837]","","","[27,12,18,4,32,1,11,9,31,26,30,21,14,22,33,24,17,3,29,19,6,16,2,7,8,28,0,13,35,34,20,25,10,15,5,23]","[254,175,324,185,165,195,25,304,115,95,65,314,125,224,155,294,15,105,334,85,45,344,264,55,214,284,35,274,135,145,244,234,75,204,5,354]","254","29","318.57565451044366","[318.57565451044366]","[289.57565451044366]","[289]","[300,30,120,120,300,30,120,300,300]","0","36","0","149.34999995230464","19.054999856976792","16","[[[""img/mask86.png""],[""img/mask16.png""],[""img/mask100.png""],[""img/mask10.png""],[""img/mask42.png""],[""img/mask29.png""],[""img/mask12.png""],[""img/mask51.png""],[""img/mask8.png""],[""img/mask36.png""],[""img/mask78.png""],[""img/mask7.png""],[""img/mask6.png""],[""img/mask87.png""],[""img/mask89.png""],[""img/mask92.png""],[""img/mask15.png""],[""img/mask79.png""],[""img/mask16.png""],[""img/mask88.png""],[""img/mask64.png""],[""img/mask42.png""],[""img/mask90.png""],[""img/mask68.png""],[""img/mask2.png""],[""img/mask94.png""],[""img/mask52.png""],[""img/mask16.png""],[""img/mask34.png""],[""img/mask41.png""],[""img/mask57.png""],[""img/mask4.png""],[""img/mask14.png""],[""img/mask38.png""],[""img/mask12.png""],[""img/mask9.png""]]]","","[27,12,18,4,32,1,11,9,31,26,30,21,14,22,33,24,17,3,29,19,6,16,2,7,8,28,0,13,35,34,20,25,10,15,5,23]","main","29","many-guess-6"
"","","","","","html-keyboard-response","132","504129","0.0-10.0-1.56","58a202ac66e4640001c52bfd","640759fa512f630a2bdc333d","6408c182ea35d7b036dbc9b7","null","","null","","","","","","","","","","","","","","","","","","","fixation","",""
"","","","","","many-guess-6","133","508094","0.0-10.0-0.57-0.57","58a202ac66e4640001c52bfd","640759fa512f630a2bdc333d","6408c182ea35d7b036dbc9b7","[2235.600000143051]","","","[1,20,10,13,27,14,24,26,32,18,33,34,12,15,9,30,22,5,2,35,4,0,28,31,25,7,3,29,23,16,11,21,6,17,19,8]","[4,183,134,114,164,283,263,273,34,253,353,313,293,154,124,144,223,104,54,84,343,64,74,14,303,203,94,333,24,44,213,233,323,174,243,193]","4","80","7.268536478005479","[7.268536478005479]","[287.26853647800544]","[286]","[120,210,300,120,300,300,120,300,120]","0","36","0","149.22700004768558","11.351999904611148","16","[[[""img/mask45.png""],[""img/mask43.png""],[""img/mask31.png""],[""img/mask96.png""],[""img/mask72.png""],[""img/mask39.png""],[""img/mask97.png""],[""img/mask7.png""],[""img/mask43.png""],[""img/mask60.png""],[""img/mask52.png""],[""img/mask11.png""],[""img/mask60.png""],[""img/mask11.png""],[""img/mask29.png""],[""img/mask16.png""],[""img/mask14.png""],[""img/mask70.png""],[""img/mask96.png""],[""img/mask81.png""],[""img/mask82.png""],[""img/mask2.png""],[""img/mask31.png""],[""img/mask68.png""],[""img/mask82.png""],[""img/mask93.png""],[""img/mask18.png""],[""img/mask100.png""],[""img/mask58.png""],[""img/mask37.png""],[""img/mask65.png""],[""img/mask71.png""],[""img/mask42.png""],[""img/mask89.png""],[""img/mask5.png""],[""img/mask1.png""]]]","","[1,20,10,13,27,14,24,26,32,18,33,34,12,15,9,30,22,5,2,35,4,0,28,31,25,7,3,29,23,16,11,21,6,17,19,8]","main","80","many-guess-6"
"","","","","","html-keyboard-response","134","508595","0.0-10.0-1.57","58a202ac66e4640001c52bfd","640759fa512f630a2bdc333d","6408c182ea35d7b036dbc9b7","null","","null","","","","","","","","","","","","","","","","","","","fixation","",""
"","","","","","many-guess-6","135","513307","0.0-10.0-0.58-0.58","58a202ac66e4640001c52bfd","640759fa512f630a2bdc333d","6408c182ea35d7b036dbc9b7","[2414.7999999523163]","","","[35,32,33,10,8,28,26,29,14,2,7,15,18,31,6,12,24,1,23,21,22,17,30,9,25,34,20,0,5,3,19,4,27,16,13,11]","[44,34,283,253,353,4,203,24,193,303,84,74,103,323,173,233,263,113,273,313,163,293,223,333,213,64,93,14,183,143,54,243,133,153,343,123]","44","264","175.01997363273327","[175.01997363273327]","[271.01997363273324]","[270]","[120,210,120,30,210,30,120,120,120]","0","36","0","149.048999952327","20.807000047701877","16","[[[""img/mask23.png""],[""img/mask59.png""],[""img/mask34.png""],[""img/mask4.png""],[""img/mask99.png""],[""img/mask82.png""],[""img/mask13.png""],[""img/mask49.png""],[""img/mask29.png""],[""img/mask90.png""],[""img/mask21.png""],[""img/mask68.png""],[""img/mask12.png""],[""img/mask76.png""],[""img/mask47.png""],[""img/mask82.png""],[""img/mask30.png""],[""img/mask32.png""],[""img/mask100.png""],[""img/mask88.png""],[""img/mask53.png""],[""img/mask54.png""],[""img/mask52.png""],[""img/mask52.png""],[""img/mask99.png""],[""img/mask50.png""],[""img/mask78.png""],[""img/mask28.png""],[""img/mask50.png""],[""img/mask34.png""],[""img/mask92.png""],[""img/mask20.png""],[""img/mask31.png""],[""img/mask97.png""],[""img/mask73.png""],[""img/mask37.png""]]]","","[35,32,33,10,8,28,26,29,14,2,7,15,18,31,6,12,24,1,23,21,22,17,30,9,25,34,20,0,5,3,19,4,27,16,13,11]","main","264","many-guess-6"
"","","","","","html-keyboard-response","136","513808","0.0-10.0-1.58","58a202ac66e4640001c52bfd","640759fa512f630a2bdc333d","6408c182ea35d7b036dbc9b7","null","","null","","","","","","","","","","","","","","","","","","","fixation","",""
"","","","","","many-guess-6","137","518394","0.0-10.0-0.59-0.59","58a202ac66e4640001c52bfd","640759fa512f630a2bdc333d","6408c182ea35d7b036dbc9b7","[2685]","","","[31,16,29,8,7,3,30,18,27,15,24,6,33,25,28,10,13,12,4,11,5,14,9,34,17,35,1,22,2,21,26,32,23,19,0,20]","[349,319,79,209,189,70,129,50,199,279,249,10,89,149,219,359,299,99,289,269,169,329,60,339,139,309,259,109,119,239,179,30,20,159,40,229]","349","187","101.00377635023032","[101.00377635023032]","[274.00377635023034]","[272]","[300,300,210,210,30,300,210,300,210]","0","36","0","149.0499999046442","20.1049999523093","16","[[[""img/mask93.png""],[""img/mask52.png""],[""img/mask85.png""],[""img/mask31.png""],[""img/mask61.png""],[""img/mask39.png""],[""img/mask75.png""],[""img/mask53.png""],[""img/mask14.png""],[""img/mask11.png""],[""img/mask66.png""],[""img/mask66.png""],[""img/mask15.png""],[""img/mask94.png""],[""img/mask74.png""],[""img/mask28.png""],[""img/mask20.png""],[""img/mask25.png""],[""img/mask64.png""],[""img/mask100.png""],[""img/mask92.png""],[""img/mask38.png""],[""img/mask92.png""],[""img/mask31.png""],[""img/mask26.png""],[""img/mask12.png""],[""img/mask100.png""],[""img/mask55.png""],[""img/mask53.png""],[""img/mask49.png""],[""img/mask30.png""],[""img/mask69.png""],[""img/mask26.png""],[""img/mask61.png""],[""img/mask67.png""],[""img/mask5.png""]]]","","[31,16,29,8,7,3,30,18,27,15,24,6,33,25,28,10,13,12,4,11,5,14,9,34,17,35,1,22,2,21,26,32,23,19,0,20]","main","187","many-guess-6"
"","","","","","html-keyboard-response","138","521420","0.0-10.0-1.59","58a202ac66e4640001c52bfd","640759fa512f630a2bdc333d","6408c182ea35d7b036dbc9b7","3024.5999999046326","Wow! You've completed 60 out of 180 trials! </p> <p>  </p><p> Take a quick break, then press any key when you're ready to continue."," ","","","","","","","","","","","","","","","","","","","fixation","",""
"","","","","","color-precision2","139","525668","0.0-10.0-0.60-0.60","58a202ac66e4640001c52bfd","640759fa512f630a2bdc333d","6408c182ea35d7b036dbc9b7","[342.90000009536743]","","","[17]","[299]","299","190","113.12450130914407","[113.12450130914407]","[283.1245013091441]","[281]","0","0","1","0","148.01999995228834","991.8469999046065","1000","[[[""img/mask66.png""]]]","","","main","190","color-precision2"
"","","","","","html-keyboard-response","140","526170","0.0-10.0-1.60","58a202ac66e4640001c52bfd","640759fa512f630a2bdc333d","6408c182ea35d7b036dbc9b7","null","","null","","","","","","","","","","","","","","","","","","","fixation","",""
"","","","","","color-precision2","141","530190","0.0-10.0-0.61-0.61","58a202ac66e4640001c52bfd","640759fa512f630a2bdc333d","6408c182ea35d7b036dbc9b7","[947.1000001430511]","","","[19]","[92]","92","84","175.88647334289212","[175.88647334289212]","[91.88647334289212]","[92]","0","0","1","0","147.47399990458507","1006.765999856987","1000","[[[""img/mask65.png""]]]","","","main","84","color-precision2"
"","","","","","html-keyboard-response","142","530693","0.0-10.0-1.61","58a202ac66e4640001c52bfd","640759fa512f630a2bdc333d","6408c182ea35d7b036dbc9b7","null","","null","","","","","","","","","","","","","","","","","","","fixation","",""
"","","","","","color-precision2","143","534129","0.0-10.0-0.62-0.62","58a202ac66e4640001c52bfd","640759fa512f630a2bdc333d","6408c182ea35d7b036dbc9b7","[1070.5]","","","[11]","[195]","195","215","70.11935309673247","[70.11935309673247]","[215.11935309673248]","[213]","0","0","1","0","148.6459998569917","1004.66400004772","1000","[[[""img/mask46.png""]]]","","","main","215","color-precision2"
"","","","","","html-keyboard-response","144","534632","0.0-10.0-1.62","58a202ac66e4640001c52bfd","640759fa512f630a2bdc333d","6408c182ea35d7b036dbc9b7","null","","null","","","","","","","","","","","","","","","","","","","fixation","",""
"","","","","","color-precision2","145","538196","0.0-10.0-0.63-0.63","58a202ac66e4640001c52bfd","640759fa512f630a2bdc333d","6408c182ea35d7b036dbc9b7","[520.0999999046326]","","","[3]","[211]","211","53","279.882482520876","[279.882482520876]","[226.882482520876]","[227]","0","0","1","0","148.59600004763342","1001.6149999522604","1000","[[[""img/mask87.png""]]]","","","main","53","color-precision2"
"","","","","","html-keyboard-response","146","538698","0.0-10.0-1.63","58a202ac66e4640001c52bfd","640759fa512f630a2bdc333d","6408c182ea35d7b036dbc9b7","null","","null","","","","","","","","","","","","","","","","","","","fixation","",""
"","","","","","color-precision2","147","542206","0.0-10.0-0.64-0.64","58a202ac66e4640001c52bfd","640759fa512f630a2bdc333d","6408c182ea35d7b036dbc9b7","[330.09999990463257]","","","[3]","[299]","299","112","38.36598456739088","[38.36598456739088]","[286.3659845673909]","[285]","0","0","1","0","148.74099985696375","1007.4529999046354","1000","[[[""img/mask1.png""]]]","","","main","112","color-precision2"
"","","","","","html-keyboard-response","148","542707","0.0-10.0-1.64","58a202ac66e4640001c52bfd","640759fa512f630a2bdc333d","6408c182ea35d7b036dbc9b7","null","","null","","","","","","","","","","","","","","","","","","","fixation","",""
"","","","","","color-precision2","149","547047","0.0-10.0-0.65-0.65","58a202ac66e4640001c52bfd","640759fa512f630a2bdc333d","6408c182ea35d7b036dbc9b7","[721.5]","","","[32]","[266]","266","253","163.7175512607941","[163.7175512607941]","[270.7175512607941]","[269]","0","0","1","0","148.82199985696934","1007.3219999045832","1000","[[[""img/mask48.png""]]]","","","main","253","color-precision2"
"","","","","","html-keyboard-response","150","547549","0.0-10.0-1.65","58a202ac66e4640001c52bfd","640759fa512f630a2bdc333d","6408c182ea35d7b036dbc9b7","null","","null","","","","","","","","","","","","","","","","","","","fixation","",""
"","","","","","many-guess-6","151","551164","0.0-10.0-0.66-0.66","58a202ac66e4640001c52bfd","640759fa512f630a2bdc333d","6408c182ea35d7b036dbc9b7","[1754.6999998092651]","","","[10,29,12,14,33,16,21,8,20,27,30,25,26,7,17,32,31,24,1,6,3,23,2,0,13,28,9,18,22,11,19,15,34,35,4,5]","[310,359,160,349,90,170,80,290,340,200,260,300,320,40,210,330,240,250,120,70,190,280,20,270,150,230,130,100,60,10,140,30,180,220,50,110]","310","157","55.611389521651404","[55.611389521651404]","[258.6113895216514]","[257]","[300,120,120,120,300,30,210,30,30]","0","36","0","148.3359999046661","17.199999904609285","16","[[[""img/mask64.png""],[""img/mask1.png""],[""img/mask4.png""],[""img/mask93.png""],[""img/mask24.png""],[""img/mask53.png""],[""img/mask9.png""],[""img/mask2.png""],[""img/mask22.png""],[""img/mask78.png""],[""img/mask46.png""],[""img/mask3.png""],[""img/mask30.png""],[""img/mask10.png""],[""img/mask19.png""],[""img/mask18.png""],[""img/mask99.png""],[""img/mask67.png""],[""img/mask66.png""],[""img/mask54.png""],[""img/mask45.png""],[""img/mask63.png""],[""img/mask84.png""],[""img/mask91.png""],[""img/mask4.png""],[""img/mask90.png""],[""img/mask34.png""],[""img/mask64.png""],[""img/mask65.png""],[""img/mask94.png""],[""img/mask3.png""],[""img/mask55.png""],[""img/mask40.png""],[""img/mask49.png""],[""img/mask53.png""],[""img/mask95.png""]]]","","[10,29,12,14,33,16,21,8,20,27,30,25,26,7,17,32,31,24,1,6,3,23,2,0,13,28,9,18,22,11,19,15,34,35,4,5]","main","157","many-guess-6"
"","","","","","html-keyboard-response","152","551665","0.0-10.0-1.66","58a202ac66e4640001c52bfd","640759fa512f630a2bdc333d","6408c182ea35d7b036dbc9b7","null","","null","","","","","","","","","","","","","","","","","","","fixation","",""
"","","","","","many-guess-6","153","560543","0.0-10.0-0.67-0.67","58a202ac66e4640001c52bfd","640759fa512f630a2bdc333d","6408c182ea35d7b036dbc9b7","[6800.599999904633]","","","[7,21,30,11,10,12,3,17,6,27,14,4,8,28,34,25,20,31,26,0,23,15,13,29,1,9,35,19,32,2,33,5,24,18,16,22]","[255,285,325,185,205,55,95,235,145,275,135,245,335,26,215,225,175,75,155,125,165,36,305,315,105,195,295,355,115,85,65,45,265,6,16,345]","255","36","348.63079679699354","[348.63079679699354]","[312.63079679699354]","[312]","[120,120,210,120,300,30,210,300,120]","0","36","0","148.9740000476595","11.382999856956303","16","[[[""img/mask21.png""],[""img/mask45.png""],[""img/mask47.png""],[""img/mask42.png""],[""img/mask46.png""],[""img/mask16.png""],[""img/mask50.png""],[""img/mask90.png""],[""img/mask84.png""],[""img/mask77.png""],[""img/mask74.png""],[""img/mask22.png""],[""img/mask37.png""],[""img/mask57.png""],[""img/mask22.png""],[""img/mask43.png""],[""img/mask100.png""],[""img/mask49.png""],[""img/mask2.png""],[""img/mask40.png""],[""img/mask23.png""],[""img/mask87.png""],[""img/mask88.png""],[""img/mask1.png""],[""img/mask84.png""],[""img/mask38.png""],[""img/mask99.png""],[""img/mask39.png""],[""img/mask51.png""],[""img/mask21.png""],[""img/mask24.png""],[""img/mask3.png""],[""img/mask24.png""],[""img/mask82.png""],[""img/mask29.png""],[""img/mask7.png""]]]","","[7,21,30,11,10,12,3,17,6,27,14,4,8,28,34,25,20,31,26,0,23,15,13,29,1,9,35,19,32,2,33,5,24,18,16,22]","main","36","many-guess-6"
"","","","","","html-keyboard-response","154","561045","0.0-10.0-1.67","58a202ac66e4640001c52bfd","640759fa512f630a2bdc333d","6408c182ea35d7b036dbc9b7","null","","null","","","","","","","","","","","","","","","","","","","fixation","",""
"","","","","","many-guess-6","155","565209","0.0-10.0-0.68-0.68","58a202ac66e4640001c52bfd","640759fa512f630a2bdc333d","6408c182ea35d7b036dbc9b7","[2051]","","","[33,26,23,7,12,24,28,14,21,6,9,3,5,30,2,29,4,27,13,1,15,31,8,11,16,17,19,0,10,22,20,18,34,25,32,35]","[200,339,190,289,130,249,60,180,80,359,279,140,170,259,329,100,230,349,30,40,70,20,299,210,240,309,110,10,160,50,269,150,220,90,120,319]","200","63","316.07474009553613","[316.07474009553613]","[253.07474009553613]","[253]","[120,210,30,30,120,300,30,30,210]","0","36","0","149.19099995226134","23.54899990465492","16","[[[""img/mask5.png""],[""img/mask55.png""],[""img/mask47.png""],[""img/mask75.png""],[""img/mask29.png""],[""img/mask91.png""],[""img/mask70.png""],[""img/mask28.png""],[""img/mask52.png""],[""img/mask32.png""],[""img/mask98.png""],[""img/mask80.png""],[""img/mask4.png""],[""img/mask20.png""],[""img/mask66.png""],[""img/mask51.png""],[""img/mask58.png""],[""img/mask84.png""],[""img/mask51.png""],[""img/mask91.png""],[""img/mask76.png""],[""img/mask17.png""],[""img/mask61.png""],[""img/mask83.png""],[""img/mask67.png""],[""img/mask15.png""],[""img/mask72.png""],[""img/mask26.png""],[""img/mask81.png""],[""img/mask82.png""],[""img/mask98.png""],[""img/mask43.png""],[""img/mask100.png""],[""img/mask67.png""],[""img/mask78.png""],[""img/mask66.png""]]]","","[33,26,23,7,12,24,28,14,21,6,9,3,5,30,2,29,4,27,13,1,15,31,8,11,16,17,19,0,10,22,20,18,34,25,32,35]","main","63","many-guess-6"
"","","","","","html-keyboard-response","156","565712","0.0-10.0-1.68","58a202ac66e4640001c52bfd","640759fa512f630a2bdc333d","6408c182ea35d7b036dbc9b7","null","","null","","","","","","","","","","","","","","","","","","","fixation","",""
"","","","","","color-precision2","157","569905","0.0-10.0-0.69-0.69","58a202ac66e4640001c52bfd","640759fa512f630a2bdc333d","6408c182ea35d7b036dbc9b7","[1147.0999999046326]","","","[7]","[126]","126","2","130.25140436820232","[130.25140436820232]","[128.25140436820232]","[127]","0","0","1","0","147.91399999998976","995.7369999999646","1000","[[[""img/mask77.png""]]]","","","main","2","color-precision2"
"","","","","","html-keyboard-response","158","570407","0.0-10.0-1.69","58a202ac66e4640001c52bfd","640759fa512f630a2bdc333d","6408c182ea35d7b036dbc9b7","null","","null","","","","","","","","","","","","","","","","","","","fixation","",""
"","","","","","many-guess-6","159","574269","0.0-10.0-0.70-0.70","58a202ac66e4640001c52bfd","640759fa512f630a2bdc333d","6408c182ea35d7b036dbc9b7","[2060.5]","","","[23,16,25,28,33,29,13,24,34,0,26,14,35,1,10,17,4,30,7,3,6,8,20,27,22,12,15,18,11,21,19,31,2,5,9,32]","[114,313,144,293,104,193,283,94,203,134,223,213,343,153,44,64,24,323,243,4,273,233,303,333,74,54,84,263,353,14,124,173,34,183,163,253]","114","216","168.263608080611","[168.263608080611]","[312.263608080611]","[311]","[120,120,30,120,300,300,30,210,30]","0","36","0","149.30599995236844","11.477000047685578","16","[[[""img/mask7.png""],[""img/mask4.png""],[""img/mask23.png""],[""img/mask6.png""],[""img/mask62.png""],[""img/mask72.png""],[""img/mask22.png""],[""img/mask28.png""],[""img/mask63.png""],[""img/mask37.png""],[""img/mask9.png""],[""img/mask66.png""],[""img/mask14.png""],[""img/mask88.png""],[""img/mask57.png""],[""img/mask15.png""],[""img/mask22.png""],[""img/mask90.png""],[""img/mask81.png""],[""img/mask48.png""],[""img/mask68.png""],[""img/mask59.png""],[""img/mask28.png""],[""img/mask34.png""],[""img/mask71.png""],[""img/mask3.png""],[""img/mask98.png""],[""img/mask57.png""],[""img/mask20.png""],[""img/mask56.png""],[""img/mask21.png""],[""img/mask67.png""],[""img/mask31.png""],[""img/mask97.png""],[""img/mask10.png""],[""img/mask83.png""]]]","","[23,16,25,28,33,29,13,24,34,0,26,14,35,1,10,17,4,30,7,3,6,8,20,27,22,12,15,18,11,21,19,31,2,5,9,32]","main","216","many-guess-6"
"","","","","","html-keyboard-response","160","574770","0.0-10.0-1.70","58a202ac66e4640001c52bfd","640759fa512f630a2bdc333d","6408c182ea35d7b036dbc9b7","null","","null","","","","","","","","","","","","","","","","","","","fixation","",""
"","","","","","color-precision2","161","578535","0.0-10.0-0.71-0.71","58a202ac66e4640001c52bfd","640759fa512f630a2bdc333d","6408c182ea35d7b036dbc9b7","[926.2999999523163]","","","[11]","[81]","81","258","354.8935435718325","[354.8935435718325]","[96.89354357183248]","[96]","0","0","1","0","149.33000004768837","1007.1940000476316","1000","[[[""img/mask62.png""]]]","","","main","258","color-precision2"
"","","","","","html-keyboard-response","162","579037","0.0-10.0-1.71","58a202ac66e4640001c52bfd","640759fa512f630a2bdc333d","6408c182ea35d7b036dbc9b7","null","","null","","","","","","","","","","","","","","","","","","","fixation","",""
"","","","","","many-guess-6","163","583369","0.0-10.0-0.72-0.72","58a202ac66e4640001c52bfd","640759fa512f630a2bdc333d","6408c182ea35d7b036dbc9b7","[2243.600000143051]","","","[26,28,29,33,16,22,9,10,19,11,31,35,27,0,2,14,24,7,18,23,30,21,8,12,17,1,6,25,32,3,34,5,15,4,13,20]","[102,251,172,311,241,261,222,52,32,281,321,22,331,192,72,212,122,12,142,341,42,271,92,112,202,351,132,2,291,182,301,62,162,152,232,82]","102","247","176.82888880823077","[176.82888880823077]","[289.8288888082308]","[289]","[300,120,210,300,120,30,300,210,300]","0","36","0","148.94500004767906","25.11199990462046","16","[[[""img/mask23.png""],[""img/mask85.png""],[""img/mask31.png""],[""img/mask18.png""],[""img/mask94.png""],[""img/mask82.png""],[""img/mask52.png""],[""img/mask86.png""],[""img/mask23.png""],[""img/mask36.png""],[""img/mask73.png""],[""img/mask70.png""],[""img/mask90.png""],[""img/mask18.png""],[""img/mask100.png""],[""img/mask51.png""],[""img/mask45.png""],[""img/mask82.png""],[""img/mask97.png""],[""img/mask59.png""],[""img/mask95.png""],[""img/mask97.png""],[""img/mask69.png""],[""img/mask82.png""],[""img/mask90.png""],[""img/mask77.png""],[""img/mask10.png""],[""img/mask42.png""],[""img/mask10.png""],[""img/mask15.png""],[""img/mask49.png""],[""img/mask62.png""],[""img/mask87.png""],[""img/mask18.png""],[""img/mask81.png""],[""img/mask76.png""]]]","","[26,28,29,33,16,22,9,10,19,11,31,35,27,0,2,14,24,7,18,23,30,21,8,12,17,1,6,25,32,3,34,5,15,4,13,20]","main","247","many-guess-6"
"","","","","","html-keyboard-response","164","583872","0.0-10.0-1.72","58a202ac66e4640001c52bfd","640759fa512f630a2bdc333d","6408c182ea35d7b036dbc9b7","null","","null","","","","","","","","","","","","","","","","","","","fixation","",""
"","","","","","color-precision2","165","587203","0.0-10.0-0.73-0.73","58a202ac66e4640001c52bfd","640759fa512f630a2bdc333d","6408c182ea35d7b036dbc9b7","[594.0999999046326]","","","[14]","[35]","35","215","236.97720826470848","[236.97720826470848]","[21.97720826470848]","[22]","0","0","1","0","148.7720000477275","1006.8800000000047","1000","[[[""img/mask46.png""]]]","","","main","215","color-precision2"
"","","","","","html-keyboard-response","166","587705","0.0-10.0-1.73","58a202ac66e4640001c52bfd","640759fa512f630a2bdc333d","6408c182ea35d7b036dbc9b7","null","","null","","","","","","","","","","","","","","","","","","","fixation","",""
"","","","","","many-guess-6","167","592310","0.0-10.0-0.74-0.74","58a202ac66e4640001c52bfd","640759fa512f630a2bdc333d","6408c182ea35d7b036dbc9b7","[2368]","","","[1,20,22,26,15,33,21,17,16,35,0,27,3,9,34,32,2,29,4,25,19,14,23,30,6,28,11,18,12,10,5,7,13,8,31,24]","[5,164,94,104,314,25,55,144,124,194,15,244,134,184,75,284,234,354,65,174,254,264,214,334,154,204,224,84,304,294,324,344,274,45,35,114]","5","13","34.84092618853402","[34.84092618853402]","[21.84092618853402]","[20]","[120,120,210,30,120,300,120,30,210]","0","36","0","149.30499995232094","13.903999999980442","16","[[[""img/mask14.png""],[""img/mask61.png""],[""img/mask15.png""],[""img/mask62.png""],[""img/mask81.png""],[""img/mask60.png""],[""img/mask37.png""],[""img/mask93.png""],[""img/mask13.png""],[""img/mask99.png""],[""img/mask66.png""],[""img/mask89.png""],[""img/mask93.png""],[""img/mask33.png""],[""img/mask28.png""],[""img/mask2.png""],[""img/mask97.png""],[""img/mask89.png""],[""img/mask82.png""],[""img/mask20.png""],[""img/mask38.png""],[""img/mask97.png""],[""img/mask82.png""],[""img/mask6.png""],[""img/mask33.png""],[""img/mask31.png""],[""img/mask59.png""],[""img/mask22.png""],[""img/mask6.png""],[""img/mask31.png""],[""img/mask9.png""],[""img/mask10.png""],[""img/mask47.png""],[""img/mask83.png""],[""img/mask88.png""],[""img/mask34.png""]]]","","[1,20,22,26,15,33,21,17,16,35,0,27,3,9,34,32,2,29,4,25,19,14,23,30,6,28,11,18,12,10,5,7,13,8,31,24]","main","13","many-guess-6"
"","","","","","html-keyboard-response","168","592813","0.0-10.0-1.74","58a202ac66e4640001c52bfd","640759fa512f630a2bdc333d","6408c182ea35d7b036dbc9b7","null","","null","","","","","","","","","","","","","","","","","","","fixation","",""
