"success","timeout","failed_images","failed_audio","failed_video","trial_type","trial_index","time_elapsed","internal_node_id","subject_id","study_id","session_id","rt","stimulus","response","position_of_items","colors_of_items","color_of_target","wheel_spin","response_angle","physical_response_angle","reported_color_angle","reported_color_discrete","locs","which_test","set_size","wheel_num_options","actual_mask_duration","actual_stim_duration","CMDispTime","maskArray","maskRotation","item_positions","task","randomSpinAmount","mainTask"
"true","false","[]","[]","[]","preload","0","1579","0.0-0.0","5adeb4e9f6b58c0001fa70aa","640759fa512f630a2bdc333d","64077cd966c0c0692f83a07d","","","","","","","","","","","","","","","","","","","","","","","",""
"true","","","","","fullscreen","1","131601","0.0-1.0","5adeb4e9f6b58c0001fa70aa","640759fa512f630a2bdc333d","64077cd966c0c0692f83a07d","","","","","","","","","","","","","","","","","","","","","","","",""
"","","","","","html-keyboard-response","2","137421","0.0-2.0","5adeb4e9f6b58c0001fa70aa","640759fa512f630a2bdc333d","64077cd966c0c0692f83a07d","5819.300000011921","What a beautiful Tuesday to do some awesome science! </p> <p>  </p><p> </p>
    By completing this survey or questionnaire, you are consenting to be in this research study. </p>
    Your participation is voluntary and you can stop at any time.<p> [Press any key to continue] </p>"," ","","","","","","","","","","","","","","","","","","","","",""
"","","","","","html-keyboard-response","3","147426","0.0-3.0","5adeb4e9f6b58c0001fa70aa","640759fa512f630a2bdc333d","64077cd966c0c0692f83a07d","8235.10000000894","
    <div style='width: 1000px;'>
    <div style='float: center;'><img src='img/TaskInstructions1.png'></img>
    </div>
    "," ","","","","","","","","","","","","","","","","","","","","",""
"","","","","","html-keyboard-response","4","148856","0.0-4.0","5adeb4e9f6b58c0001fa70aa","640759fa512f630a2bdc333d","64077cd966c0c0692f83a07d","1429.9000000059605","
    <div style='width: 1000px;'>
    <div style='float: center;'><img src='img/TaskInstructions1.png'></img>
    </div>
    ","g","","","","","","","","","","","","","","","","","","","","",""
"","","","","","html-keyboard-response","5","158862","0.0-5.0","5adeb4e9f6b58c0001fa70aa","640759fa512f630a2bdc333d","64077cd966c0c0692f83a07d","null","
    <div style='width: 1000px;'>
    <div style='float: center;'><img src='img/TaskInstructions2.png'></img>
    </div>
    ","null","","","","","","","","","","","","","","","","","","","","",""
"","","","","","html-keyboard-response","6","160506","0.0-6.0","5adeb4e9f6b58c0001fa70aa","640759fa512f630a2bdc333d","64077cd966c0c0692f83a07d","1643.4000000059605","
    <div style='width: 1000px;'>
    <div style='float: center;'><img src='img/TaskInstructions2.png'></img>
    </div>
    ","g","","","","","","","","","","","","","","","","","","","","",""
"","","","","","video-keyboard-response","7","183908","0.0-7.0","5adeb4e9f6b58c0001fa70aa","640759fa512f630a2bdc333d","64077cd966c0c0692f83a07d","23399.40000000596","[""video/TaskInstructions3.mp4""]","a","","","","","","","","","","","","","","","","","","","","",""
"","","","","","image-keyboard-response","8","189172","0.0-8.0-0.0","5adeb4e9f6b58c0001fa70aa","640759fa512f630a2bdc333d","64077cd966c0c0692f83a07d","5263.70000000298","img/training1.png","a","","","","","","","","","","","","","","","","","","","","",""
"","","","","","color-precision2","9","196645","0.0-8.0-1.0-0.0","5adeb4e9f6b58c0001fa70aa","640759fa512f630a2bdc333d","64077cd966c0c0692f83a07d","[1072]","","","[27]","[51]","51","128","183.2167070056554","[183.2167070056554]","[55.216707005655394]","[54]","0","0","1","0","500.1419999910577","999.6699999940465","1000","","","0","training","",""
"","","","","","image-keyboard-response","10","200468","0.0-8.0-0.1","5adeb4e9f6b58c0001fa70aa","640759fa512f630a2bdc333d","64077cd966c0c0692f83a07d","3822.199999988079","img/training2.png"," ","","","","","","","","","","","","","","","","","","","","",""
"","","","","","many-guess-6","11","209109","0.0-8.0-1.1-0.1","5adeb4e9f6b58c0001fa70aa","640759fa512f630a2bdc333d","64077cd966c0c0692f83a07d","[2578.5999999940395]","","","[22,3,27]","[26,158,139]","26","202","223.19539783951555","[223.19539783951555]","[21.19539783951555]","[21]","[120,300,120,210,210,300,210,120,120,300,30,300,210,30,300,30,210,30,300,120,210,120,120,300,210,210,300,30,30,210,210,30,120,30,120,120]","0","3","0","1000.7499999940337","1000.9629999999888","1000","[[[""img/mask9.png""],[""img/mask22.png""],[""img/mask92.png""]]]","","[22,3,27]","training","",""
"","","","","","image-keyboard-response","12","212595","0.0-8.0-0.2","5adeb4e9f6b58c0001fa70aa","640759fa512f630a2bdc333d","64077cd966c0c0692f83a07d","3486.2999999970198","img/training3.png"," ","","","","","","","","","","","","","","","","","","","","",""
"","","","","","[""many-guess-6""]","13","218213","0.0-8.0-1.2-0.2","5adeb4e9f6b58c0001fa70aa","640759fa512f630a2bdc333d","64077cd966c0c0692f83a07d","[2240.5999999940395]","","","[1,35,34,3,9]","[251,234,119,78,170]","251","174","340.636186664945","[340.636186664945]","[166.636186664945]","[166]","[210,300,300,210,120,30,210,30,30,120,210,210,30,210,300,30,210,300,300,210,120,300,120,300,120,120,120,300,120,30,30,300,30,30,120,210]","0","5","0","500.32699999702163","498.3509999999951","500","[[[""img/mask21.png""],[""img/mask80.png""],[""img/mask40.png""],[""img/mask52.png""],[""img/mask98.png""]]]","","[1,35,34,3,9]","training","",""
"","","","","","image-keyboard-response","14","222787","0.0-8.0-0.3","5adeb4e9f6b58c0001fa70aa","640759fa512f630a2bdc333d","64077cd966c0c0692f83a07d","4573.399999991059","img/training4.png"," ","","","","","","","","","","","","","","","","","","","","",""
"","","","","","[""many-guess-6""]","15","227249","0.0-8.0-1.3-0.3","5adeb4e9f6b58c0001fa70aa","640759fa512f630a2bdc333d","64077cd966c0c0692f83a07d","[1449.7000000029802]","","","[2,0,18,3,19,4,11,23,13,28]","[349,148,129,2,72,108,28,43,325,86]","349","288","35.47428165806921","[35.47428165806921]","[107.4742816580692]","[106]","[210,210,30,30,120,120,30,300,210,30,300,30,300,300,120,30,300,30,300,210,300,30,210,120,300,210,120,120,300,210,210,30,300,300,300,30]","0","10","0","133.21299999405164","131.87099999104976","132","[[[""img/mask22.png""],[""img/mask69.png""],[""img/mask82.png""],[""img/mask16.png""],[""img/mask41.png""],[""img/mask40.png""],[""img/mask37.png""],[""img/mask67.png""],[""img/mask28.png""],[""img/mask51.png""]]]","","[2,0,18,3,19,4,11,23,13,28]","training","",""
"","","","","","image-keyboard-response","16","232283","0.0-8.0-0.4","5adeb4e9f6b58c0001fa70aa","640759fa512f630a2bdc333d","64077cd966c0c0692f83a07d","5033.5","img/training5.png"," ","","","","","","","","","","","","","","","","","","","","",""
"","","","","","[""many-guess-6""]","17","236324","0.0-8.0-1.4-0.4","5adeb4e9f6b58c0001fa70aa","640759fa512f630a2bdc333d","64077cd966c0c0692f83a07d","[1415.2999999970198]","","","[33,0,35,6,9,8,11,34,28,10,21,32,22,17,16,12,14,5,27,18,2,25,3,26,4,31,15,23,24,29,13,7,20,1,19,30]","[185,36,205,305,275,285,106,345,16,215,136,355,315,195,225,255,166,6,66,325,335,116,295,76,176,46,146,245,86,26,235,156,265,126,96,56]","185","314","152.25389101254186","[152.25389101254186]","[198.25389101254186]","[197]","[300,210,30,210,300,210,30,30,30,210,120,300,210,210,120,120,300,210,120,300,30,300,210,300,300,300,30,210,120,30,210,210,210,300,30,210]","0","36","0","133.23299999107257","14.201999999990221","16","[[[""img/mask57.png""],[""img/mask2.png""],[""img/mask48.png""],[""img/mask78.png""],[""img/mask46.png""],[""img/mask53.png""],[""img/mask2.png""],[""img/mask64.png""],[""img/mask79.png""],[""img/mask48.png""],[""img/mask37.png""],[""img/mask1.png""],[""img/mask49.png""],[""img/mask93.png""],[""img/mask60.png""],[""img/mask77.png""],[""img/mask19.png""],[""img/mask88.png""],[""img/mask26.png""],[""img/mask79.png""],[""img/mask22.png""],[""img/mask72.png""],[""img/mask70.png""],[""img/mask28.png""],[""img/mask36.png""],[""img/mask47.png""],[""img/mask5.png""],[""img/mask90.png""],[""img/mask14.png""],[""img/mask18.png""],[""img/mask80.png""],[""img/mask68.png""],[""img/mask13.png""],[""img/mask86.png""],[""img/mask78.png""],[""img/mask56.png""]]]","","[33,0,35,6,9,8,11,34,28,10,21,32,22,17,16,12,14,5,27,18,2,25,3,26,4,31,15,23,24,29,13,7,20,1,19,30]","training","",""
"","","","","","image-keyboard-response","18","238223","0.0-9.0","5adeb4e9f6b58c0001fa70aa","640759fa512f630a2bdc333d","64077cd966c0c0692f83a07d","1898.4000000059605","[""img/endTraining.png""]"," ","","","","","","","","","","","","","","","","","","","","",""
"","","","","","html-keyboard-response","19","238724","0.0-10.0-0.0","5adeb4e9f6b58c0001fa70aa","640759fa512f630a2bdc333d","64077cd966c0c0692f83a07d","null","","null","","","","","","","","","","","","","","","","","","","fixation","",""
"","","","","","color-precision2","20","243235","0.0-10.0-1.0-0.0","5adeb4e9f6b58c0001fa70aa","640759fa512f630a2bdc333d","64077cd966c0c0692f83a07d","[1365]","","","[21]","[87]","87","82","147.34213377189275","[147.34213377189275]","[65.34213377189275]","[64]","0","0","1","0","149.73699998809025","1000.7129999999888","1000","[[[""img/mask87.png""]]]","","","main","82","color-precision2"
"","","","","","html-keyboard-response","21","243738","0.0-10.0-0.1","5adeb4e9f6b58c0001fa70aa","640759fa512f630a2bdc333d","64077cd966c0c0692f83a07d","null","","null","","","","","","","","","","","","","","","","","","","fixation","",""
"","","","","","color-precision2","22","247236","0.0-10.0-1.1-0.1","5adeb4e9f6b58c0001fa70aa","640759fa512f630a2bdc333d","64077cd966c0c0692f83a07d","[607.9000000059605]","","","[18]","[45]","45","155","189.88287441566854","[189.88287441566854]","[34.88287441566854]","[34]","0","0","1","0","149.8069999970321","998.2909999940312","1000","[[[""img/mask35.png""]]]","","","main","155","color-precision2"
"","","","","","html-keyboard-response","23","247750","0.0-10.0-0.2","5adeb4e9f6b58c0001fa70aa","640759fa512f630a2bdc333d","64077cd966c0c0692f83a07d","null","","null","","","","","","","","","","","","","","","","","","","fixation","",""
"","","","","","many-guess-6","24","251907","0.0-10.0-1.2-0.2","5adeb4e9f6b58c0001fa70aa","640759fa512f630a2bdc333d","64077cd966c0c0692f83a07d","[1341.5]","","","[15,29,7,4,12,22,0,1,14,3,23,16,17,13,28,5,27,10,11,24,8,6,19,26,9,18,34,25,20,35,31,21,33,30,2,32]","[298,357,218,278,288,348,328,38,238,128,258,48,338,98,228,18,78,188,268,118,158,108,138,198,208,308,168,8,58,318,148,28,68,178,248,88]","298","143","48.74111498865471","[48.74111498865471]","[265.7411149886547]","[264]","[30,300,120,210,120,210,30,300,30]","0","36","0","149.91999999404652","16.502000000007683","16","[[[""img/mask77.png""],[""img/mask79.png""],[""img/mask26.png""],[""img/mask17.png""],[""img/mask8.png""],[""img/mask59.png""],[""img/mask21.png""],[""img/mask99.png""],[""img/mask48.png""],[""img/mask89.png""],[""img/mask60.png""],[""img/mask87.png""],[""img/mask2.png""],[""img/mask51.png""],[""img/mask70.png""],[""img/mask13.png""],[""img/mask99.png""],[""img/mask77.png""],[""img/mask21.png""],[""img/mask98.png""],[""img/mask1.png""],[""img/mask47.png""],[""img/mask77.png""],[""img/mask90.png""],[""img/mask77.png""],[""img/mask54.png""],[""img/mask4.png""],[""img/mask97.png""],[""img/mask11.png""],[""img/mask41.png""],[""img/mask96.png""],[""img/mask66.png""],[""img/mask67.png""],[""img/mask17.png""],[""img/mask9.png""],[""img/mask77.png""]]]","","[15,29,7,4,12,22,0,1,14,3,23,16,17,13,28,5,27,10,11,24,8,6,19,26,9,18,34,25,20,35,31,21,33,30,2,32]","main","143","many-guess-6"
"","","","","","html-keyboard-response","25","252417","0.0-10.0-0.3","5adeb4e9f6b58c0001fa70aa","640759fa512f630a2bdc333d","64077cd966c0c0692f83a07d","null","","null","","","","","","","","","","","","","","","","","","","fixation","",""
"","","","","","many-guess-6","26","255857","0.0-10.0-1.3-0.3","5adeb4e9f6b58c0001fa70aa","640759fa512f630a2bdc333d","64077cd966c0c0692f83a07d","[1408.3999999910593]","","","[10,5,21,4,25,26,20,16,32,35,33,6,8,34,31,24,7,18,19,17,0,29,9,28,2,1,12,30,22,13,15,3,14,27,23,11]","[219,249,40,110,299,229,100,50,289,20,130,160,279,339,60,70,359,179,349,309,80,259,90,199,319,189,170,10,329,30,150,269,239,120,209,140]","219","213","106.95536460888209","[106.95536460888209]","[253.9553646088821]","[252]","[210,300,300,30,30,210,210,120,120]","0","36","0","150.00999999404303","17.191999994043726","16","[[[""img/mask67.png""],[""img/mask27.png""],[""img/mask1.png""],[""img/mask97.png""],[""img/mask4.png""],[""img/mask69.png""],[""img/mask67.png""],[""img/mask23.png""],[""img/mask35.png""],[""img/mask92.png""],[""img/mask40.png""],[""img/mask77.png""],[""img/mask72.png""],[""img/mask87.png""],[""img/mask59.png""],[""img/mask7.png""],[""img/mask76.png""],[""img/mask66.png""],[""img/mask84.png""],[""img/mask69.png""],[""img/mask1.png""],[""img/mask92.png""],[""img/mask46.png""],[""img/mask64.png""],[""img/mask26.png""],[""img/mask39.png""],[""img/mask95.png""],[""img/mask16.png""],[""img/mask22.png""],[""img/mask46.png""],[""img/mask40.png""],[""img/mask40.png""],[""img/mask26.png""],[""img/mask77.png""],[""img/mask36.png""],[""img/mask57.png""]]]","","[10,5,21,4,25,26,20,16,32,35,33,6,8,34,31,24,7,18,19,17,0,29,9,28,2,1,12,30,22,13,15,3,14,27,23,11]","main","213","many-guess-6"
"","","","","","html-keyboard-response","27","256358","0.0-10.0-0.4","5adeb4e9f6b58c0001fa70aa","640759fa512f630a2bdc333d","64077cd966c0c0692f83a07d","null","","null","","","","","","","","","","","","","","","","","","","fixation","",""
"","","","","","color-precision2","28","260093","0.0-10.0-1.4-0.4","5adeb4e9f6b58c0001fa70aa","640759fa512f630a2bdc333d","64077cd966c0c0692f83a07d","[1131.5999999940395]","","","[33]","[133]","133","344","130.67575563438342","[130.67575563438342]","[146.67575563438342]","[145]","0","0","1","0","149.90899999404792","998.2899999970105","1000","[[[""img/mask35.png""]]]","","","main","344","color-precision2"
"","","","","","html-keyboard-response","29","260594","0.0-10.0-0.5","5adeb4e9f6b58c0001fa70aa","640759fa512f630a2bdc333d","64077cd966c0c0692f83a07d","null","","null","","","","","","","","","","","","","","","","","","","fixation","",""
"","","","","","many-guess-6","30","263746","0.0-10.0-1.5-0.5","5adeb4e9f6b58c0001fa70aa","640759fa512f630a2bdc333d","64077cd966c0c0692f83a07d","[1289.0999999940395]","","","[10,33,35,18,4,22,1,25,32,24,16,12,8,7,27,23,20,13,21,29,34,5,19,17,15,26,9,30,31,0,14,6,2,11,3,28]","[104,113,4,14,153,243,333,133,323,143,54,283,313,34,74,64,94,353,273,163,183,84,263,173,123,303,253,223,293,213,24,233,343,193,203,44]","104","154","241.95123202416477","[241.95123202416477]","[87.95123202416477]","[88]","[210,120,30,30,210,120,30,120,300]","0","36","0","150","16.207999999984168","16","[[[""img/mask86.png""],[""img/mask73.png""],[""img/mask61.png""],[""img/mask57.png""],[""img/mask23.png""],[""img/mask35.png""],[""img/mask18.png""],[""img/mask43.png""],[""img/mask6.png""],[""img/mask63.png""],[""img/mask10.png""],[""img/mask89.png""],[""img/mask74.png""],[""img/mask88.png""],[""img/mask94.png""],[""img/mask19.png""],[""img/mask98.png""],[""img/mask78.png""],[""img/mask97.png""],[""img/mask74.png""],[""img/mask57.png""],[""img/mask46.png""],[""img/mask34.png""],[""img/mask33.png""],[""img/mask89.png""],[""img/mask39.png""],[""img/mask51.png""],[""img/mask56.png""],[""img/mask11.png""],[""img/mask82.png""],[""img/mask81.png""],[""img/mask89.png""],[""img/mask13.png""],[""img/mask59.png""],[""img/mask56.png""],[""img/mask93.png""]]]","","[10,33,35,18,4,22,1,25,32,24,16,12,8,7,27,23,20,13,21,29,34,5,19,17,15,26,9,30,31,0,14,6,2,11,3,28]","main","154","many-guess-6"
"","","","","","html-keyboard-response","31","264247","0.0-10.0-0.6","5adeb4e9f6b58c0001fa70aa","640759fa512f630a2bdc333d","64077cd966c0c0692f83a07d","null","","null","","","","","","","","","","","","","","","","","","","fixation","",""
"","","","","","many-guess-6","32","266979","0.0-10.0-1.6-0.6","5adeb4e9f6b58c0001fa70aa","640759fa512f630a2bdc333d","64077cd966c0c0692f83a07d","[1143.5]","","","[21,12,22,20,8,30,5,27,32,3,26,0,9,18,10,34,2,16,31,6,15,13,14,33,28,23,29,17,19,7,24,11,4,35,1,25]","[139,319,20,189,269,359,129,169,149,10,289,89,39,109,329,29,219,119,309,79,249,159,299,59,99,199,209,349,179,49,239,229,339,69,259,279]","139","118","218.3326265139991","[218.3326265139991]","[100.33262651399909]","[100]","[210,300,300,210,300,120,300,210,300]","0","36","0","149.920999999973","15.09499999997206","16","[[[""img/mask53.png""],[""img/mask79.png""],[""img/mask90.png""],[""img/mask65.png""],[""img/mask33.png""],[""img/mask33.png""],[""img/mask76.png""],[""img/mask8.png""],[""img/mask17.png""],[""img/mask56.png""],[""img/mask61.png""],[""img/mask10.png""],[""img/mask34.png""],[""img/mask36.png""],[""img/mask49.png""],[""img/mask42.png""],[""img/mask80.png""],[""img/mask56.png""],[""img/mask38.png""],[""img/mask22.png""],[""img/mask13.png""],[""img/mask63.png""],[""img/mask94.png""],[""img/mask80.png""],[""img/mask9.png""],[""img/mask64.png""],[""img/mask49.png""],[""img/mask77.png""],[""img/mask8.png""],[""img/mask100.png""],[""img/mask47.png""],[""img/mask42.png""],[""img/mask31.png""],[""img/mask37.png""],[""img/mask7.png""],[""img/mask29.png""]]]","","[21,12,22,20,8,30,5,27,32,3,26,0,9,18,10,34,2,16,31,6,15,13,14,33,28,23,29,17,19,7,24,11,4,35,1,25]","main","118","many-guess-6"
"","","","","","html-keyboard-response","33","267479","0.0-10.0-0.7","5adeb4e9f6b58c0001fa70aa","640759fa512f630a2bdc333d","64077cd966c0c0692f83a07d","null","","null","","","","","","","","","","","","","","","","","","","fixation","",""
"","","","","","color-precision2","34","270709","0.0-10.0-1.7-0.7","5adeb4e9f6b58c0001fa70aa","640759fa512f630a2bdc333d","64077cd966c0c0692f83a07d","[719.2000000029802]","","","[4]","[50]","50","85","130.45069098357123","[130.45069098357123]","[45.450690983571235]","[44]","0","0","1","0","149.7179999940563","998.893999994034","1000","[[[""img/mask22.png""]]]","","","main","85","color-precision2"
"","","","","","html-keyboard-response","35","271210","0.0-10.0-0.8","5adeb4e9f6b58c0001fa70aa","640759fa512f630a2bdc333d","64077cd966c0c0692f83a07d","null","","null","","","","","","","","","","","","","","","","","","","fixation","",""
"","","","","","many-guess-6","36","274994","0.0-10.0-1.8-0.8","5adeb4e9f6b58c0001fa70aa","640759fa512f630a2bdc333d","64077cd966c0c0692f83a07d","[1096.0999999940395]","","","[2,32,21,12,7,28,4,11,16,6,29,10,8,13,20,31,17,22,18,30,33,5,27,24,25,34,19,26,35,23,9,0,15,1,14,3]","[108,168,18,237,68,257,327,148,307,178,247,337,138,208,98,128,118,287,78,267,188,317,38,28,218,198,228,297,48,347,8,158,357,88,58,277]","108","140","184.1140029868899","[184.1140029868899]","[44.114002986889886]","[43]","[300,210,300,300,210,30,300,120,30]","0","36","0","149.92899998807115","13.916000000026543","16","[[[""img/mask8.png""],[""img/mask28.png""],[""img/mask21.png""],[""img/mask96.png""],[""img/mask16.png""],[""img/mask63.png""],[""img/mask15.png""],[""img/mask56.png""],[""img/mask43.png""],[""img/mask10.png""],[""img/mask60.png""],[""img/mask84.png""],[""img/mask15.png""],[""img/mask60.png""],[""img/mask70.png""],[""img/mask32.png""],[""img/mask15.png""],[""img/mask32.png""],[""img/mask21.png""],[""img/mask6.png""],[""img/mask24.png""],[""img/mask76.png""],[""img/mask44.png""],[""img/mask38.png""],[""img/mask29.png""],[""img/mask13.png""],[""img/mask15.png""],[""img/mask4.png""],[""img/mask7.png""],[""img/mask40.png""],[""img/mask2.png""],[""img/mask79.png""],[""img/mask82.png""],[""img/mask10.png""],[""img/mask98.png""],[""img/mask29.png""]]]","","[2,32,21,12,7,28,4,11,16,6,29,10,8,13,20,31,17,22,18,30,33,5,27,24,25,34,19,26,35,23,9,0,15,1,14,3]","main","140","many-guess-6"
"","","","","","html-keyboard-response","37","275495","0.0-10.0-0.9","5adeb4e9f6b58c0001fa70aa","640759fa512f630a2bdc333d","64077cd966c0c0692f83a07d","null","","null","","","","","","","","","","","","","","","","","","","fixation","",""
"","","","","","color-precision2","38","278342","0.0-10.0-1.9-0.9","5adeb4e9f6b58c0001fa70aa","640759fa512f630a2bdc333d","64077cd966c0c0692f83a07d","[556.7999999970198]","","","[30]","[10]","10","6","359.5009942023861","[359.5009942023861]","[353.5009942023861]","[353]","0","0","1","0","149.99300000001676","998.2709999940125","1000","[[[""img/mask94.png""]]]","","","main","6","color-precision2"
"","","","","","html-keyboard-response","39","278842","0.0-10.0-0.10","5adeb4e9f6b58c0001fa70aa","640759fa512f630a2bdc333d","64077cd966c0c0692f83a07d","null","","null","","","","","","","","","","","","","","","","","","","fixation","",""
"","","","","","color-precision2","40","282252","0.0-10.0-1.10-0.10","5adeb4e9f6b58c0001fa70aa","640759fa512f630a2bdc333d","64077cd966c0c0692f83a07d","[579.3999999910593]","","","[32]","[235]","235","315","193.55401200262742","[193.55401200262742]","[238.55401200262742]","[239]","0","0","1","0","149.85799999401206","998.3329999910784","1000","[[[""img/mask79.png""]]]","","","main","315","color-precision2"
"","","","","","html-keyboard-response","41","282752","0.0-10.0-0.11","5adeb4e9f6b58c0001fa70aa","640759fa512f630a2bdc333d","64077cd966c0c0692f83a07d","null","","null","","","","","","","","","","","","","","","","","","","fixation","",""
"","","","","","many-guess-6","42","286340","0.0-10.0-1.11-0.11","5adeb4e9f6b58c0001fa70aa","640759fa512f630a2bdc333d","64077cd966c0c0692f83a07d","[2089.7999999970198]","","","[6,0,15,21,11,20,17,26,1,32,31,12,22,14,24,27,28,7,13,30,8,25,9,10,23,2,29,5,3,18,35,16,19,34,33,4]","[243,323,313,273,84,223,4,104,64,233,124,24,44,74,253,213,353,193,94,183,333,263,173,114,144,54,203,293,14,34,134,154,303,164,283,343]","243","182","232.4584000352902","[232.4584000352902]","[50.4584000352902]","[50]","[300,300,300,120,210,300,30,120,210]","0","36","0","149.96399999404093","14.043000000005122","16","[[[""img/mask33.png""],[""img/mask91.png""],[""img/mask46.png""],[""img/mask27.png""],[""img/mask81.png""],[""img/mask67.png""],[""img/mask99.png""],[""img/mask3.png""],[""img/mask99.png""],[""img/mask16.png""],[""img/mask21.png""],[""img/mask28.png""],[""img/mask21.png""],[""img/mask35.png""],[""img/mask39.png""],[""img/mask73.png""],[""img/mask47.png""],[""img/mask93.png""],[""img/mask82.png""],[""img/mask10.png""],[""img/mask77.png""],[""img/mask97.png""],[""img/mask50.png""],[""img/mask1.png""],[""img/mask29.png""],[""img/mask5.png""],[""img/mask9.png""],[""img/mask46.png""],[""img/mask55.png""],[""img/mask68.png""],[""img/mask20.png""],[""img/mask73.png""],[""img/mask56.png""],[""img/mask27.png""],[""img/mask10.png""],[""img/mask1.png""]]]","","[6,0,15,21,11,20,17,26,1,32,31,12,22,14,24,27,28,7,13,30,8,25,9,10,23,2,29,5,3,18,35,16,19,34,33,4]","main","182","many-guess-6"
"","","","","","html-keyboard-response","43","286843","0.0-10.0-0.12","5adeb4e9f6b58c0001fa70aa","640759fa512f630a2bdc333d","64077cd966c0c0692f83a07d","null","","null","","","","","","","","","","","","","","","","","","","fixation","",""
"","","","","","many-guess-6","44","290265","0.0-10.0-1.12-0.12","5adeb4e9f6b58c0001fa70aa","640759fa512f630a2bdc333d","64077cd966c0c0692f83a07d","[1430.7999999970198]","","","[18,10,28,8,17,22,32,25,26,0,1,6,30,15,27,20,7,29,2,35,23,13,9,34,19,21,4,24,33,12,5,14,3,31,16,11]","[146,336,176,136,6,236,106,276,306,56,26,16,76,355,86,126,266,196,345,316,116,166,96,246,46,296,206,326,216,66,36,226,156,286,256,186]","146","55","75.5224996606342","[75.5224996606342]","[20.522499660634196]","[19]","[120,120,210,120,300,30,210,210,210]","0","36","0","149.955999997037","14.342000000004191","16","[[[""img/mask10.png""],[""img/mask6.png""],[""img/mask90.png""],[""img/mask77.png""],[""img/mask23.png""],[""img/mask5.png""],[""img/mask41.png""],[""img/mask26.png""],[""img/mask81.png""],[""img/mask11.png""],[""img/mask92.png""],[""img/mask78.png""],[""img/mask43.png""],[""img/mask25.png""],[""img/mask57.png""],[""img/mask41.png""],[""img/mask96.png""],[""img/mask40.png""],[""img/mask1.png""],[""img/mask10.png""],[""img/mask75.png""],[""img/mask36.png""],[""img/mask54.png""],[""img/mask64.png""],[""img/mask66.png""],[""img/mask54.png""],[""img/mask96.png""],[""img/mask99.png""],[""img/mask14.png""],[""img/mask33.png""],[""img/mask67.png""],[""img/mask77.png""],[""img/mask76.png""],[""img/mask48.png""],[""img/mask62.png""],[""img/mask81.png""]]]","","[18,10,28,8,17,22,32,25,26,0,1,6,30,15,27,20,7,29,2,35,23,13,9,34,19,21,4,24,33,12,5,14,3,31,16,11]","main","55","many-guess-6"
"","","","","","html-keyboard-response","45","290765","0.0-10.0-0.13","5adeb4e9f6b58c0001fa70aa","640759fa512f630a2bdc333d","64077cd966c0c0692f83a07d","null","","null","","","","","","","","","","","","","","","","","","","fixation","",""
"","","","","","many-guess-6","46","294140","0.0-10.0-1.13-0.13","5adeb4e9f6b58c0001fa70aa","640759fa512f630a2bdc333d","64077cd966c0c0692f83a07d","[1227.6000000089407]","","","[20,35,26,13,12,9,11,5,14,15,16,0,3,30,32,2,10,23,19,25,17,29,27,8,34,18,7,22,24,1,28,21,6,31,33,4]","[282,53,262,202,33,113,143,13,272,222,153,73,183,43,192,322,212,302,133,252,242,332,103,123,232,63,3,352,312,173,23,83,292,93,163,342]","282","52","161.93702221367784","[161.93702221367784]","[109.93702221367784]","[109]","[30,300,120,300,300,210,300,300,300]","0","36","0","149.8779999940307","16.960000000020955","16","[[[""img/mask52.png""],[""img/mask50.png""],[""img/mask36.png""],[""img/mask71.png""],[""img/mask43.png""],[""img/mask73.png""],[""img/mask73.png""],[""img/mask66.png""],[""img/mask50.png""],[""img/mask66.png""],[""img/mask37.png""],[""img/mask100.png""],[""img/mask97.png""],[""img/mask2.png""],[""img/mask62.png""],[""img/mask4.png""],[""img/mask95.png""],[""img/mask65.png""],[""img/mask30.png""],[""img/mask93.png""],[""img/mask41.png""],[""img/mask98.png""],[""img/mask7.png""],[""img/mask37.png""],[""img/mask36.png""],[""img/mask74.png""],[""img/mask19.png""],[""img/mask68.png""],[""img/mask5.png""],[""img/mask95.png""],[""img/mask3.png""],[""img/mask20.png""],[""img/mask52.png""],[""img/mask15.png""],[""img/mask70.png""],[""img/mask64.png""]]]","","[20,35,26,13,12,9,11,5,14,15,16,0,3,30,32,2,10,23,19,25,17,29,27,8,34,18,7,22,24,1,28,21,6,31,33,4]","main","52","many-guess-6"
"","","","","","html-keyboard-response","47","294645","0.0-10.0-0.14","5adeb4e9f6b58c0001fa70aa","640759fa512f630a2bdc333d","64077cd966c0c0692f83a07d","null","","null","","","","","","","","","","","","","","","","","","","fixation","",""
"","","","","","color-precision2","48","298103","0.0-10.0-1.14-0.14","5adeb4e9f6b58c0001fa70aa","640759fa512f630a2bdc333d","64077cd966c0c0692f83a07d","[627.5999999940395]","","","[22]","[262]","262","95","358.6558047747954","[358.6558047747954]","[263.6558047747954]","[263]","0","0","1","0","149.82599999406375","1001.0019999940414","1000","[[[""img/mask34.png""]]]","","","main","95","color-precision2"
"","","","","","html-keyboard-response","49","298604","0.0-10.0-0.15","5adeb4e9f6b58c0001fa70aa","640759fa512f630a2bdc333d","64077cd966c0c0692f83a07d","null","","null","","","","","","","","","","","","","","","","","","","fixation","",""
"","","","","","color-precision2","50","301460","0.0-10.0-1.15-0.15","5adeb4e9f6b58c0001fa70aa","640759fa512f630a2bdc333d","64077cd966c0c0692f83a07d","[364.20000000298023]","","","[29]","[109]","109","140","251.34756507881457","[251.34756507881457]","[111.34756507881457]","[111]","0","0","1","0","149.84999999700813","999.0309999970486","1000","[[[""img/mask60.png""]]]","","","main","140","color-precision2"
"","","","","","html-keyboard-response","51","301961","0.0-10.0-0.16","5adeb4e9f6b58c0001fa70aa","640759fa512f630a2bdc333d","64077cd966c0c0692f83a07d","null","","null","","","","","","","","","","","","","","","","","","","fixation","",""
"","","","","","color-precision2","52","305232","0.0-10.0-1.16-0.16","5adeb4e9f6b58c0001fa70aa","640759fa512f630a2bdc333d","64077cd966c0c0692f83a07d","[599.2999999970198]","","","[8]","[34]","34","240","272.90895752687675","[272.90895752687675]","[32.90895752687675]","[34]","0","0","1","0","149.96100000001024","999.2339999940596","1000","[[[""img/mask35.png""]]]","","","main","240","color-precision2"
"","","","","","html-keyboard-response","53","305739","0.0-10.0-0.17","5adeb4e9f6b58c0001fa70aa","640759fa512f630a2bdc333d","64077cd966c0c0692f83a07d","null","","null","","","","","","","","","","","","","","","","","","","fixation","",""
"","","","","","many-guess-6","54","313871","0.0-10.0-1.17-0.17","5adeb4e9f6b58c0001fa70aa","640759fa512f630a2bdc333d","64077cd966c0c0692f83a07d","[1660.5]","","","[32,14,13,12,5,29,1,35,8,10,33,26,19,9,0,23,21,3,17,25,20,18,16,27,11,24,15,22,4,28,34,6,2,7,30,31]","[154,114,54,5,35,184,304,45,224,104,25,254,15,354,264,214,204,124,84,144,234,294,314,334,194,74,134,344,174,324,274,244,284,164,64,94]","154","110","114.83106212902366","[114.83106212902366]","[4.831062129023664]","[3]","[30,210,120,120,120,120,210,300,30]","0","36","0","149.9430000000284","15.727999994065613","16","[[[""img/mask33.png""],[""img/mask88.png""],[""img/mask34.png""],[""img/mask61.png""],[""img/mask76.png""],[""img/mask77.png""],[""img/mask29.png""],[""img/mask66.png""],[""img/mask13.png""],[""img/mask30.png""],[""img/mask88.png""],[""img/mask23.png""],[""img/mask89.png""],[""img/mask13.png""],[""img/mask65.png""],[""img/mask16.png""],[""img/mask75.png""],[""img/mask63.png""],[""img/mask94.png""],[""img/mask10.png""],[""img/mask56.png""],[""img/mask60.png""],[""img/mask27.png""],[""img/mask56.png""],[""img/mask1.png""],[""img/mask96.png""],[""img/mask17.png""],[""img/mask18.png""],[""img/mask65.png""],[""img/mask6.png""],[""img/mask24.png""],[""img/mask15.png""],[""img/mask47.png""],[""img/mask22.png""],[""img/mask16.png""],[""img/mask1.png""]]]","","[32,14,13,12,5,29,1,35,8,10,33,26,19,9,0,23,21,3,17,25,20,18,16,27,11,24,15,22,4,28,34,6,2,7,30,31]","main","110","many-guess-6"
"","","","","","html-keyboard-response","55","314372","0.0-10.0-0.18","5adeb4e9f6b58c0001fa70aa","640759fa512f630a2bdc333d","64077cd966c0c0692f83a07d","null","","null","","","","","","","","","","","","","","","","","","","fixation","",""
"","","","","","many-guess-6","56","317979","0.0-10.0-1.18-0.18","5adeb4e9f6b58c0001fa70aa","640759fa512f630a2bdc333d","64077cd966c0c0692f83a07d","[1985.5]","","","[1,0,19,12,16,11,15,21,10,9,32,14,25,26,31,13,2,35,23,5,34,6,24,3,18,22,4,28,17,7,20,29,33,30,27,8]","[329,129,319,20,259,199,239,309,59,179,249,119,109,229,279,189,69,99,339,299,89,10,349,139,49,359,159,269,169,79,39,219,209,149,289,30]","329","257","272.6368732454723","[272.6368732454723]","[15.636873245472316]","[16]","[300,120,120,30,120,30,300,210,300]","0","36","0","149.83999999106163","16.136999999987893","16","[[[""img/mask72.png""],[""img/mask92.png""],[""img/mask14.png""],[""img/mask30.png""],[""img/mask46.png""],[""img/mask76.png""],[""img/mask95.png""],[""img/mask88.png""],[""img/mask19.png""],[""img/mask78.png""],[""img/mask58.png""],[""img/mask13.png""],[""img/mask77.png""],[""img/mask72.png""],[""img/mask78.png""],[""img/mask73.png""],[""img/mask44.png""],[""img/mask13.png""],[""img/mask10.png""],[""img/mask35.png""],[""img/mask30.png""],[""img/mask84.png""],[""img/mask26.png""],[""img/mask9.png""],[""img/mask39.png""],[""img/mask43.png""],[""img/mask68.png""],[""img/mask47.png""],[""img/mask86.png""],[""img/mask59.png""],[""img/mask63.png""],[""img/mask97.png""],[""img/mask46.png""],[""img/mask19.png""],[""img/mask32.png""],[""img/mask76.png""]]]","","[1,0,19,12,16,11,15,21,10,9,32,14,25,26,31,13,2,35,23,5,34,6,24,3,18,22,4,28,17,7,20,29,33,30,27,8]","main","257","many-guess-6"
"","","","","","html-keyboard-response","57","320641","0.0-10.0-0.19","5adeb4e9f6b58c0001fa70aa","640759fa512f630a2bdc333d","64077cd966c0c0692f83a07d","2661.1000000089407","Wow! You've completed 20 out of 180 trials! </p> <p>  </p><p> Take a quick break, then press any key when you're ready to continue."," ","","","","","","","","","","","","","","","","","","","fixation","",""
"","","","","","many-guess-6","58","323594","0.0-10.0-1.19-0.19","5adeb4e9f6b58c0001fa70aa","640759fa512f630a2bdc333d","64077cd966c0c0692f83a07d","[1031.2000000029802]","","","[30,5,19,0,27,4,25,9,22,21,16,13,8,29,15,12,17,32,31,1,34,26,2,6,20,35,11,10,33,24,28,23,7,14,3,18]","[183,342,202,123,133,262,252,192,322,242,143,43,282,53,153,232,272,312,302,23,113,332,13,73,212,3,173,163,33,83,63,352,222,292,103,93]","183","337","285.1675945226172","[285.1675945226172]","[308.1675945226172]","[308]","[30,30,30,210,120,210,300,300,120]","0","36","0","149.87299999699462","15.852999994065613","16","[[[""img/mask12.png""],[""img/mask37.png""],[""img/mask1.png""],[""img/mask77.png""],[""img/mask98.png""],[""img/mask23.png""],[""img/mask41.png""],[""img/mask80.png""],[""img/mask18.png""],[""img/mask21.png""],[""img/mask67.png""],[""img/mask51.png""],[""img/mask42.png""],[""img/mask96.png""],[""img/mask85.png""],[""img/mask33.png""],[""img/mask87.png""],[""img/mask33.png""],[""img/mask46.png""],[""img/mask4.png""],[""img/mask59.png""],[""img/mask25.png""],[""img/mask72.png""],[""img/mask51.png""],[""img/mask70.png""],[""img/mask18.png""],[""img/mask76.png""],[""img/mask16.png""],[""img/mask90.png""],[""img/mask45.png""],[""img/mask75.png""],[""img/mask24.png""],[""img/mask91.png""],[""img/mask18.png""],[""img/mask93.png""],[""img/mask65.png""]]]","","[30,5,19,0,27,4,25,9,22,21,16,13,8,29,15,12,17,32,31,1,34,26,2,6,20,35,11,10,33,24,28,23,7,14,3,18]","main","337","many-guess-6"
"","","","","","html-keyboard-response","59","324095","0.0-10.0-0.20","5adeb4e9f6b58c0001fa70aa","640759fa512f630a2bdc333d","64077cd966c0c0692f83a07d","null","","null","","","","","","","","","","","","","","","","","","","fixation","",""
"","","","","","many-guess-6","60","326617","0.0-10.0-1.20-0.20","5adeb4e9f6b58c0001fa70aa","640759fa512f630a2bdc333d","64077cd966c0c0692f83a07d","[1017.7000000029802]","","","[14,8,10,9,1,23,17,15,0,2,29,11,21,30,6,7,20,31,34,13,35,32,25,27,19,22,26,12,16,5,33,3,4,18,24,28]","[129,20,79,109,169,279,189,159,99,209,299,289,119,39,349,59,329,89,309,179,10,219,259,229,199,49,269,239,30,149,359,319,139,339,249,69]","129","219","199.64742991558526","[199.64742991558526]","[340.64742991558523]","[340]","[210,30,210,300,30,30,300,120,210]","0","36","0","149.8779999910621","16.849999988102354","16","[[[""img/mask25.png""],[""img/mask22.png""],[""img/mask67.png""],[""img/mask88.png""],[""img/mask24.png""],[""img/mask51.png""],[""img/mask86.png""],[""img/mask35.png""],[""img/mask35.png""],[""img/mask87.png""],[""img/mask53.png""],[""img/mask3.png""],[""img/mask34.png""],[""img/mask54.png""],[""img/mask27.png""],[""img/mask81.png""],[""img/mask76.png""],[""img/mask98.png""],[""img/mask50.png""],[""img/mask66.png""],[""img/mask76.png""],[""img/mask71.png""],[""img/mask22.png""],[""img/mask69.png""],[""img/mask22.png""],[""img/mask74.png""],[""img/mask96.png""],[""img/mask29.png""],[""img/mask21.png""],[""img/mask13.png""],[""img/mask48.png""],[""img/mask69.png""],[""img/mask78.png""],[""img/mask78.png""],[""img/mask47.png""],[""img/mask31.png""]]]","","[14,8,10,9,1,23,17,15,0,2,29,11,21,30,6,7,20,31,34,13,35,32,25,27,19,22,26,12,16,5,33,3,4,18,24,28]","main","219","many-guess-6"
"","","","","","html-keyboard-response","61","327118","0.0-10.0-0.21","5adeb4e9f6b58c0001fa70aa","640759fa512f630a2bdc333d","64077cd966c0c0692f83a07d","null","","null","","","","","","","","","","","","","","","","","","","fixation","",""
"","","","","","color-precision2","62","329761","0.0-10.0-1.21-0.21","5adeb4e9f6b58c0001fa70aa","640759fa512f630a2bdc333d","64077cd966c0c0692f83a07d","[487.3999999910593]","","","[13]","[211]","211","204","60.1858584437843","[60.1858584437843]","[216.1858584437843]","[215]","0","0","1","0","150.01500000001397","999.5969999910449","1000","[[[""img/mask26.png""]]]","","","main","204","color-precision2"
"","","","","","html-keyboard-response","63","330263","0.0-10.0-0.22","5adeb4e9f6b58c0001fa70aa","640759fa512f630a2bdc333d","64077cd966c0c0692f83a07d","null","","null","","","","","","","","","","","","","","","","","","","fixation","",""
"","","","","","many-guess-6","64","338483","0.0-10.0-1.22-0.22","5adeb4e9f6b58c0001fa70aa","640759fa512f630a2bdc333d","64077cd966c0c0692f83a07d","[1651.2000000029802]","","","[4,16,7,19,9,8,10,25,15,35,26,31,23,13,3,33,2,5,27,29,1,18,6,14,28,11,17,24,21,12,0,32,30,22,20,34]","[39,198,258,109,89,228,139,208,29,79,348,69,19,159,238,59,328,278,99,298,178,129,149,169,9,358,338,288,218,318,119,308,248,49,188,268]","39","25","286.0420500309033","[286.0420500309033]","[261.0420500309033]","[261]","[210,120,30,300,210,300,300,300,300]","0","36","0","149.9549999970477","17.943999994022306","16","[[[""img/mask13.png""],[""img/mask18.png""],[""img/mask64.png""],[""img/mask32.png""],[""img/mask63.png""],[""img/mask65.png""],[""img/mask43.png""],[""img/mask89.png""],[""img/mask19.png""],[""img/mask14.png""],[""img/mask47.png""],[""img/mask75.png""],[""img/mask63.png""],[""img/mask28.png""],[""img/mask46.png""],[""img/mask6.png""],[""img/mask77.png""],[""img/mask17.png""],[""img/mask16.png""],[""img/mask98.png""],[""img/mask20.png""],[""img/mask50.png""],[""img/mask45.png""],[""img/mask23.png""],[""img/mask20.png""],[""img/mask98.png""],[""img/mask4.png""],[""img/mask98.png""],[""img/mask14.png""],[""img/mask21.png""],[""img/mask38.png""],[""img/mask66.png""],[""img/mask82.png""],[""img/mask91.png""],[""img/mask32.png""],[""img/mask97.png""]]]","","[4,16,7,19,9,8,10,25,15,35,26,31,23,13,3,33,2,5,27,29,1,18,6,14,28,11,17,24,21,12,0,32,30,22,20,34]","main","25","many-guess-6"
"","","","","","html-keyboard-response","65","338984","0.0-10.0-0.23","5adeb4e9f6b58c0001fa70aa","640759fa512f630a2bdc333d","64077cd966c0c0692f83a07d","null","","null","","","","","","","","","","","","","","","","","","","fixation","",""
"","","","","","many-guess-6","66","345318","0.0-10.0-1.23-0.23","5adeb4e9f6b58c0001fa70aa","640759fa512f630a2bdc333d","64077cd966c0c0692f83a07d","[1858.5999999940395]","","","[16,24,4,30,25,33,2,7,0,3,26,1,27,15,9,34,21,18,29,31,10,6,12,19,5,20,32,14,28,8,13,17,23,22,35,11]","[219,29,49,199,9,189,39,348,149,59,119,248,99,358,298,69,278,318,169,179,159,268,239,209,79,139,229,109,129,288,328,19,258,308,89,338]","219","140","197.71536869522077","[197.71536869522077]","[57.715368695220775]","[57]","[120,30,210,120,120,300,210,120,300]","0","36","0","149.97999999701278","14.367000000027474","16","[[[""img/mask1.png""],[""img/mask22.png""],[""img/mask82.png""],[""img/mask71.png""],[""img/mask20.png""],[""img/mask11.png""],[""img/mask50.png""],[""img/mask78.png""],[""img/mask8.png""],[""img/mask51.png""],[""img/mask39.png""],[""img/mask45.png""],[""img/mask32.png""],[""img/mask40.png""],[""img/mask99.png""],[""img/mask79.png""],[""img/mask36.png""],[""img/mask34.png""],[""img/mask98.png""],[""img/mask46.png""],[""img/mask47.png""],[""img/mask89.png""],[""img/mask26.png""],[""img/mask68.png""],[""img/mask6.png""],[""img/mask2.png""],[""img/mask56.png""],[""img/mask45.png""],[""img/mask42.png""],[""img/mask1.png""],[""img/mask8.png""],[""img/mask8.png""],[""img/mask100.png""],[""img/mask21.png""],[""img/mask70.png""],[""img/mask57.png""]]]","","[16,24,4,30,25,33,2,7,0,3,26,1,27,15,9,34,21,18,29,31,10,6,12,19,5,20,32,14,28,8,13,17,23,22,35,11]","main","140","many-guess-6"
"","","","","","html-keyboard-response","67","345822","0.0-10.0-0.24","5adeb4e9f6b58c0001fa70aa","640759fa512f630a2bdc333d","64077cd966c0c0692f83a07d","null","","null","","","","","","","","","","","","","","","","","","","fixation","",""
"","","","","","color-precision2","68","349839","0.0-10.0-1.24-0.24","5adeb4e9f6b58c0001fa70aa","640759fa512f630a2bdc333d","64077cd966c0c0692f83a07d","[1136.8999999910593]","","","[15]","[141]","141","135","275.5418988679019","[275.5418988679019]","[140.54189886790192]","[141]","0","0","1","0","149.88299999106675","1000.756999994046","1000","[[[""img/mask96.png""]]]","","","main","135","color-precision2"
"","","","","","html-keyboard-response","69","350340","0.0-10.0-0.25","5adeb4e9f6b58c0001fa70aa","640759fa512f630a2bdc333d","64077cd966c0c0692f83a07d","null","","null","","","","","","","","","","","","","","","","","","","fixation","",""
"","","","","","many-guess-6","70","353336","0.0-10.0-1.25-0.25","5adeb4e9f6b58c0001fa70aa","640759fa512f630a2bdc333d","64077cd966c0c0692f83a07d","[1126.1000000089407]","","","[15,24,20,22,9,4,35,31,6,14,0,18,19,13,28,27,21,29,34,11,16,7,25,3,10,12,32,17,23,2,1,30,26,5,33,8]","[308,119,59,198,9,29,268,99,49,278,139,248,348,228,288,208,129,258,318,358,109,79,169,238,159,298,19,338,179,328,39,218,69,188,149,89]","308","65","170.5409028161471","[170.5409028161471]","[105.54090281614711]","[105]","[120,300,300,300,120,300,30,120,120]","0","36","0","149.9889999970328","15.46899999404559","16","[[[""img/mask26.png""],[""img/mask71.png""],[""img/mask1.png""],[""img/mask52.png""],[""img/mask68.png""],[""img/mask14.png""],[""img/mask97.png""],[""img/mask74.png""],[""img/mask38.png""],[""img/mask48.png""],[""img/mask11.png""],[""img/mask2.png""],[""img/mask12.png""],[""img/mask2.png""],[""img/mask59.png""],[""img/mask16.png""],[""img/mask31.png""],[""img/mask22.png""],[""img/mask96.png""],[""img/mask57.png""],[""img/mask69.png""],[""img/mask99.png""],[""img/mask90.png""],[""img/mask79.png""],[""img/mask58.png""],[""img/mask51.png""],[""img/mask63.png""],[""img/mask75.png""],[""img/mask1.png""],[""img/mask72.png""],[""img/mask1.png""],[""img/mask49.png""],[""img/mask46.png""],[""img/mask84.png""],[""img/mask74.png""],[""img/mask95.png""]]]","","[15,24,20,22,9,4,35,31,6,14,0,18,19,13,28,27,21,29,34,11,16,7,25,3,10,12,32,17,23,2,1,30,26,5,33,8]","main","65","many-guess-6"
"","","","","","html-keyboard-response","71","353837","0.0-10.0-0.26","5adeb4e9f6b58c0001fa70aa","640759fa512f630a2bdc333d","64077cd966c0c0692f83a07d","null","","null","","","","","","","","","","","","","","","","","","","fixation","",""
"","","","","","color-precision2","72","356664","0.0-10.0-1.26-0.26","5adeb4e9f6b58c0001fa70aa","640759fa512f630a2bdc333d","64077cd966c0c0692f83a07d","[495.69999998807907]","","","[15]","[271]","271","207","141.4060655461086","[141.4060655461086]","[294.4060655461086]","[293]","0","0","1","0","149.75899999105604","998.7389999880688","1000","[[[""img/mask90.png""]]]","","","main","207","color-precision2"
"","","","","","html-keyboard-response","73","357164","0.0-10.0-0.27","5adeb4e9f6b58c0001fa70aa","640759fa512f630a2bdc333d","64077cd966c0c0692f83a07d","null","","null","","","","","","","","","","","","","","","","","","","fixation","",""
"","","","","","color-precision2","74","360027","0.0-10.0-1.27-0.27","5adeb4e9f6b58c0001fa70aa","640759fa512f630a2bdc333d","64077cd966c0c0692f83a07d","[35]","","","[35]","[266]","266","18","","[null]","[null]","[272]","0","0","1","0","149.9559999910416","999.1279999910621","1000","[[[""img/mask23.png""]]]","","","main","18","color-precision2"
"","","","","","html-keyboard-response","75","360528","0.0-10.0-0.28","5adeb4e9f6b58c0001fa70aa","640759fa512f630a2bdc333d","64077cd966c0c0692f83a07d","null","","null","","","","","","","","","","","","","","","","","","","fixation","",""
"","","","","","color-precision2","76","364007","0.0-10.0-1.28-0.28","5adeb4e9f6b58c0001fa70aa","640759fa512f630a2bdc333d","64077cd966c0c0692f83a07d","[406]","","","[15]","[278]","278","202","162.967831338846","[162.967831338846]","[320.967831338846]","[320]","0","0","1","0","149.9679999940563","1000.9469999910798","1000","[[[""img/mask10.png""]]]","","","main","202","color-precision2"
"","","","","","html-keyboard-response","77","364518","0.0-10.0-0.29","5adeb4e9f6b58c0001fa70aa","640759fa512f630a2bdc333d","64077cd966c0c0692f83a07d","null","","null","","","","","","","","","","","","","","","","","","","fixation","",""
"","","","","","many-guess-6","78","369779","0.0-10.0-1.29-0.29","5adeb4e9f6b58c0001fa70aa","640759fa512f630a2bdc333d","64077cd966c0c0692f83a07d","[1147.7999999970198]","","","[20,14,8,26,7,27,29,3,13,2,4,18,9,17,10,23,25,1,15,16,33,5,12,22,24,28,30,34,6,31,19,35,11,32,21,0]","[45,15,155,225,354,324,65,25,255,334,35,125,294,185,95,245,215,5,304,175,145,314,115,195,205,344,235,165,75,265,55,85,284,135,274,105]","45","126","342.3438270804276","[342.3438270804276]","[216.34382708042762]","[216]","[210,300,30,30,120,300,300,300,300]","0","36","0","149.9440000000177","14.130000000004657","16","[[[""img/mask81.png""],[""img/mask29.png""],[""img/mask30.png""],[""img/mask100.png""],[""img/mask81.png""],[""img/mask51.png""],[""img/mask27.png""],[""img/mask33.png""],[""img/mask24.png""],[""img/mask2.png""],[""img/mask56.png""],[""img/mask93.png""],[""img/mask19.png""],[""img/mask9.png""],[""img/mask37.png""],[""img/mask5.png""],[""img/mask57.png""],[""img/mask6.png""],[""img/mask54.png""],[""img/mask73.png""],[""img/mask83.png""],[""img/mask23.png""],[""img/mask10.png""],[""img/mask94.png""],[""img/mask60.png""],[""img/mask2.png""],[""img/mask59.png""],[""img/mask55.png""],[""img/mask50.png""],[""img/mask26.png""],[""img/mask30.png""],[""img/mask89.png""],[""img/mask76.png""],[""img/mask41.png""],[""img/mask3.png""],[""img/mask61.png""]]]","","[20,14,8,26,7,27,29,3,13,2,4,18,9,17,10,23,25,1,15,16,33,5,12,22,24,28,30,34,6,31,19,35,11,32,21,0]","main","126","many-guess-6"
"","","","","","html-keyboard-response","79","370291","0.0-10.0-0.30","5adeb4e9f6b58c0001fa70aa","640759fa512f630a2bdc333d","64077cd966c0c0692f83a07d","null","","null","","","","","","","","","","","","","","","","","","","fixation","",""
"","","","","","color-precision2","80","374494","0.0-10.0-1.30-0.30","5adeb4e9f6b58c0001fa70aa","640759fa512f630a2bdc333d","64077cd966c0c0692f83a07d","[870.2000000029802]","","","[23]","[18]","18","115","138.27087773134605","[138.27087773134605]","[23.270877731346047]","[21]","0","0","1","0","149.78799999703187","1001.5729999910691","1000","[[[""img/mask75.png""]]]","","","main","115","color-precision2"
"","","","","","html-keyboard-response","81","375008","0.0-10.0-0.31","5adeb4e9f6b58c0001fa70aa","640759fa512f630a2bdc333d","64077cd966c0c0692f83a07d","null","","null","","","","","","","","","","","","","","","","","","","fixation","",""
"","","","","","many-guess-6","82","379229","0.0-10.0-1.31-0.31","5adeb4e9f6b58c0001fa70aa","640759fa512f630a2bdc333d","64077cd966c0c0692f83a07d","[1075.4000000059605]","","","[21,11,4,30,7,16,24,14,22,27,1,29,9,10,8,34,32,26,13,17,3,15,12,25,31,0,33,23,20,2,18,5,28,19,6,35]","[33,93,203,83,103,313,123,243,273,233,342,113,223,253,173,13,323,303,53,293,333,133,153,183,283,163,352,263,43,213,23,63,73,143,193,3]","33","69","242.95820502277826","[242.95820502277826]","[173.95820502277826]","[174]","[210,30,120,30,120,120,120,210,120]","0","36","0","149.96499999106163","14.340999994019512","16","[[[""img/mask98.png""],[""img/mask80.png""],[""img/mask52.png""],[""img/mask32.png""],[""img/mask51.png""],[""img/mask86.png""],[""img/mask84.png""],[""img/mask38.png""],[""img/mask28.png""],[""img/mask89.png""],[""img/mask72.png""],[""img/mask85.png""],[""img/mask64.png""],[""img/mask2.png""],[""img/mask39.png""],[""img/mask54.png""],[""img/mask32.png""],[""img/mask3.png""],[""img/mask96.png""],[""img/mask75.png""],[""img/mask58.png""],[""img/mask73.png""],[""img/mask7.png""],[""img/mask13.png""],[""img/mask11.png""],[""img/mask65.png""],[""img/mask29.png""],[""img/mask36.png""],[""img/mask77.png""],[""img/mask64.png""],[""img/mask17.png""],[""img/mask21.png""],[""img/mask66.png""],[""img/mask86.png""],[""img/mask13.png""],[""img/mask17.png""]]]","","[21,11,4,30,7,16,24,14,22,27,1,29,9,10,8,34,32,26,13,17,3,15,12,25,31,0,33,23,20,2,18,5,28,19,6,35]","main","69","many-guess-6"
"","","","","","html-keyboard-response","83","379738","0.0-10.0-0.32","5adeb4e9f6b58c0001fa70aa","640759fa512f630a2bdc333d","64077cd966c0c0692f83a07d","null","","null","","","","","","","","","","","","","","","","","","","fixation","",""
"","","","","","many-guess-6","84","382835","0.0-10.0-1.32-0.32","5adeb4e9f6b58c0001fa70aa","640759fa512f630a2bdc333d","64077cd966c0c0692f83a07d","[1132]","","","[4,35,15,9,21,20,33,14,8,29,10,30,7,0,32,18,2,34,31,19,25,23,12,5,6,27,13,1,22,28,11,26,3,24,17,16]","[135,65,195,15,325,225,345,205,155,354,175,25,315,305,165,255,55,295,35,185,235,335,215,265,145,105,75,115,95,245,125,5,85,275,285,45]","135","114","209.64316624930183","[209.64316624930183]","[95.64316624930183]","[96]","[120,120,300,300,300,120,30,120,120]","0","36","0","149.98300000000745","14.675999999977648","16","[[[""img/mask65.png""],[""img/mask16.png""],[""img/mask87.png""],[""img/mask23.png""],[""img/mask30.png""],[""img/mask43.png""],[""img/mask59.png""],[""img/mask62.png""],[""img/mask48.png""],[""img/mask79.png""],[""img/mask15.png""],[""img/mask51.png""],[""img/mask10.png""],[""img/mask79.png""],[""img/mask49.png""],[""img/mask43.png""],[""img/mask96.png""],[""img/mask22.png""],[""img/mask48.png""],[""img/mask13.png""],[""img/mask57.png""],[""img/mask59.png""],[""img/mask57.png""],[""img/mask48.png""],[""img/mask54.png""],[""img/mask17.png""],[""img/mask91.png""],[""img/mask100.png""],[""img/mask37.png""],[""img/mask38.png""],[""img/mask18.png""],[""img/mask99.png""],[""img/mask89.png""],[""img/mask56.png""],[""img/mask75.png""],[""img/mask75.png""]]]","","[4,35,15,9,21,20,33,14,8,29,10,30,7,0,32,18,2,34,31,19,25,23,12,5,6,27,13,1,22,28,11,26,3,24,17,16]","main","114","many-guess-6"
"","","","","","html-keyboard-response","85","383335","0.0-10.0-0.33","5adeb4e9f6b58c0001fa70aa","640759fa512f630a2bdc333d","64077cd966c0c0692f83a07d","null","","null","","","","","","","","","","","","","","","","","","","fixation","",""
"","","","","","color-precision2","86","386296","0.0-10.0-1.33-0.33","5adeb4e9f6b58c0001fa70aa","640759fa512f630a2bdc333d","64077cd966c0c0692f83a07d","[577.4000000059605]","","","[16]","[324]","324","38","12.108882260095367","[12.108882260095367]","[334.10888226009536]","[333]","0","0","1","0","149.9459999910323","1000.3199999940116","1000","[[[""img/mask20.png""]]]","","","main","38","color-precision2"
"","","","","","html-keyboard-response","87","386797","0.0-10.0-0.34","5adeb4e9f6b58c0001fa70aa","640759fa512f630a2bdc333d","64077cd966c0c0692f83a07d","null","","null","","","","","","","","","","","","","","","","","","","fixation","",""
"","","","","","color-precision2","88","389707","0.0-10.0-1.34-0.34","5adeb4e9f6b58c0001fa70aa","640759fa512f630a2bdc333d","64077cd966c0c0692f83a07d","[376.5]","","","[34]","[81]","81","318","17.01132145668433","[17.01132145668433]","[59.0113214566843]","[58]","0","0","1","0","154.01600000000326","1001.9359999910812","1000","[[[""img/mask41.png""]]]","","","main","318","color-precision2"
"","","","","","html-keyboard-response","89","390208","0.0-10.0-0.35","5adeb4e9f6b58c0001fa70aa","640759fa512f630a2bdc333d","64077cd966c0c0692f83a07d","null","","null","","","","","","","","","","","","","","","","","","","fixation","",""
"","","","","","color-precision2","90","394081","0.0-10.0-1.35-0.35","5adeb4e9f6b58c0001fa70aa","640759fa512f630a2bdc333d","64077cd966c0c0692f83a07d","[1326.0999999940395]","","","[16]","[291]","291","122","53.160792730876295","[53.160792730876295]","[291.1607927308763]","[291]","0","0","1","0","150.01699998805998","1000.5949999940349","1000","[[[""img/mask45.png""]]]","","","main","122","color-precision2"
"","","","","","html-keyboard-response","91","394595","0.0-10.0-0.36","5adeb4e9f6b58c0001fa70aa","640759fa512f630a2bdc333d","64077cd966c0c0692f83a07d","null","","null","","","","","","","","","","","","","","","","","","","fixation","",""
"","","","","","many-guess-6","92","398798","0.0-10.0-1.36-0.36","5adeb4e9f6b58c0001fa70aa","640759fa512f630a2bdc333d","64077cd966c0c0692f83a07d","[2088.7999999970198]","","","[33,12,16,26,9,34,32,1,19,14,6,8,25,7,11,15,23,18,31,35,21,24,4,22,3,5,30,28,13,27,29,10,0,17,20,2]","[320,51,120,81,140,160,21,190,90,100,250,150,230,130,270,200,71,170,180,11,1,220,260,110,31,350,41,340,330,290,240,61,310,300,280,210]","320","60","99.83731691844838","[99.83731691844838]","[39.83731691844838]","[38]","[30,300,30,30,120,300,300,30,120]","0","36","0","149.91699999402044","16.2959999970044","16","[[[""img/mask38.png""],[""img/mask40.png""],[""img/mask71.png""],[""img/mask66.png""],[""img/mask69.png""],[""img/mask61.png""],[""img/mask96.png""],[""img/mask55.png""],[""img/mask53.png""],[""img/mask77.png""],[""img/mask53.png""],[""img/mask9.png""],[""img/mask66.png""],[""img/mask20.png""],[""img/mask44.png""],[""img/mask17.png""],[""img/mask9.png""],[""img/mask56.png""],[""img/mask27.png""],[""img/mask39.png""],[""img/mask21.png""],[""img/mask10.png""],[""img/mask55.png""],[""img/mask91.png""],[""img/mask31.png""],[""img/mask21.png""],[""img/mask59.png""],[""img/mask19.png""],[""img/mask24.png""],[""img/mask74.png""],[""img/mask63.png""],[""img/mask37.png""],[""img/mask66.png""],[""img/mask23.png""],[""img/mask1.png""],[""img/mask22.png""]]]","","[33,12,16,26,9,34,32,1,19,14,6,8,25,7,11,15,23,18,31,35,21,24,4,22,3,5,30,28,13,27,29,10,0,17,20,2]","main","60","many-guess-6"
"","","","","","html-keyboard-response","93","399299","0.0-10.0-0.37","5adeb4e9f6b58c0001fa70aa","640759fa512f630a2bdc333d","64077cd966c0c0692f83a07d","null","","null","","","","","","","","","","","","","","","","","","","fixation","",""
"","","","","","color-precision2","94","403553","0.0-10.0-1.37-0.37","5adeb4e9f6b58c0001fa70aa","640759fa512f630a2bdc333d","64077cd966c0c0692f83a07d","[149.5]","","","[13]","[30]","30","222","262.0400996352371","[262.0400996352371]","[40.040099635237084]","[40]","0","0","1","0","149.9699999910663","1000.7540000000154","1000","[[[""img/mask2.png""]]]","","","main","222","color-precision2"
"","","","","","html-keyboard-response","95","404053","0.0-10.0-0.38","5adeb4e9f6b58c0001fa70aa","640759fa512f630a2bdc333d","64077cd966c0c0692f83a07d","null","","null","","","","","","","","","","","","","","","","","","","fixation","",""
"","","","","","color-precision2","96","406866","0.0-10.0-1.38-0.38","5adeb4e9f6b58c0001fa70aa","640759fa512f630a2bdc333d","64077cd966c0c0692f83a07d","[38.29999999701977]","","","[11]","[165]","165","130","","[null]","[null]","[160]","0","0","1","0","149.76099999103462","1001.1429999940447","1000","[[[""img/mask53.png""]]]","","","main","130","color-precision2"
"","","","","","html-keyboard-response","97","408865","0.0-10.0-0.39","5adeb4e9f6b58c0001fa70aa","640759fa512f630a2bdc333d","64077cd966c0c0692f83a07d","1998.2999999970198","Wow! You've completed 40 out of 180 trials! </p> <p>  </p><p> Take a quick break, then press any key when you're ready to continue."," ","","","","","","","","","","","","","","","","","","","fixation","",""
"","","","","","color-precision2","98","412660","0.0-10.0-1.39-0.39","5adeb4e9f6b58c0001fa70aa","640759fa512f630a2bdc333d","64077cd966c0c0692f83a07d","[752]","","","[22]","[213]","213","8","225.72491261738685","[225.72491261738685]","[217.72491261738685]","[218]","0","0","1","0","149.89799999108072","999.4769999970449","1000","[[[""img/mask55.png""]]]","","","main","8","color-precision2"
"","","","","","html-keyboard-response","99","413160","0.0-10.0-0.40","5adeb4e9f6b58c0001fa70aa","640759fa512f630a2bdc333d","64077cd966c0c0692f83a07d","null","","null","","","","","","","","","","","","","","","","","","","fixation","",""
"","","","","","color-precision2","100","416661","0.0-10.0-1.40-0.40","5adeb4e9f6b58c0001fa70aa","640759fa512f630a2bdc333d","64077cd966c0c0692f83a07d","[1111.5999999940395]","","","[3]","[40]","40","281","306.8681209912088","[306.8681209912088]","[25.868120991208798]","[26]","0","0","1","0","149.97399999701884","998.6549999970011","1000","[[[""img/mask64.png""]]]","","","main","281","color-precision2"
"","","","","","html-keyboard-response","101","417161","0.0-10.0-0.41","5adeb4e9f6b58c0001fa70aa","640759fa512f630a2bdc333d","64077cd966c0c0692f83a07d","null","","null","","","","","","","","","","","","","","","","","","","fixation","",""
"","","","","","color-precision2","102","419797","0.0-10.0-1.41-0.41","5adeb4e9f6b58c0001fa70aa","640759fa512f630a2bdc333d","64077cd966c0c0692f83a07d","[264.29999999701977]","","","[5]","[150]","150","155","313.7123313761122","[313.7123313761122]","[158.71233137611222]","[159]","0","0","1","0","149.86800000001676","1000.9489999910584","1000","[[[""img/mask90.png""]]]","","","main","155","color-precision2"
"","","","","","html-keyboard-response","103","420298","0.0-10.0-0.42","5adeb4e9f6b58c0001fa70aa","640759fa512f630a2bdc333d","64077cd966c0c0692f83a07d","null","","null","","","","","","","","","","","","","","","","","","","fixation","",""
"","","","","","color-precision2","104","424279","0.0-10.0-1.42-0.42","5adeb4e9f6b58c0001fa70aa","640759fa512f630a2bdc333d","64077cd966c0c0692f83a07d","[918.3999999910593]","","","[2]","[14]","14","330","344.69649432450535","[344.69649432450535]","[14.696494324505352]","[14]","0","0","1","0","149.93999998806976","1000.8109999910812","1000","[[[""img/mask100.png""]]]","","","main","330","color-precision2"
"","","","","","html-keyboard-response","105","424783","0.0-10.0-0.43","5adeb4e9f6b58c0001fa70aa","640759fa512f630a2bdc333d","64077cd966c0c0692f83a07d","null","","null","","","","","","","","","","","","","","","","","","","fixation","",""
"","","","","","many-guess-6","106","428626","0.0-10.0-1.43-0.43","5adeb4e9f6b58c0001fa70aa","640759fa512f630a2bdc333d","64077cd966c0c0692f83a07d","[1115.2999999970198]","","","[33,23,6,15,32,31,26,17,11,22,20,25,27,7,2,19,14,24,5,3,21,13,9,34,12,18,16,10,29,30,8,1,4,35,28,0]","[227,337,148,128,138,158,287,178,307,68,317,38,88,8,347,297,58,357,277,237,48,118,207,267,217,28,257,78,108,327,18,188,198,98,247,168]","227","317","308.2484388017611","[308.2484388017611]","[351.2484388017611]","[351]","[30,300,30,120,120,30,120,30,120]","0","36","0","149.96299998805625","16.628999988082796","16","[[[""img/mask44.png""],[""img/mask71.png""],[""img/mask12.png""],[""img/mask86.png""],[""img/mask82.png""],[""img/mask59.png""],[""img/mask64.png""],[""img/mask12.png""],[""img/mask90.png""],[""img/mask41.png""],[""img/mask47.png""],[""img/mask71.png""],[""img/mask62.png""],[""img/mask46.png""],[""img/mask68.png""],[""img/mask37.png""],[""img/mask37.png""],[""img/mask67.png""],[""img/mask75.png""],[""img/mask6.png""],[""img/mask27.png""],[""img/mask40.png""],[""img/mask76.png""],[""img/mask69.png""],[""img/mask45.png""],[""img/mask31.png""],[""img/mask59.png""],[""img/mask5.png""],[""img/mask29.png""],[""img/mask51.png""],[""img/mask29.png""],[""img/mask1.png""],[""img/mask47.png""],[""img/mask63.png""],[""img/mask27.png""],[""img/mask7.png""]]]","","[33,23,6,15,32,31,26,17,11,22,20,25,27,7,2,19,14,24,5,3,21,13,9,34,12,18,16,10,29,30,8,1,4,35,28,0]","main","317","many-guess-6"
"","","","","","html-keyboard-response","107","429127","0.0-10.0-0.44","5adeb4e9f6b58c0001fa70aa","640759fa512f630a2bdc333d","64077cd966c0c0692f83a07d","null","","null","","","","","","","","","","","","","","","","","","","fixation","",""
"","","","","","color-precision2","108","433254","0.0-10.0-1.44-0.44","5adeb4e9f6b58c0001fa70aa","640759fa512f630a2bdc333d","64077cd966c0c0692f83a07d","[1293]","","","[35]","[143]","143","110","254.696148087803","[254.696148087803]","[144.696148087803]","[145]","0","0","1","0","149.97499999107094","1001.3529999940656","1000","[[[""img/mask77.png""]]]","","","main","110","color-precision2"
"","","","","","html-keyboard-response","109","433759","0.0-10.0-0.45","5adeb4e9f6b58c0001fa70aa","640759fa512f630a2bdc333d","64077cd966c0c0692f83a07d","null","","null","","","","","","","","","","","","","","","","","","","fixation","",""
"","","","","","color-precision2","110","437391","0.0-10.0-1.45-0.45","5adeb4e9f6b58c0001fa70aa","640759fa512f630a2bdc333d","64077cd966c0c0692f83a07d","[303.80000001192093]","","","[13]","[202]","202","332","175.53434440355673","[175.53434440355673]","[203.53434440355673]","[202]","0","0","1","0","149.99899999104673","999.8719999940367","1000","[[[""img/mask23.png""]]]","","","main","332","color-precision2"
"","","","","","html-keyboard-response","111","437904","0.0-10.0-0.46","5adeb4e9f6b58c0001fa70aa","640759fa512f630a2bdc333d","64077cd966c0c0692f83a07d","null","","null","","","","","","","","","","","","","","","","","","","fixation","",""
"","","","","","color-precision2","112","441900","0.0-10.0-1.46-0.46","5adeb4e9f6b58c0001fa70aa","640759fa512f630a2bdc333d","64077cd966c0c0692f83a07d","[87.09999999403954]","","","[29]","[183]","183","95","","[null]","[null]","[184]","0","0","1","0","149.90399998810608","999.3859999999986","1000","[[[""img/mask47.png""]]]","","","main","95","color-precision2"
"","","","","","html-keyboard-response","113","442400","0.0-10.0-0.47","5adeb4e9f6b58c0001fa70aa","640759fa512f630a2bdc333d","64077cd966c0c0692f83a07d","null","","null","","","","","","","","","","","","","","","","","","","fixation","",""
"","","","","","many-guess-6","114","445449","0.0-10.0-1.47-0.47","5adeb4e9f6b58c0001fa70aa","640759fa512f630a2bdc333d","64077cd966c0c0692f83a07d","[1488]","","","[19,22,11,13,4,7,31,28,15,21,34,23,12,32,3,17,5,30,25,6,14,35,8,2,26,18,29,20,0,9,24,33,16,10,1,27]","[187,28,98,38,108,18,267,48,207,8,357,307,177,347,237,137,68,157,197,287,317,58,118,167,247,227,217,78,88,327,128,257,277,337,147,297]","187","238","282.49413806421796","[282.49413806421796]","[44.494138064217964]","[45]","[30,210,210,300,300,30,300,300,300]","0","36","0","149.90999998810003","14.39299999998184","16","[[[""img/mask24.png""],[""img/mask37.png""],[""img/mask70.png""],[""img/mask28.png""],[""img/mask9.png""],[""img/mask35.png""],[""img/mask66.png""],[""img/mask18.png""],[""img/mask32.png""],[""img/mask6.png""],[""img/mask88.png""],[""img/mask42.png""],[""img/mask47.png""],[""img/mask30.png""],[""img/mask66.png""],[""img/mask44.png""],[""img/mask63.png""],[""img/mask92.png""],[""img/mask35.png""],[""img/mask60.png""],[""img/mask69.png""],[""img/mask83.png""],[""img/mask81.png""],[""img/mask19.png""],[""img/mask60.png""],[""img/mask51.png""],[""img/mask23.png""],[""img/mask81.png""],[""img/mask1.png""],[""img/mask96.png""],[""img/mask73.png""],[""img/mask69.png""],[""img/mask40.png""],[""img/mask86.png""],[""img/mask21.png""],[""img/mask82.png""]]]","","[19,22,11,13,4,7,31,28,15,21,34,23,12,32,3,17,5,30,25,6,14,35,8,2,26,18,29,20,0,9,24,33,16,10,1,27]","main","238","many-guess-6"
"","","","","","html-keyboard-response","115","445959","0.0-10.0-0.48","5adeb4e9f6b58c0001fa70aa","640759fa512f630a2bdc333d","64077cd966c0c0692f83a07d","null","","null","","","","","","","","","","","","","","","","","","","fixation","",""
"","","","","","color-precision2","116","451803","0.0-10.0-1.48-0.48","5adeb4e9f6b58c0001fa70aa","640759fa512f630a2bdc333d","64077cd966c0c0692f83a07d","[484.59999999403954]","","","[31]","[316]","316","145","104.30731486246034","[104.30731486246034]","[319.3073148624603]","[317]","0","0","1","0","149.84199998807162","999.9159999940312","1000","[[[""img/mask49.png""]]]","","","main","145","color-precision2"
"","","","","","html-keyboard-response","117","452307","0.0-10.0-0.49","5adeb4e9f6b58c0001fa70aa","640759fa512f630a2bdc333d","64077cd966c0c0692f83a07d","null","","null","","","","","","","","","","","","","","","","","","","fixation","",""
"","","","","","many-guess-6","118","460789","0.0-10.0-1.49-0.49","5adeb4e9f6b58c0001fa70aa","640759fa512f630a2bdc333d","64077cd966c0c0692f83a07d","[1875.1000000089407]","","","[28,8,19,33,6,34,26,3,35,14,2,30,7,1,11,17,13,0,24,18,9,20,27,23,29,25,32,5,10,22,16,12,4,15,31,21]","[223,243,183,64,124,313,233,84,34,273,173,303,213,253,283,4,323,144,24,353,203,94,333,293,154,134,263,54,14,164,44,74,104,193,343,114]","223","121","321.6060877489904","[321.6060877489904]","[200.60608774899038]","[200]","[210,300,120,300,30,300,30,210,210]","0","36","0","150.00899998808745","16.427999991050456","16","[[[""img/mask22.png""],[""img/mask94.png""],[""img/mask29.png""],[""img/mask25.png""],[""img/mask38.png""],[""img/mask39.png""],[""img/mask27.png""],[""img/mask33.png""],[""img/mask25.png""],[""img/mask33.png""],[""img/mask20.png""],[""img/mask19.png""],[""img/mask75.png""],[""img/mask43.png""],[""img/mask44.png""],[""img/mask67.png""],[""img/mask72.png""],[""img/mask25.png""],[""img/mask72.png""],[""img/mask83.png""],[""img/mask33.png""],[""img/mask96.png""],[""img/mask14.png""],[""img/mask15.png""],[""img/mask18.png""],[""img/mask74.png""],[""img/mask100.png""],[""img/mask96.png""],[""img/mask23.png""],[""img/mask30.png""],[""img/mask69.png""],[""img/mask31.png""],[""img/mask52.png""],[""img/mask85.png""],[""img/mask24.png""],[""img/mask33.png""]]]","","[28,8,19,33,6,34,26,3,35,14,2,30,7,1,11,17,13,0,24,18,9,20,27,23,29,25,32,5,10,22,16,12,4,15,31,21]","main","121","many-guess-6"
"","","","","","html-keyboard-response","119","461290","0.0-10.0-0.50","5adeb4e9f6b58c0001fa70aa","640759fa512f630a2bdc333d","64077cd966c0c0692f83a07d","null","","null","","","","","","","","","","","","","","","","","","","fixation","",""
"","","","","","color-precision2","120","466215","0.0-10.0-1.50-0.50","5adeb4e9f6b58c0001fa70aa","640759fa512f630a2bdc333d","64077cd966c0c0692f83a07d","[1600.2999999970198]","","","[6]","[141]","141","236","270.12142660123857","[270.12142660123857]","[34.12142660123857]","[34]","0","0","1","0","149.91300000000047","998.5939999999828","1000","[[[""img/mask33.png""]]]","","","main","236","color-precision2"
"","","","","","html-keyboard-response","121","466716","0.0-10.0-0.51","5adeb4e9f6b58c0001fa70aa","640759fa512f630a2bdc333d","64077cd966c0c0692f83a07d","null","","null","","","","","","","","","","","","","","","","","","","fixation","",""
"","","","","","color-precision2","122","469793","0.0-10.0-1.51-0.51","5adeb4e9f6b58c0001fa70aa","640759fa512f630a2bdc333d","64077cd966c0c0692f83a07d","[369.29999999701977]","","","[15]","[8]","8","163","160.39792453974974","[160.39792453974974]","[357.39792453974974]","[356]","0","0","1","0","149.82599999103695","999.1130000000121","1000","[[[""img/mask22.png""]]]","","","main","163","color-precision2"
"","","","","","html-keyboard-response","123","470294","0.0-10.0-0.52","5adeb4e9f6b58c0001fa70aa","640759fa512f630a2bdc333d","64077cd966c0c0692f83a07d","null","","null","","","","","","","","","","","","","","","","","","","fixation","",""
"","","","","","many-guess-6","124","473056","0.0-10.0-1.52-0.52","5adeb4e9f6b58c0001fa70aa","640759fa512f630a2bdc333d","64077cd966c0c0692f83a07d","[1429.9000000059605]","","","[34,23,18,31,22,1,33,28,29,6,14,9,20,35,13,17,11,24,25,30,4,19,5,8,2,7,16,26,32,3,10,21,0,27,12,15]","[161,1,211,290,121,181,300,201,31,41,310,350,221,71,21,91,101,141,320,270,191,280,151,241,250,260,51,131,340,11,330,231,111,61,171,81]","161","343","57.2852922077078","[57.2852922077078]","[74.28529220770781]","[73]","[120,120,120,30,30,30,300,120,120]","0","36","0","149.955999997037","16.734999991080258","16","[[[""img/mask9.png""],[""img/mask80.png""],[""img/mask53.png""],[""img/mask66.png""],[""img/mask50.png""],[""img/mask97.png""],[""img/mask96.png""],[""img/mask82.png""],[""img/mask17.png""],[""img/mask70.png""],[""img/mask79.png""],[""img/mask97.png""],[""img/mask10.png""],[""img/mask19.png""],[""img/mask13.png""],[""img/mask72.png""],[""img/mask31.png""],[""img/mask10.png""],[""img/mask31.png""],[""img/mask37.png""],[""img/mask41.png""],[""img/mask69.png""],[""img/mask40.png""],[""img/mask20.png""],[""img/mask46.png""],[""img/mask63.png""],[""img/mask45.png""],[""img/mask26.png""],[""img/mask74.png""],[""img/mask26.png""],[""img/mask64.png""],[""img/mask87.png""],[""img/mask6.png""],[""img/mask34.png""],[""img/mask57.png""],[""img/mask38.png""]]]","","[34,23,18,31,22,1,33,28,29,6,14,9,20,35,13,17,11,24,25,30,4,19,5,8,2,7,16,26,32,3,10,21,0,27,12,15]","main","343","many-guess-6"
"","","","","","html-keyboard-response","125","473557","0.0-10.0-0.53","5adeb4e9f6b58c0001fa70aa","640759fa512f630a2bdc333d","64077cd966c0c0692f83a07d","null","","null","","","","","","","","","","","","","","","","","","","fixation","",""
"","","","","","many-guess-6","126","476617","0.0-10.0-1.53-0.53","5adeb4e9f6b58c0001fa70aa","640759fa512f630a2bdc333d","64077cd966c0c0692f83a07d","[1433.0999999940395]","","","[27,32,15,26,12,13,6,34,23,4,17,33,16,24,14,10,18,0,2,35,31,29,3,1,25,11,5,9,21,30,7,22,19,20,28,8]","[55,205,325,135,315,185,155,165,235,35,295,345,265,25,105,215,75,125,85,95,355,305,6,175,285,115,195,275,145,65,45,16,335,245,225,255]","55","162","204.9967616635957","[204.9967616635957]","[42.99676166359569]","[43]","[30,210,120,210,300,120,120,120,210]","0","36","0","150.01599999406608","15.487999991048127","16","[[[""img/mask57.png""],[""img/mask94.png""],[""img/mask73.png""],[""img/mask49.png""],[""img/mask73.png""],[""img/mask45.png""],[""img/mask95.png""],[""img/mask85.png""],[""img/mask80.png""],[""img/mask79.png""],[""img/mask40.png""],[""img/mask27.png""],[""img/mask95.png""],[""img/mask96.png""],[""img/mask39.png""],[""img/mask67.png""],[""img/mask28.png""],[""img/mask35.png""],[""img/mask2.png""],[""img/mask69.png""],[""img/mask67.png""],[""img/mask92.png""],[""img/mask35.png""],[""img/mask39.png""],[""img/mask20.png""],[""img/mask79.png""],[""img/mask9.png""],[""img/mask18.png""],[""img/mask39.png""],[""img/mask43.png""],[""img/mask83.png""],[""img/mask45.png""],[""img/mask85.png""],[""img/mask88.png""],[""img/mask100.png""],[""img/mask35.png""]]]","","[27,32,15,26,12,13,6,34,23,4,17,33,16,24,14,10,18,0,2,35,31,29,3,1,25,11,5,9,21,30,7,22,19,20,28,8]","main","162","many-guess-6"
"","","","","","html-keyboard-response","127","477118","0.0-10.0-0.54","5adeb4e9f6b58c0001fa70aa","640759fa512f630a2bdc333d","64077cd966c0c0692f83a07d","null","","null","","","","","","","","","","","","","","","","","","","fixation","",""
"","","","","","many-guess-6","128","483463","0.0-10.0-1.54-0.54","5adeb4e9f6b58c0001fa70aa","640759fa512f630a2bdc333d","64077cd966c0c0692f83a07d","[5054.79999999702]","","","[1,26,20,13,7,28,5,12,21,32,34,30,10,33,27,22,16,15,19,2,25,8,35,4,9,18,17,6,29,11,31,0,14,24,3,23]","[301,131,41,341,311,141,51,161,201,261,111,211,11,321,231,191,281,21,1,251,350,181,241,101,31,151,331,291,61,121,271,71,81,171,91,221]","301","150","191.77552351170942","[191.77552351170942]","[41.77552351170942]","[41]","[30,30,300,30,30,210,210,30,300]","0","36","0","149.90199999103788","14.598999991081655","16","[[[""img/mask55.png""],[""img/mask23.png""],[""img/mask45.png""],[""img/mask51.png""],[""img/mask3.png""],[""img/mask9.png""],[""img/mask72.png""],[""img/mask22.png""],[""img/mask87.png""],[""img/mask85.png""],[""img/mask34.png""],[""img/mask13.png""],[""img/mask50.png""],[""img/mask18.png""],[""img/mask2.png""],[""img/mask45.png""],[""img/mask17.png""],[""img/mask70.png""],[""img/mask89.png""],[""img/mask22.png""],[""img/mask85.png""],[""img/mask69.png""],[""img/mask11.png""],[""img/mask28.png""],[""img/mask22.png""],[""img/mask44.png""],[""img/mask2.png""],[""img/mask79.png""],[""img/mask58.png""],[""img/mask27.png""],[""img/mask21.png""],[""img/mask55.png""],[""img/mask62.png""],[""img/mask65.png""],[""img/mask28.png""],[""img/mask8.png""]]]","","[1,26,20,13,7,28,5,12,21,32,34,30,10,33,27,22,16,15,19,2,25,8,35,4,9,18,17,6,29,11,31,0,14,24,3,23]","main","150","many-guess-6"
"","","","","","html-keyboard-response","129","483971","0.0-10.0-0.55","5adeb4e9f6b58c0001fa70aa","640759fa512f630a2bdc333d","64077cd966c0c0692f83a07d","null","","null","","","","","","","","","","","","","","","","","","","fixation","",""
"","","","","","color-precision2","130","486787","0.0-10.0-1.55-0.55","5adeb4e9f6b58c0001fa70aa","640759fa512f630a2bdc333d","64077cd966c0c0692f83a07d","[145.5]","","","[4]","[257]","257","89","","[null]","[null]","[239]","0","0","1","0","149.8180000000284","999.3979999910807","1000","[[[""img/mask36.png""]]]","","","main","89","color-precision2"
"","","","","","html-keyboard-response","131","487288","0.0-10.0-0.56","5adeb4e9f6b58c0001fa70aa","640759fa512f630a2bdc333d","64077cd966c0c0692f83a07d","null","","null","","","","","","","","","","","","","","","","","","","fixation","",""
"","","","","","many-guess-6","132","489806","0.0-10.0-1.56-0.56","5adeb4e9f6b58c0001fa70aa","640759fa512f630a2bdc333d","64077cd966c0c0692f83a07d","[1325]","","","[26,24,5,18,16,14,1,35,17,8,27,10,11,4,22,23,9,34,15,7,12,3,19,28,31,25,29,33,32,2,13,6,30,0,21,20]","[169,129,278,259,318,268,179,69,298,348,79,59,89,19,109,358,99,39,9,229,308,29,219,239,199,338,209,288,249,328,159,189,149,139,119,49]","169","223","254.6598249361485","[254.6598249361485]","[31.65982493614851]","[32]","[120,30,210,120,120,30,30,210,210]","0","36","0","149.98499999701744","15.354999999981374","16","[[[""img/mask89.png""],[""img/mask3.png""],[""img/mask39.png""],[""img/mask81.png""],[""img/mask72.png""],[""img/mask51.png""],[""img/mask27.png""],[""img/mask31.png""],[""img/mask32.png""],[""img/mask58.png""],[""img/mask41.png""],[""img/mask53.png""],[""img/mask94.png""],[""img/mask58.png""],[""img/mask6.png""],[""img/mask41.png""],[""img/mask71.png""],[""img/mask20.png""],[""img/mask58.png""],[""img/mask69.png""],[""img/mask54.png""],[""img/mask92.png""],[""img/mask81.png""],[""img/mask31.png""],[""img/mask8.png""],[""img/mask30.png""],[""img/mask83.png""],[""img/mask12.png""],[""img/mask89.png""],[""img/mask42.png""],[""img/mask30.png""],[""img/mask91.png""],[""img/mask16.png""],[""img/mask11.png""],[""img/mask84.png""],[""img/mask23.png""]]]","","[26,24,5,18,16,14,1,35,17,8,27,10,11,4,22,23,9,34,15,7,12,3,19,28,31,25,29,33,32,2,13,6,30,0,21,20]","main","223","many-guess-6"
"","","","","","html-keyboard-response","133","490307","0.0-10.0-0.57","5adeb4e9f6b58c0001fa70aa","640759fa512f630a2bdc333d","64077cd966c0c0692f83a07d","null","","null","","","","","","","","","","","","","","","","","","","fixation","",""
"","","","","","color-precision2","134","494769","0.0-10.0-1.57-0.57","5adeb4e9f6b58c0001fa70aa","640759fa512f630a2bdc333d","64077cd966c0c0692f83a07d","[2046.199999988079]","","","[32]","[95]","95","47","131.45340389975934","[131.45340389975934]","[84.45340389975934]","[83]","0","0","1","0","149.96000000002095","1000.9529999970109","1000","[[[""img/mask26.png""]]]","","","main","47","color-precision2"
"","","","","","html-keyboard-response","135","495270","0.0-10.0-0.58","5adeb4e9f6b58c0001fa70aa","640759fa512f630a2bdc333d","64077cd966c0c0692f83a07d","null","","null","","","","","","","","","","","","","","","","","","","fixation","",""
"","","","","","many-guess-6","136","498432","0.0-10.0-1.58-0.58","5adeb4e9f6b58c0001fa70aa","640759fa512f630a2bdc333d","64077cd966c0c0692f83a07d","[1584.199999988079]","","","[14,29,8,4,22,35,31,19,2,5,7,25,0,30,3,26,21,15,11,27,17,23,24,20,33,28,16,12,1,6,10,34,9,32,13,18]","[94,34,54,273,134,124,213,104,243,163,84,153,44,323,253,333,183,263,74,4,283,114,353,24,193,233,223,143,203,303,343,173,293,313,64,14]","94","169","275.1558948671802","[275.1558948671802]","[106.15589486718022]","[106]","[30,300,30,300,300,300,30,30,120]","0","36","0","149.96000000002095","15.743999994010665","16","[[[""img/mask82.png""],[""img/mask47.png""],[""img/mask22.png""],[""img/mask85.png""],[""img/mask11.png""],[""img/mask86.png""],[""img/mask85.png""],[""img/mask86.png""],[""img/mask83.png""],[""img/mask18.png""],[""img/mask94.png""],[""img/mask29.png""],[""img/mask49.png""],[""img/mask49.png""],[""img/mask83.png""],[""img/mask96.png""],[""img/mask36.png""],[""img/mask3.png""],[""img/mask59.png""],[""img/mask77.png""],[""img/mask36.png""],[""img/mask62.png""],[""img/mask58.png""],[""img/mask89.png""],[""img/mask23.png""],[""img/mask99.png""],[""img/mask92.png""],[""img/mask53.png""],[""img/mask4.png""],[""img/mask36.png""],[""img/mask6.png""],[""img/mask81.png""],[""img/mask45.png""],[""img/mask88.png""],[""img/mask33.png""],[""img/mask91.png""]]]","","[14,29,8,4,22,35,31,19,2,5,7,25,0,30,3,26,21,15,11,27,17,23,24,20,33,28,16,12,1,6,10,34,9,32,13,18]","main","169","many-guess-6"
"","","","","","html-keyboard-response","137","500057","0.0-10.0-0.59","5adeb4e9f6b58c0001fa70aa","640759fa512f630a2bdc333d","64077cd966c0c0692f83a07d","1625.1000000089407","Wow! You've completed 60 out of 180 trials! </p> <p>  </p><p> Take a quick break, then press any key when you're ready to continue."," ","","","","","","","","","","","","","","","","","","","fixation","",""
"","","","","","color-precision2","138","506604","0.0-10.0-1.59-0.59","5adeb4e9f6b58c0001fa70aa","640759fa512f630a2bdc333d","64077cd966c0c0692f83a07d","[559.2000000029802]","","","[5]","[305]","305","88","41.42126886962525","[41.42126886962525]","[313.42126886962524]","[312]","0","0","1","0","149.85799999401206","998.1309999880614","1000","[[[""img/mask50.png""]]]","","","main","88","color-precision2"
"","","","","","html-keyboard-response","139","507110","0.0-10.0-0.60","5adeb4e9f6b58c0001fa70aa","640759fa512f630a2bdc333d","64077cd966c0c0692f83a07d","null","","null","","","","","","","","","","","","","","","","","","","fixation","",""
"","","","","","many-guess-6","140","510257","0.0-10.0-1.60-0.60","5adeb4e9f6b58c0001fa70aa","640759fa512f630a2bdc333d","64077cd966c0c0692f83a07d","[1625.7000000029802]","","","[29,35,32,5,9,24,18,25,1,26,22,12,27,11,23,31,19,13,6,21,33,2,15,14,8,4,17,0,34,16,3,20,10,30,28,7]","[38,128,347,257,357,227,188,297,337,98,158,277,317,8,307,327,148,88,108,267,68,118,237,178,78,138,18,287,217,48,247,207,198,168,28,58]","38","66","81.85949278612574","[81.85949278612574]","[15.859492786125742]","[14]","[30,210,300,30,120,210,120,300,120]","0","36","0","149.8999999880907","15.473999994050246","16","[[[""img/mask65.png""],[""img/mask91.png""],[""img/mask37.png""],[""img/mask93.png""],[""img/mask97.png""],[""img/mask21.png""],[""img/mask40.png""],[""img/mask96.png""],[""img/mask87.png""],[""img/mask72.png""],[""img/mask21.png""],[""img/mask7.png""],[""img/mask30.png""],[""img/mask38.png""],[""img/mask40.png""],[""img/mask9.png""],[""img/mask32.png""],[""img/mask12.png""],[""img/mask29.png""],[""img/mask1.png""],[""img/mask55.png""],[""img/mask17.png""],[""img/mask93.png""],[""img/mask53.png""],[""img/mask30.png""],[""img/mask20.png""],[""img/mask92.png""],[""img/mask98.png""],[""img/mask55.png""],[""img/mask90.png""],[""img/mask69.png""],[""img/mask24.png""],[""img/mask92.png""],[""img/mask44.png""],[""img/mask39.png""],[""img/mask38.png""]]]","","[29,35,32,5,9,24,18,25,1,26,22,12,27,11,23,31,19,13,6,21,33,2,15,14,8,4,17,0,34,16,3,20,10,30,28,7]","main","66","many-guess-6"
"","","","","","html-keyboard-response","141","510757","0.0-10.0-0.61","5adeb4e9f6b58c0001fa70aa","640759fa512f630a2bdc333d","64077cd966c0c0692f83a07d","null","","null","","","","","","","","","","","","","","","","","","","fixation","",""
"","","","","","many-guess-6","142","514458","0.0-10.0-1.61-0.61","5adeb4e9f6b58c0001fa70aa","640759fa512f630a2bdc333d","64077cd966c0c0692f83a07d","[2315]","","","[29,25,15,11,35,33,9,30,0,1,5,14,21,8,32,7,19,2,22,4,34,13,18,12,26,20,17,31,6,3,23,27,10,16,24,28]","[216,316,306,296,37,276,56,226,356,236,136,146,66,116,346,86,7,176,96,286,156,76,106,196,206,27,256,186,17,266,47,326,126,166,336,246]","216","84","124.25301652137067","[124.25301652137067]","[40.25301652137067]","[39]","[120,120,120,300,120,30,30,210,300]","0","36","0","149.98499999108026","17.352999994065613","16","[[[""img/mask98.png""],[""img/mask65.png""],[""img/mask60.png""],[""img/mask74.png""],[""img/mask96.png""],[""img/mask42.png""],[""img/mask42.png""],[""img/mask10.png""],[""img/mask52.png""],[""img/mask87.png""],[""img/mask14.png""],[""img/mask23.png""],[""img/mask6.png""],[""img/mask35.png""],[""img/mask54.png""],[""img/mask24.png""],[""img/mask23.png""],[""img/mask5.png""],[""img/mask26.png""],[""img/mask19.png""],[""img/mask67.png""],[""img/mask75.png""],[""img/mask100.png""],[""img/mask31.png""],[""img/mask22.png""],[""img/mask40.png""],[""img/mask61.png""],[""img/mask6.png""],[""img/mask91.png""],[""img/mask66.png""],[""img/mask49.png""],[""img/mask93.png""],[""img/mask63.png""],[""img/mask90.png""],[""img/mask13.png""],[""img/mask88.png""]]]","","[29,25,15,11,35,33,9,30,0,1,5,14,21,8,32,7,19,2,22,4,34,13,18,12,26,20,17,31,6,3,23,27,10,16,24,28]","main","84","many-guess-6"
"","","","","","html-keyboard-response","143","514958","0.0-10.0-0.62","5adeb4e9f6b58c0001fa70aa","640759fa512f630a2bdc333d","64077cd966c0c0692f83a07d","null","","null","","","","","","","","","","","","","","","","","","","fixation","",""
"","","","","","color-precision2","144","517840","0.0-10.0-1.62-0.62","5adeb4e9f6b58c0001fa70aa","640759fa512f630a2bdc333d","64077cd966c0c0692f83a07d","[434.29999999701977]","","","[24]","[212]","212","145","354.541001809201","[354.541001809201]","[209.54100180920102]","[209]","0","0","1","0","149.82599999406375","999.1079999880749","1000","[[[""img/mask2.png""]]]","","","main","145","color-precision2"
"","","","","","html-keyboard-response","145","518341","0.0-10.0-0.63","5adeb4e9f6b58c0001fa70aa","640759fa512f630a2bdc333d","64077cd966c0c0692f83a07d","null","","null","","","","","","","","","","","","","","","","","","","fixation","",""
"","","","","","many-guess-6","146","523409","0.0-10.0-1.63-0.63","5adeb4e9f6b58c0001fa70aa","640759fa512f630a2bdc333d","64077cd966c0c0692f83a07d","[1344.300000011921]","","","[11,7,33,1,22,5,31,26,27,13,12,34,9,17,2,35,16,23,8,32,15,28,6,10,0,14,24,3,19,25,4,29,21,20,18,30]","[264,95,165,324,314,5,184,244,85,115,214,224,105,75,334,35,274,354,234,25,304,254,45,284,294,145,65,174,15,135,125,155,194,344,204,55]","264","203","257.7545750407364","[257.7545750407364]","[54.75457504073643]","[55]","[300,120,30,210,210,210,300,210,120]","0","36","0","150.0039999911096","16.381999994046055","16","[[[""img/mask47.png""],[""img/mask15.png""],[""img/mask2.png""],[""img/mask72.png""],[""img/mask84.png""],[""img/mask58.png""],[""img/mask28.png""],[""img/mask99.png""],[""img/mask36.png""],[""img/mask89.png""],[""img/mask77.png""],[""img/mask68.png""],[""img/mask6.png""],[""img/mask57.png""],[""img/mask75.png""],[""img/mask3.png""],[""img/mask6.png""],[""img/mask85.png""],[""img/mask26.png""],[""img/mask55.png""],[""img/mask84.png""],[""img/mask1.png""],[""img/mask82.png""],[""img/mask62.png""],[""img/mask28.png""],[""img/mask82.png""],[""img/mask53.png""],[""img/mask58.png""],[""img/mask54.png""],[""img/mask63.png""],[""img/mask81.png""],[""img/mask19.png""],[""img/mask67.png""],[""img/mask40.png""],[""img/mask48.png""],[""img/mask61.png""]]]","","[11,7,33,1,22,5,31,26,27,13,12,34,9,17,2,35,16,23,8,32,15,28,6,10,0,14,24,3,19,25,4,29,21,20,18,30]","main","203","many-guess-6"
"","","","","","html-keyboard-response","147","523914","0.0-10.0-0.64","5adeb4e9f6b58c0001fa70aa","640759fa512f630a2bdc333d","64077cd966c0c0692f83a07d","null","","null","","","","","","","","","","","","","","","","","","","fixation","",""
"","","","","","many-guess-6","148","528385","0.0-10.0-1.64-0.64","5adeb4e9f6b58c0001fa70aa","640759fa512f630a2bdc333d","64077cd966c0c0692f83a07d","[2237]","","","[19,2,0,30,35,13,17,10,21,16,20,29,31,24,22,15,8,27,34,5,26,18,11,7,6,25,4,9,1,33,32,12,23,14,28,3]","[203,342,322,63,143,253,103,223,73,93,213,3,283,312,153,293,263,243,352,233,173,303,163,183,133,23,123,33,273,332,53,43,83,193,113,13]","203","207","249.71182986428732","[249.71182986428732]","[42.711829864287324]","[43]","[300,210,300,300,300,30,30,30,300]","0","36","0","149.89399999997113","14.582000000053085","16","[[[""img/mask38.png""],[""img/mask25.png""],[""img/mask12.png""],[""img/mask10.png""],[""img/mask20.png""],[""img/mask36.png""],[""img/mask73.png""],[""img/mask30.png""],[""img/mask90.png""],[""img/mask55.png""],[""img/mask47.png""],[""img/mask90.png""],[""img/mask87.png""],[""img/mask76.png""],[""img/mask13.png""],[""img/mask91.png""],[""img/mask4.png""],[""img/mask33.png""],[""img/mask56.png""],[""img/mask8.png""],[""img/mask51.png""],[""img/mask21.png""],[""img/mask47.png""],[""img/mask15.png""],[""img/mask62.png""],[""img/mask7.png""],[""img/mask48.png""],[""img/mask84.png""],[""img/mask92.png""],[""img/mask84.png""],[""img/mask67.png""],[""img/mask58.png""],[""img/mask59.png""],[""img/mask30.png""],[""img/mask35.png""],[""img/mask68.png""]]]","","[19,2,0,30,35,13,17,10,21,16,20,29,31,24,22,15,8,27,34,5,26,18,11,7,6,25,4,9,1,33,32,12,23,14,28,3]","main","207","many-guess-6"
"","","","","","html-keyboard-response","149","528886","0.0-10.0-0.65","5adeb4e9f6b58c0001fa70aa","640759fa512f630a2bdc333d","64077cd966c0c0692f83a07d","null","","null","","","","","","","","","","","","","","","","","","","fixation","",""
"","","","","","many-guess-6","150","533226","0.0-10.0-1.65-0.65","5adeb4e9f6b58c0001fa70aa","640759fa512f630a2bdc333d","64077cd966c0c0692f83a07d","[2556.7999999970198]","","","[11,6,24,5,22,15,33,28,20,1,18,27,14,32,16,31,7,21,34,2,17,4,30,19,25,10,9,0,29,23,3,8,12,13,35,26]","[70,259,289,339,20,140,90,249,209,170,130,199,100,160,110,229,329,150,40,239,299,120,309,219,319,50,10,180,279,359,60,30,349,189,80,269]","70","296","335.81660698643475","[335.81660698643475]","[39.81660698643475]","[40]","[120,30,210,120,300,210,300,120,30]","0","36","0","149.92699999699835","16.807000000029802","16","[[[""img/mask52.png""],[""img/mask23.png""],[""img/mask42.png""],[""img/mask69.png""],[""img/mask36.png""],[""img/mask75.png""],[""img/mask88.png""],[""img/mask27.png""],[""img/mask94.png""],[""img/mask77.png""],[""img/mask52.png""],[""img/mask98.png""],[""img/mask29.png""],[""img/mask97.png""],[""img/mask90.png""],[""img/mask23.png""],[""img/mask42.png""],[""img/mask99.png""],[""img/mask70.png""],[""img/mask15.png""],[""img/mask1.png""],[""img/mask7.png""],[""img/mask47.png""],[""img/mask30.png""],[""img/mask68.png""],[""img/mask100.png""],[""img/mask52.png""],[""img/mask11.png""],[""img/mask97.png""],[""img/mask19.png""],[""img/mask11.png""],[""img/mask85.png""],[""img/mask62.png""],[""img/mask13.png""],[""img/mask45.png""],[""img/mask53.png""]]]","","[11,6,24,5,22,15,33,28,20,1,18,27,14,32,16,31,7,21,34,2,17,4,30,19,25,10,9,0,29,23,3,8,12,13,35,26]","main","296","many-guess-6"
"","","","","","html-keyboard-response","151","533728","0.0-10.0-0.66","5adeb4e9f6b58c0001fa70aa","640759fa512f630a2bdc333d","64077cd966c0c0692f83a07d","null","","null","","","","","","","","","","","","","","","","","","","fixation","",""
"","","","","","color-precision2","152","537596","0.0-10.0-1.66-0.66","5adeb4e9f6b58c0001fa70aa","640759fa512f630a2bdc333d","64077cd966c0c0692f83a07d","[161.5]","","","[23]","[141]","141","312","102.37826243196696","[102.37826243196696]","[150.37826243196696]","[149]","0","0","1","0","149.7950000000419","1000.969000000041","1000","[[[""img/mask16.png""]]]","","","main","312","color-precision2"
"","","","","","html-keyboard-response","153","538096","0.0-10.0-0.67","5adeb4e9f6b58c0001fa70aa","640759fa512f630a2bdc333d","64077cd966c0c0692f83a07d","null","","null","","","","","","","","","","","","","","","","","","","fixation","",""
"","","","","","many-guess-6","154","540849","0.0-10.0-1.67-0.67","5adeb4e9f6b58c0001fa70aa","640759fa512f630a2bdc333d","64077cd966c0c0692f83a07d","[1429]","","","[14,27,20,24,3,29,9,28,34,0,8,31,13,19,10,33,25,32,15,2,6,30,23,11,1,12,16,5,4,17,18,26,7,21,35,22]","[341,171,331,251,111,32,221,62,72,52,201,12,271,22,321,161,101,92,241,181,261,291,351,191,301,151,121,131,141,281,2,211,82,231,42,311]","341","59","214.58318495123268","[214.58318495123268]","[155.58318495123268]","[155]","[210,30,300,30,300,30,300,120,30]","0","36","0","149.931999997003","17.40499999409076","16","[[[""img/mask23.png""],[""img/mask74.png""],[""img/mask94.png""],[""img/mask25.png""],[""img/mask58.png""],[""img/mask76.png""],[""img/mask24.png""],[""img/mask17.png""],[""img/mask100.png""],[""img/mask95.png""],[""img/mask26.png""],[""img/mask95.png""],[""img/mask96.png""],[""img/mask10.png""],[""img/mask52.png""],[""img/mask43.png""],[""img/mask39.png""],[""img/mask10.png""],[""img/mask79.png""],[""img/mask70.png""],[""img/mask81.png""],[""img/mask85.png""],[""img/mask86.png""],[""img/mask82.png""],[""img/mask24.png""],[""img/mask23.png""],[""img/mask35.png""],[""img/mask78.png""],[""img/mask74.png""],[""img/mask25.png""],[""img/mask68.png""],[""img/mask51.png""],[""img/mask62.png""],[""img/mask34.png""],[""img/mask24.png""],[""img/mask81.png""]]]","","[14,27,20,24,3,29,9,28,34,0,8,31,13,19,10,33,25,32,15,2,6,30,23,11,1,12,16,5,4,17,18,26,7,21,35,22]","main","59","many-guess-6"
"","","","","","html-keyboard-response","155","541350","0.0-10.0-0.68","5adeb4e9f6b58c0001fa70aa","640759fa512f630a2bdc333d","64077cd966c0c0692f83a07d","null","","null","","","","","","","","","","","","","","","","","","","fixation","",""
"","","","","","many-guess-6","156","543811","0.0-10.0-1.68-0.68","5adeb4e9f6b58c0001fa70aa","640759fa512f630a2bdc333d","64077cd966c0c0692f83a07d","[1012.4000000059605]","","","[30,8,10,9,27,17,33,2,13,16,1,35,21,28,32,34,5,19,18,0,29,26,14,25,12,4,24,15,3,11,6,23,31,20,7,22]","[46,186,305,6,335,146,295,136,66,225,255,176,345,96,325,166,275,245,205,156,56,106,315,26,195,76,265,36,116,86,355,285,215,235,126,16]","46","344","186.98834074862378","[186.98834074862378]","[202.98834074862378]","[202]","[120,300,30,30,300,120,300,300,300]","0","36","0","149.9459999910323","17.734000000054948","16","[[[""img/mask50.png""],[""img/mask59.png""],[""img/mask88.png""],[""img/mask17.png""],[""img/mask78.png""],[""img/mask27.png""],[""img/mask25.png""],[""img/mask87.png""],[""img/mask1.png""],[""img/mask85.png""],[""img/mask17.png""],[""img/mask59.png""],[""img/mask3.png""],[""img/mask65.png""],[""img/mask53.png""],[""img/mask20.png""],[""img/mask88.png""],[""img/mask58.png""],[""img/mask76.png""],[""img/mask99.png""],[""img/mask45.png""],[""img/mask78.png""],[""img/mask91.png""],[""img/mask31.png""],[""img/mask6.png""],[""img/mask48.png""],[""img/mask55.png""],[""img/mask20.png""],[""img/mask27.png""],[""img/mask16.png""],[""img/mask72.png""],[""img/mask91.png""],[""img/mask73.png""],[""img/mask33.png""],[""img/mask20.png""],[""img/mask73.png""]]]","","[30,8,10,9,27,17,33,2,13,16,1,35,21,28,32,34,5,19,18,0,29,26,14,25,12,4,24,15,3,11,6,23,31,20,7,22]","main","344","many-guess-6"
"","","","","","html-keyboard-response","157","544311","0.0-10.0-0.69","5adeb4e9f6b58c0001fa70aa","640759fa512f630a2bdc333d","64077cd966c0c0692f83a07d","null","","null","","","","","","","","","","","","","","","","","","","fixation","",""
"","","","","","many-guess-6","158","547637","0.0-10.0-1.69-0.69","5adeb4e9f6b58c0001fa70aa","640759fa512f630a2bdc333d","64077cd966c0c0692f83a07d","[1840.4000000059605]","","","[27,14,7,18,22,2,4,1,26,28,8,16,0,17,35,6,31,24,32,13,33,11,12,9,25,34,19,29,5,10,21,20,3,15,23,30]","[140,90,300,100,80,30,60,170,290,320,210,240,280,110,330,200,50,40,270,260,130,21,350,180,160,190,230,70,310,150,11,120,250,1,220,340]","140","161","283.86222819328697","[283.86222819328697]","[122.86222819328697]","[123]","[120,210,300,300,300,300,210,300,300]","0","36","0","150.00599999399856","17.486999991117045","16","[[[""img/mask92.png""],[""img/mask70.png""],[""img/mask28.png""],[""img/mask72.png""],[""img/mask25.png""],[""img/mask32.png""],[""img/mask11.png""],[""img/mask6.png""],[""img/mask41.png""],[""img/mask57.png""],[""img/mask65.png""],[""img/mask94.png""],[""img/mask33.png""],[""img/mask45.png""],[""img/mask43.png""],[""img/mask77.png""],[""img/mask4.png""],[""img/mask55.png""],[""img/mask52.png""],[""img/mask13.png""],[""img/mask97.png""],[""img/mask73.png""],[""img/mask16.png""],[""img/mask7.png""],[""img/mask10.png""],[""img/mask20.png""],[""img/mask62.png""],[""img/mask11.png""],[""img/mask41.png""],[""img/mask53.png""],[""img/mask78.png""],[""img/mask70.png""],[""img/mask45.png""],[""img/mask9.png""],[""img/mask76.png""],[""img/mask44.png""]]]","","[27,14,7,18,22,2,4,1,26,28,8,16,0,17,35,6,31,24,32,13,33,11,12,9,25,34,19,29,5,10,21,20,3,15,23,30]","main","161","many-guess-6"
"","","","","","html-keyboard-response","159","548138","0.0-10.0-0.70","5adeb4e9f6b58c0001fa70aa","640759fa512f630a2bdc333d","64077cd966c0c0692f83a07d","null","","null","","","","","","","","","","","","","","","","","","","fixation","",""
"","","","","","color-precision2","160","550608","0.0-10.0-1.70-0.70","5adeb4e9f6b58c0001fa70aa","640759fa512f630a2bdc333d","64077cd966c0c0692f83a07d","[165.29999999701977]","","","[6]","[273]","273","253","178.84647841227678","[178.84647841227678]","[285.8464784122768]","[285]","0","0","1","0","149.96799998811912","1001.4449999999488","1000","[[[""img/mask41.png""]]]","","","main","253","color-precision2"
"","","","","","html-keyboard-response","161","551109","0.0-10.0-0.71","5adeb4e9f6b58c0001fa70aa","640759fa512f630a2bdc333d","64077cd966c0c0692f83a07d","null","","null","","","","","","","","","","","","","","","","","","","fixation","",""
"","","","","","color-precision2","162","554322","0.0-10.0-1.71-0.71","5adeb4e9f6b58c0001fa70aa","640759fa512f630a2bdc333d","64077cd966c0c0692f83a07d","[596.7000000029802]","","","[17]","[241]","241","356","225.62108054029727","[225.62108054029727]","[229.62108054029727]","[229]","0","0","1","0","149.84899999399204","998.4300000000512","1000","[[[""img/mask66.png""]]]","","","main","356","color-precision2"
"","","","","","html-keyboard-response","163","554828","0.0-10.0-0.72","5adeb4e9f6b58c0001fa70aa","640759fa512f630a2bdc333d","64077cd966c0c0692f83a07d","null","","null","","","","","","","","","","","","","","","","","","","fixation","",""
"","","","","","many-guess-6","164","558754","0.0-10.0-1.72-0.72","5adeb4e9f6b58c0001fa70aa","640759fa512f630a2bdc333d","64077cd966c0c0692f83a07d","[1149.5]","","","[32,21,14,2,5,26,19,30,11,25,9,17,1,34,23,0,22,15,35,33,10,3,31,20,28,4,7,27,12,8,29,18,13,16,6,24]","[228,198,248,208,108,19,298,318,348,59,218,238,358,128,178,288,39,98,338,148,308,118,268,188,79,9,138,29,258,328,278,49,69,168,88,158]","228","286","317.3870737222744","[317.3870737222744]","[31.38707372227441]","[32]","[210,210,120,300,120,210,120,30,300]","0","36","0","149.96199999703094","14.35999999998603","16","[[[""img/mask55.png""],[""img/mask56.png""],[""img/mask72.png""],[""img/mask34.png""],[""img/mask88.png""],[""img/mask79.png""],[""img/mask1.png""],[""img/mask97.png""],[""img/mask21.png""],[""img/mask20.png""],[""img/mask52.png""],[""img/mask8.png""],[""img/mask33.png""],[""img/mask26.png""],[""img/mask67.png""],[""img/mask24.png""],[""img/mask34.png""],[""img/mask5.png""],[""img/mask74.png""],[""img/mask37.png""],[""img/mask58.png""],[""img/mask43.png""],[""img/mask11.png""],[""img/mask49.png""],[""img/mask99.png""],[""img/mask11.png""],[""img/mask31.png""],[""img/mask58.png""],[""img/mask1.png""],[""img/mask23.png""],[""img/mask89.png""],[""img/mask49.png""],[""img/mask37.png""],[""img/mask97.png""],[""img/mask81.png""],[""img/mask5.png""]]]","","[32,21,14,2,5,26,19,30,11,25,9,17,1,34,23,0,22,15,35,33,10,3,31,20,28,4,7,27,12,8,29,18,13,16,6,24]","main","286","many-guess-6"
"","","","","","html-keyboard-response","165","559255","0.0-10.0-0.73","5adeb4e9f6b58c0001fa70aa","640759fa512f630a2bdc333d","64077cd966c0c0692f83a07d","null","","null","","","","","","","","","","","","","","","","","","","fixation","",""
"","","","","","many-guess-6","166","563012","0.0-10.0-1.73-0.73","5adeb4e9f6b58c0001fa70aa","640759fa512f630a2bdc333d","64077cd966c0c0692f83a07d","[1607.9000000059605]","","","[34,24,18,13,10,32,31,29,15,4,6,21,2,0,20,35,25,9,5,30,3,14,12,22,28,8,16,26,1,17,27,7,33,11,19,23]","[68,287,38,48,197,128,167,207,98,18,277,347,237,187,267,177,157,148,317,8,217,28,78,337,58,257,357,88,227,297,108,118,327,307,247,138]","68","216","112.93287203245121","[112.93287203245121]","[256.9328720324512]","[255]","[300,120,120,120,120,210,210,210,120]","0","36","0","149.93499999400228","17.11199999402743","16","[[[""img/mask95.png""],[""img/mask35.png""],[""img/mask6.png""],[""img/mask54.png""],[""img/mask9.png""],[""img/mask77.png""],[""img/mask63.png""],[""img/mask86.png""],[""img/mask39.png""],[""img/mask12.png""],[""img/mask18.png""],[""img/mask89.png""],[""img/mask64.png""],[""img/mask88.png""],[""img/mask57.png""],[""img/mask49.png""],[""img/mask26.png""],[""img/mask51.png""],[""img/mask66.png""],[""img/mask23.png""],[""img/mask41.png""],[""img/mask65.png""],[""img/mask24.png""],[""img/mask90.png""],[""img/mask83.png""],[""img/mask100.png""],[""img/mask67.png""],[""img/mask31.png""],[""img/mask88.png""],[""img/mask25.png""],[""img/mask2.png""],[""img/mask53.png""],[""img/mask39.png""],[""img/mask69.png""],[""img/mask45.png""],[""img/mask48.png""]]]","","[34,24,18,13,10,32,31,29,15,4,6,21,2,0,20,35,25,9,5,30,3,14,12,22,28,8,16,26,1,17,27,7,33,11,19,23]","main","216","many-guess-6"
"","","","","","html-keyboard-response","167","563520","0.0-10.0-0.74","5adeb4e9f6b58c0001fa70aa","640759fa512f630a2bdc333d","64077cd966c0c0692f83a07d","null","","null","","","","","","","","","","","","","","","","","","","fixation","",""
"","","","","","many-guess-6","168","567196","0.0-10.0-1.74-0.74","5adeb4e9f6b58c0001fa70aa","640759fa512f630a2bdc333d","64077cd966c0c0692f83a07d","[1224.699999988079]","","","[18,32,1,7,35,34,21,9,19,13,17,0,33,8,28,24,31,26,14,27,11,10,12,23,20,6,25,5,30,4,3,29,16,2,22,15]","[348,188,148,158,98,318,298,168,228,48,128,308,258,28,118,38,248,18,68,78,358,208,198,238,108,338,328,178,278,288,138,58,88,9,268,218]","348","88","133.9743460127358","[133.9743460127358]","[45.97434601273579]","[44]","[210,210,120,120,120,300,120,120,30]","0","36","0","149.94499999994878","15.125","16","[[[""img/mask59.png""],[""img/mask94.png""],[""img/mask45.png""],[""img/mask26.png""],[""img/mask34.png""],[""img/mask37.png""],[""img/mask42.png""],[""img/mask57.png""],[""img/mask30.png""],[""img/mask20.png""],[""img/mask74.png""],[""img/mask31.png""],[""img/mask15.png""],[""img/mask41.png""],[""img/mask84.png""],[""img/mask19.png""],[""img/mask8.png""],[""img/mask35.png""],[""img/mask69.png""],[""img/mask94.png""],[""img/mask88.png""],[""img/mask6.png""],[""img/mask51.png""],[""img/mask54.png""],[""img/mask95.png""],[""img/mask42.png""],[""img/mask24.png""],[""img/mask86.png""],[""img/mask61.png""],[""img/mask32.png""],[""img/mask74.png""],[""img/mask58.png""],[""img/mask55.png""],[""img/mask87.png""],[""img/mask60.png""],[""img/mask71.png""]]]","","[18,32,1,7,35,34,21,9,19,13,17,0,33,8,28,24,31,26,14,27,11,10,12,23,20,6,25,5,30,4,3,29,16,2,22,15]","main","88","many-guess-6"
"","","","","","html-keyboard-response","169","567697","0.0-10.0-0.75","5adeb4e9f6b58c0001fa70aa","640759fa512f630a2bdc333d","64077cd966c0c0692f83a07d","null","","null","","","","","","","","","","","","","","","","","","","fixation","",""
