"success","timeout","failed_images","failed_audio","failed_video","trial_type","trial_index","time_elapsed","internal_node_id","subject_id","study_id","session_id","rt","stimulus","response","position_of_items","colors_of_items","color_of_target","wheel_spin","response_angle","physical_response_angle","reported_color_angle","reported_color_discrete","locs","which_test","set_size","wheel_num_options","actual_mask_duration","actual_stim_duration","CMDispTime","maskArray","maskRotation","item_positions","task","randomSpinAmount","mainTask"
"true","false","[]","[]","[]","preload","0","1560","0.0-0.0","5bad4be8b712f30001b87947","640759fa512f630a2bdc333d","640785d1269a3561f71567fb","","","","","","","","","","","","","","","","","","","","","","","",""
"true","","","","","fullscreen","1","302183","0.0-1.0","5bad4be8b712f30001b87947","640759fa512f630a2bdc333d","640785d1269a3561f71567fb","","","","","","","","","","","","","","","","","","","","","","","",""
"","","","","","html-keyboard-response","2","554368","0.0-2.0","5bad4be8b712f30001b87947","640759fa512f630a2bdc333d","640785d1269a3561f71567fb","252181.59999990463","What a beautiful Tuesday to do some awesome science! </p> <p>  </p><p> </p>
    By completing this survey or questionnaire, you are consenting to be in this research study. </p>
    Your participation is voluntary and you can stop at any time.<p> [Press any key to continue] </p>"," ","","","","","","","","","","","","","","","","","","","","",""
"","","","","","html-keyboard-response","3","564374","0.0-3.0","5bad4be8b712f30001b87947","640759fa512f630a2bdc333d","640785d1269a3561f71567fb","null","
    <div style='width: 1000px;'>
    <div style='float: center;'><img src='img/TaskInstructions1.png'></img>
    </div>
    ","null","","","","","","","","","","","","","","","","","","","","",""
"","","","","","html-keyboard-response","4","572365","0.0-4.0","5bad4be8b712f30001b87947","640759fa512f630a2bdc333d","640785d1269a3561f71567fb","7990.400000095367","
    <div style='width: 1000px;'>
    <div style='float: center;'><img src='img/TaskInstructions1.png'></img>
    </div>
    "," ","","","","","","","","","","","","","","","","","","","","",""
"","","","","","html-keyboard-response","5","582368","0.0-5.0","5bad4be8b712f30001b87947","640759fa512f630a2bdc333d","640785d1269a3561f71567fb","null","
    <div style='width: 1000px;'>
    <div style='float: center;'><img src='img/TaskInstructions2.png'></img>
    </div>
    ","null","","","","","","","","","","","","","","","","","","","","",""
"","","","","","html-keyboard-response","6","619741","0.0-6.0","5bad4be8b712f30001b87947","640759fa512f630a2bdc333d","640785d1269a3561f71567fb","37371.10000014305","
    <div style='width: 1000px;'>
    <div style='float: center;'><img src='img/TaskInstructions2.png'></img>
    </div>
    "," ","","","","","","","","","","","","","","","","","","","","",""
"","","","","","video-keyboard-response","7","735551","0.0-7.0","5bad4be8b712f30001b87947","640759fa512f630a2bdc333d","640785d1269a3561f71567fb","115801.79999995232","[""video/TaskInstructions3.mp4""]"," ","","","","","","","","","","","","","","","","","","","","",""
"","","","","","image-keyboard-response","8","749693","0.0-8.0-0.0","5bad4be8b712f30001b87947","640759fa512f630a2bdc333d","640785d1269a3561f71567fb","14138.900000095367","img/training1.png"," ","","","","","","","","","","","","","","","","","","","","",""
"","","","","","color-precision2","9","761335","0.0-8.0-1.0-0.0","5bad4be8b712f30001b87947","640759fa512f630a2bdc333d","640785d1269a3561f71567fb","[1699]","","","[16]","[60]","60","147","203.92606854762414","[203.92606854762414]","[56.92606854762414]","[57]","0","0","1","0","498.89899985690136","992.9099999046884","1000","","","0","training","",""
"","","","","","image-keyboard-response","10","780957","0.0-8.0-0.1","5bad4be8b712f30001b87947","640759fa512f630a2bdc333d","640785d1269a3561f71567fb","19620.200000047684","img/training2.png"," ","","","","","","","","","","","","","","","","","","","","",""
"","","","","","many-guess-6","11","788927","0.0-8.0-1.1-0.1","5bad4be8b712f30001b87947","640759fa512f630a2bdc333d","640785d1269a3561f71567fb","[1990.9000000953674]","","","[25,22,7]","[237,265,277]","237","334","207.63721661101502","[207.63721661101502]","[233.63721661101502]","[234]","[210,120,300,30,300,30,210,30,300,300,210,120,120,210,30,30,300,120,210,120,300,300,300,210,210,210,300,210,120,210,120,30,210,210,210,120]","0","3","0","998.7479999522911","1000.9299999045907","1000","[[[""img/mask41.png""],[""img/mask33.png""],[""img/mask19.png""]]]","","[25,22,7]","training","",""
"","","","","","image-keyboard-response","12","799477","0.0-8.0-0.2","5bad4be8b712f30001b87947","640759fa512f630a2bdc333d","640785d1269a3561f71567fb","10548.900000095367","img/training3.png"," ","","","","","","","","","","","","","","","","","","","","",""
"","","","","","[""many-guess-6""]","13","805679","0.0-8.0-1.2-0.2","5bad4be8b712f30001b87947","640759fa512f630a2bdc333d","640785d1269a3561f71567fb","[1976.5]","","","[26,12,32,25,2]","[53,96,185,111,153]","53","120","244.86796503921863","[244.86796503921863]","[124.86796503921863]","[126]","[210,210,210,120,30,30,210,120,210,210,300,210,30,120,30,30,30,210,210,30,30,30,120,210,300,210,120,120,210,120,210,210,210,300,30,30]","0","5","0","499.70100000000093","491.94900000002235","500","[[[""img/mask5.png""],[""img/mask18.png""],[""img/mask77.png""],[""img/mask82.png""],[""img/mask66.png""]]]","","[26,12,32,25,2]","training","",""
"","","","","","image-keyboard-response","14","812261","0.0-8.0-0.3","5bad4be8b712f30001b87947","640759fa512f630a2bdc333d","640785d1269a3561f71567fb","6580.799999952316","img/training4.png"," ","","","","","","","","","","","","","","","","","","","","",""
"","","","","","[""many-guess-6""]","15","829255","0.0-8.0-1.3-0.3","5bad4be8b712f30001b87947","640759fa512f630a2bdc333d","640785d1269a3561f71567fb","[2635.7999999523163]","","","[0,30,7,12,11,18,21,27,25,31]","[349,320,39,23,70,58,86,13,100,301]","349","116","152.70141890330152","[152.70141890330152]","[36.701418903301516]","[35]","[30,120,30,30,210,210,30,210,210,30,120,30,300,30,120,210,120,30,120,300,120,30,120,210,210,300,30,120,210,30,300,120,30,120,120,30]","0","10","0","132.420999999973","129.30599985690787","132","[[[""img/mask49.png""],[""img/mask31.png""],[""img/mask44.png""],[""img/mask49.png""],[""img/mask19.png""],[""img/mask85.png""],[""img/mask1.png""],[""img/mask61.png""],[""img/mask50.png""],[""img/mask42.png""]]]","","[0,30,7,12,11,18,21,27,25,31]","training","",""
"","","","","","image-keyboard-response","16","865158","0.0-8.0-0.4","5bad4be8b712f30001b87947","640759fa512f630a2bdc333d","640785d1269a3561f71567fb","35901","img/training5.png"," ","","","","","","","","","","","","","","","","","","","","",""
"","","","","","[""many-guess-6""]","17","870408","0.0-8.0-1.4-0.4","5bad4be8b712f30001b87947","640759fa512f630a2bdc333d","640785d1269a3561f71567fb","[2321.4000000953674]","","","[1,3,18,13,22,11,28,24,31,12,0,27,29,33,14,30,32,26,21,15,17,9,25,19,16,5,4,23,34,7,8,35,6,10,20,2]","[157,227,28,277,257,317,297,247,58,337,48,187,127,67,287,207,147,217,87,267,327,18,307,197,347,117,38,167,8,177,137,107,357,97,77,237]","157","170","122.56137661317675","[122.56137661317675]","[312.5613766131768]","[311]","[120,120,300,30,210,120,300,30,210,210,30,300,30,120,210,120,120,30,210,300,300,210,300,300,300,210,210,120,120,120,30,30,120,30,120,120]","0","36","0","132.2930000476772","23.645000000018626","16","[[[""img/mask2.png""],[""img/mask62.png""],[""img/mask27.png""],[""img/mask46.png""],[""img/mask96.png""],[""img/mask68.png""],[""img/mask59.png""],[""img/mask4.png""],[""img/mask35.png""],[""img/mask76.png""],[""img/mask88.png""],[""img/mask35.png""],[""img/mask15.png""],[""img/mask56.png""],[""img/mask71.png""],[""img/mask95.png""],[""img/mask52.png""],[""img/mask72.png""],[""img/mask67.png""],[""img/mask91.png""],[""img/mask84.png""],[""img/mask31.png""],[""img/mask54.png""],[""img/mask59.png""],[""img/mask22.png""],[""img/mask43.png""],[""img/mask68.png""],[""img/mask36.png""],[""img/mask86.png""],[""img/mask92.png""],[""img/mask73.png""],[""img/mask65.png""],[""img/mask11.png""],[""img/mask25.png""],[""img/mask71.png""],[""img/mask68.png""]]]","","[1,3,18,13,22,11,28,24,31,12,0,27,29,33,14,30,32,26,21,15,17,9,25,19,16,5,4,23,34,7,8,35,6,10,20,2]","training","",""
"","","","","","image-keyboard-response","18","885950","0.0-9.0","5bad4be8b712f30001b87947","640759fa512f630a2bdc333d","640785d1269a3561f71567fb","15540.700000047684","[""img/endTraining.png""]"," ","","","","","","","","","","","","","","","","","","","","",""
"","","","","","html-keyboard-response","19","886452","0.0-10.0-0.0","5bad4be8b712f30001b87947","640759fa512f630a2bdc333d","640785d1269a3561f71567fb","null","","null","","","","","","","","","","","","","","","","","","","fixation","",""
"","","","","","many-guess-6","20","892136","0.0-10.0-1.0-0.0","5bad4be8b712f30001b87947","640759fa512f630a2bdc333d","640785d1269a3561f71567fb","[1983]","","","[23,12,16,9,21,20,15,27,0,8,30,28,14,1,18,6,2,35,31,34,11,25,24,26,3,13,7,22,33,19,17,29,5,10,4,32]","[111,340,191,51,260,300,141,290,310,221,71,231,11,31,81,91,101,61,151,121,21,161,270,250,171,330,131,201,240,1,280,181,350,41,320,211]","111","306","34.29280194557553","[34.29280194557553]","[88.29280194557555]","[87]","[120,30,300,300,30,300,120,300,300]","0","36","0","148.99100004765205","16.391999952262267","16","[[[""img/mask42.png""],[""img/mask38.png""],[""img/mask84.png""],[""img/mask49.png""],[""img/mask4.png""],[""img/mask39.png""],[""img/mask85.png""],[""img/mask9.png""],[""img/mask60.png""],[""img/mask23.png""],[""img/mask28.png""],[""img/mask3.png""],[""img/mask47.png""],[""img/mask63.png""],[""img/mask68.png""],[""img/mask68.png""],[""img/mask29.png""],[""img/mask42.png""],[""img/mask19.png""],[""img/mask71.png""],[""img/mask94.png""],[""img/mask23.png""],[""img/mask58.png""],[""img/mask83.png""],[""img/mask11.png""],[""img/mask86.png""],[""img/mask7.png""],[""img/mask9.png""],[""img/mask65.png""],[""img/mask10.png""],[""img/mask59.png""],[""img/mask57.png""],[""img/mask26.png""],[""img/mask43.png""],[""img/mask90.png""],[""img/mask79.png""]]]","","[23,12,16,9,21,20,15,27,0,8,30,28,14,1,18,6,2,35,31,34,11,25,24,26,3,13,7,22,33,19,17,29,5,10,4,32]","main","306","many-guess-6"
"","","","","","html-keyboard-response","21","892638","0.0-10.0-0.1","5bad4be8b712f30001b87947","640759fa512f630a2bdc333d","640785d1269a3561f71567fb","null","","null","","","","","","","","","","","","","","","","","","","fixation","",""
"","","","","","many-guess-6","22","897208","0.0-10.0-1.1-0.1","5bad4be8b712f30001b87947","640759fa512f630a2bdc333d","640785d1269a3561f71567fb","[1887.7000000476837]","","","[12,5,22,35,14,34,19,11,2,24,15,3,23,25,7,10,4,8,0,1,32,21,29,33,26,13,31,16,6,30,18,27,17,28,9,20]","[95,244,344,35,334,304,125,224,274,234,254,324,135,284,85,75,194,165,25,5,45,214,354,15,65,115,185,105,294,145,264,204,55,314,175,155]","95","70","60.72901453831539","[60.72901453831539]","[350.72901453831537]","[349]","[210,300,210,210,30,120,30,210,120]","0","36","0","148.96999999997206","22.24799985694699","16","[[[""img/mask53.png""],[""img/mask94.png""],[""img/mask63.png""],[""img/mask42.png""],[""img/mask58.png""],[""img/mask31.png""],[""img/mask50.png""],[""img/mask83.png""],[""img/mask14.png""],[""img/mask97.png""],[""img/mask65.png""],[""img/mask43.png""],[""img/mask3.png""],[""img/mask50.png""],[""img/mask70.png""],[""img/mask53.png""],[""img/mask79.png""],[""img/mask25.png""],[""img/mask34.png""],[""img/mask98.png""],[""img/mask8.png""],[""img/mask6.png""],[""img/mask59.png""],[""img/mask49.png""],[""img/mask40.png""],[""img/mask62.png""],[""img/mask16.png""],[""img/mask29.png""],[""img/mask54.png""],[""img/mask86.png""],[""img/mask32.png""],[""img/mask48.png""],[""img/mask21.png""],[""img/mask5.png""],[""img/mask12.png""],[""img/mask37.png""]]]","","[12,5,22,35,14,34,19,11,2,24,15,3,23,25,7,10,4,8,0,1,32,21,29,33,26,13,31,16,6,30,18,27,17,28,9,20]","main","70","many-guess-6"
"","","","","","html-keyboard-response","23","897710","0.0-10.0-0.2","5bad4be8b712f30001b87947","640759fa512f630a2bdc333d","640785d1269a3561f71567fb","null","","null","","","","","","","","","","","","","","","","","","","fixation","",""
"","","","","","many-guess-6","24","901992","0.0-10.0-1.2-0.2","5bad4be8b712f30001b87947","640759fa512f630a2bdc333d","640785d1269a3561f71567fb","[2422.300000190735]","","","[33,15,1,13,19,34,3,4,24,9,27,23,14,20,2,35,6,31,5,21,17,28,30,16,22,32,29,7,11,8,12,0,18,25,10,26]","[349,90,40,160,180,220,299,289,239,20,200,309,10,319,170,70,130,30,100,359,229,210,279,339,150,80,60,110,329,140,269,50,120,259,249,190]","349","267","78.73746360043249","[78.73746360043249]","[171.73746360043248]","[170]","[120,300,300,300,300,300,30,120,30]","0","36","0","148.85600000002887","11.117999952286482","16","[[[""img/mask77.png""],[""img/mask48.png""],[""img/mask73.png""],[""img/mask38.png""],[""img/mask41.png""],[""img/mask60.png""],[""img/mask22.png""],[""img/mask88.png""],[""img/mask16.png""],[""img/mask13.png""],[""img/mask39.png""],[""img/mask33.png""],[""img/mask68.png""],[""img/mask5.png""],[""img/mask93.png""],[""img/mask68.png""],[""img/mask47.png""],[""img/mask31.png""],[""img/mask59.png""],[""img/mask44.png""],[""img/mask75.png""],[""img/mask50.png""],[""img/mask37.png""],[""img/mask28.png""],[""img/mask33.png""],[""img/mask54.png""],[""img/mask51.png""],[""img/mask40.png""],[""img/mask91.png""],[""img/mask100.png""],[""img/mask41.png""],[""img/mask1.png""],[""img/mask85.png""],[""img/mask56.png""],[""img/mask30.png""],[""img/mask26.png""]]]","","[33,15,1,13,19,34,3,4,24,9,27,23,14,20,2,35,6,31,5,21,17,28,30,16,22,32,29,7,11,8,12,0,18,25,10,26]","main","267","many-guess-6"
"","","","","","html-keyboard-response","25","902492","0.0-10.0-0.3","5bad4be8b712f30001b87947","640759fa512f630a2bdc333d","640785d1269a3561f71567fb","null","","null","","","","","","","","","","","","","","","","","","","fixation","",""
"","","","","","color-precision2","26","906136","0.0-10.0-1.3-0.3","5bad4be8b712f30001b87947","640759fa512f630a2bdc333d","640785d1269a3561f71567fb","[1132.2999999523163]","","","[4]","[122]","122","102","220.79769842706264","[220.79769842706264]","[118.79769842706264]","[118]","0","0","1","0","149.15199995227158","1006.9699999523582","1000","[[[""img/mask18.png""]]]","","","main","102","color-precision2"
"","","","","","html-keyboard-response","27","906636","0.0-10.0-0.4","5bad4be8b712f30001b87947","640759fa512f630a2bdc333d","640785d1269a3561f71567fb","null","","null","","","","","","","","","","","","","","","","","","","fixation","",""
"","","","","","color-precision2","28","910688","0.0-10.0-1.4-0.4","5bad4be8b712f30001b87947","640759fa512f630a2bdc333d","640785d1269a3561f71567fb","[1151.2000000476837]","","","[31]","[84]","84","5","91.01762352004175","[91.01762352004175]","[86.01762352004175]","[84]","0","0","1","0","148.9609998569358","997.259999952279","1000","[[[""img/mask68.png""]]]","","","main","5","color-precision2"
"","","","","","html-keyboard-response","29","911189","0.0-10.0-0.5","5bad4be8b712f30001b87947","640759fa512f630a2bdc333d","640785d1269a3561f71567fb","null","","null","","","","","","","","","","","","","","","","","","","fixation","",""
"","","","","","many-guess-6","30","914584","0.0-10.0-1.5-0.5","5bad4be8b712f30001b87947","640759fa512f630a2bdc333d","640785d1269a3561f71567fb","[1664.0999999046326]","","","[28,2,21,6,13,1,33,23,10,17,26,4,31,30,20,9,19,0,35,34,27,11,18,14,12,8,22,25,32,3,5,15,7,16,24,29]","[318,179,139,19,79,249,269,298,149,119,219,99,39,159,288,199,59,279,69,308,259,209,49,328,169,29,9,229,348,239,189,338,109,129,89,358]","318","149","117.51136300542358","[117.51136300542358]","[328.51136300542356]","[327]","[120,120,210,210,210,210,30,300,300]","0","36","0","148.79499985696748","15.848999904585071","16","[[[""img/mask24.png""],[""img/mask25.png""],[""img/mask5.png""],[""img/mask18.png""],[""img/mask71.png""],[""img/mask74.png""],[""img/mask89.png""],[""img/mask38.png""],[""img/mask57.png""],[""img/mask31.png""],[""img/mask71.png""],[""img/mask92.png""],[""img/mask94.png""],[""img/mask21.png""],[""img/mask25.png""],[""img/mask13.png""],[""img/mask1.png""],[""img/mask21.png""],[""img/mask46.png""],[""img/mask18.png""],[""img/mask32.png""],[""img/mask89.png""],[""img/mask19.png""],[""img/mask18.png""],[""img/mask27.png""],[""img/mask68.png""],[""img/mask94.png""],[""img/mask19.png""],[""img/mask83.png""],[""img/mask77.png""],[""img/mask70.png""],[""img/mask44.png""],[""img/mask47.png""],[""img/mask87.png""],[""img/mask81.png""],[""img/mask72.png""]]]","","[28,2,21,6,13,1,33,23,10,17,26,4,31,30,20,9,19,0,35,34,27,11,18,14,12,8,22,25,32,3,5,15,7,16,24,29]","main","149","many-guess-6"
"","","","","","html-keyboard-response","31","915085","0.0-10.0-0.6","5bad4be8b712f30001b87947","640759fa512f630a2bdc333d","640785d1269a3561f71567fb","null","","null","","","","","","","","","","","","","","","","","","","fixation","",""
"","","","","","many-guess-6","32","919016","0.0-10.0-1.6-0.6","5bad4be8b712f30001b87947","640759fa512f630a2bdc333d","640785d1269a3561f71567fb","[1845.9000000953674]","","","[35,31,15,11,3,28,14,6,24,1,2,23,7,17,27,0,25,16,30,22,26,19,20,18,34,9,33,29,13,32,8,12,10,4,5,21]","[172,122,22,72,222,232,202,281,351,331,152,291,192,212,261,241,102,251,52,182,341,112,301,162,311,62,142,92,32,321,12,42,82,2,271,132]","172","115","324.1698478808482","[324.1698478808482]","[209.16984788084818]","[209]","[300,120,300,210,210,300,30,120,30]","0","36","0","149.01599999994505","8.783000000054017","16","[[[""img/mask39.png""],[""img/mask17.png""],[""img/mask29.png""],[""img/mask3.png""],[""img/mask49.png""],[""img/mask77.png""],[""img/mask65.png""],[""img/mask77.png""],[""img/mask56.png""],[""img/mask13.png""],[""img/mask56.png""],[""img/mask95.png""],[""img/mask84.png""],[""img/mask2.png""],[""img/mask45.png""],[""img/mask68.png""],[""img/mask87.png""],[""img/mask86.png""],[""img/mask35.png""],[""img/mask97.png""],[""img/mask61.png""],[""img/mask30.png""],[""img/mask24.png""],[""img/mask4.png""],[""img/mask53.png""],[""img/mask61.png""],[""img/mask38.png""],[""img/mask11.png""],[""img/mask15.png""],[""img/mask61.png""],[""img/mask26.png""],[""img/mask65.png""],[""img/mask41.png""],[""img/mask78.png""],[""img/mask69.png""],[""img/mask76.png""]]]","","[35,31,15,11,3,28,14,6,24,1,2,23,7,17,27,0,25,16,30,22,26,19,20,18,34,9,33,29,13,32,8,12,10,4,5,21]","main","115","many-guess-6"
"","","","","","html-keyboard-response","33","919517","0.0-10.0-0.7","5bad4be8b712f30001b87947","640759fa512f630a2bdc333d","640785d1269a3561f71567fb","null","","null","","","","","","","","","","","","","","","","","","","fixation","",""
"","","","","","many-guess-6","34","923976","0.0-10.0-1.7-0.7","5bad4be8b712f30001b87947","640759fa512f630a2bdc333d","640785d1269a3561f71567fb","[2789.4000000953674]","","","[14,18,35,29,33,19,34,16,21,0,5,15,10,24,9,20,4,6,27,32,12,25,17,8,31,26,23,28,11,1,2,13,3,7,22,30]","[316,116,246,56,256,76,286,236,46,356,146,326,17,27,156,216,296,336,36,266,306,106,346,276,7,66,226,206,86,186,136,96,196,126,176,166]","316","235","243.47912813692142","[243.47912813692142]","[8.479128136921418]","[8]","[30,30,300,300,210,30,120,30,300]","0","36","0","149.02399995236192","20.947999856900424","16","[[[""img/mask78.png""],[""img/mask73.png""],[""img/mask68.png""],[""img/mask9.png""],[""img/mask39.png""],[""img/mask70.png""],[""img/mask40.png""],[""img/mask19.png""],[""img/mask9.png""],[""img/mask3.png""],[""img/mask90.png""],[""img/mask58.png""],[""img/mask3.png""],[""img/mask56.png""],[""img/mask62.png""],[""img/mask53.png""],[""img/mask83.png""],[""img/mask18.png""],[""img/mask8.png""],[""img/mask30.png""],[""img/mask93.png""],[""img/mask70.png""],[""img/mask67.png""],[""img/mask47.png""],[""img/mask77.png""],[""img/mask32.png""],[""img/mask81.png""],[""img/mask88.png""],[""img/mask1.png""],[""img/mask92.png""],[""img/mask23.png""],[""img/mask56.png""],[""img/mask12.png""],[""img/mask61.png""],[""img/mask28.png""],[""img/mask86.png""]]]","","[14,18,35,29,33,19,34,16,21,0,5,15,10,24,9,20,4,6,27,32,12,25,17,8,31,26,23,28,11,1,2,13,3,7,22,30]","main","235","many-guess-6"
"","","","","","html-keyboard-response","35","924477","0.0-10.0-0.8","5bad4be8b712f30001b87947","640759fa512f630a2bdc333d","640785d1269a3561f71567fb","null","","null","","","","","","","","","","","","","","","","","","","fixation","",""
"","","","","","color-precision2","36","928920","0.0-10.0-1.8-0.8","5bad4be8b712f30001b87947","640759fa512f630a2bdc333d","640785d1269a3561f71567fb","[1815.7999999523163]","","","[19]","[294]","294","37","332.4273477970585","[332.4273477970585]","[295.4273477970585]","[295]","0","0","1","0","147.77199985692278","992.1500000000233","1000","[[[""img/mask73.png""]]]","","","main","37","color-precision2"
"","","","","","html-keyboard-response","37","929421","0.0-10.0-0.9","5bad4be8b712f30001b87947","640759fa512f630a2bdc333d","640785d1269a3561f71567fb","null","","null","","","","","","","","","","","","","","","","","","","fixation","",""
"","","","","","many-guess-6","38","933904","0.0-10.0-1.9-0.9","5bad4be8b712f30001b87947","640759fa512f630a2bdc333d","640785d1269a3561f71567fb","[2367.2999999523163]","","","[0,19,3,13,22,2,34,11,29,35,17,12,7,15,31,14,18,32,1,20,16,23,30,26,27,33,21,5,9,8,6,4,28,24,10,25]","[12,231,241,251,341,201,311,41,71,261,51,141,151,131,331,321,211,101,121,221,161,351,181,21,91,171,301,191,61,81,31,281,291,111,2,271]","12","99","55.10575500470105","[55.10575500470105]","[316.10575500470105]","[314]","[210,210,30,30,210,300,210,300,210]","0","36","0","148.97199995233677","24.261000047670677","16","[[[""img/mask2.png""],[""img/mask67.png""],[""img/mask16.png""],[""img/mask51.png""],[""img/mask48.png""],[""img/mask41.png""],[""img/mask46.png""],[""img/mask15.png""],[""img/mask58.png""],[""img/mask80.png""],[""img/mask16.png""],[""img/mask90.png""],[""img/mask3.png""],[""img/mask66.png""],[""img/mask84.png""],[""img/mask8.png""],[""img/mask47.png""],[""img/mask25.png""],[""img/mask84.png""],[""img/mask98.png""],[""img/mask74.png""],[""img/mask39.png""],[""img/mask28.png""],[""img/mask56.png""],[""img/mask13.png""],[""img/mask75.png""],[""img/mask40.png""],[""img/mask64.png""],[""img/mask7.png""],[""img/mask21.png""],[""img/mask98.png""],[""img/mask38.png""],[""img/mask63.png""],[""img/mask91.png""],[""img/mask72.png""],[""img/mask49.png""]]]","","[0,19,3,13,22,2,34,11,29,35,17,12,7,15,31,14,18,32,1,20,16,23,30,26,27,33,21,5,9,8,6,4,28,24,10,25]","main","99","many-guess-6"
"","","","","","html-keyboard-response","39","934406","0.0-10.0-0.10","5bad4be8b712f30001b87947","640759fa512f630a2bdc333d","640785d1269a3561f71567fb","null","","null","","","","","","","","","","","","","","","","","","","fixation","",""
"","","","","","color-precision2","40","939152","0.0-10.0-1.10-0.10","5bad4be8b712f30001b87947","640759fa512f630a2bdc333d","640785d1269a3561f71567fb","[1014.7000000476837]","","","[28]","[18]","18","183","183.30075235358075","[183.30075235358075]","[0.3007523535807479]","[359]","0","0","1","0","147.85700004769024","997.5019999999786","1000","[[[""img/mask4.png""]]]","","","main","183","color-precision2"
"","","","","","html-keyboard-response","41","939653","0.0-10.0-0.11","5bad4be8b712f30001b87947","640759fa512f630a2bdc333d","640785d1269a3561f71567fb","null","","null","","","","","","","","","","","","","","","","","","","fixation","",""
"","","","","","many-guess-6","42","943752","0.0-10.0-1.11-0.11","5bad4be8b712f30001b87947","640759fa512f630a2bdc333d","640785d1269a3561f71567fb","[1732]","","","[14,17,16,21,29,10,25,11,12,35,1,3,13,34,18,33,2,8,27,15,6,26,19,7,0,9,31,32,5,30,28,4,20,24,22,23]","[353,153,253,44,143,233,113,323,293,14,283,103,173,183,333,223,243,163,273,24,64,313,4,93,203,123,73,133,83,34,263,303,193,54,343,213]","353","308","179.72128598296655","[179.72128598296655]","[231.72128598296655]","[231]","[300,210,120,300,120,30,120,30,120]","0","36","0","148.9299998569768","22.512999904574826","16","[[[""img/mask86.png""],[""img/mask38.png""],[""img/mask74.png""],[""img/mask4.png""],[""img/mask72.png""],[""img/mask81.png""],[""img/mask63.png""],[""img/mask39.png""],[""img/mask37.png""],[""img/mask15.png""],[""img/mask69.png""],[""img/mask50.png""],[""img/mask46.png""],[""img/mask7.png""],[""img/mask25.png""],[""img/mask30.png""],[""img/mask88.png""],[""img/mask39.png""],[""img/mask64.png""],[""img/mask25.png""],[""img/mask33.png""],[""img/mask26.png""],[""img/mask2.png""],[""img/mask94.png""],[""img/mask2.png""],[""img/mask39.png""],[""img/mask34.png""],[""img/mask17.png""],[""img/mask56.png""],[""img/mask41.png""],[""img/mask49.png""],[""img/mask44.png""],[""img/mask56.png""],[""img/mask18.png""],[""img/mask18.png""],[""img/mask69.png""]]]","","[14,17,16,21,29,10,25,11,12,35,1,3,13,34,18,33,2,8,27,15,6,26,19,7,0,9,31,32,5,30,28,4,20,24,22,23]","main","308","many-guess-6"
"","","","","","html-keyboard-response","43","944265","0.0-10.0-0.12","5bad4be8b712f30001b87947","640759fa512f630a2bdc333d","640785d1269a3561f71567fb","null","","null","","","","","","","","","","","","","","","","","","","fixation","",""
"","","","","","many-guess-6","44","948728","0.0-10.0-1.12-0.12","5bad4be8b712f30001b87947","640759fa512f630a2bdc333d","640785d1269a3561f71567fb","[2491.2999999523163]","","","[35,9,21,24,3,18,13,29,17,2,28,14,33,0,27,5,4,11,1,19,26,20,7,30,23,31,6,8,32,15,12,16,34,22,10,25]","[77,257,157,316,297,207,237,247,277,107,346,17,187,37,7,287,147,326,177,67,57,336,27,137,306,87,227,356,97,217,197,47,117,127,167,267]","77","233","261.11717771659517","[261.11717771659517]","[28.117177716595165]","[28]","[30,30,30,210,30,120,210,120,300]","0","36","0","149.1209998569684","11.794999952311628","16","[[[""img/mask28.png""],[""img/mask13.png""],[""img/mask1.png""],[""img/mask73.png""],[""img/mask12.png""],[""img/mask38.png""],[""img/mask24.png""],[""img/mask18.png""],[""img/mask71.png""],[""img/mask64.png""],[""img/mask89.png""],[""img/mask90.png""],[""img/mask56.png""],[""img/mask41.png""],[""img/mask38.png""],[""img/mask18.png""],[""img/mask31.png""],[""img/mask38.png""],[""img/mask64.png""],[""img/mask8.png""],[""img/mask20.png""],[""img/mask14.png""],[""img/mask50.png""],[""img/mask80.png""],[""img/mask1.png""],[""img/mask40.png""],[""img/mask54.png""],[""img/mask16.png""],[""img/mask53.png""],[""img/mask22.png""],[""img/mask88.png""],[""img/mask81.png""],[""img/mask89.png""],[""img/mask15.png""],[""img/mask90.png""],[""img/mask29.png""]]]","","[35,9,21,24,3,18,13,29,17,2,28,14,33,0,27,5,4,11,1,19,26,20,7,30,23,31,6,8,32,15,12,16,34,22,10,25]","main","233","many-guess-6"
"","","","","","html-keyboard-response","45","949228","0.0-10.0-0.13","5bad4be8b712f30001b87947","640759fa512f630a2bdc333d","640785d1269a3561f71567fb","null","","null","","","","","","","","","","","","","","","","","","","fixation","",""
"","","","","","many-guess-6","46","954000","0.0-10.0-1.13-0.13","5bad4be8b712f30001b87947","640759fa512f630a2bdc333d","640785d1269a3561f71567fb","[3013.199999809265]","","","[15,30,29,35,28,27,18,5,9,0,21,19,8,16,26,6,24,32,31,34,12,10,25,2,14,3,1,22,4,33,20,13,17,23,7,11]","[48,267,18,157,147,317,347,297,307,177,8,357,117,287,98,337,28,227,127,137,68,197,237,277,247,217,207,167,78,88,257,38,327,187,107,58]","48","232","293.18024039247473","[293.18024039247473]","[61.18024039247473]","[61]","[210,120,30,120,120,210,300,120,30]","0","36","0","149.13099985697772","9.991000000038184","16","[[[""img/mask82.png""],[""img/mask98.png""],[""img/mask71.png""],[""img/mask85.png""],[""img/mask31.png""],[""img/mask80.png""],[""img/mask10.png""],[""img/mask71.png""],[""img/mask28.png""],[""img/mask40.png""],[""img/mask40.png""],[""img/mask29.png""],[""img/mask41.png""],[""img/mask17.png""],[""img/mask1.png""],[""img/mask24.png""],[""img/mask48.png""],[""img/mask54.png""],[""img/mask33.png""],[""img/mask18.png""],[""img/mask90.png""],[""img/mask63.png""],[""img/mask68.png""],[""img/mask50.png""],[""img/mask59.png""],[""img/mask68.png""],[""img/mask27.png""],[""img/mask1.png""],[""img/mask74.png""],[""img/mask40.png""],[""img/mask92.png""],[""img/mask50.png""],[""img/mask77.png""],[""img/mask96.png""],[""img/mask28.png""],[""img/mask8.png""]]]","","[15,30,29,35,28,27,18,5,9,0,21,19,8,16,26,6,24,32,31,34,12,10,25,2,14,3,1,22,4,33,20,13,17,23,7,11]","main","232","many-guess-6"
"","","","","","html-keyboard-response","47","954501","0.0-10.0-0.14","5bad4be8b712f30001b87947","640759fa512f630a2bdc333d","640785d1269a3561f71567fb","null","","null","","","","","","","","","","","","","","","","","","","fixation","",""
"","","","","","many-guess-6","48","960840","0.0-10.0-1.14-0.14","5bad4be8b712f30001b87947","640759fa512f630a2bdc333d","640785d1269a3561f71567fb","[2086.899999856949]","","","[5,15,0,7,24,31,10,2,14,26,12,13,25,16,4,22,32,23,11,6,27,19,9,3,21,29,35,18,33,20,17,1,30,8,28,34]","[174,94,104,74,283,64,353,14,54,243,114,263,124,144,303,184,313,44,193,323,213,223,84,233,24,333,34,203,154,134,293,4,164,273,253,343]","174","335","237.714059619444","[237.714059619444]","[262.714059619444]","[263]","[30,120,120,210,300,210,210,210,30]","0","36","0","148.97300004772842","10.280999904614873","16","[[[""img/mask79.png""],[""img/mask36.png""],[""img/mask79.png""],[""img/mask99.png""],[""img/mask27.png""],[""img/mask69.png""],[""img/mask64.png""],[""img/mask90.png""],[""img/mask56.png""],[""img/mask40.png""],[""img/mask69.png""],[""img/mask32.png""],[""img/mask23.png""],[""img/mask93.png""],[""img/mask24.png""],[""img/mask75.png""],[""img/mask57.png""],[""img/mask9.png""],[""img/mask19.png""],[""img/mask37.png""],[""img/mask79.png""],[""img/mask3.png""],[""img/mask11.png""],[""img/mask7.png""],[""img/mask12.png""],[""img/mask72.png""],[""img/mask99.png""],[""img/mask39.png""],[""img/mask14.png""],[""img/mask34.png""],[""img/mask62.png""],[""img/mask77.png""],[""img/mask40.png""],[""img/mask9.png""],[""img/mask58.png""],[""img/mask69.png""]]]","","[5,15,0,7,24,31,10,2,14,26,12,13,25,16,4,22,32,23,11,6,27,19,9,3,21,29,35,18,33,20,17,1,30,8,28,34]","main","335","many-guess-6"
"","","","","","html-keyboard-response","49","961345","0.0-10.0-0.15","5bad4be8b712f30001b87947","640759fa512f630a2bdc333d","640785d1269a3561f71567fb","null","","null","","","","","","","","","","","","","","","","","","","fixation","",""
"","","","","","many-guess-6","50","966152","0.0-10.0-1.15-0.15","5bad4be8b712f30001b87947","640759fa512f630a2bdc333d","640785d1269a3561f71567fb","[1782]","","","[26,1,23,12,30,25,33,24,7,2,35,19,28,8,32,13,4,31,9,18,15,22,29,16,34,6,5,3,14,0,27,10,11,20,17,21]","[97,27,237,37,336,127,267,7,107,346,187,247,287,277,316,167,77,326,257,147,207,297,227,197,57,117,137,87,17,47,157,67,306,356,217,177]","97","226","282.52477903671314","[282.52477903671314]","[56.52477903671314]","[57]","[210,300,30,300,120,120,30,30,210]","0","36","0","148.97099985694513","15.080000047688372","16","[[[""img/mask3.png""],[""img/mask13.png""],[""img/mask50.png""],[""img/mask46.png""],[""img/mask31.png""],[""img/mask38.png""],[""img/mask27.png""],[""img/mask88.png""],[""img/mask89.png""],[""img/mask23.png""],[""img/mask10.png""],[""img/mask3.png""],[""img/mask25.png""],[""img/mask79.png""],[""img/mask8.png""],[""img/mask97.png""],[""img/mask44.png""],[""img/mask23.png""],[""img/mask20.png""],[""img/mask11.png""],[""img/mask63.png""],[""img/mask62.png""],[""img/mask32.png""],[""img/mask46.png""],[""img/mask99.png""],[""img/mask38.png""],[""img/mask91.png""],[""img/mask20.png""],[""img/mask7.png""],[""img/mask7.png""],[""img/mask95.png""],[""img/mask97.png""],[""img/mask58.png""],[""img/mask54.png""],[""img/mask69.png""],[""img/mask95.png""]]]","","[26,1,23,12,30,25,33,24,7,2,35,19,28,8,32,13,4,31,9,18,15,22,29,16,34,6,5,3,14,0,27,10,11,20,17,21]","main","226","many-guess-6"
"","","","","","html-keyboard-response","51","966664","0.0-10.0-0.16","5bad4be8b712f30001b87947","640759fa512f630a2bdc333d","640785d1269a3561f71567fb","null","","null","","","","","","","","","","","","","","","","","","","fixation","",""
"","","","","","color-precision2","52","971279","0.0-10.0-1.16-0.16","5bad4be8b712f30001b87947","640759fa512f630a2bdc333d","640785d1269a3561f71567fb","[1293.3000001907349]","","","[18]","[3]","3","177","183.83098475292792","[183.83098475292792]","[6.830984752927918]","[6]","0","0","1","0","149.41899995226413","1001.3849998569349","1000","[[[""img/mask11.png""]]]","","","main","177","color-precision2"
"","","","","","html-keyboard-response","53","971788","0.0-10.0-0.17","5bad4be8b712f30001b87947","640759fa512f630a2bdc333d","640785d1269a3561f71567fb","null","","null","","","","","","","","","","","","","","","","","","","fixation","",""
"","","","","","color-precision2","54","977384","0.0-10.0-1.17-0.17","5bad4be8b712f30001b87947","640759fa512f630a2bdc333d","640785d1269a3561f71567fb","[1979.5]","","","[19]","[339]","339","119","125.07520935140376","[125.07520935140376]","[6.075209351403757]","[4]","0","0","1","0","149.79399985691998","1002.9969998568995","1000","[[[""img/mask83.png""]]]","","","main","119","color-precision2"
"","","","","","html-keyboard-response","55","977884","0.0-10.0-0.18","5bad4be8b712f30001b87947","640759fa512f630a2bdc333d","640785d1269a3561f71567fb","null","","null","","","","","","","","","","","","","","","","","","","fixation","",""
"","","","","","many-guess-6","56","981952","0.0-10.0-1.18-0.18","5bad4be8b712f30001b87947","640759fa512f630a2bdc333d","640785d1269a3561f71567fb","[2165.5]","","","[0,17,3,7,16,4,28,11,12,1,14,30,25,9,29,32,13,22,8,26,31,18,20,2,34,10,33,19,27,15,5,21,24,35,6,23]","[302,242,193,322,93,73,23,282,113,292,153,332,183,232,342,13,222,262,272,212,3,312,203,83,252,53,352,173,63,123,163,33,143,133,103,43]","302","276","204.02467914152496","[204.02467914152496]","[288.024679141525]","[287]","[300,300,30,30,30,120,210,210,30]","0","36","0","148.97899995232","12.464999856892973","16","[[[""img/mask84.png""],[""img/mask65.png""],[""img/mask52.png""],[""img/mask25.png""],[""img/mask72.png""],[""img/mask49.png""],[""img/mask84.png""],[""img/mask94.png""],[""img/mask8.png""],[""img/mask10.png""],[""img/mask3.png""],[""img/mask44.png""],[""img/mask3.png""],[""img/mask91.png""],[""img/mask95.png""],[""img/mask84.png""],[""img/mask41.png""],[""img/mask96.png""],[""img/mask93.png""],[""img/mask85.png""],[""img/mask25.png""],[""img/mask27.png""],[""img/mask98.png""],[""img/mask43.png""],[""img/mask1.png""],[""img/mask46.png""],[""img/mask42.png""],[""img/mask23.png""],[""img/mask99.png""],[""img/mask64.png""],[""img/mask61.png""],[""img/mask81.png""],[""img/mask81.png""],[""img/mask100.png""],[""img/mask49.png""],[""img/mask55.png""]]]","","[0,17,3,7,16,4,28,11,12,1,14,30,25,9,29,32,13,22,8,26,31,18,20,2,34,10,33,19,27,15,5,21,24,35,6,23]","main","276","many-guess-6"
"","","","","","html-keyboard-response","57","987674","0.0-10.0-0.19","5bad4be8b712f30001b87947","640759fa512f630a2bdc333d","640785d1269a3561f71567fb","5721.600000143051","Wow! You've completed 20 out of 180 trials! </p> <p>  </p><p> Take a quick break, then press any key when you're ready to continue."," ","","","","","","","","","","","","","","","","","","","fixation","",""
"","","","","","many-guess-6","58","992792","0.0-10.0-1.19-0.19","5bad4be8b712f30001b87947","640759fa512f630a2bdc333d","640785d1269a3561f71567fb","[1671.8999998569489]","","","[33,35,19,17,13,10,4,9,12,6,34,15,26,27,18,32,8,5,25,21,0,22,31,2,1,16,24,28,3,7,14,23,30,29,11,20]","[346,86,306,7,47,216,316,106,146,276,296,66,116,96,37,246,356,156,76,186,136,57,226,196,126,206,166,256,236,17,27,266,326,286,336,176]","346","129","84.43377810848153","[84.43377810848153]","[315.43377810848153]","[313]","[210,120,300,210,30,210,120,30,120]","0","36","0","149.5419998569414","15.947999904630706","16","[[[""img/mask4.png""],[""img/mask89.png""],[""img/mask40.png""],[""img/mask40.png""],[""img/mask13.png""],[""img/mask51.png""],[""img/mask27.png""],[""img/mask49.png""],[""img/mask46.png""],[""img/mask77.png""],[""img/mask54.png""],[""img/mask75.png""],[""img/mask87.png""],[""img/mask81.png""],[""img/mask28.png""],[""img/mask26.png""],[""img/mask35.png""],[""img/mask16.png""],[""img/mask7.png""],[""img/mask49.png""],[""img/mask37.png""],[""img/mask52.png""],[""img/mask2.png""],[""img/mask25.png""],[""img/mask5.png""],[""img/mask9.png""],[""img/mask74.png""],[""img/mask42.png""],[""img/mask23.png""],[""img/mask12.png""],[""img/mask13.png""],[""img/mask29.png""],[""img/mask80.png""],[""img/mask50.png""],[""img/mask99.png""],[""img/mask31.png""]]]","","[33,35,19,17,13,10,4,9,12,6,34,15,26,27,18,32,8,5,25,21,0,22,31,2,1,16,24,28,3,7,14,23,30,29,11,20]","main","129","many-guess-6"
"","","","","","html-keyboard-response","59","993292","0.0-10.0-0.20","5bad4be8b712f30001b87947","640759fa512f630a2bdc333d","640785d1269a3561f71567fb","null","","null","","","","","","","","","","","","","","","","","","","fixation","",""
"","","","","","many-guess-6","60","996743","0.0-10.0-1.20-0.20","5bad4be8b712f30001b87947","640759fa512f630a2bdc333d","640785d1269a3561f71567fb","[1707.5]","","","[5,16,30,18,4,3,23,1,2,12,21,29,11,17,0,15,9,8,20,10,14,13,22,19,27,26,32,34,25,6,31,24,28,7,33,35]","[85,65,254,125,95,214,25,354,115,185,145,224,344,284,5,294,75,234,165,304,195,334,175,314,45,15,274,244,135,264,204,55,35,324,155,105]","85","7","32.99311931299015","[32.99311931299015]","[25.993119312990153]","[24]","[120,300,210,120,120,30,120,210,300]","0","36","0","149.68700000003446","12.150999904610217","16","[[[""img/mask63.png""],[""img/mask78.png""],[""img/mask23.png""],[""img/mask100.png""],[""img/mask33.png""],[""img/mask45.png""],[""img/mask91.png""],[""img/mask56.png""],[""img/mask10.png""],[""img/mask43.png""],[""img/mask70.png""],[""img/mask74.png""],[""img/mask32.png""],[""img/mask75.png""],[""img/mask1.png""],[""img/mask6.png""],[""img/mask94.png""],[""img/mask96.png""],[""img/mask54.png""],[""img/mask71.png""],[""img/mask84.png""],[""img/mask17.png""],[""img/mask65.png""],[""img/mask90.png""],[""img/mask62.png""],[""img/mask6.png""],[""img/mask66.png""],[""img/mask29.png""],[""img/mask17.png""],[""img/mask1.png""],[""img/mask8.png""],[""img/mask98.png""],[""img/mask1.png""],[""img/mask5.png""],[""img/mask63.png""],[""img/mask56.png""]]]","","[5,16,30,18,4,3,23,1,2,12,21,29,11,17,0,15,9,8,20,10,14,13,22,19,27,26,32,34,25,6,31,24,28,7,33,35]","main","7","many-guess-6"
"","","","","","html-keyboard-response","61","997246","0.0-10.0-0.21","5bad4be8b712f30001b87947","640759fa512f630a2bdc333d","640785d1269a3561f71567fb","null","","null","","","","","","","","","","","","","","","","","","","fixation","",""
"","","","","","many-guess-6","62","1001919","0.0-10.0-1.21-0.21","5bad4be8b712f30001b87947","640759fa512f630a2bdc333d","640785d1269a3561f71567fb","[3066.800000190735]","","","[3,14,31,29,35,21,34,33,23,9,13,19,20,15,25,1,18,22,11,6,26,7,4,5,10,27,0,24,32,12,28,2,8,17,16,30]","[226,356,7,286,127,147,336,17,117,236,107,157,137,246,177,206,266,326,346,97,186,196,27,256,77,47,216,276,57,316,37,67,306,167,87,296]","226","73","310.2125340449411","[310.2125340449411]","[237.2125340449411]","[237]","[30,120,210,300,120,30,30,30,210]","0","36","0","149.64799995231442","13.067999856895767","16","[[[""img/mask40.png""],[""img/mask100.png""],[""img/mask71.png""],[""img/mask32.png""],[""img/mask63.png""],[""img/mask15.png""],[""img/mask65.png""],[""img/mask83.png""],[""img/mask18.png""],[""img/mask44.png""],[""img/mask96.png""],[""img/mask89.png""],[""img/mask28.png""],[""img/mask34.png""],[""img/mask4.png""],[""img/mask6.png""],[""img/mask89.png""],[""img/mask7.png""],[""img/mask36.png""],[""img/mask31.png""],[""img/mask2.png""],[""img/mask49.png""],[""img/mask40.png""],[""img/mask87.png""],[""img/mask37.png""],[""img/mask93.png""],[""img/mask97.png""],[""img/mask33.png""],[""img/mask30.png""],[""img/mask76.png""],[""img/mask70.png""],[""img/mask62.png""],[""img/mask70.png""],[""img/mask43.png""],[""img/mask3.png""],[""img/mask31.png""]]]","","[3,14,31,29,35,21,34,33,23,9,13,19,20,15,25,1,18,22,11,6,26,7,4,5,10,27,0,24,32,12,28,2,8,17,16,30]","main","73","many-guess-6"
"","","","","","html-keyboard-response","63","1002421","0.0-10.0-0.22","5bad4be8b712f30001b87947","640759fa512f630a2bdc333d","640785d1269a3561f71567fb","null","","null","","","","","","","","","","","","","","","","","","","fixation","",""
"","","","","","many-guess-6","64","1007407","0.0-10.0-1.22-0.22","5bad4be8b712f30001b87947","640759fa512f630a2bdc333d","640785d1269a3561f71567fb","[2438.0999999046326]","","","[21,2,26,31,12,0,19,30,6,27,8,35,9,4,23,13,1,24,29,15,18,17,3,33,32,28,20,22,11,16,10,34,7,5,25,14]","[288,159,99,79,328,129,209,348,119,89,358,19,219,29,268,179,298,149,249,338,9,69,59,109,229,169,239,39,49,278,308,259,139,318,199,189]","288","102","143.05879598261583","[143.05879598261583]","[41.058795982615834]","[39]","[120,120,120,120,30,300,120,210,210]","0","36","0","149.57499999995343","30.983999904594384","16","[[[""img/mask60.png""],[""img/mask3.png""],[""img/mask13.png""],[""img/mask28.png""],[""img/mask44.png""],[""img/mask50.png""],[""img/mask73.png""],[""img/mask26.png""],[""img/mask73.png""],[""img/mask90.png""],[""img/mask37.png""],[""img/mask49.png""],[""img/mask42.png""],[""img/mask90.png""],[""img/mask6.png""],[""img/mask74.png""],[""img/mask93.png""],[""img/mask8.png""],[""img/mask29.png""],[""img/mask76.png""],[""img/mask98.png""],[""img/mask56.png""],[""img/mask14.png""],[""img/mask76.png""],[""img/mask22.png""],[""img/mask100.png""],[""img/mask20.png""],[""img/mask15.png""],[""img/mask62.png""],[""img/mask17.png""],[""img/mask98.png""],[""img/mask9.png""],[""img/mask48.png""],[""img/mask55.png""],[""img/mask20.png""],[""img/mask52.png""]]]","","[21,2,26,31,12,0,19,30,6,27,8,35,9,4,23,13,1,24,29,15,18,17,3,33,32,28,20,22,11,16,10,34,7,5,25,14]","main","102","many-guess-6"
"","","","","","html-keyboard-response","65","1007909","0.0-10.0-0.23","5bad4be8b712f30001b87947","640759fa512f630a2bdc333d","640785d1269a3561f71567fb","null","","null","","","","","","","","","","","","","","","","","","","fixation","",""
"","","","","","many-guess-6","66","1011455","0.0-10.0-1.23-0.23","5bad4be8b712f30001b87947","640759fa512f630a2bdc333d","640785d1269a3561f71567fb","[1819.0999999046326]","","","[6,21,17,24,10,18,26,4,25,12,33,23,30,3,29,0,16,8,35,2,9,7,15,1,20,5,11,19,14,28,27,13,32,31,22,34]","[102,62,2,281,162,182,221,291,201,191,82,301,341,22,251,52,311,92,261,172,142,271,351,12,331,32,152,321,112,42,241,211,231,122,72,132]","102","132","334.1705134140047","[334.1705134140047]","[202.1705134140047]","[203]","[300,300,210,120,120,300,120,300,210]","0","36","0","149.3639999999432","19.35100004763808","16","[[[""img/mask32.png""],[""img/mask52.png""],[""img/mask52.png""],[""img/mask68.png""],[""img/mask55.png""],[""img/mask63.png""],[""img/mask42.png""],[""img/mask90.png""],[""img/mask64.png""],[""img/mask50.png""],[""img/mask38.png""],[""img/mask82.png""],[""img/mask53.png""],[""img/mask12.png""],[""img/mask42.png""],[""img/mask15.png""],[""img/mask36.png""],[""img/mask48.png""],[""img/mask99.png""],[""img/mask77.png""],[""img/mask92.png""],[""img/mask61.png""],[""img/mask82.png""],[""img/mask61.png""],[""img/mask65.png""],[""img/mask35.png""],[""img/mask78.png""],[""img/mask30.png""],[""img/mask66.png""],[""img/mask12.png""],[""img/mask74.png""],[""img/mask71.png""],[""img/mask31.png""],[""img/mask1.png""],[""img/mask10.png""],[""img/mask46.png""]]]","","[6,21,17,24,10,18,26,4,25,12,33,23,30,3,29,0,16,8,35,2,9,7,15,1,20,5,11,19,14,28,27,13,32,31,22,34]","main","132","many-guess-6"
"","","","","","html-keyboard-response","67","1011956","0.0-10.0-0.24","5bad4be8b712f30001b87947","640759fa512f630a2bdc333d","640785d1269a3561f71567fb","null","","null","","","","","","","","","","","","","","","","","","","fixation","",""
"","","","","","color-precision2","68","1016176","0.0-10.0-1.24-0.24","5bad4be8b712f30001b87947","640759fa512f630a2bdc333d","640785d1269a3561f71567fb","[1271.7999999523163]","","","[32]","[274]","274","164","75.36867439172632","[75.36867439172632]","[271.3686743917263]","[269]","0","0","1","0","148.10599990468472","1000.4660000476288","1000","[[[""img/mask90.png""]]]","","","main","164","color-precision2"
"","","","","","html-keyboard-response","69","1016676","0.0-10.0-0.25","5bad4be8b712f30001b87947","640759fa512f630a2bdc333d","640785d1269a3561f71567fb","null","","null","","","","","","","","","","","","","","","","","","","fixation","",""
"","","","","","many-guess-6","70","1021176","0.0-10.0-1.25-0.25","5bad4be8b712f30001b87947","640759fa512f630a2bdc333d","640785d1269a3561f71567fb","[2189.2999999523163]","","","[27,33,22,26,3,20,2,32,5,21,16,4,8,29,14,6,15,23,25,24,19,0,10,1,18,17,13,7,9,30,28,34,35,12,31,11]","[204,25,224,105,95,65,5,85,294,45,304,254,114,284,174,194,55,214,354,184,75,164,244,124,334,234,264,274,144,324,314,134,154,35,344,15]","204","104","72.1317530040226","[72.1317530040226]","[328.1317530040226]","[327]","[300,30,120,120,30,120,30,120,300]","0","36","0","149.31599999999162","19.873000047635287","16","[[[""img/mask16.png""],[""img/mask73.png""],[""img/mask3.png""],[""img/mask17.png""],[""img/mask61.png""],[""img/mask36.png""],[""img/mask81.png""],[""img/mask47.png""],[""img/mask43.png""],[""img/mask4.png""],[""img/mask86.png""],[""img/mask38.png""],[""img/mask57.png""],[""img/mask24.png""],[""img/mask64.png""],[""img/mask7.png""],[""img/mask82.png""],[""img/mask87.png""],[""img/mask58.png""],[""img/mask11.png""],[""img/mask6.png""],[""img/mask67.png""],[""img/mask29.png""],[""img/mask16.png""],[""img/mask71.png""],[""img/mask36.png""],[""img/mask32.png""],[""img/mask12.png""],[""img/mask84.png""],[""img/mask95.png""],[""img/mask46.png""],[""img/mask45.png""],[""img/mask91.png""],[""img/mask5.png""],[""img/mask5.png""],[""img/mask42.png""]]]","","[27,33,22,26,3,20,2,32,5,21,16,4,8,29,14,6,15,23,25,24,19,0,10,1,18,17,13,7,9,30,28,34,35,12,31,11]","main","104","many-guess-6"
"","","","","","html-keyboard-response","71","1021677","0.0-10.0-0.26","5bad4be8b712f30001b87947","640759fa512f630a2bdc333d","640785d1269a3561f71567fb","null","","null","","","","","","","","","","","","","","","","","","","fixation","",""
"","","","","","many-guess-6","72","1025783","0.0-10.0-1.26-0.26","5bad4be8b712f30001b87947","640759fa512f630a2bdc333d","640785d1269a3561f71567fb","[2230.9000000953674]","","","[29,5,12,10,21,8,9,15,20,27,1,25,19,28,16,30,2,32,14,22,31,6,33,3,23,4,24,0,11,13,7,17,26,35,34,18]","[253,113,173,233,273,163,4,203,143,24,183,313,84,293,64,303,243,193,323,133,343,353,103,333,213,223,34,263,153,14,94,283,44,74,54,123]","253","186","165.93502191843035","[165.93502191843035]","[339.9350219184304]","[339]","[120,210,300,300,120,300,120,300,300]","0","36","0","149.02599990461022","19.056000047712587","16","[[[""img/mask53.png""],[""img/mask62.png""],[""img/mask77.png""],[""img/mask70.png""],[""img/mask57.png""],[""img/mask97.png""],[""img/mask19.png""],[""img/mask35.png""],[""img/mask18.png""],[""img/mask71.png""],[""img/mask7.png""],[""img/mask99.png""],[""img/mask99.png""],[""img/mask11.png""],[""img/mask22.png""],[""img/mask8.png""],[""img/mask82.png""],[""img/mask99.png""],[""img/mask73.png""],[""img/mask48.png""],[""img/mask60.png""],[""img/mask91.png""],[""img/mask41.png""],[""img/mask65.png""],[""img/mask85.png""],[""img/mask30.png""],[""img/mask48.png""],[""img/mask91.png""],[""img/mask27.png""],[""img/mask48.png""],[""img/mask37.png""],[""img/mask83.png""],[""img/mask43.png""],[""img/mask44.png""],[""img/mask98.png""],[""img/mask87.png""]]]","","[29,5,12,10,21,8,9,15,20,27,1,25,19,28,16,30,2,32,14,22,31,6,33,3,23,4,24,0,11,13,7,17,26,35,34,18]","main","186","many-guess-6"
"","","","","","html-keyboard-response","73","1026285","0.0-10.0-0.27","5bad4be8b712f30001b87947","640759fa512f630a2bdc333d","640785d1269a3561f71567fb","null","","null","","","","","","","","","","","","","","","","","","","fixation","",""
"","","","","","color-precision2","74","1030791","0.0-10.0-1.27-0.27","5bad4be8b712f30001b87947","640759fa512f630a2bdc333d","640785d1269a3561f71567fb","[970.6999998092651]","","","[0]","[355]","355","198","197.55440647326193","[197.55440647326193]","[359.5544064732619]","[359]","0","0","1","0","148.2789999046363","1007.0749999046093","1000","[[[""img/mask22.png""]]]","","","main","198","color-precision2"
"","","","","","html-keyboard-response","75","1031294","0.0-10.0-0.28","5bad4be8b712f30001b87947","640759fa512f630a2bdc333d","640785d1269a3561f71567fb","null","","null","","","","","","","","","","","","","","","","","","","fixation","",""
"","","","","","many-guess-6","76","1035184","0.0-10.0-1.28-0.28","5bad4be8b712f30001b87947","640759fa512f630a2bdc333d","640785d1269a3561f71567fb","[2130.600000143051]","","","[6,1,9,17,25,7,33,26,0,3,20,19,12,24,23,10,29,18,2,22,32,15,31,16,11,35,14,34,8,13,21,27,4,30,5,28]","[231,2,152,172,192,22,142,62,32,72,202,92,351,301,321,122,12,162,52,311,251,291,42,211,102,281,341,221,132,112,271,182,331,82,261,241]","231","187","39.36225537741463","[39.36225537741463]","[212.3622553774146]","[211]","[30,120,210,120,300,120,300,300,300]","0","36","0","149.23300004773773","14.568999952287413","16","[[[""img/mask88.png""],[""img/mask51.png""],[""img/mask84.png""],[""img/mask70.png""],[""img/mask54.png""],[""img/mask71.png""],[""img/mask85.png""],[""img/mask17.png""],[""img/mask16.png""],[""img/mask30.png""],[""img/mask12.png""],[""img/mask94.png""],[""img/mask60.png""],[""img/mask28.png""],[""img/mask78.png""],[""img/mask89.png""],[""img/mask81.png""],[""img/mask47.png""],[""img/mask74.png""],[""img/mask44.png""],[""img/mask12.png""],[""img/mask60.png""],[""img/mask1.png""],[""img/mask77.png""],[""img/mask83.png""],[""img/mask29.png""],[""img/mask68.png""],[""img/mask8.png""],[""img/mask12.png""],[""img/mask58.png""],[""img/mask93.png""],[""img/mask68.png""],[""img/mask61.png""],[""img/mask90.png""],[""img/mask50.png""],[""img/mask33.png""]]]","","[6,1,9,17,25,7,33,26,0,3,20,19,12,24,23,10,29,18,2,22,32,15,31,16,11,35,14,34,8,13,21,27,4,30,5,28]","main","187","many-guess-6"
"","","","","","html-keyboard-response","77","1035686","0.0-10.0-0.29","5bad4be8b712f30001b87947","640759fa512f630a2bdc333d","640785d1269a3561f71567fb","null","","null","","","","","","","","","","","","","","","","","","","fixation","",""
"","","","","","color-precision2","78","1039664","0.0-10.0-1.29-0.29","5bad4be8b712f30001b87947","640759fa512f630a2bdc333d","640785d1269a3561f71567fb","[1076.2999999523163]","","","[20]","[296]","296","198","139.09827294973687","[139.09827294973687]","[301.09827294973684]","[299]","0","0","1","0","149.02500004763715","1000.2129999046447","1000","[[[""img/mask61.png""]]]","","","main","198","color-precision2"
"","","","","","html-keyboard-response","79","1040165","0.0-10.0-0.30","5bad4be8b712f30001b87947","640759fa512f630a2bdc333d","640785d1269a3561f71567fb","null","","null","","","","","","","","","","","","","","","","","","","fixation","",""
"","","","","","many-guess-6","80","1044272","0.0-10.0-1.30-0.30","5bad4be8b712f30001b87947","640759fa512f630a2bdc333d","640785d1269a3561f71567fb","[2068.9000000953674]","","","[17,28,5,29,14,2,6,31,26,35,15,30,19,18,4,32,3,7,24,1,23,11,34,21,16,33,20,27,9,25,8,12,22,0,13,10]","[295,205,96,46,26,66,76,165,175,215,56,106,245,135,225,305,195,126,265,335,185,86,345,16,325,255,6,275,116,355,36,235,155,285,315,145]","295","41","49.10771704757253","[49.10771704757253]","[8.107717047572528]","[6]","[120,120,120,300,300,210,120,120,210]","0","36","0","148.82099985692184","19.881000000052154","16","[[[""img/mask85.png""],[""img/mask90.png""],[""img/mask17.png""],[""img/mask94.png""],[""img/mask92.png""],[""img/mask2.png""],[""img/mask96.png""],[""img/mask63.png""],[""img/mask3.png""],[""img/mask24.png""],[""img/mask83.png""],[""img/mask4.png""],[""img/mask4.png""],[""img/mask34.png""],[""img/mask84.png""],[""img/mask18.png""],[""img/mask26.png""],[""img/mask45.png""],[""img/mask1.png""],[""img/mask46.png""],[""img/mask57.png""],[""img/mask89.png""],[""img/mask62.png""],[""img/mask48.png""],[""img/mask31.png""],[""img/mask49.png""],[""img/mask68.png""],[""img/mask36.png""],[""img/mask71.png""],[""img/mask82.png""],[""img/mask16.png""],[""img/mask15.png""],[""img/mask19.png""],[""img/mask83.png""],[""img/mask37.png""],[""img/mask81.png""]]]","","[17,28,5,29,14,2,6,31,26,35,15,30,19,18,4,32,3,7,24,1,23,11,34,21,16,33,20,27,9,25,8,12,22,0,13,10]","main","41","many-guess-6"
"","","","","","html-keyboard-response","81","1044773","0.0-10.0-0.31","5bad4be8b712f30001b87947","640759fa512f630a2bdc333d","640785d1269a3561f71567fb","null","","null","","","","","","","","","","","","","","","","","","","fixation","",""
"","","","","","many-guess-6","82","1049432","0.0-10.0-1.31-0.31","5bad4be8b712f30001b87947","640759fa512f630a2bdc333d","640785d1269a3561f71567fb","[2845.4000000953674]","","","[31,20,9,5,1,33,14,30,7,4,24,17,11,8,25,16,13,0,3,27,32,35,10,2,28,15,6,12,19,23,26,29,21,22,18,34]","[47,347,337,137,297,8,237,197,147,267,207,247,187,167,217,28,67,117,177,127,38,18,227,157,317,77,327,257,87,97,277,307,107,57,357,287]","47","210","226.34533655108476","[226.34533655108476]","[16.345336551084756]","[16]","[210,120,30,120,210,300,210,30,210]","0","36","0","148.66299995221198","20.219000000040978","16","[[[""img/mask24.png""],[""img/mask8.png""],[""img/mask15.png""],[""img/mask27.png""],[""img/mask8.png""],[""img/mask47.png""],[""img/mask35.png""],[""img/mask22.png""],[""img/mask44.png""],[""img/mask79.png""],[""img/mask37.png""],[""img/mask90.png""],[""img/mask85.png""],[""img/mask2.png""],[""img/mask55.png""],[""img/mask17.png""],[""img/mask12.png""],[""img/mask41.png""],[""img/mask96.png""],[""img/mask33.png""],[""img/mask48.png""],[""img/mask49.png""],[""img/mask86.png""],[""img/mask15.png""],[""img/mask9.png""],[""img/mask82.png""],[""img/mask28.png""],[""img/mask100.png""],[""img/mask59.png""],[""img/mask81.png""],[""img/mask46.png""],[""img/mask41.png""],[""img/mask42.png""],[""img/mask91.png""],[""img/mask74.png""],[""img/mask26.png""]]]","","[31,20,9,5,1,33,14,30,7,4,24,17,11,8,25,16,13,0,3,27,32,35,10,2,28,15,6,12,19,23,26,29,21,22,18,34]","main","210","many-guess-6"
"","","","","","html-keyboard-response","83","1049945","0.0-10.0-0.32","5bad4be8b712f30001b87947","640759fa512f630a2bdc333d","640785d1269a3561f71567fb","null","","null","","","","","","","","","","","","","","","","","","","fixation","",""
"","","","","","color-precision2","84","1054705","0.0-10.0-1.32-0.32","5bad4be8b712f30001b87947","640759fa512f630a2bdc333d","640785d1269a3561f71567fb","[1233]","","","[19]","[335]","335","28","11.645760049352312","[11.645760049352312]","[343.6457600493523]","[343]","0","0","1","0","148.74899990460835","992.58299990464","1000","[[[""img/mask34.png""]]]","","","main","28","color-precision2"
"","","","","","html-keyboard-response","85","1055206","0.0-10.0-0.33","5bad4be8b712f30001b87947","640759fa512f630a2bdc333d","640785d1269a3561f71567fb","null","","null","","","","","","","","","","","","","","","","","","","fixation","",""
"","","","","","color-precision2","86","1059392","0.0-10.0-1.33-0.33","5bad4be8b712f30001b87947","640759fa512f630a2bdc333d","640785d1269a3561f71567fb","[905]","","","[19]","[207]","207","154","356.4751658923349","[356.4751658923349]","[202.47516589233493]","[202]","0","0","1","0","148.459999904735","1006.3430000476073","1000","[[[""img/mask79.png""]]]","","","main","154","color-precision2"
"","","","","","html-keyboard-response","87","1059893","0.0-10.0-0.34","5bad4be8b712f30001b87947","640759fa512f630a2bdc333d","640785d1269a3561f71567fb","null","","null","","","","","","","","","","","","","","","","","","","fixation","",""
"","","","","","many-guess-6","88","1063624","0.0-10.0-1.34-0.34","5bad4be8b712f30001b87947","640759fa512f630a2bdc333d","640785d1269a3561f71567fb","[1720.3999998569489]","","","[29,0,10,11,26,1,8,19,34,32,9,20,25,2,28,23,15,14,6,5,35,17,21,24,31,33,4,18,12,22,16,13,30,27,3,7]","[51,171,91,41,270,310,220,250,230,11,141,350,151,320,31,181,330,210,240,300,1,280,191,71,260,290,340,61,131,200,111,161,81,21,121,101]","51","109","99.43532773204275","[99.43532773204275]","[350.43532773204277]","[349]","[120,210,30,300,300,120,210,300,30]","0","36","0","149.2680000476539","13.475000047590584","16","[[[""img/mask43.png""],[""img/mask47.png""],[""img/mask54.png""],[""img/mask86.png""],[""img/mask49.png""],[""img/mask38.png""],[""img/mask87.png""],[""img/mask100.png""],[""img/mask47.png""],[""img/mask51.png""],[""img/mask74.png""],[""img/mask19.png""],[""img/mask80.png""],[""img/mask75.png""],[""img/mask72.png""],[""img/mask51.png""],[""img/mask74.png""],[""img/mask14.png""],[""img/mask56.png""],[""img/mask31.png""],[""img/mask34.png""],[""img/mask98.png""],[""img/mask70.png""],[""img/mask65.png""],[""img/mask14.png""],[""img/mask98.png""],[""img/mask20.png""],[""img/mask5.png""],[""img/mask3.png""],[""img/mask76.png""],[""img/mask67.png""],[""img/mask33.png""],[""img/mask65.png""],[""img/mask51.png""],[""img/mask11.png""],[""img/mask80.png""]]]","","[29,0,10,11,26,1,8,19,34,32,9,20,25,2,28,23,15,14,6,5,35,17,21,24,31,33,4,18,12,22,16,13,30,27,3,7]","main","109","many-guess-6"
"","","","","","html-keyboard-response","89","1064125","0.0-10.0-0.35","5bad4be8b712f30001b87947","640759fa512f630a2bdc333d","640785d1269a3561f71567fb","null","","null","","","","","","","","","","","","","","","","","","","fixation","",""
"","","","","","many-guess-6","90","1067736","0.0-10.0-1.35-0.35","5bad4be8b712f30001b87947","640759fa512f630a2bdc333d","640785d1269a3561f71567fb","[2049.2999999523163]","","","[29,31,25,6,23,16,1,32,5,4,28,33,20,7,11,3,27,30,34,2,9,13,35,8,14,22,21,0,15,17,12,10,18,24,19,26]","[358,338,158,248,218,178,168,308,138,148,288,278,69,268,108,188,9,98,198,258,318,49,128,59,88,348,328,19,118,208,238,298,29,39,228,78]","358","271","251.19276819087142","[251.19276819087142]","[340.19276819087145]","[340]","[120,120,120,300,210,210,210,120,30]","0","36","0","149.0780000477098","8.244999904651195","16","[[[""img/mask30.png""],[""img/mask13.png""],[""img/mask66.png""],[""img/mask57.png""],[""img/mask11.png""],[""img/mask7.png""],[""img/mask48.png""],[""img/mask47.png""],[""img/mask77.png""],[""img/mask78.png""],[""img/mask29.png""],[""img/mask49.png""],[""img/mask18.png""],[""img/mask77.png""],[""img/mask14.png""],[""img/mask1.png""],[""img/mask44.png""],[""img/mask36.png""],[""img/mask89.png""],[""img/mask66.png""],[""img/mask5.png""],[""img/mask16.png""],[""img/mask36.png""],[""img/mask72.png""],[""img/mask75.png""],[""img/mask39.png""],[""img/mask49.png""],[""img/mask67.png""],[""img/mask6.png""],[""img/mask89.png""],[""img/mask79.png""],[""img/mask82.png""],[""img/mask9.png""],[""img/mask26.png""],[""img/mask18.png""],[""img/mask67.png""]]]","","[29,31,25,6,23,16,1,32,5,4,28,33,20,7,11,3,27,30,34,2,9,13,35,8,14,22,21,0,15,17,12,10,18,24,19,26]","main","271","many-guess-6"
"","","","","","html-keyboard-response","91","1068238","0.0-10.0-0.36","5bad4be8b712f30001b87947","640759fa512f630a2bdc333d","640785d1269a3561f71567fb","null","","null","","","","","","","","","","","","","","","","","","","fixation","",""
"","","","","","color-precision2","92","1072120","0.0-10.0-1.36-0.36","5bad4be8b712f30001b87947","640759fa512f630a2bdc333d","640785d1269a3561f71567fb","[1015.6999998092651]","","","[8]","[10]","10","78","93.53470227307352","[93.53470227307352]","[15.53470227307352]","[14]","0","0","1","0","147.75900004757568","1001.134999952279","1000","[[[""img/mask67.png""]]]","","","main","78","color-precision2"
"","","","","","html-keyboard-response","93","1072621","0.0-10.0-0.37","5bad4be8b712f30001b87947","640759fa512f630a2bdc333d","640785d1269a3561f71567fb","null","","null","","","","","","","","","","","","","","","","","","","fixation","",""
"","","","","","many-guess-6","94","1077000","0.0-10.0-1.37-0.37","5bad4be8b712f30001b87947","640759fa512f630a2bdc333d","640785d1269a3561f71567fb","[2130]","","","[1,7,23,35,22,19,16,2,12,29,3,20,15,31,0,9,6,4,17,28,13,5,18,32,11,14,34,30,27,24,26,21,25,10,33,8]","[312,342,172,23,33,53,212,182,272,302,13,93,122,332,252,222,202,232,3,43,242,292,322,103,73,142,282,162,192,63,262,83,152,113,352,132]","312","307","29.57768130568231","[29.57768130568231]","[82.57768130568229]","[81]","[120,120,300,30,300,300,120,210,300]","0","36","0","148.93100004759617","12.724000047659501","16","[[[""img/mask52.png""],[""img/mask2.png""],[""img/mask68.png""],[""img/mask53.png""],[""img/mask40.png""],[""img/mask42.png""],[""img/mask46.png""],[""img/mask15.png""],[""img/mask52.png""],[""img/mask51.png""],[""img/mask28.png""],[""img/mask87.png""],[""img/mask3.png""],[""img/mask85.png""],[""img/mask83.png""],[""img/mask65.png""],[""img/mask37.png""],[""img/mask14.png""],[""img/mask51.png""],[""img/mask64.png""],[""img/mask62.png""],[""img/mask32.png""],[""img/mask43.png""],[""img/mask2.png""],[""img/mask36.png""],[""img/mask99.png""],[""img/mask51.png""],[""img/mask95.png""],[""img/mask13.png""],[""img/mask79.png""],[""img/mask10.png""],[""img/mask100.png""],[""img/mask46.png""],[""img/mask61.png""],[""img/mask91.png""],[""img/mask52.png""]]]","","[1,7,23,35,22,19,16,2,12,29,3,20,15,31,0,9,6,4,17,28,13,5,18,32,11,14,34,30,27,24,26,21,25,10,33,8]","main","307","many-guess-6"
"","","","","","html-keyboard-response","95","1077502","0.0-10.0-0.38","5bad4be8b712f30001b87947","640759fa512f630a2bdc333d","640785d1269a3561f71567fb","null","","null","","","","","","","","","","","","","","","","","","","fixation","",""
"","","","","","many-guess-6","96","1082344","0.0-10.0-1.38-0.38","5bad4be8b712f30001b87947","640759fa512f630a2bdc333d","640785d1269a3561f71567fb","[2457.2000000476837]","","","[4,9,10,14,35,8,23,5,1,3,18,30,0,15,16,33,25,29,6,24,7,12,11,32,19,2,22,13,34,26,28,31,20,21,27,17]","[86,266,136,106,246,286,306,256,166,46,276,216,6,226,316,76,36,96,126,16,336,355,326,26,66,345,156,186,206,296,176,116,196,236,146,56]","86","218","155.54124199844557","[155.54124199844557]","[297.54124199844557]","[296]","[300,300,300,210,30,300,210,30,300]","0","36","0","149.01999990455806","7.8960000476799905","16","[[[""img/mask32.png""],[""img/mask26.png""],[""img/mask2.png""],[""img/mask79.png""],[""img/mask78.png""],[""img/mask29.png""],[""img/mask75.png""],[""img/mask83.png""],[""img/mask41.png""],[""img/mask76.png""],[""img/mask83.png""],[""img/mask83.png""],[""img/mask79.png""],[""img/mask63.png""],[""img/mask1.png""],[""img/mask11.png""],[""img/mask51.png""],[""img/mask84.png""],[""img/mask61.png""],[""img/mask27.png""],[""img/mask83.png""],[""img/mask66.png""],[""img/mask27.png""],[""img/mask36.png""],[""img/mask8.png""],[""img/mask99.png""],[""img/mask33.png""],[""img/mask14.png""],[""img/mask46.png""],[""img/mask22.png""],[""img/mask20.png""],[""img/mask16.png""],[""img/mask60.png""],[""img/mask80.png""],[""img/mask27.png""],[""img/mask85.png""]]]","","[4,9,10,14,35,8,23,5,1,3,18,30,0,15,16,33,25,29,6,24,7,12,11,32,19,2,22,13,34,26,28,31,20,21,27,17]","main","218","many-guess-6"
"","","","","","html-keyboard-response","97","1086691","0.0-10.0-0.39","5bad4be8b712f30001b87947","640759fa512f630a2bdc333d","640785d1269a3561f71567fb","4346","Wow! You've completed 40 out of 180 trials! </p> <p>  </p><p> Take a quick break, then press any key when you're ready to continue."," ","","","","","","","","","","","","","","","","","","","fixation","",""
"","","","","","color-precision2","98","1092312","0.0-10.0-1.39-0.39","5bad4be8b712f30001b87947","640759fa512f630a2bdc333d","640785d1269a3561f71567fb","[525.4000000953674]","","","[14]","[344]","344","97","85.05623840310076","[85.05623840310076]","[348.0562384031008]","[346]","0","0","1","0","149.13199995225295","1005.6279998568352","1000","[[[""img/mask95.png""]]]","","","main","97","color-precision2"
"","","","","","html-keyboard-response","99","1092813","0.0-10.0-0.40","5bad4be8b712f30001b87947","640759fa512f630a2bdc333d","640785d1269a3561f71567fb","null","","null","","","","","","","","","","","","","","","","","","","fixation","",""
"","","","","","color-precision2","100","1097368","0.0-10.0-1.40-0.40","5bad4be8b712f30001b87947","640759fa512f630a2bdc333d","640785d1269a3561f71567fb","[1281.0999999046326]","","","[20]","[311]","311","85","40.75085754917198","[40.75085754917198]","[315.750857549172]","[314]","0","0","1","0","148.9819999046158","994.7609999999404","1000","[[[""img/mask75.png""]]]","","","main","85","color-precision2"
"","","","","","html-keyboard-response","101","1097870","0.0-10.0-0.41","5bad4be8b712f30001b87947","640759fa512f630a2bdc333d","640785d1269a3561f71567fb","null","","null","","","","","","","","","","","","","","","","","","","fixation","",""
"","","","","","color-precision2","102","1101232","0.0-10.0-1.41-0.41","5bad4be8b712f30001b87947","640759fa512f630a2bdc333d","640785d1269a3561f71567fb","[478.40000009536743]","","","[6]","[54]","54","33","98.74433056669659","[98.74433056669659]","[65.74433056669659]","[64]","0","0","1","0","148.0930000001099","998.3719999999739","1000","[[[""img/mask56.png""]]]","","","main","33","color-precision2"
"","","","","","html-keyboard-response","103","1101733","0.0-10.0-0.42","5bad4be8b712f30001b87947","640759fa512f630a2bdc333d","640785d1269a3561f71567fb","null","","null","","","","","","","","","","","","","","","","","","","fixation","",""
"","","","","","many-guess-6","104","1105328","0.0-10.0-1.42-0.42","5bad4be8b712f30001b87947","640759fa512f630a2bdc333d","640785d1269a3561f71567fb","[1857.7000000476837]","","","[33,22,19,29,28,8,1,31,34,7,24,3,5,0,4,30,27,18,32,35,12,26,13,23,21,14,11,25,2,10,20,17,9,6,16,15]","[266,117,27,356,147,207,87,167,97,286,67,47,346,217,326,17,7,157,177,57,246,336,127,226,306,187,316,256,276,77,236,137,296,107,37,197]","266","165","162.5286060974231","[162.5286060974231]","[357.5286060974231]","[356]","[300,300,300,210,210,300,300,300,120]","0","36","0","148.92300004768185","20.22599990456365","16","[[[""img/mask83.png""],[""img/mask39.png""],[""img/mask8.png""],[""img/mask68.png""],[""img/mask61.png""],[""img/mask4.png""],[""img/mask58.png""],[""img/mask25.png""],[""img/mask20.png""],[""img/mask96.png""],[""img/mask48.png""],[""img/mask89.png""],[""img/mask68.png""],[""img/mask94.png""],[""img/mask26.png""],[""img/mask57.png""],[""img/mask81.png""],[""img/mask35.png""],[""img/mask72.png""],[""img/mask66.png""],[""img/mask17.png""],[""img/mask79.png""],[""img/mask68.png""],[""img/mask16.png""],[""img/mask21.png""],[""img/mask20.png""],[""img/mask75.png""],[""img/mask28.png""],[""img/mask46.png""],[""img/mask12.png""],[""img/mask75.png""],[""img/mask52.png""],[""img/mask12.png""],[""img/mask32.png""],[""img/mask72.png""],[""img/mask32.png""]]]","","[33,22,19,29,28,8,1,31,34,7,24,3,5,0,4,30,27,18,32,35,12,26,13,23,21,14,11,25,2,10,20,17,9,6,16,15]","main","165","many-guess-6"
"","","","","","html-keyboard-response","105","1105838","0.0-10.0-0.43","5bad4be8b712f30001b87947","640759fa512f630a2bdc333d","640785d1269a3561f71567fb","null","","null","","","","","","","","","","","","","","","","","","","fixation","",""
"","","","","","many-guess-6","106","1109625","0.0-10.0-1.43-0.43","5bad4be8b712f30001b87947","640759fa512f630a2bdc333d","640785d1269a3561f71567fb","[2120.600000143051]","","","[32,7,28,25,13,26,6,9,19,12,27,15,16,3,5,2,17,1,0,30,22,14,23,34,11,10,18,4,29,24,35,20,21,31,33,8]","[331,171,91,111,271,241,181,151,291,131,121,211,41,141,61,31,261,311,301,51,341,71,2,321,281,22,161,351,231,201,12,191,81,251,101,221]","331","262","113.55055245487694","[113.55055245487694]","[211.55055245487694]","[210]","[30,300,30,210,300,300,30,210,30]","0","36","0","148.91999985696748","19.56199990469031","16","[[[""img/mask19.png""],[""img/mask23.png""],[""img/mask85.png""],[""img/mask66.png""],[""img/mask93.png""],[""img/mask43.png""],[""img/mask70.png""],[""img/mask46.png""],[""img/mask64.png""],[""img/mask25.png""],[""img/mask93.png""],[""img/mask27.png""],[""img/mask94.png""],[""img/mask17.png""],[""img/mask68.png""],[""img/mask71.png""],[""img/mask6.png""],[""img/mask93.png""],[""img/mask56.png""],[""img/mask25.png""],[""img/mask84.png""],[""img/mask66.png""],[""img/mask26.png""],[""img/mask55.png""],[""img/mask11.png""],[""img/mask86.png""],[""img/mask85.png""],[""img/mask62.png""],[""img/mask25.png""],[""img/mask84.png""],[""img/mask68.png""],[""img/mask69.png""],[""img/mask65.png""],[""img/mask57.png""],[""img/mask58.png""],[""img/mask93.png""]]]","","[32,7,28,25,13,26,6,9,19,12,27,15,16,3,5,2,17,1,0,30,22,14,23,34,11,10,18,4,29,24,35,20,21,31,33,8]","main","262","many-guess-6"
"","","","","","html-keyboard-response","107","1110126","0.0-10.0-0.44","5bad4be8b712f30001b87947","640759fa512f630a2bdc333d","640785d1269a3561f71567fb","null","","null","","","","","","","","","","","","","","","","","","","fixation","",""
"","","","","","many-guess-6","108","1114336","0.0-10.0-1.44-0.44","5bad4be8b712f30001b87947","640759fa512f630a2bdc333d","640785d1269a3561f71567fb","[1932.9000000953674]","","","[33,34,10,2,23,29,7,8,0,30,5,22,14,17,18,6,35,21,26,31,11,3,15,12,20,4,19,25,28,27,24,32,1,9,13,16]","[12,201,211,111,61,271,241,261,301,131,311,281,351,22,191,251,171,181,81,41,221,331,321,161,291,101,31,341,2,121,231,71,91,141,151,51]","12","17","11.510062903568175","[11.510062903568175]","[354.51006290356815]","[353]","[120,300,210,300,30,210,210,210,210]","0","36","0","148.85199995222501","13.37100000004284","16","[[[""img/mask16.png""],[""img/mask53.png""],[""img/mask57.png""],[""img/mask94.png""],[""img/mask22.png""],[""img/mask82.png""],[""img/mask15.png""],[""img/mask64.png""],[""img/mask54.png""],[""img/mask45.png""],[""img/mask63.png""],[""img/mask42.png""],[""img/mask53.png""],[""img/mask41.png""],[""img/mask73.png""],[""img/mask42.png""],[""img/mask94.png""],[""img/mask76.png""],[""img/mask52.png""],[""img/mask39.png""],[""img/mask91.png""],[""img/mask72.png""],[""img/mask8.png""],[""img/mask91.png""],[""img/mask11.png""],[""img/mask30.png""],[""img/mask24.png""],[""img/mask92.png""],[""img/mask42.png""],[""img/mask49.png""],[""img/mask48.png""],[""img/mask16.png""],[""img/mask31.png""],[""img/mask90.png""],[""img/mask28.png""],[""img/mask20.png""]]]","","[33,34,10,2,23,29,7,8,0,30,5,22,14,17,18,6,35,21,26,31,11,3,15,12,20,4,19,25,28,27,24,32,1,9,13,16]","main","17","many-guess-6"
"","","","","","html-keyboard-response","109","1114841","0.0-10.0-0.45","5bad4be8b712f30001b87947","640759fa512f630a2bdc333d","640785d1269a3561f71567fb","null","","null","","","","","","","","","","","","","","","","","","","fixation","",""
"","","","","","many-guess-6","110","1118912","0.0-10.0-1.45-0.45","5bad4be8b712f30001b87947","640759fa512f630a2bdc333d","640785d1269a3561f71567fb","[2092]","","","[14,31,35,7,2,26,12,19,34,28,0,22,8,11,25,18,17,6,16,4,13,15,29,27,10,24,23,30,1,3,9,5,21,32,33,20]","[357,77,107,157,127,18,97,28,177,207,38,257,287,347,187,167,247,48,237,67,8,117,337,217,277,147,58,267,87,197,327,227,317,297,307,137]","357","27","232.18356599849164","[232.18356599849164]","[205.18356599849164]","[206]","[30,120,30,210,210,120,30,300,300]","0","36","0","148.9850000475999","11.67799990461208","16","[[[""img/mask51.png""],[""img/mask96.png""],[""img/mask55.png""],[""img/mask88.png""],[""img/mask38.png""],[""img/mask61.png""],[""img/mask64.png""],[""img/mask33.png""],[""img/mask84.png""],[""img/mask16.png""],[""img/mask81.png""],[""img/mask14.png""],[""img/mask71.png""],[""img/mask34.png""],[""img/mask49.png""],[""img/mask64.png""],[""img/mask57.png""],[""img/mask24.png""],[""img/mask98.png""],[""img/mask80.png""],[""img/mask55.png""],[""img/mask23.png""],[""img/mask48.png""],[""img/mask72.png""],[""img/mask1.png""],[""img/mask82.png""],[""img/mask24.png""],[""img/mask81.png""],[""img/mask92.png""],[""img/mask95.png""],[""img/mask67.png""],[""img/mask94.png""],[""img/mask50.png""],[""img/mask58.png""],[""img/mask70.png""],[""img/mask82.png""]]]","","[14,31,35,7,2,26,12,19,34,28,0,22,8,11,25,18,17,6,16,4,13,15,29,27,10,24,23,30,1,3,9,5,21,32,33,20]","main","27","many-guess-6"
"","","","","","html-keyboard-response","111","1119414","0.0-10.0-0.46","5bad4be8b712f30001b87947","640759fa512f630a2bdc333d","640785d1269a3561f71567fb","null","","null","","","","","","","","","","","","","","","","","","","fixation","",""
"","","","","","many-guess-6","112","1123464","0.0-10.0-1.46-0.46","5bad4be8b712f30001b87947","640759fa512f630a2bdc333d","640785d1269a3561f71567fb","[2244]","","","[27,16,35,32,2,1,21,8,25,34,12,18,9,4,14,0,23,30,15,13,3,22,26,33,31,6,29,20,19,28,7,5,10,17,24,11]","[255,315,16,225,126,156,275,46,26,66,215,235,56,86,96,146,136,305,205,335,245,176,295,345,116,265,186,195,325,6,106,36,355,166,285,76]","255","209","25.086641670245463","[25.086641670245463]","[176.08664167024546]","[175]","[120,210,120,30,120,300,210,120,210]","0","36","0","148.88499990454875","19.15100000007078","16","[[[""img/mask100.png""],[""img/mask6.png""],[""img/mask78.png""],[""img/mask92.png""],[""img/mask97.png""],[""img/mask25.png""],[""img/mask71.png""],[""img/mask21.png""],[""img/mask76.png""],[""img/mask51.png""],[""img/mask45.png""],[""img/mask66.png""],[""img/mask83.png""],[""img/mask79.png""],[""img/mask28.png""],[""img/mask44.png""],[""img/mask100.png""],[""img/mask44.png""],[""img/mask18.png""],[""img/mask94.png""],[""img/mask66.png""],[""img/mask28.png""],[""img/mask29.png""],[""img/mask62.png""],[""img/mask96.png""],[""img/mask88.png""],[""img/mask30.png""],[""img/mask2.png""],[""img/mask20.png""],[""img/mask87.png""],[""img/mask42.png""],[""img/mask44.png""],[""img/mask78.png""],[""img/mask48.png""],[""img/mask25.png""],[""img/mask3.png""]]]","","[27,16,35,32,2,1,21,8,25,34,12,18,9,4,14,0,23,30,15,13,3,22,26,33,31,6,29,20,19,28,7,5,10,17,24,11]","main","209","many-guess-6"
"","","","","","html-keyboard-response","113","1123965","0.0-10.0-0.47","5bad4be8b712f30001b87947","640759fa512f630a2bdc333d","640785d1269a3561f71567fb","null","","null","","","","","","","","","","","","","","","","","","","fixation","",""
"","","","","","color-precision2","114","1128432","0.0-10.0-1.47-0.47","5bad4be8b712f30001b87947","640759fa512f630a2bdc333d","640785d1269a3561f71567fb","[1528.5999999046326]","","","[28]","[151]","151","301","107.43928982493404","[107.43928982493404]","[166.43928982493404]","[164]","0","0","1","0","148.33500004769303","997.6549999522977","1000","[[[""img/mask47.png""]]]","","","main","301","color-precision2"
"","","","","","html-keyboard-response","115","1128933","0.0-10.0-0.48","5bad4be8b712f30001b87947","640759fa512f630a2bdc333d","640785d1269a3561f71567fb","null","","null","","","","","","","","","","","","","","","","","","","fixation","",""
"","","","","","color-precision2","116","1132760","0.0-10.0-1.48-0.48","5bad4be8b712f30001b87947","640759fa512f630a2bdc333d","640785d1269a3561f71567fb","[639.5999999046326]","","","[22]","[81]","81","44","124.790773119337","[124.790773119337]","[80.790773119337]","[81]","0","0","1","0","149.1649998568464","994.6329999046866","1000","[[[""img/mask50.png""]]]","","","main","44","color-precision2"
"","","","","","html-keyboard-response","117","1133262","0.0-10.0-0.49","5bad4be8b712f30001b87947","640759fa512f630a2bdc333d","640785d1269a3561f71567fb","null","","null","","","","","","","","","","","","","","","","","","","fixation","",""
"","","","","","color-precision2","118","1137640","0.0-10.0-1.49-0.49","5bad4be8b712f30001b87947","640759fa512f630a2bdc333d","640785d1269a3561f71567fb","[1236.7000000476837]","","","[28]","[312]","312","275","225.1805230533114","[225.1805230533114]","[310.1805230533114]","[312]","0","0","1","0","149.04599985689856","1001.0569999045692","1000","[[[""img/mask61.png""]]]","","","main","275","color-precision2"
"","","","","","html-keyboard-response","119","1138141","0.0-10.0-0.50","5bad4be8b712f30001b87947","640759fa512f630a2bdc333d","640785d1269a3561f71567fb","null","","null","","","","","","","","","","","","","","","","","","","fixation","",""
"","","","","","color-precision2","120","1141768","0.0-10.0-1.50-0.50","5bad4be8b712f30001b87947","640759fa512f630a2bdc333d","640785d1269a3561f71567fb","[747.2999999523163]","","","[11]","[132]","132","222","356.8972633832948","[356.8972633832948]","[134.89726338329478]","[134]","0","0","1","0","149.01400004769675","1004.9189999522641","1000","[[[""img/mask92.png""]]]","","","main","222","color-precision2"
"","","","","","html-keyboard-response","121","1142269","0.0-10.0-0.51","5bad4be8b712f30001b87947","640759fa512f630a2bdc333d","640785d1269a3561f71567fb","null","","null","","","","","","","","","","","","","","","","","","","fixation","",""
"","","","","","color-precision2","122","1146312","0.0-10.0-1.51-0.51","5bad4be8b712f30001b87947","640759fa512f630a2bdc333d","640785d1269a3561f71567fb","[1057.7000000476837]","","","[14]","[171]","171","110","287.9326624830611","[287.9326624830611]","[177.9326624830611]","[178]","0","0","1","0","148.37800004775636","994.472000000067","1000","[[[""img/mask56.png""]]]","","","main","110","color-precision2"
"","","","","","html-keyboard-response","123","1146813","0.0-10.0-0.52","5bad4be8b712f30001b87947","640759fa512f630a2bdc333d","640785d1269a3561f71567fb","null","","null","","","","","","","","","","","","","","","","","","","fixation","",""
"","","","","","many-guess-6","124","1151896","0.0-10.0-1.52-0.52","5bad4be8b712f30001b87947","640759fa512f630a2bdc333d","640785d1269a3561f71567fb","[2309]","","","[30,24,14,7,10,27,3,15,20,9,0,18,33,16,11,35,8,25,4,2,5,28,31,22,1,17,6,26,12,13,34,32,19,21,29,23]","[147,327,227,78,127,157,297,18,357,177,187,68,307,197,287,237,267,277,317,167,38,337,107,28,8,48,88,257,58,137,247,217,207,347,97,117]","147","23","145.5884356360069","[145.5884356360069]","[122.58843563600689]","[121]","[300,30,120,210,210,210,30,120,30]","0","36","0","149.2110000476241","11.894999904558063","16","[[[""img/mask100.png""],[""img/mask1.png""],[""img/mask64.png""],[""img/mask26.png""],[""img/mask22.png""],[""img/mask38.png""],[""img/mask11.png""],[""img/mask87.png""],[""img/mask87.png""],[""img/mask87.png""],[""img/mask18.png""],[""img/mask85.png""],[""img/mask18.png""],[""img/mask92.png""],[""img/mask92.png""],[""img/mask62.png""],[""img/mask37.png""],[""img/mask35.png""],[""img/mask36.png""],[""img/mask6.png""],[""img/mask49.png""],[""img/mask17.png""],[""img/mask85.png""],[""img/mask35.png""],[""img/mask92.png""],[""img/mask58.png""],[""img/mask55.png""],[""img/mask78.png""],[""img/mask58.png""],[""img/mask86.png""],[""img/mask92.png""],[""img/mask41.png""],[""img/mask57.png""],[""img/mask47.png""],[""img/mask14.png""],[""img/mask99.png""]]]","","[30,24,14,7,10,27,3,15,20,9,0,18,33,16,11,35,8,25,4,2,5,28,31,22,1,17,6,26,12,13,34,32,19,21,29,23]","main","23","many-guess-6"
"","","","","","html-keyboard-response","125","1152397","0.0-10.0-0.53","5bad4be8b712f30001b87947","640759fa512f630a2bdc333d","640785d1269a3561f71567fb","null","","null","","","","","","","","","","","","","","","","","","","fixation","",""
"","","","","","color-precision2","126","1155984","0.0-10.0-1.53-0.53","5bad4be8b712f30001b87947","640759fa512f630a2bdc333d","640785d1269a3561f71567fb","[930.5]","","","[24]","[143]","143","36","175.739674478266","[175.739674478266]","[139.739674478266]","[139]","0","0","1","0","147.63299999991432","1000.4639999999199","1000","[[[""img/mask80.png""]]]","","","main","36","color-precision2"
"","","","","","html-keyboard-response","127","1156487","0.0-10.0-0.54","5bad4be8b712f30001b87947","640759fa512f630a2bdc333d","640785d1269a3561f71567fb","null","","null","","","","","","","","","","","","","","","","","","","fixation","",""
"","","","","","color-precision2","128","1160432","0.0-10.0-1.54-0.54","5bad4be8b712f30001b87947","640759fa512f630a2bdc333d","640785d1269a3561f71567fb","[1144.5999999046326]","","","[31]","[42]","42","210","248.18055154357262","[248.18055154357262]","[38.18055154357262]","[38]","0","0","1","0","147.80699995229952","996.9649999046233","1000","[[[""img/mask18.png""]]]","","","main","210","color-precision2"
"","","","","","html-keyboard-response","129","1160934","0.0-10.0-0.55","5bad4be8b712f30001b87947","640759fa512f630a2bdc333d","640785d1269a3561f71567fb","null","","null","","","","","","","","","","","","","","","","","","","fixation","",""
"","","","","","many-guess-6","130","1164752","0.0-10.0-1.55-0.55","5bad4be8b712f30001b87947","640759fa512f630a2bdc333d","640785d1269a3561f71567fb","[2182.2000000476837]","","","[30,19,10,2,34,3,15,5,13,32,29,33,27,35,11,1,31,4,25,21,23,28,8,20,9,17,24,14,12,7,0,18,22,26,16,6]","[145,76,16,106,305,295,265,46,285,245,315,96,195,355,225,6,345,205,56,185,215,275,165,116,126,36,135,86,235,175,66,26,335,155,255,325]","145","294","37.50320603565322","[37.50320603565322]","[103.50320603565319]","[102]","[300,120,120,30,120,30,120,120,300]","0","36","0","149.11600004765205","21.304999904707074","16","[[[""img/mask9.png""],[""img/mask17.png""],[""img/mask87.png""],[""img/mask34.png""],[""img/mask52.png""],[""img/mask5.png""],[""img/mask96.png""],[""img/mask57.png""],[""img/mask82.png""],[""img/mask6.png""],[""img/mask89.png""],[""img/mask36.png""],[""img/mask90.png""],[""img/mask14.png""],[""img/mask5.png""],[""img/mask21.png""],[""img/mask65.png""],[""img/mask3.png""],[""img/mask33.png""],[""img/mask44.png""],[""img/mask39.png""],[""img/mask37.png""],[""img/mask97.png""],[""img/mask89.png""],[""img/mask8.png""],[""img/mask72.png""],[""img/mask83.png""],[""img/mask49.png""],[""img/mask48.png""],[""img/mask86.png""],[""img/mask40.png""],[""img/mask95.png""],[""img/mask55.png""],[""img/mask30.png""],[""img/mask10.png""],[""img/mask30.png""]]]","","[30,19,10,2,34,3,15,5,13,32,29,33,27,35,11,1,31,4,25,21,23,28,8,20,9,17,24,14,12,7,0,18,22,26,16,6]","main","294","many-guess-6"
"","","","","","html-keyboard-response","131","1165253","0.0-10.0-0.56","5bad4be8b712f30001b87947","640759fa512f630a2bdc333d","640785d1269a3561f71567fb","null","","null","","","","","","","","","","","","","","","","","","","fixation","",""
"","","","","","color-precision2","132","1169615","0.0-10.0-1.56-0.56","5bad4be8b712f30001b87947","640759fa512f630a2bdc333d","640785d1269a3561f71567fb","[1545.7999999523163]","","","[5]","[52]","52","133","179.0386148173935","[179.0386148173935]","[46.038614817393494]","[45]","0","0","1","0","148.16299995221198","1005.3169999045786","1000","[[[""img/mask85.png""]]]","","","main","133","color-precision2"
"","","","","","html-keyboard-response","133","1170117","0.0-10.0-0.57","5bad4be8b712f30001b87947","640759fa512f630a2bdc333d","640785d1269a3561f71567fb","null","","null","","","","","","","","","","","","","","","","","","","fixation","",""
"","","","","","color-precision2","134","1173751","0.0-10.0-1.57-0.57","5bad4be8b712f30001b87947","640759fa512f630a2bdc333d","640785d1269a3561f71567fb","[1064.8999998569489]","","","[6]","[105]","105","226","331.5162547631735","[331.5162547631735]","[105.51625476317349]","[105]","0","0","1","0","148.30899995239452","992.7839998570271","1000","[[[""img/mask1.png""]]]","","","main","226","color-precision2"
"","","","","","html-keyboard-response","135","1174252","0.0-10.0-0.58","5bad4be8b712f30001b87947","640759fa512f630a2bdc333d","640785d1269a3561f71567fb","null","","null","","","","","","","","","","","","","","","","","","","fixation","",""
"","","","","","many-guess-6","136","1178615","0.0-10.0-1.58-0.58","5bad4be8b712f30001b87947","640759fa512f630a2bdc333d","640785d1269a3561f71567fb","[2462.5999999046326]","","","[14,8,23,12,31,10,32,25,9,34,6,7,29,15,26,24,21,1,0,28,35,22,4,2,18,5,17,30,13,27,3,11,33,16,19,20]","[243,203,63,83,332,133,253,53,43,163,123,143,173,13,23,73,302,3,283,93,223,213,292,193,153,183,103,273,113,342,263,312,322,33,352,233]","243","12","170.08396747310348","[170.08396747310348]","[158.08396747310348]","[157]","[210,300,210,300,300,210,210,30,210]","0","36","0","149.0019999523647","24.157999904593453","16","[[[""img/mask65.png""],[""img/mask96.png""],[""img/mask73.png""],[""img/mask55.png""],[""img/mask33.png""],[""img/mask76.png""],[""img/mask28.png""],[""img/mask18.png""],[""img/mask31.png""],[""img/mask18.png""],[""img/mask100.png""],[""img/mask28.png""],[""img/mask28.png""],[""img/mask40.png""],[""img/mask76.png""],[""img/mask27.png""],[""img/mask15.png""],[""img/mask37.png""],[""img/mask24.png""],[""img/mask45.png""],[""img/mask10.png""],[""img/mask37.png""],[""img/mask78.png""],[""img/mask46.png""],[""img/mask86.png""],[""img/mask44.png""],[""img/mask78.png""],[""img/mask24.png""],[""img/mask39.png""],[""img/mask34.png""],[""img/mask43.png""],[""img/mask84.png""],[""img/mask55.png""],[""img/mask32.png""],[""img/mask58.png""],[""img/mask50.png""]]]","","[14,8,23,12,31,10,32,25,9,34,6,7,29,15,26,24,21,1,0,28,35,22,4,2,18,5,17,30,13,27,3,11,33,16,19,20]","main","12","many-guess-6"
"","","","","","html-keyboard-response","137","1220499","0.0-10.0-0.59","5bad4be8b712f30001b87947","640759fa512f630a2bdc333d","640785d1269a3561f71567fb","41883","Wow! You've completed 60 out of 180 trials! </p> <p>  </p><p> Take a quick break, then press any key when you're ready to continue."," ","","","","","","","","","","","","","","","","","","","fixation","",""
"","","","","","color-precision2","138","1226312","0.0-10.0-1.59-0.59","5bad4be8b712f30001b87947","640759fa512f630a2bdc333d","640785d1269a3561f71567fb","[774.5]","","","[31]","[306]","306","350","291.8352043750519","[291.8352043750519]","[301.8352043750519]","[302]","0","0","1","0","148.47699985699728","1008.0900000475813","1000","[[[""img/mask87.png""]]]","","","main","350","color-precision2"
"","","","","","html-keyboard-response","139","1226812","0.0-10.0-0.60","5bad4be8b712f30001b87947","640759fa512f630a2bdc333d","640785d1269a3561f71567fb","null","","null","","","","","","","","","","","","","","","","","","","fixation","",""
"","","","","","color-precision2","140","1230223","0.0-10.0-1.60-0.60","5bad4be8b712f30001b87947","640759fa512f630a2bdc333d","640785d1269a3561f71567fb","[736.3000001907349]","","","[24]","[304]","304","337","270.94465775361317","[270.94465775361317]","[293.94465775361317]","[294]","0","0","1","0","148.3050000476651","999.441000000108","1000","[[[""img/mask73.png""]]]","","","main","337","color-precision2"
"","","","","","html-keyboard-response","141","1230724","0.0-10.0-0.61","5bad4be8b712f30001b87947","640759fa512f630a2bdc333d","640785d1269a3561f71567fb","null","","null","","","","","","","","","","","","","","","","","","","fixation","",""
"","","","","","many-guess-6","142","1234384","0.0-10.0-1.61-0.61","5bad4be8b712f30001b87947","640759fa512f630a2bdc333d","640785d1269a3561f71567fb","[2030.7999999523163]","","","[33,3,30,16,35,2,21,19,26,17,14,20,27,7,10,1,11,13,8,31,6,4,15,24,28,22,18,29,0,12,34,9,23,25,5,32]","[226,256,67,37,186,47,77,306,216,97,107,246,156,356,326,196,346,146,27,266,176,7,206,117,336,127,236,166,316,296,17,276,286,87,57,137]","226","52","214.2502396600468","[214.2502396600468]","[162.2502396600468]","[162]","[300,210,30,30,30,120,210,120,300]","0","36","0","148.97100004763342","16.214999904623255","16","[[[""img/mask7.png""],[""img/mask74.png""],[""img/mask58.png""],[""img/mask39.png""],[""img/mask54.png""],[""img/mask40.png""],[""img/mask64.png""],[""img/mask97.png""],[""img/mask85.png""],[""img/mask28.png""],[""img/mask99.png""],[""img/mask48.png""],[""img/mask28.png""],[""img/mask61.png""],[""img/mask99.png""],[""img/mask71.png""],[""img/mask91.png""],[""img/mask86.png""],[""img/mask19.png""],[""img/mask34.png""],[""img/mask53.png""],[""img/mask50.png""],[""img/mask11.png""],[""img/mask19.png""],[""img/mask92.png""],[""img/mask49.png""],[""img/mask79.png""],[""img/mask19.png""],[""img/mask79.png""],[""img/mask49.png""],[""img/mask84.png""],[""img/mask62.png""],[""img/mask19.png""],[""img/mask77.png""],[""img/mask48.png""],[""img/mask94.png""]]]","","[33,3,30,16,35,2,21,19,26,17,14,20,27,7,10,1,11,13,8,31,6,4,15,24,28,22,18,29,0,12,34,9,23,25,5,32]","main","52","many-guess-6"
"","","","","","html-keyboard-response","143","1234886","0.0-10.0-0.62","5bad4be8b712f30001b87947","640759fa512f630a2bdc333d","640785d1269a3561f71567fb","null","","null","","","","","","","","","","","","","","","","","","","fixation","",""
"","","","","","color-precision2","144","1238687","0.0-10.0-1.62-0.62","5bad4be8b712f30001b87947","640759fa512f630a2bdc333d","640785d1269a3561f71567fb","[783.8000001907349]","","","[25]","[342]","342","309","300.39136490924375","[300.39136490924375]","[351.39136490924375]","[351]","0","0","1","0","147.9019999045413","1002.564000000013","1000","[[[""img/mask49.png""]]]","","","main","309","color-precision2"
"","","","","","html-keyboard-response","145","1239191","0.0-10.0-0.63","5bad4be8b712f30001b87947","640759fa512f630a2bdc333d","640785d1269a3561f71567fb","null","","null","","","","","","","","","","","","","","","","","","","fixation","",""
"","","","","","color-precision2","146","1242367","0.0-10.0-1.63-0.63","5bad4be8b712f30001b87947","640759fa512f630a2bdc333d","640785d1269a3561f71567fb","[714.2000000476837]","","","[33]","[350]","350","222","228.018890437062","[228.018890437062]","[6.018890437061998]","[6]","0","0","1","0","148.69199985684827","1006.4529998570215","1000","[[[""img/mask57.png""]]]","","","main","222","color-precision2"
"","","","","","html-keyboard-response","147","1242869","0.0-10.0-0.64","5bad4be8b712f30001b87947","640759fa512f630a2bdc333d","640785d1269a3561f71567fb","null","","null","","","","","","","","","","","","","","","","","","","fixation","",""
"","","","","","many-guess-6","148","1247752","0.0-10.0-1.64-0.64","5bad4be8b712f30001b87947","640759fa512f630a2bdc333d","640785d1269a3561f71567fb","[2515.300000190735]","","","[2,6,17,1,20,0,5,21,15,27,35,11,9,14,29,8,24,7,12,32,3,16,13,31,25,22,26,4,18,19,23,28,30,10,33,34]","[219,69,288,99,298,9,278,59,338,159,169,39,199,308,49,19,318,189,348,259,119,129,239,229,328,109,139,269,29,358,179,79,149,89,249,209]","219","349","56.326839055318494","[56.326839055318494]","[67.32683905531849]","[66]","[120,120,300,120,300,300,120,120,120]","0","36","0","148.9229999522213","22.986000000033528","16","[[[""img/mask100.png""],[""img/mask87.png""],[""img/mask19.png""],[""img/mask1.png""],[""img/mask55.png""],[""img/mask19.png""],[""img/mask66.png""],[""img/mask19.png""],[""img/mask11.png""],[""img/mask82.png""],[""img/mask94.png""],[""img/mask57.png""],[""img/mask13.png""],[""img/mask21.png""],[""img/mask63.png""],[""img/mask44.png""],[""img/mask47.png""],[""img/mask94.png""],[""img/mask88.png""],[""img/mask77.png""],[""img/mask81.png""],[""img/mask47.png""],[""img/mask82.png""],[""img/mask72.png""],[""img/mask74.png""],[""img/mask60.png""],[""img/mask23.png""],[""img/mask47.png""],[""img/mask37.png""],[""img/mask92.png""],[""img/mask77.png""],[""img/mask41.png""],[""img/mask14.png""],[""img/mask16.png""],[""img/mask38.png""],[""img/mask19.png""]]]","","[2,6,17,1,20,0,5,21,15,27,35,11,9,14,29,8,24,7,12,32,3,16,13,31,25,22,26,4,18,19,23,28,30,10,33,34]","main","349","many-guess-6"
"","","","","","html-keyboard-response","149","1248253","0.0-10.0-0.65","5bad4be8b712f30001b87947","640759fa512f630a2bdc333d","640785d1269a3561f71567fb","null","","null","","","","","","","","","","","","","","","","","","","fixation","",""
"","","","","","many-guess-6","150","1252552","0.0-10.0-1.65-0.65","5bad4be8b712f30001b87947","640759fa512f630a2bdc333d","640785d1269a3561f71567fb","[2465.2000000476837]","","","[5,34,22,29,4,15,16,18,10,1,30,7,35,25,3,20,28,21,8,19,6,32,17,11,12,27,24,9,26,31,33,0,23,13,2,14]","[30,239,319,359,100,229,50,160,339,199,40,60,90,120,70,289,150,20,259,80,110,170,309,10,130,299,279,249,140,349,219,209,180,190,329,269]","30","52","61.50760835300169","[61.50760835300169]","[9.507608353001693]","[8]","[210,120,30,210,300,210,120,30,300]","0","36","0","148.9329999522306","19.7759999523405","16","[[[""img/mask50.png""],[""img/mask66.png""],[""img/mask51.png""],[""img/mask100.png""],[""img/mask44.png""],[""img/mask54.png""],[""img/mask73.png""],[""img/mask39.png""],[""img/mask97.png""],[""img/mask91.png""],[""img/mask92.png""],[""img/mask77.png""],[""img/mask91.png""],[""img/mask2.png""],[""img/mask83.png""],[""img/mask62.png""],[""img/mask12.png""],[""img/mask10.png""],[""img/mask75.png""],[""img/mask56.png""],[""img/mask56.png""],[""img/mask11.png""],[""img/mask31.png""],[""img/mask48.png""],[""img/mask18.png""],[""img/mask98.png""],[""img/mask80.png""],[""img/mask31.png""],[""img/mask34.png""],[""img/mask5.png""],[""img/mask24.png""],[""img/mask72.png""],[""img/mask92.png""],[""img/mask85.png""],[""img/mask75.png""],[""img/mask86.png""]]]","","[5,34,22,29,4,15,16,18,10,1,30,7,35,25,3,20,28,21,8,19,6,32,17,11,12,27,24,9,26,31,33,0,23,13,2,14]","main","52","many-guess-6"
"","","","","","html-keyboard-response","151","1253053","0.0-10.0-0.66","5bad4be8b712f30001b87947","640759fa512f630a2bdc333d","640785d1269a3561f71567fb","null","","null","","","","","","","","","","","","","","","","","","","fixation","",""
"","","","","","color-precision2","152","1256320","0.0-10.0-1.66-0.66","5bad4be8b712f30001b87947","640759fa512f630a2bdc333d","640785d1269a3561f71567fb","[816.5999999046326]","","","[34]","[239]","239","80","324.3853533853211","[324.3853533853211]","[244.38535338532108]","[244]","0","0","1","0","147.70399985695258","994.8919999522623","1000","[[[""img/mask54.png""]]]","","","main","80","color-precision2"
"","","","","","html-keyboard-response","153","1256820","0.0-10.0-0.67","5bad4be8b712f30001b87947","640759fa512f630a2bdc333d","640785d1269a3561f71567fb","null","","null","","","","","","","","","","","","","","","","","","","fixation","",""
"","","","","","color-precision2","154","1260960","0.0-10.0-1.67-0.67","5bad4be8b712f30001b87947","640759fa512f630a2bdc333d","640785d1269a3561f71567fb","[1372.3000001907349]","","","[18]","[42]","42","311","347.43614797734693","[347.43614797734693]","[36.436147977346934]","[36]","0","0","1","0","147.71499990462326","991.7809999522287","1000","[[[""img/mask81.png""]]]","","","main","311","color-precision2"
"","","","","","html-keyboard-response","155","1261460","0.0-10.0-0.68","5bad4be8b712f30001b87947","640759fa512f630a2bdc333d","640785d1269a3561f71567fb","null","","null","","","","","","","","","","","","","","","","","","","fixation","",""
"","","","","","many-guess-6","156","1265943","0.0-10.0-1.68-0.68","5bad4be8b712f30001b87947","640759fa512f630a2bdc333d","640785d1269a3561f71567fb","[2340.600000143051]","","","[5,25,21,24,20,7,0,32,14,3,8,27,9,4,26,17,2,15,31,34,10,6,19,18,22,13,28,30,11,12,35,23,1,33,16,29]","[118,138,318,58,19,98,38,28,158,108,128,208,68,278,258,248,308,148,48,88,218,228,9,288,328,78,198,298,188,168,358,178,348,338,238,268]","118","213","140.73240806424732","[140.73240806424732]","[287.73240806424735]","[286]","[120,30,30,30,30,30,30,30,300]","0","36","0","148.99300004774705","17.10800000000745","16","[[[""img/mask96.png""],[""img/mask70.png""],[""img/mask96.png""],[""img/mask60.png""],[""img/mask89.png""],[""img/mask58.png""],[""img/mask53.png""],[""img/mask61.png""],[""img/mask53.png""],[""img/mask46.png""],[""img/mask33.png""],[""img/mask94.png""],[""img/mask98.png""],[""img/mask19.png""],[""img/mask17.png""],[""img/mask50.png""],[""img/mask34.png""],[""img/mask100.png""],[""img/mask71.png""],[""img/mask39.png""],[""img/mask68.png""],[""img/mask46.png""],[""img/mask81.png""],[""img/mask96.png""],[""img/mask67.png""],[""img/mask73.png""],[""img/mask35.png""],[""img/mask67.png""],[""img/mask26.png""],[""img/mask54.png""],[""img/mask25.png""],[""img/mask22.png""],[""img/mask29.png""],[""img/mask51.png""],[""img/mask13.png""],[""img/mask100.png""]]]","","[5,25,21,24,20,7,0,32,14,3,8,27,9,4,26,17,2,15,31,34,10,6,19,18,22,13,28,30,11,12,35,23,1,33,16,29]","main","213","many-guess-6"
"","","","","","html-keyboard-response","157","1266446","0.0-10.0-0.69","5bad4be8b712f30001b87947","640759fa512f630a2bdc333d","640785d1269a3561f71567fb","null","","null","","","","","","","","","","","","","","","","","","","fixation","",""
"","","","","","color-precision2","158","1270800","0.0-10.0-1.69-0.69","5bad4be8b712f30001b87947","640759fa512f630a2bdc333d","640785d1269a3561f71567fb","[1796.2999999523163]","","","[27]","[60]","60","353","39.21118774046485","[39.21118774046485]","[46.21118774046488]","[45]","0","0","1","0","148.90899990452453","1002.735999904573","1000","[[[""img/mask88.png""]]]","","","main","353","color-precision2"
"","","","","","html-keyboard-response","159","1271301","0.0-10.0-0.70","5bad4be8b712f30001b87947","640759fa512f630a2bdc333d","640785d1269a3561f71567fb","null","","null","","","","","","","","","","","","","","","","","","","fixation","",""
"","","","","","color-precision2","160","1276072","0.0-10.0-1.70-0.70","5bad4be8b712f30001b87947","640759fa512f630a2bdc333d","640785d1269a3561f71567fb","[1635.1000001430511]","","","[11]","[203]","203","276","125.89073294149233","[125.89073294149233]","[209.89073294149233]","[208]","0","0","1","0","148.34300004760735","1004.5039999999572","1000","[[[""img/mask39.png""]]]","","","main","276","color-precision2"
"","","","","","html-keyboard-response","161","1276572","0.0-10.0-0.71","5bad4be8b712f30001b87947","640759fa512f630a2bdc333d","640785d1269a3561f71567fb","null","","null","","","","","","","","","","","","","","","","","","","fixation","",""
"","","","","","many-guess-6","162","1280344","0.0-10.0-1.71-0.71","5bad4be8b712f30001b87947","640759fa512f630a2bdc333d","640785d1269a3561f71567fb","[2023.7000000476837]","","","[14,33,31,17,28,19,2,13,15,0,6,26,20,23,27,3,11,8,32,1,21,18,24,9,4,5,25,12,22,34,30,29,7,10,16,35]","[197,47,336,137,27,266,7,296,207,87,237,97,346,17,117,227,77,246,306,177,37,157,316,107,326,187,57,356,167,67,286,217,147,256,276,127]","197","175","155.426529244462","[155.426529244462]","[340.426529244462]","[339]","[210,210,300,120,120,30,30,300,300]","0","36","0","149.12699990463443","15.667999856872484","16","[[[""img/mask12.png""],[""img/mask90.png""],[""img/mask26.png""],[""img/mask14.png""],[""img/mask14.png""],[""img/mask45.png""],[""img/mask49.png""],[""img/mask62.png""],[""img/mask23.png""],[""img/mask97.png""],[""img/mask2.png""],[""img/mask93.png""],[""img/mask5.png""],[""img/mask20.png""],[""img/mask91.png""],[""img/mask60.png""],[""img/mask2.png""],[""img/mask99.png""],[""img/mask86.png""],[""img/mask73.png""],[""img/mask13.png""],[""img/mask34.png""],[""img/mask82.png""],[""img/mask75.png""],[""img/mask81.png""],[""img/mask48.png""],[""img/mask96.png""],[""img/mask41.png""],[""img/mask97.png""],[""img/mask44.png""],[""img/mask58.png""],[""img/mask98.png""],[""img/mask3.png""],[""img/mask75.png""],[""img/mask83.png""],[""img/mask48.png""]]]","","[14,33,31,17,28,19,2,13,15,0,6,26,20,23,27,3,11,8,32,1,21,18,24,9,4,5,25,12,22,34,30,29,7,10,16,35]","main","175","many-guess-6"
"","","","","","html-keyboard-response","163","1280854","0.0-10.0-0.72","5bad4be8b712f30001b87947","640759fa512f630a2bdc333d","640785d1269a3561f71567fb","null","","null","","","","","","","","","","","","","","","","","","","fixation","",""
