"success","timeout","failed_images","failed_audio","failed_video","trial_type","trial_index","time_elapsed","internal_node_id","subject_id","study_id","session_id","rt","stimulus","response","position_of_items","colors_of_items","color_of_target","wheel_spin","response_angle","physical_response_angle","reported_color_angle","reported_color_discrete","locs","which_test","set_size","wheel_num_options","actual_mask_duration","actual_stim_duration","CMDispTime","maskArray","maskRotation","item_positions","task","randomSpinAmount","mainTask"
"true","false","[]","[]","[]","preload","0","5502","0.0-0.0","5d0c565f7374b40001cef0f8","640759fa512f630a2bdc333d","6408c184cf1aa4423556f7b0","","","","","","","","","","","","","","","","","","","","","","","",""
"true","","","","","fullscreen","1","63588","0.0-1.0","5d0c565f7374b40001cef0f8","640759fa512f630a2bdc333d","6408c184cf1aa4423556f7b0","","","","","","","","","","","","","","","","","","","","","","","",""
"","","","","","html-keyboard-response","2","77139","0.0-2.0","5d0c565f7374b40001cef0f8","640759fa512f630a2bdc333d","6408c184cf1aa4423556f7b0","13550","What a beautiful Wednesday to do some awesome science! </p> <p>  </p><p> </p>
    By completing this survey or questionnaire, you are consenting to be in this research study. </p>
    Your participation is voluntary and you can stop at any time.<p> [Press any key to continue] </p>"," ","","","","","","","","","","","","","","","","","","","","",""
"","","","","","html-keyboard-response","3","87150","0.0-3.0","5d0c565f7374b40001cef0f8","640759fa512f630a2bdc333d","6408c184cf1aa4423556f7b0","null","
    <div style='width: 1000px;'>
    <div style='float: center;'><img src='img/TaskInstructions1.png'></img>
    </div>
    ","null","","","","","","","","","","","","","","","","","","","","",""
"","","","","","html-keyboard-response","4","92947","0.0-4.0","5d0c565f7374b40001cef0f8","640759fa512f630a2bdc333d","6408c184cf1aa4423556f7b0","5796.399999976158","
    <div style='width: 1000px;'>
    <div style='float: center;'><img src='img/TaskInstructions1.png'></img>
    </div>
    "," ","","","","","","","","","","","","","","","","","","","","",""
"","","","","","html-keyboard-response","5","102962","0.0-5.0","5d0c565f7374b40001cef0f8","640759fa512f630a2bdc333d","6408c184cf1aa4423556f7b0","null","
    <div style='width: 1000px;'>
    <div style='float: center;'><img src='img/TaskInstructions2.png'></img>
    </div>
    ","null","","","","","","","","","","","","","","","","","","","","",""
"","","","","","html-keyboard-response","6","133150","0.0-6.0","5d0c565f7374b40001cef0f8","640759fa512f630a2bdc333d","6408c184cf1aa4423556f7b0","30191.900000095367","
    <div style='width: 1000px;'>
    <div style='float: center;'><img src='img/TaskInstructions2.png'></img>
    </div>
    "," ","","","","","","","","","","","","","","","","","","","","",""
"","","","","","video-keyboard-response","7","159887","0.0-7.0","5d0c565f7374b40001cef0f8","640759fa512f630a2bdc333d","6408c184cf1aa4423556f7b0","26734.899999976158","[""video/TaskInstructions3.mp4""]"," ","","","","","","","","","","","","","","","","","","","","",""
"","","","","","image-keyboard-response","8","181774","0.0-8.0-0.0","5d0c565f7374b40001cef0f8","640759fa512f630a2bdc333d","6408c184cf1aa4423556f7b0","21885.200000047684","img/training1.png"," ","","","","","","","","","","","","","","","","","","","","",""
"","","","","","color-precision2","9","191443","0.0-8.0-1.0-0.0","5d0c565f7374b40001cef0f8","640759fa512f630a2bdc333d","6408c184cf1aa4423556f7b0","[2957.2999999523163]","","","[33]","[7]","7","42","53.7393975816397","[53.7393975816397]","[11.7393975816397]","[10]","0","0","1","0","499.2729999999865","993.619000000006","1000","","","0","training","",""
"","","","","","image-keyboard-response","10","220072","0.0-8.0-0.1","5d0c565f7374b40001cef0f8","640759fa512f630a2bdc333d","6408c184cf1aa4423556f7b0","28633.799999952316","img/training2.png"," ","","","","","","","","","","","","","","","","","","","","",""
"","","","","","many-guess-6","11","229161","0.0-8.0-1.1-0.1","5d0c565f7374b40001cef0f8","640759fa512f630a2bdc333d","6408c184cf1aa4423556f7b0","[3248.2000000476837]","","","[21,31,14]","[198,169,135]","198","241","112.52138831122795","[112.52138831122795]","[231.52138831122795]","[230]","[210,120,300,120,120,120,210,120,300,120,30,120,120,210,120,300,300,30,120,300,300,30,30,300,120,300,120,210,300,120,210,300,300,120,300,30]","0","3","0","999.4980000715295","997.42699997616","1000","[[[""img/mask68.png""],[""img/mask68.png""],[""img/mask97.png""]]]","","[21,31,14]","training","",""
"","","","","","image-keyboard-response","12","248352","0.0-8.0-0.2","5d0c565f7374b40001cef0f8","640759fa512f630a2bdc333d","6408c184cf1aa4423556f7b0","19189.899999976158","img/training3.png"," ","","","","","","","","","","","","","","","","","","","","",""
"","","","","","[""many-guess-6""]","13","261409","0.0-8.0-1.2-0.2","5d0c565f7374b40001cef0f8","640759fa512f630a2bdc333d","6408c184cf1aa4423556f7b0","[8162.899999976158]","","","[19,18,22,21,17]","[33,9,337,82,352]","33","264","227.0185969174568","[227.0185969174568]","[323.01859691745676]","[323]","[300,210,120,30,210,300,300,210,120,120,120,210,300,300,30,210,30,300,120,120,30,30,120,30,300,300,210,120,120,300,120,210,120,30,120,210]","0","5","0","499.58699999999953","495.018000023847","500","[[[""img/mask22.png""],[""img/mask84.png""],[""img/mask43.png""],[""img/mask5.png""],[""img/mask14.png""]]]","","[19,18,22,21,17]","training","",""
"","","","","","image-keyboard-response","14","273520","0.0-8.0-0.3","5d0c565f7374b40001cef0f8","640759fa512f630a2bdc333d","6408c184cf1aa4423556f7b0","12109.899999976158","img/training4.png"," ","","","","","","","","","","","","","","","","","","","","",""
"","","","","","[""many-guess-6""]","15","279355","0.0-8.0-1.3-0.3","5d0c565f7374b40001cef0f8","640759fa512f630a2bdc333d","6408c184cf1aa4423556f7b0","[3142.3000000715256]","","","[34,24,35,19,31,13,15,5,0,12]","[89,143,171,334,4,66,116,299,54,37]","89","240","320.0072484166543","[320.0072484166543]","[80.0072484166543]","[80]","[120,120,120,210,120,120,30,300,300,300,210,300,210,300,300,120,120,210,120,300,300,30,120,30,30,300,120,210,210,210,210,30,210,120,30,210]","0","10","0","132.9010000238195","125.5920000715414","132","[[[""img/mask62.png""],[""img/mask49.png""],[""img/mask62.png""],[""img/mask38.png""],[""img/mask19.png""],[""img/mask32.png""],[""img/mask83.png""],[""img/mask80.png""],[""img/mask89.png""],[""img/mask47.png""]]]","","[34,24,35,19,31,13,15,5,0,12]","training","",""
"","","","","","image-keyboard-response","16","289787","0.0-8.0-0.4","5d0c565f7374b40001cef0f8","640759fa512f630a2bdc333d","6408c184cf1aa4423556f7b0","10420.399999976158","img/training5.png"," ","","","","","","","","","","","","","","","","","","","","",""
"","","","","","[""many-guess-6""]","17","294726","0.0-8.0-1.4-0.4","5d0c565f7374b40001cef0f8","640759fa512f630a2bdc333d","6408c184cf1aa4423556f7b0","[2302.2000000476837]","","","[0,1,3,11,34,26,24,5,28,19,29,27,25,6,21,30,13,23,10,18,35,15,2,17,16,22,4,12,7,31,14,33,8,9,20,32]","[83,23,53,103,93,263,223,133,343,143,123,303,63,293,203,313,193,273,4,13,183,333,353,153,233,253,33,43,323,283,113,243,73,213,173,163]","83","223","334.6828521490824","[334.6828521490824]","[111.68285214908241]","[112]","[120,300,210,210,120,120,30,300,120,300,210,30,300,120,210,30,210,210,30,30,120,30,300,30,120,210,120,120,210,300,30,300,120,120,30,210]","0","36","0","132.7170000000042","12.632000071520451","16","[[[""img/mask20.png""],[""img/mask47.png""],[""img/mask49.png""],[""img/mask69.png""],[""img/mask66.png""],[""img/mask55.png""],[""img/mask89.png""],[""img/mask65.png""],[""img/mask22.png""],[""img/mask27.png""],[""img/mask40.png""],[""img/mask92.png""],[""img/mask18.png""],[""img/mask69.png""],[""img/mask74.png""],[""img/mask54.png""],[""img/mask67.png""],[""img/mask61.png""],[""img/mask93.png""],[""img/mask28.png""],[""img/mask78.png""],[""img/mask89.png""],[""img/mask44.png""],[""img/mask43.png""],[""img/mask60.png""],[""img/mask52.png""],[""img/mask54.png""],[""img/mask79.png""],[""img/mask62.png""],[""img/mask43.png""],[""img/mask5.png""],[""img/mask23.png""],[""img/mask48.png""],[""img/mask36.png""],[""img/mask77.png""],[""img/mask62.png""]]]","","[0,1,3,11,34,26,24,5,28,19,29,27,25,6,21,30,13,23,10,18,35,15,2,17,16,22,4,12,7,31,14,33,8,9,20,32]","training","",""
"","","","","","image-keyboard-response","18","328555","0.0-9.0","5d0c565f7374b40001cef0f8","640759fa512f630a2bdc333d","6408c184cf1aa4423556f7b0","33828.40000009537","[""img/endTraining.png""]"," ","","","","","","","","","","","","","","","","","","","","",""
"","","","","","html-keyboard-response","19","329071","0.0-10.0-0.0","5d0c565f7374b40001cef0f8","640759fa512f630a2bdc333d","6408c184cf1aa4423556f7b0","null","","null","","","","","","","","","","","","","","","","","","","fixation","",""
"","","","","","color-precision2","20","333528","0.0-10.0-1.0-0.0","5d0c565f7374b40001cef0f8","640759fa512f630a2bdc333d","6408c184cf1aa4423556f7b0","[1103.8000000715256]","","","[27]","[89]","89","134","219.4973508790123","[219.4973508790123]","[85.49735087901229]","[85]","0","0","1","0","149.173000071547","996.0560000715195","1000","[[[""img/mask9.png""]]]","","","main","134","color-precision2"
"","","","","","html-keyboard-response","21","334029","0.0-10.0-0.1","5d0c565f7374b40001cef0f8","640759fa512f630a2bdc333d","6408c184cf1aa4423556f7b0","null","","null","","","","","","","","","","","","","","","","","","","fixation","",""
"","","","","","many-guess-6","22","339626","0.0-10.0-1.1-0.1","5d0c565f7374b40001cef0f8","640759fa512f630a2bdc333d","6408c184cf1aa4423556f7b0","[3335.2999999523163]","","","[0,22,21,30,9,33,31,11,25,23,18,29,20,5,3,15,35,16,2,8,13,17,6,19,1,12,24,4,28,14,27,26,7,34,32,10]","[198,358,158,298,129,49,178,208,218,69,238,79,89,268,308,99,248,288,278,39,228,29,168,328,188,318,59,258,9,139,148,119,338,348,109,19]","198","141","171.97800445700426","[171.97800445700426]","[30.97800445700426]","[30]","[30,300,120,120,30,120,120,120,120]","0","36","0","149.44399997615255","23.42399999999907","16","[[[""img/mask55.png""],[""img/mask1.png""],[""img/mask18.png""],[""img/mask51.png""],[""img/mask79.png""],[""img/mask17.png""],[""img/mask28.png""],[""img/mask2.png""],[""img/mask25.png""],[""img/mask39.png""],[""img/mask97.png""],[""img/mask19.png""],[""img/mask59.png""],[""img/mask36.png""],[""img/mask81.png""],[""img/mask21.png""],[""img/mask86.png""],[""img/mask62.png""],[""img/mask29.png""],[""img/mask88.png""],[""img/mask88.png""],[""img/mask75.png""],[""img/mask98.png""],[""img/mask73.png""],[""img/mask85.png""],[""img/mask36.png""],[""img/mask82.png""],[""img/mask41.png""],[""img/mask12.png""],[""img/mask48.png""],[""img/mask14.png""],[""img/mask48.png""],[""img/mask35.png""],[""img/mask64.png""],[""img/mask44.png""],[""img/mask26.png""]]]","","[0,22,21,30,9,33,31,11,25,23,18,29,20,5,3,15,35,16,2,8,13,17,6,19,1,12,24,4,28,14,27,26,7,34,32,10]","main","141","many-guess-6"
"","","","","","html-keyboard-response","23","340135","0.0-10.0-0.2","5d0c565f7374b40001cef0f8","640759fa512f630a2bdc333d","6408c184cf1aa4423556f7b0","null","","null","","","","","","","","","","","","","","","","","","","fixation","",""
"","","","","","many-guess-6","24","346313","0.0-10.0-1.2-0.2","5d0c565f7374b40001cef0f8","640759fa512f630a2bdc333d","6408c184cf1aa4423556f7b0","[2921.399999976158]","","","[6,3,32,13,18,11,17,7,2,15,5,0,20,29,21,8,30,25,9,22,23,19,35,12,4,24,1,27,14,28,34,31,26,16,10,33]","[247,297,257,307,267,277,157,287,77,28,317,117,167,237,207,137,87,57,337,127,37,357,97,327,47,147,107,197,67,187,177,227,18,8,217,347]","247","95","152.32580182706317","[152.32580182706317]","[57.325801827063174]","[56]","[300,30,30,300,30,30,120,30,210]","0","36","0","149.41399997618282","9.66000004770467","16","[[[""img/mask100.png""],[""img/mask91.png""],[""img/mask35.png""],[""img/mask5.png""],[""img/mask72.png""],[""img/mask90.png""],[""img/mask83.png""],[""img/mask37.png""],[""img/mask51.png""],[""img/mask83.png""],[""img/mask23.png""],[""img/mask45.png""],[""img/mask91.png""],[""img/mask41.png""],[""img/mask33.png""],[""img/mask47.png""],[""img/mask72.png""],[""img/mask94.png""],[""img/mask83.png""],[""img/mask21.png""],[""img/mask72.png""],[""img/mask11.png""],[""img/mask74.png""],[""img/mask6.png""],[""img/mask14.png""],[""img/mask24.png""],[""img/mask14.png""],[""img/mask74.png""],[""img/mask27.png""],[""img/mask43.png""],[""img/mask12.png""],[""img/mask59.png""],[""img/mask64.png""],[""img/mask42.png""],[""img/mask61.png""],[""img/mask95.png""]]]","","[6,3,32,13,18,11,17,7,2,15,5,0,20,29,21,8,30,25,9,22,23,19,35,12,4,24,1,27,14,28,34,31,26,16,10,33]","main","95","many-guess-6"
"","","","","","html-keyboard-response","25","346813","0.0-10.0-0.3","5d0c565f7374b40001cef0f8","640759fa512f630a2bdc333d","6408c184cf1aa4423556f7b0","null","","null","","","","","","","","","","","","","","","","","","","fixation","",""
"","","","","","color-precision2","26","351569","0.0-10.0-1.3-0.3","5d0c565f7374b40001cef0f8","640759fa512f630a2bdc333d","6408c184cf1aa4423556f7b0","[1044]","","","[14]","[233]","233","188","69.54443536443964","[69.54443536443964]","[241.54443536443964]","[240]","0","0","1","0","149.5170000238577","1002.2870000000112","1000","[[[""img/mask16.png""]]]","","","main","188","color-precision2"
"","","","","","html-keyboard-response","27","352072","0.0-10.0-0.4","5d0c565f7374b40001cef0f8","640759fa512f630a2bdc333d","6408c184cf1aa4423556f7b0","null","","null","","","","","","","","","","","","","","","","","","","fixation","",""
"","","","","","color-precision2","28","356787","0.0-10.0-1.4-0.4","5d0c565f7374b40001cef0f8","640759fa512f630a2bdc333d","6408c184cf1aa4423556f7b0","[1228.5]","","","[25]","[344]","344","321","309.3735685294509","[309.3735685294509]","[348.3735685294509]","[348]","0","0","1","0","149.19199997617397","1004.6940000238246","1000","[[[""img/mask2.png""]]]","","","main","321","color-precision2"
"","","","","","html-keyboard-response","29","357289","0.0-10.0-0.5","5d0c565f7374b40001cef0f8","640759fa512f630a2bdc333d","6408c184cf1aa4423556f7b0","null","","null","","","","","","","","","","","","","","","","","","","fixation","",""
"","","","","","color-precision2","30","361323","0.0-10.0-1.5-0.5","5d0c565f7374b40001cef0f8","640759fa512f630a2bdc333d","6408c184cf1aa4423556f7b0","[1014.6000000238419]","","","[3]","[188]","188","326","154.4375662942299","[154.4375662942299]","[188.4375662942299]","[188]","0","0","1","0","149.6260000715265","1003.841000047687","1000","[[[""img/mask67.png""]]]","","","main","326","color-precision2"
"","","","","","html-keyboard-response","31","361823","0.0-10.0-0.6","5d0c565f7374b40001cef0f8","640759fa512f630a2bdc333d","6408c184cf1aa4423556f7b0","null","","null","","","","","","","","","","","","","","","","","","","fixation","",""
"","","","","","color-precision2","32","370645","0.0-10.0-1.6-0.6","5d0c565f7374b40001cef0f8","640759fa512f630a2bdc333d","6408c184cf1aa4423556f7b0","[1053.5]","","","[22]","[157]","157","307","107.22351911051322","[107.22351911051322]","[160.22351911051322]","[158]","0","0","1","0","149.55999997613253","1007.0930000238586","1000","[[[""img/mask16.png""]]]","","","main","307","color-precision2"
"","","","","","html-keyboard-response","33","371149","0.0-10.0-0.7","5d0c565f7374b40001cef0f8","640759fa512f630a2bdc333d","6408c184cf1aa4423556f7b0","null","","null","","","","","","","","","","","","","","","","","","","fixation","",""
"","","","","","many-guess-6","34","375369","0.0-10.0-1.7-0.7","5d0c565f7374b40001cef0f8","640759fa512f630a2bdc333d","6408c184cf1aa4423556f7b0","[2094.100000023842]","","","[33,7,25,35,22,20,10,17,31,28,15,11,9,2,4,21,13,19,23,24,8,1,30,3,12,32,34,16,29,18,6,0,14,27,26,5]","[235,315,295,325,335,36,136,275,185,6,225,126,195,205,155,165,146,305,175,26,215,255,116,245,106,285,265,16,56,355,76,46,66,345,96,86]","235","263","176.36829307313872","[176.36829307313872]","[273.3682930731387]","[273]","[120,30,120,300,210,30,210,210,120]","0","36","0","149.53100002382416","32.917000023822766","16","[[[""img/mask100.png""],[""img/mask21.png""],[""img/mask75.png""],[""img/mask47.png""],[""img/mask5.png""],[""img/mask71.png""],[""img/mask8.png""],[""img/mask76.png""],[""img/mask36.png""],[""img/mask61.png""],[""img/mask28.png""],[""img/mask67.png""],[""img/mask100.png""],[""img/mask21.png""],[""img/mask86.png""],[""img/mask60.png""],[""img/mask63.png""],[""img/mask52.png""],[""img/mask93.png""],[""img/mask1.png""],[""img/mask68.png""],[""img/mask95.png""],[""img/mask67.png""],[""img/mask76.png""],[""img/mask51.png""],[""img/mask90.png""],[""img/mask86.png""],[""img/mask93.png""],[""img/mask53.png""],[""img/mask76.png""],[""img/mask15.png""],[""img/mask62.png""],[""img/mask11.png""],[""img/mask44.png""],[""img/mask49.png""],[""img/mask12.png""]]]","","[33,7,25,35,22,20,10,17,31,28,15,11,9,2,4,21,13,19,23,24,8,1,30,3,12,32,34,16,29,18,6,0,14,27,26,5]","main","263","many-guess-6"
"","","","","","html-keyboard-response","35","375870","0.0-10.0-0.8","5d0c565f7374b40001cef0f8","640759fa512f630a2bdc333d","6408c184cf1aa4423556f7b0","null","","null","","","","","","","","","","","","","","","","","","","fixation","",""
"","","","","","many-guess-6","36","380725","0.0-10.0-1.8-0.8","5d0c565f7374b40001cef0f8","640759fa512f630a2bdc333d","6408c184cf1aa4423556f7b0","[2400.2999999523163]","","","[9,21,17,32,27,13,5,24,25,12,34,3,22,35,20,8,11,28,6,18,33,0,7,31,30,26,16,4,14,15,1,2,19,23,29,10]","[305,286,146,6,355,86,335,216,126,256,26,96,315,295,156,46,186,176,196,16,116,166,76,266,36,206,325,276,106,136,66,56,236,226,345,246]","305","160","92.2007396892154","[92.2007396892154]","[292.2007396892154]","[290]","[300,120,120,30,300,30,300,300,210]","0","36","0","149.59800002386328","21.349999999976717","16","[[[""img/mask20.png""],[""img/mask52.png""],[""img/mask28.png""],[""img/mask11.png""],[""img/mask29.png""],[""img/mask61.png""],[""img/mask52.png""],[""img/mask96.png""],[""img/mask44.png""],[""img/mask32.png""],[""img/mask97.png""],[""img/mask26.png""],[""img/mask87.png""],[""img/mask38.png""],[""img/mask91.png""],[""img/mask24.png""],[""img/mask88.png""],[""img/mask29.png""],[""img/mask41.png""],[""img/mask16.png""],[""img/mask18.png""],[""img/mask4.png""],[""img/mask37.png""],[""img/mask78.png""],[""img/mask9.png""],[""img/mask3.png""],[""img/mask19.png""],[""img/mask5.png""],[""img/mask92.png""],[""img/mask41.png""],[""img/mask40.png""],[""img/mask37.png""],[""img/mask39.png""],[""img/mask30.png""],[""img/mask55.png""],[""img/mask26.png""]]]","","[9,21,17,32,27,13,5,24,25,12,34,3,22,35,20,8,11,28,6,18,33,0,7,31,30,26,16,4,14,15,1,2,19,23,29,10]","main","160","many-guess-6"
"","","","","","html-keyboard-response","37","381228","0.0-10.0-0.9","5d0c565f7374b40001cef0f8","640759fa512f630a2bdc333d","6408c184cf1aa4423556f7b0","null","","null","","","","","","","","","","","","","","","","","","","fixation","",""
"","","","","","color-precision2","38","386145","0.0-10.0-1.9-0.9","5d0c565f7374b40001cef0f8","640759fa512f630a2bdc333d","6408c184cf1aa4423556f7b0","[1570.1000000238419]","","","[31]","[86]","86","356","69.79381197555551","[69.79381197555551]","[73.79381197555551]","[72]","0","0","1","0","149.30000007152557","1005.5470000476926","1000","[[[""img/mask7.png""]]]","","","main","356","color-precision2"
"","","","","","html-keyboard-response","39","386650","0.0-10.0-0.10","5d0c565f7374b40001cef0f8","640759fa512f630a2bdc333d","6408c184cf1aa4423556f7b0","null","","null","","","","","","","","","","","","","","","","","","","fixation","",""
"","","","","","color-precision2","40","390813","0.0-10.0-1.10-0.10","5d0c565f7374b40001cef0f8","640759fa512f630a2bdc333d","6408c184cf1aa4423556f7b0","[687.8999999761581]","","","[2]","[9]","9","60","73.9178682497596","[73.9178682497596]","[13.917868249759593]","[12]","0","0","1","0","149.58200002386002","992.9690000238479","1000","[[[""img/mask79.png""]]]","","","main","60","color-precision2"
"","","","","","html-keyboard-response","41","391322","0.0-10.0-0.11","5d0c565f7374b40001cef0f8","640759fa512f630a2bdc333d","6408c184cf1aa4423556f7b0","null","","null","","","","","","","","","","","","","","","","","","","fixation","",""
"","","","","","color-precision2","42","412099","0.0-10.0-1.11-0.11","5d0c565f7374b40001cef0f8","640759fa512f630a2bdc333d","6408c184cf1aa4423556f7b0","[1157.1999999284744]","","","[31]","[353]","353","7","6.805036307774681","[6.805036307774681]","[359.8050363077747]","[359]","0","0","1","0","149.19699999998556","996.9399999761372","1000","[[[""img/mask13.png""]]]","","","main","7","color-precision2"
"","","","","","html-keyboard-response","43","412602","0.0-10.0-0.12","5d0c565f7374b40001cef0f8","640759fa512f630a2bdc333d","6408c184cf1aa4423556f7b0","null","","null","","","","","","","","","","","","","","","","","","","fixation","",""
"","","","","","color-precision2","44","416751","0.0-10.0-1.12-0.12","5d0c565f7374b40001cef0f8","640759fa512f630a2bdc333d","6408c184cf1aa4423556f7b0","[1109.2999999523163]","","","[20]","[236]","236","131","351.23990307134136","[351.23990307134136]","[220.23990307134136]","[220]","0","0","1","0","149.20699999999488","994.3430000715307","1000","[[[""img/mask21.png""]]]","","","main","131","color-precision2"
"","","","","","html-keyboard-response","45","417253","0.0-10.0-0.13","5d0c565f7374b40001cef0f8","640759fa512f630a2bdc333d","6408c184cf1aa4423556f7b0","null","","null","","","","","","","","","","","","","","","","","","","fixation","",""
"","","","","","color-precision2","46","421395","0.0-10.0-1.13-0.13","5d0c565f7374b40001cef0f8","640759fa512f630a2bdc333d","6408c184cf1aa4423556f7b0","[953.2999999523163]","","","[18]","[230]","230","57","281.2358233882709","[281.2358233882709]","[224.2358233882709]","[224]","0","0","1","0","149.14599997614278","996.8830000715097","1000","[[[""img/mask29.png""]]]","","","main","57","color-precision2"
"","","","","","html-keyboard-response","47","421896","0.0-10.0-0.14","5d0c565f7374b40001cef0f8","640759fa512f630a2bdc333d","6408c184cf1aa4423556f7b0","null","","null","","","","","","","","","","","","","","","","","","","fixation","",""
"","","","","","many-guess-6","48","426721","0.0-10.0-1.14-0.14","5d0c565f7374b40001cef0f8","640759fa512f630a2bdc333d","6408c184cf1aa4423556f7b0","[2612.7999999523163]","","","[18,10,31,21,26,4,16,13,28,14,17,27,8,23,35,2,30,15,33,9,0,7,22,1,3,5,11,19,20,6,34,24,29,25,12,32]","[39,9,188,99,178,158,69,148,119,198,19,248,208,89,128,218,29,348,358,79,168,278,308,59,288,328,268,49,298,258,238,318,228,109,138,338]","39","308","184.1382425086006","[184.1382425086006]","[236.1382425086006]","[235]","[30,300,30,300,210,210,30,120,120]","0","36","0","149.4700000238372","7.973000047670212","16","[[[""img/mask82.png""],[""img/mask22.png""],[""img/mask16.png""],[""img/mask24.png""],[""img/mask96.png""],[""img/mask98.png""],[""img/mask91.png""],[""img/mask6.png""],[""img/mask25.png""],[""img/mask74.png""],[""img/mask4.png""],[""img/mask9.png""],[""img/mask22.png""],[""img/mask55.png""],[""img/mask47.png""],[""img/mask31.png""],[""img/mask29.png""],[""img/mask83.png""],[""img/mask61.png""],[""img/mask100.png""],[""img/mask48.png""],[""img/mask16.png""],[""img/mask70.png""],[""img/mask24.png""],[""img/mask28.png""],[""img/mask74.png""],[""img/mask29.png""],[""img/mask14.png""],[""img/mask90.png""],[""img/mask6.png""],[""img/mask76.png""],[""img/mask80.png""],[""img/mask17.png""],[""img/mask12.png""],[""img/mask41.png""],[""img/mask30.png""]]]","","[18,10,31,21,26,4,16,13,28,14,17,27,8,23,35,2,30,15,33,9,0,7,22,1,3,5,11,19,20,6,34,24,29,25,12,32]","main","308","many-guess-6"
"","","","","","html-keyboard-response","49","427228","0.0-10.0-0.15","5d0c565f7374b40001cef0f8","640759fa512f630a2bdc333d","6408c184cf1aa4423556f7b0","null","","null","","","","","","","","","","","","","","","","","","","fixation","",""
"","","","","","many-guess-6","50","431375","0.0-10.0-1.15-0.15","5d0c565f7374b40001cef0f8","640759fa512f630a2bdc333d","6408c184cf1aa4423556f7b0","[2333.5]","","","[28,19,29,4,12,21,13,22,0,31,32,18,1,6,2,33,20,15,35,3,7,27,8,23,24,11,16,34,10,25,17,30,14,26,9,5]","[226,206,336,276,17,106,256,346,286,266,246,236,37,306,47,126,326,57,186,356,316,216,67,136,166,7,96,77,116,27,156,87,146,176,196,296]","226","6","197.21590383785843","[197.21590383785843]","[191.21590383785843]","[191]","[210,120,30,120,30,300,30,120,210]","0","36","0","149.50000007153722","19.44600007153349","16","[[[""img/mask4.png""],[""img/mask66.png""],[""img/mask100.png""],[""img/mask54.png""],[""img/mask90.png""],[""img/mask34.png""],[""img/mask32.png""],[""img/mask84.png""],[""img/mask81.png""],[""img/mask86.png""],[""img/mask16.png""],[""img/mask7.png""],[""img/mask19.png""],[""img/mask60.png""],[""img/mask80.png""],[""img/mask8.png""],[""img/mask7.png""],[""img/mask36.png""],[""img/mask59.png""],[""img/mask42.png""],[""img/mask40.png""],[""img/mask35.png""],[""img/mask51.png""],[""img/mask54.png""],[""img/mask60.png""],[""img/mask62.png""],[""img/mask64.png""],[""img/mask22.png""],[""img/mask9.png""],[""img/mask80.png""],[""img/mask78.png""],[""img/mask43.png""],[""img/mask6.png""],[""img/mask92.png""],[""img/mask95.png""],[""img/mask2.png""]]]","","[28,19,29,4,12,21,13,22,0,31,32,18,1,6,2,33,20,15,35,3,7,27,8,23,24,11,16,34,10,25,17,30,14,26,9,5]","main","6","many-guess-6"
"","","","","","html-keyboard-response","51","431876","0.0-10.0-0.16","5d0c565f7374b40001cef0f8","640759fa512f630a2bdc333d","6408c184cf1aa4423556f7b0","null","","null","","","","","","","","","","","","","","","","","","","fixation","",""
"","","","","","color-precision2","52","435673","0.0-10.0-1.16-0.16","5d0c565f7374b40001cef0f8","640759fa512f630a2bdc333d","6408c184cf1aa4423556f7b0","[581.0999999046326]","","","[10]","[263]","263","320","232.09771067635597","[232.09771067635597]","[272.097710676356]","[272]","0","0","1","0","149.295999999973","1005.9919999761623","1000","[[[""img/mask47.png""]]]","","","main","320","color-precision2"
"","","","","","html-keyboard-response","53","436174","0.0-10.0-0.17","5d0c565f7374b40001cef0f8","640759fa512f630a2bdc333d","6408c184cf1aa4423556f7b0","null","","null","","","","","","","","","","","","","","","","","","","fixation","",""
"","","","","","many-guess-6","54","441007","0.0-10.0-1.17-0.17","5d0c565f7374b40001cef0f8","640759fa512f630a2bdc333d","6408c184cf1aa4423556f7b0","[3482.0999999046326]","","","[9,30,33,4,35,10,29,7,26,20,6,8,34,17,31,12,18,25,16,0,14,21,23,11,28,2,22,32,1,3,13,5,24,15,19,27]","[252,72,212,122,332,92,162,43,142,232,192,33,262,3,132,202,272,302,112,13,23,342,242,292,63,53,282,82,102,322,222,352,312,182,152,172]","252","98","352.0204090881756","[352.0204090881756]","[254.0204090881756]","[253]","[120,120,210,120,300,210,30,300,300]","0","36","0","149.33400004770374","19.088000023853965","16","[[[""img/mask28.png""],[""img/mask41.png""],[""img/mask11.png""],[""img/mask16.png""],[""img/mask64.png""],[""img/mask16.png""],[""img/mask65.png""],[""img/mask38.png""],[""img/mask60.png""],[""img/mask71.png""],[""img/mask13.png""],[""img/mask56.png""],[""img/mask57.png""],[""img/mask42.png""],[""img/mask51.png""],[""img/mask1.png""],[""img/mask88.png""],[""img/mask81.png""],[""img/mask15.png""],[""img/mask39.png""],[""img/mask21.png""],[""img/mask75.png""],[""img/mask87.png""],[""img/mask89.png""],[""img/mask54.png""],[""img/mask10.png""],[""img/mask69.png""],[""img/mask36.png""],[""img/mask30.png""],[""img/mask71.png""],[""img/mask61.png""],[""img/mask2.png""],[""img/mask61.png""],[""img/mask22.png""],[""img/mask74.png""],[""img/mask80.png""]]]","","[9,30,33,4,35,10,29,7,26,20,6,8,34,17,31,12,18,25,16,0,14,21,23,11,28,2,22,32,1,3,13,5,24,15,19,27]","main","98","many-guess-6"
"","","","","","html-keyboard-response","55","441507","0.0-10.0-0.18","5d0c565f7374b40001cef0f8","640759fa512f630a2bdc333d","6408c184cf1aa4423556f7b0","null","","null","","","","","","","","","","","","","","","","","","","fixation","",""
"","","","","","color-precision2","56","444847","0.0-10.0-1.18-0.18","5d0c565f7374b40001cef0f8","640759fa512f630a2bdc333d","6408c184cf1aa4423556f7b0","[955.1999999284744]","","","[28]","[17]","17","205","217.30263306298696","[217.30263306298696]","[12.302633062986956]","[12]","0","0","1","0","149.1539999761735","994.4110000715009","1000","[[[""img/mask1.png""]]]","","","main","205","color-precision2"
"","","","","","html-keyboard-response","57","447802","0.0-10.0-0.19","5d0c565f7374b40001cef0f8","640759fa512f630a2bdc333d","6408c184cf1aa4423556f7b0","2954.5","Wow! You've completed 20 out of 180 trials! </p> <p>  </p><p> Take a quick break, then press any key when you're ready to continue."," ","","","","","","","","","","","","","","","","","","","fixation","",""
"","","","","","many-guess-6","58","453281","0.0-10.0-1.19-0.19","5d0c565f7374b40001cef0f8","640759fa512f630a2bdc333d","6408c184cf1aa4423556f7b0","[3456.0999999046326]","","","[16,29,8,27,30,26,1,22,15,20,13,23,9,4,31,12,10,0,3,34,25,28,14,7,6,33,2,21,18,17,11,19,32,35,24,5]","[162,331,172,192,62,242,102,92,22,12,152,341,291,42,82,251,232,122,32,202,72,311,301,132,271,52,182,222,142,321,112,351,261,281,212,2]","162","357","140.35758617532767","[140.35758617532767]","[143.35758617532767]","[142]","[210,120,30,210,210,300,300,300,300]","0","36","0","149.6579999999958","20.698000047705136","16","[[[""img/mask35.png""],[""img/mask13.png""],[""img/mask85.png""],[""img/mask85.png""],[""img/mask98.png""],[""img/mask2.png""],[""img/mask26.png""],[""img/mask95.png""],[""img/mask67.png""],[""img/mask40.png""],[""img/mask31.png""],[""img/mask15.png""],[""img/mask4.png""],[""img/mask30.png""],[""img/mask30.png""],[""img/mask92.png""],[""img/mask23.png""],[""img/mask100.png""],[""img/mask64.png""],[""img/mask42.png""],[""img/mask16.png""],[""img/mask20.png""],[""img/mask21.png""],[""img/mask44.png""],[""img/mask27.png""],[""img/mask25.png""],[""img/mask74.png""],[""img/mask34.png""],[""img/mask46.png""],[""img/mask16.png""],[""img/mask46.png""],[""img/mask56.png""],[""img/mask64.png""],[""img/mask71.png""],[""img/mask100.png""],[""img/mask90.png""]]]","","[16,29,8,27,30,26,1,22,15,20,13,23,9,4,31,12,10,0,3,34,25,28,14,7,6,33,2,21,18,17,11,19,32,35,24,5]","main","357","many-guess-6"
"","","","","","html-keyboard-response","59","453783","0.0-10.0-0.20","5d0c565f7374b40001cef0f8","640759fa512f630a2bdc333d","6408c184cf1aa4423556f7b0","null","","null","","","","","","","","","","","","","","","","","","","fixation","",""
"","","","","","color-precision2","60","457185","0.0-10.0-1.20-0.20","5d0c565f7374b40001cef0f8","640759fa512f630a2bdc333d","6408c184cf1aa4423556f7b0","[660.1000000238419]","","","[6]","[58]","58","334","29.39891429685491","[29.39891429685491]","[55.39891429685491]","[54]","0","0","1","0","149.5299999761628","1002.2240000715246","1000","[[[""img/mask52.png""]]]","","","main","334","color-precision2"
"","","","","","html-keyboard-response","61","457687","0.0-10.0-0.21","5d0c565f7374b40001cef0f8","640759fa512f630a2bdc333d","6408c184cf1aa4423556f7b0","null","","null","","","","","","","","","","","","","","","","","","","fixation","",""
"","","","","","color-precision2","62","460995","0.0-10.0-1.21-0.21","5d0c565f7374b40001cef0f8","640759fa512f630a2bdc333d","6408c184cf1aa4423556f7b0","[953.2999999523163]","","","[28]","[139]","139","158","302.6262379039093","[302.6262379039093]","[144.62623790390933]","[145]","0","0","1","0","149.4030000238563","1002.68900002382","1000","[[[""img/mask58.png""]]]","","","main","158","color-precision2"
"","","","","","html-keyboard-response","63","461505","0.0-10.0-0.22","5d0c565f7374b40001cef0f8","640759fa512f630a2bdc333d","6408c184cf1aa4423556f7b0","null","","null","","","","","","","","","","","","","","","","","","","fixation","",""
"","","","","","many-guess-6","64","465223","0.0-10.0-1.22-0.22","5d0c565f7374b40001cef0f8","640759fa512f630a2bdc333d","6408c184cf1aa4423556f7b0","[2112.399999976158]","","","[30,1,10,22,26,18,25,29,31,33,2,34,5,8,27,24,17,7,23,6,21,3,20,12,4,0,28,9,15,16,19,32,13,35,14,11]","[124,284,144,234,194,105,334,324,264,254,114,314,214,204,95,274,304,65,55,164,294,344,15,5,224,244,35,174,154,184,354,25,45,75,134,85]","124","226","62.21023196421642","[62.21023196421642]","[196.2102319642164]","[195]","[210,210,120,210,210,210,120,30,300]","0","36","0","149.6060000238358","24.05200004769722","16","[[[""img/mask46.png""],[""img/mask66.png""],[""img/mask26.png""],[""img/mask11.png""],[""img/mask53.png""],[""img/mask29.png""],[""img/mask91.png""],[""img/mask57.png""],[""img/mask97.png""],[""img/mask52.png""],[""img/mask9.png""],[""img/mask14.png""],[""img/mask12.png""],[""img/mask54.png""],[""img/mask83.png""],[""img/mask53.png""],[""img/mask37.png""],[""img/mask48.png""],[""img/mask90.png""],[""img/mask44.png""],[""img/mask79.png""],[""img/mask27.png""],[""img/mask49.png""],[""img/mask88.png""],[""img/mask22.png""],[""img/mask69.png""],[""img/mask48.png""],[""img/mask53.png""],[""img/mask47.png""],[""img/mask80.png""],[""img/mask77.png""],[""img/mask77.png""],[""img/mask73.png""],[""img/mask2.png""],[""img/mask71.png""],[""img/mask71.png""]]]","","[30,1,10,22,26,18,25,29,31,33,2,34,5,8,27,24,17,7,23,6,21,3,20,12,4,0,28,9,15,16,19,32,13,35,14,11]","main","226","many-guess-6"
"","","","","","html-keyboard-response","65","465724","0.0-10.0-0.23","5d0c565f7374b40001cef0f8","640759fa512f630a2bdc333d","6408c184cf1aa4423556f7b0","null","","null","","","","","","","","","","","","","","","","","","","fixation","",""
"","","","","","many-guess-6","66","469413","0.0-10.0-1.23-0.23","5d0c565f7374b40001cef0f8","640759fa512f630a2bdc333d","6408c184cf1aa4423556f7b0","[1854.7999999523163]","","","[23,19,22,35,32,0,16,15,4,34,18,8,7,30,3,6,17,31,12,14,33,29,26,27,10,1,2,25,21,13,5,20,9,24,28,11]","[93,53,202,162,322,152,3,13,73,332,83,282,342,33,242,182,103,272,113,63,262,123,232,212,142,252,172,352,192,302,292,222,132,23,43,312]","93","140","170.7774327299047","[170.7774327299047]","[30.77743272990469]","[30]","[210,120,210,120,120,120,30,300,300]","0","36","0","149.5950000238372","20.482000023825094","16","[[[""img/mask15.png""],[""img/mask15.png""],[""img/mask12.png""],[""img/mask74.png""],[""img/mask43.png""],[""img/mask79.png""],[""img/mask61.png""],[""img/mask21.png""],[""img/mask10.png""],[""img/mask89.png""],[""img/mask27.png""],[""img/mask55.png""],[""img/mask40.png""],[""img/mask21.png""],[""img/mask67.png""],[""img/mask22.png""],[""img/mask11.png""],[""img/mask99.png""],[""img/mask4.png""],[""img/mask50.png""],[""img/mask65.png""],[""img/mask50.png""],[""img/mask77.png""],[""img/mask73.png""],[""img/mask96.png""],[""img/mask21.png""],[""img/mask26.png""],[""img/mask51.png""],[""img/mask25.png""],[""img/mask64.png""],[""img/mask65.png""],[""img/mask84.png""],[""img/mask99.png""],[""img/mask61.png""],[""img/mask92.png""],[""img/mask77.png""]]]","","[23,19,22,35,32,0,16,15,4,34,18,8,7,30,3,6,17,31,12,14,33,29,26,27,10,1,2,25,21,13,5,20,9,24,28,11]","main","140","many-guess-6"
"","","","","","html-keyboard-response","67","469914","0.0-10.0-0.24","5d0c565f7374b40001cef0f8","640759fa512f630a2bdc333d","6408c184cf1aa4423556f7b0","null","","null","","","","","","","","","","","","","","","","","","","fixation","",""
"","","","","","many-guess-6","68","473355","0.0-10.0-1.24-0.24","5d0c565f7374b40001cef0f8","640759fa512f630a2bdc333d","6408c184cf1aa4423556f7b0","[1863.3999999761581]","","","[2,17,23,29,11,4,0,14,12,22,26,16,1,7,19,18,33,27,3,20,32,5,28,8,24,21,9,25,13,15,35,6,34,31,30,10]","[90,169,50,159,10,209,60,339,40,249,239,229,289,119,109,329,179,70,30,129,359,279,319,20,189,139,269,149,99,309,259,219,299,80,349,199]","90","251","116.8332393133562","[116.8332393133562]","[225.83323931335622]","[224]","[300,30,300,210,30,300,210,120,300]","0","36","0","149.46700002386933","17.52100007154513","16","[[[""img/mask81.png""],[""img/mask98.png""],[""img/mask72.png""],[""img/mask85.png""],[""img/mask81.png""],[""img/mask88.png""],[""img/mask15.png""],[""img/mask79.png""],[""img/mask25.png""],[""img/mask19.png""],[""img/mask13.png""],[""img/mask70.png""],[""img/mask1.png""],[""img/mask89.png""],[""img/mask24.png""],[""img/mask44.png""],[""img/mask36.png""],[""img/mask47.png""],[""img/mask19.png""],[""img/mask90.png""],[""img/mask37.png""],[""img/mask33.png""],[""img/mask37.png""],[""img/mask95.png""],[""img/mask81.png""],[""img/mask41.png""],[""img/mask50.png""],[""img/mask42.png""],[""img/mask84.png""],[""img/mask36.png""],[""img/mask28.png""],[""img/mask31.png""],[""img/mask66.png""],[""img/mask64.png""],[""img/mask47.png""],[""img/mask70.png""]]]","","[2,17,23,29,11,4,0,14,12,22,26,16,1,7,19,18,33,27,3,20,32,5,28,8,24,21,9,25,13,15,35,6,34,31,30,10]","main","251","many-guess-6"
"","","","","","html-keyboard-response","69","473856","0.0-10.0-0.25","5d0c565f7374b40001cef0f8","640759fa512f630a2bdc333d","6408c184cf1aa4423556f7b0","null","","null","","","","","","","","","","","","","","","","","","","fixation","",""
"","","","","","many-guess-6","70","477821","0.0-10.0-1.25-0.25","5d0c565f7374b40001cef0f8","640759fa512f630a2bdc333d","6408c184cf1aa4423556f7b0","[2546.2000000476837]","","","[11,22,21,7,14,28,23,16,10,8,6,12,0,35,5,24,3,33,19,1,30,15,25,27,32,2,4,31,17,18,26,9,20,13,34,29]","[323,223,193,263,164,313,293,333,174,124,273,4,94,44,14,144,203,353,64,74,154,104,233,84,114,184,54,34,134,343,253,303,243,24,213,283]","323","189","112.71305680649051","[112.71305680649051]","[283.7130568064905]","[282]","[30,300,30,30,210,210,120,30,300]","0","36","0","149.61199997615768","23.35300007154001","16","[[[""img/mask93.png""],[""img/mask33.png""],[""img/mask32.png""],[""img/mask85.png""],[""img/mask67.png""],[""img/mask30.png""],[""img/mask57.png""],[""img/mask87.png""],[""img/mask86.png""],[""img/mask44.png""],[""img/mask97.png""],[""img/mask70.png""],[""img/mask13.png""],[""img/mask94.png""],[""img/mask97.png""],[""img/mask68.png""],[""img/mask65.png""],[""img/mask92.png""],[""img/mask25.png""],[""img/mask62.png""],[""img/mask92.png""],[""img/mask29.png""],[""img/mask17.png""],[""img/mask42.png""],[""img/mask10.png""],[""img/mask3.png""],[""img/mask36.png""],[""img/mask88.png""],[""img/mask61.png""],[""img/mask93.png""],[""img/mask44.png""],[""img/mask94.png""],[""img/mask18.png""],[""img/mask34.png""],[""img/mask30.png""],[""img/mask9.png""]]]","","[11,22,21,7,14,28,23,16,10,8,6,12,0,35,5,24,3,33,19,1,30,15,25,27,32,2,4,31,17,18,26,9,20,13,34,29]","main","189","many-guess-6"
"","","","","","html-keyboard-response","71","478322","0.0-10.0-0.26","5d0c565f7374b40001cef0f8","640759fa512f630a2bdc333d","6408c184cf1aa4423556f7b0","null","","null","","","","","","","","","","","","","","","","","","","fixation","",""
"","","","","","color-precision2","72","481523","0.0-10.0-1.26-0.26","5d0c565f7374b40001cef0f8","640759fa512f630a2bdc333d","6408c184cf1aa4423556f7b0","[614.5]","","","[13]","[273]","273","132","45.61955159804175","[45.61955159804175]","[273.61955159804177]","[273]","0","0","1","0","149.01500000001397","1002.6390000715037","1000","[[[""img/mask3.png""]]]","","","main","132","color-precision2"
"","","","","","html-keyboard-response","73","482024","0.0-10.0-0.27","5d0c565f7374b40001cef0f8","640759fa512f630a2bdc333d","6408c184cf1aa4423556f7b0","null","","null","","","","","","","","","","","","","","","","","","","fixation","",""
"","","","","","many-guess-6","74","486083","0.0-10.0-1.27-0.27","5d0c565f7374b40001cef0f8","640759fa512f630a2bdc333d","6408c184cf1aa4423556f7b0","[2524.7999999523163]","","","[3,8,21,14,12,2,7,17,18,30,35,34,25,31,10,4,20,0,19,27,1,6,11,16,33,32,24,28,13,9,29,5,23,26,15,22]","[79,259,179,308,289,189,318,239,338,49,59,29,149,109,39,219,159,199,279,169,269,328,89,348,249,19,209,69,129,139,358,298,229,99,9,119]","79","356","73.08239789299087","[73.08239789299087]","[77.08239789299085]","[76]","[30,30,30,120,300,210,120,120,300]","0","36","0","149.4440000000177","20.610000047658104","16","[[[""img/mask92.png""],[""img/mask9.png""],[""img/mask70.png""],[""img/mask80.png""],[""img/mask22.png""],[""img/mask30.png""],[""img/mask46.png""],[""img/mask83.png""],[""img/mask65.png""],[""img/mask18.png""],[""img/mask24.png""],[""img/mask21.png""],[""img/mask91.png""],[""img/mask40.png""],[""img/mask94.png""],[""img/mask70.png""],[""img/mask38.png""],[""img/mask4.png""],[""img/mask73.png""],[""img/mask75.png""],[""img/mask52.png""],[""img/mask27.png""],[""img/mask6.png""],[""img/mask22.png""],[""img/mask69.png""],[""img/mask5.png""],[""img/mask44.png""],[""img/mask92.png""],[""img/mask78.png""],[""img/mask24.png""],[""img/mask67.png""],[""img/mask44.png""],[""img/mask97.png""],[""img/mask56.png""],[""img/mask23.png""],[""img/mask48.png""]]]","","[3,8,21,14,12,2,7,17,18,30,35,34,25,31,10,4,20,0,19,27,1,6,11,16,33,32,24,28,13,9,29,5,23,26,15,22]","main","356","many-guess-6"
"","","","","","html-keyboard-response","75","486585","0.0-10.0-0.28","5d0c565f7374b40001cef0f8","640759fa512f630a2bdc333d","6408c184cf1aa4423556f7b0","null","","null","","","","","","","","","","","","","","","","","","","fixation","",""
"","","","","","color-precision2","76","491099","0.0-10.0-1.28-0.28","5d0c565f7374b40001cef0f8","640759fa512f630a2bdc333d","6408c184cf1aa4423556f7b0","[1240.6000000238419]","","","[9]","[116]","116","235","355.12771004074875","[355.12771004074875]","[120.12771004074875]","[119]","0","0","1","0","149.36300007154932","993.3589999999967","1000","[[[""img/mask86.png""]]]","","","main","235","color-precision2"
"","","","","","html-keyboard-response","77","491606","0.0-10.0-0.29","5d0c565f7374b40001cef0f8","640759fa512f630a2bdc333d","6408c184cf1aa4423556f7b0","null","","null","","","","","","","","","","","","","","","","","","","fixation","",""
"","","","","","color-precision2","78","496037","0.0-10.0-1.29-0.29","5d0c565f7374b40001cef0f8","640759fa512f630a2bdc333d","6408c184cf1aa4423556f7b0","[1928.6000000238419]","","","[33]","[304]","304","333","281.4525584195175","[281.4525584195175]","[308.4525584195175]","[309]","0","0","1","0","148.7460000476567","992.0840000477037","1000","[[[""img/mask33.png""]]]","","","main","333","color-precision2"
"","","","","","html-keyboard-response","79","496539","0.0-10.0-0.30","5d0c565f7374b40001cef0f8","640759fa512f630a2bdc333d","6408c184cf1aa4423556f7b0","null","","null","","","","","","","","","","","","","","","","","","","fixation","",""
"","","","","","many-guess-6","80","499917","0.0-10.0-1.30-0.30","5d0c565f7374b40001cef0f8","640759fa512f630a2bdc333d","6408c184cf1aa4423556f7b0","[1842]","","","[33,18,29,35,23,12,9,27,13,2,10,6,7,25,8,26,32,16,17,22,3,11,1,30,31,15,34,0,24,4,21,14,19,20,28,5]","[50,110,219,80,249,339,189,329,20,279,70,209,139,299,130,229,349,259,10,309,199,159,120,359,100,319,40,289,239,149,60,169,179,269,90,30]","50","9","98.94432498919649","[98.94432498919649]","[89.94432498919649]","[88]","[210,30,30,300,120,120,300,30,300]","0","36","0","149.24099999997998","26.781000047689304","16","[[[""img/mask84.png""],[""img/mask70.png""],[""img/mask70.png""],[""img/mask16.png""],[""img/mask23.png""],[""img/mask92.png""],[""img/mask55.png""],[""img/mask83.png""],[""img/mask98.png""],[""img/mask11.png""],[""img/mask28.png""],[""img/mask5.png""],[""img/mask81.png""],[""img/mask58.png""],[""img/mask4.png""],[""img/mask62.png""],[""img/mask58.png""],[""img/mask52.png""],[""img/mask23.png""],[""img/mask26.png""],[""img/mask60.png""],[""img/mask57.png""],[""img/mask66.png""],[""img/mask18.png""],[""img/mask88.png""],[""img/mask72.png""],[""img/mask15.png""],[""img/mask45.png""],[""img/mask17.png""],[""img/mask13.png""],[""img/mask44.png""],[""img/mask83.png""],[""img/mask9.png""],[""img/mask66.png""],[""img/mask94.png""],[""img/mask52.png""]]]","","[33,18,29,35,23,12,9,27,13,2,10,6,7,25,8,26,32,16,17,22,3,11,1,30,31,15,34,0,24,4,21,14,19,20,28,5]","main","9","many-guess-6"
"","","","","","html-keyboard-response","81","500418","0.0-10.0-0.31","5d0c565f7374b40001cef0f8","640759fa512f630a2bdc333d","6408c184cf1aa4423556f7b0","null","","null","","","","","","","","","","","","","","","","","","","fixation","",""
"","","","","","color-precision2","82","503905","0.0-10.0-1.31-0.31","5d0c565f7374b40001cef0f8","640759fa512f630a2bdc333d","6408c184cf1aa4423556f7b0","[596.6000000238419]","","","[13]","[18]","18","7","25.608231588355306","[25.608231588355306]","[18.608231588355306]","[18]","0","0","1","0","149.30100004770793","1004.5680000477005","1000","[[[""img/mask24.png""]]]","","","main","7","color-precision2"
"","","","","","html-keyboard-response","83","504406","0.0-10.0-0.32","5d0c565f7374b40001cef0f8","640759fa512f630a2bdc333d","6408c184cf1aa4423556f7b0","null","","null","","","","","","","","","","","","","","","","","","","fixation","",""
"","","","","","color-precision2","84","507623","0.0-10.0-1.32-0.32","5d0c565f7374b40001cef0f8","640759fa512f630a2bdc333d","6408c184cf1aa4423556f7b0","[664.3999999761581]","","","[6]","[71]","71","288","357.40306576503735","[357.40306576503735]","[69.40306576503735]","[69]","0","0","1","0","149.60899999999674","1003.3039999761386","1000","[[[""img/mask37.png""]]]","","","main","288","color-precision2"
"","","","","","html-keyboard-response","85","508124","0.0-10.0-0.33","5d0c565f7374b40001cef0f8","640759fa512f630a2bdc333d","6408c184cf1aa4423556f7b0","null","","null","","","","","","","","","","","","","","","","","","","fixation","",""
"","","","","","color-precision2","86","510869","0.0-10.0-1.33-0.33","5d0c565f7374b40001cef0f8","640759fa512f630a2bdc333d","6408c184cf1aa4423556f7b0","[344]","","","[25]","[278]","278","285","212.96825622522954","[212.96825622522954]","[287.96825622522954]","[288]","0","0","1","0","149.0460000715102","1003.213000023854","1000","[[[""img/mask94.png""]]]","","","main","285","color-precision2"
"","","","","","html-keyboard-response","87","511370","0.0-10.0-0.34","5d0c565f7374b40001cef0f8","640759fa512f630a2bdc333d","6408c184cf1aa4423556f7b0","null","","null","","","","","","","","","","","","","","","","","","","fixation","",""
"","","","","","color-precision2","88","515027","0.0-10.0-1.34-0.34","5d0c565f7374b40001cef0f8","640759fa512f630a2bdc333d","6408c184cf1aa4423556f7b0","[1185.2000000476837]","","","[23]","[269]","269","309","224.09577099006708","[224.09577099006708]","[275.0957709900671]","[275]","0","0","1","0","149.3139999761479","992.2509999999893","1000","[[[""img/mask81.png""]]]","","","main","309","color-precision2"
"","","","","","html-keyboard-response","89","515540","0.0-10.0-0.35","5d0c565f7374b40001cef0f8","640759fa512f630a2bdc333d","6408c184cf1aa4423556f7b0","null","","null","","","","","","","","","","","","","","","","","","","fixation","",""
"","","","","","color-precision2","90","518909","0.0-10.0-1.35-0.35","5d0c565f7374b40001cef0f8","640759fa512f630a2bdc333d","6408c184cf1aa4423556f7b0","[817.5]","","","[12]","[131]","131","180","317.6751071546287","[317.6751071546287]","[137.67510715462868]","[137]","0","0","1","0","149.56400002387818","1001.6639999761246","1000","[[[""img/mask75.png""]]]","","","main","180","color-precision2"
"","","","","","html-keyboard-response","91","519410","0.0-10.0-0.36","5d0c565f7374b40001cef0f8","640759fa512f630a2bdc333d","6408c184cf1aa4423556f7b0","null","","null","","","","","","","","","","","","","","","","","","","fixation","",""
"","","","","","color-precision2","92","522233","0.0-10.0-1.36-0.36","5d0c565f7374b40001cef0f8","640759fa512f630a2bdc333d","6408c184cf1aa4423556f7b0","[408.10000002384186]","","","[20]","[293]","293","69","10.55274032617019","[10.55274032617019]","[301.5527403261702]","[301]","0","0","1","0","149.50600004766602","1006.3380000477191","1000","[[[""img/mask22.png""]]]","","","main","69","color-precision2"
"","","","","","html-keyboard-response","93","522740","0.0-10.0-0.37","5d0c565f7374b40001cef0f8","640759fa512f630a2bdc333d","6408c184cf1aa4423556f7b0","null","","null","","","","","","","","","","","","","","","","","","","fixation","",""
"","","","","","many-guess-6","94","526375","0.0-10.0-1.37-0.37","5d0c565f7374b40001cef0f8","640759fa512f630a2bdc333d","6408c184cf1aa4423556f7b0","[2216.7000000476837]","","","[2,0,6,13,19,1,3,14,34,35,33,8,20,16,5,9,28,12,25,7,4,29,26,30,17,18,11,10,21,22,23,15,31,24,32,27]","[125,25,354,314,95,234,304,115,204,135,5,155,55,174,35,244,15,45,214,334,224,145,284,294,85,274,194,184,105,165,75,264,324,65,254,344]","125","308","174.10756809734508","[174.10756809734508]","[226.10756809734508]","[225]","[300,30,210,300,120,210,120,30,120]","0","36","0","149.52099997620098","20.187000047648326","16","[[[""img/mask64.png""],[""img/mask4.png""],[""img/mask76.png""],[""img/mask93.png""],[""img/mask96.png""],[""img/mask60.png""],[""img/mask42.png""],[""img/mask5.png""],[""img/mask20.png""],[""img/mask42.png""],[""img/mask37.png""],[""img/mask18.png""],[""img/mask42.png""],[""img/mask38.png""],[""img/mask74.png""],[""img/mask63.png""],[""img/mask71.png""],[""img/mask99.png""],[""img/mask21.png""],[""img/mask97.png""],[""img/mask54.png""],[""img/mask84.png""],[""img/mask23.png""],[""img/mask76.png""],[""img/mask12.png""],[""img/mask94.png""],[""img/mask78.png""],[""img/mask74.png""],[""img/mask91.png""],[""img/mask64.png""],[""img/mask21.png""],[""img/mask24.png""],[""img/mask92.png""],[""img/mask46.png""],[""img/mask96.png""],[""img/mask74.png""]]]","","[2,0,6,13,19,1,3,14,34,35,33,8,20,16,5,9,28,12,25,7,4,29,26,30,17,18,11,10,21,22,23,15,31,24,32,27]","main","308","many-guess-6"
"","","","","","html-keyboard-response","95","526888","0.0-10.0-0.38","5d0c565f7374b40001cef0f8","640759fa512f630a2bdc333d","6408c184cf1aa4423556f7b0","null","","null","","","","","","","","","","","","","","","","","","","fixation","",""
"","","","","","many-guess-6","96","530465","0.0-10.0-1.38-0.38","5d0c565f7374b40001cef0f8","640759fa512f630a2bdc333d","6408c184cf1aa4423556f7b0","[1990.1000000238419]","","","[5,25,15,23,13,30,1,12,20,8,11,21,32,33,9,6,17,28,22,27,24,29,19,7,16,0,35,34,4,10,14,31,26,3,2,18]","[59,358,248,218,238,29,49,79,69,338,198,39,109,168,208,159,119,9,328,268,149,288,19,129,89,298,188,178,278,228,348,308,258,99,318,139]","59","83","159.31287993558723","[159.31287993558723]","[76.31287993558723]","[75]","[300,300,300,30,120,30,300,120,300]","0","36","0","149.50200004770886","15.861000047647394","16","[[[""img/mask95.png""],[""img/mask100.png""],[""img/mask63.png""],[""img/mask44.png""],[""img/mask60.png""],[""img/mask74.png""],[""img/mask94.png""],[""img/mask11.png""],[""img/mask17.png""],[""img/mask31.png""],[""img/mask75.png""],[""img/mask39.png""],[""img/mask98.png""],[""img/mask70.png""],[""img/mask99.png""],[""img/mask69.png""],[""img/mask41.png""],[""img/mask65.png""],[""img/mask73.png""],[""img/mask86.png""],[""img/mask90.png""],[""img/mask68.png""],[""img/mask95.png""],[""img/mask26.png""],[""img/mask11.png""],[""img/mask51.png""],[""img/mask81.png""],[""img/mask98.png""],[""img/mask55.png""],[""img/mask59.png""],[""img/mask90.png""],[""img/mask25.png""],[""img/mask24.png""],[""img/mask60.png""],[""img/mask36.png""],[""img/mask2.png""]]]","","[5,25,15,23,13,30,1,12,20,8,11,21,32,33,9,6,17,28,22,27,24,29,19,7,16,0,35,34,4,10,14,31,26,3,2,18]","main","83","many-guess-6"
"","","","","","html-keyboard-response","97","531602","0.0-10.0-0.39","5d0c565f7374b40001cef0f8","640759fa512f630a2bdc333d","6408c184cf1aa4423556f7b0","1136.3999999761581","Wow! You've completed 40 out of 180 trials! </p> <p>  </p><p> Take a quick break, then press any key when you're ready to continue."," ","","","","","","","","","","","","","","","","","","","fixation","",""
"","","","","","color-precision2","98","535141","0.0-10.0-1.39-0.39","5d0c565f7374b40001cef0f8","640759fa512f630a2bdc333d","6408c184cf1aa4423556f7b0","[516.1000000238419]","","","[1]","[251]","251","305","202.9196745641605","[202.9196745641605]","[257.91967456416046]","[257]","0","0","1","0","149.2939999999944","993.1230000000214","1000","[[[""img/mask91.png""]]]","","","main","305","color-precision2"
"","","","","","html-keyboard-response","99","535641","0.0-10.0-0.40","5d0c565f7374b40001cef0f8","640759fa512f630a2bdc333d","6408c184cf1aa4423556f7b0","null","","null","","","","","","","","","","","","","","","","","","","fixation","",""
"","","","","","color-precision2","100","538526","0.0-10.0-1.40-0.40","5d0c565f7374b40001cef0f8","640759fa512f630a2bdc333d","6408c184cf1aa4423556f7b0","[502]","","","[10]","[18]","18","358","12.089056862885444","[12.089056862885444]","[14.089056862885457]","[13]","0","0","1","0","149.23199997621123","1002.8380000477191","1000","[[[""img/mask41.png""]]]","","","main","358","color-precision2"
"","","","","","html-keyboard-response","101","539027","0.0-10.0-0.41","5d0c565f7374b40001cef0f8","640759fa512f630a2bdc333d","6408c184cf1aa4423556f7b0","null","","null","","","","","","","","","","","","","","","","","","","fixation","",""
"","","","","","many-guess-6","102","541789","0.0-10.0-1.41-0.41","5d0c565f7374b40001cef0f8","640759fa512f630a2bdc333d","6408c184cf1aa4423556f7b0","[1647.7000000476837]","","","[15,24,14,21,28,19,32,26,11,13,10,6,35,30,22,5,0,27,8,7,29,33,12,20,31,18,25,34,3,23,16,17,1,4,2,9]","[246,266,47,206,27,146,346,76,186,106,126,116,326,356,296,306,57,256,166,236,316,37,86,17,286,96,216,66,336,196,136,276,176,156,226,7]","246","204","318.9545217528361","[318.9545217528361]","[114.95452175283611]","[115]","[210,120,300,210,210,120,120,120,300]","0","36","0","149.15300004766323","8.85800000000745","16","[[[""img/mask95.png""],[""img/mask68.png""],[""img/mask30.png""],[""img/mask52.png""],[""img/mask42.png""],[""img/mask37.png""],[""img/mask6.png""],[""img/mask85.png""],[""img/mask6.png""],[""img/mask13.png""],[""img/mask63.png""],[""img/mask73.png""],[""img/mask71.png""],[""img/mask63.png""],[""img/mask100.png""],[""img/mask5.png""],[""img/mask8.png""],[""img/mask78.png""],[""img/mask3.png""],[""img/mask46.png""],[""img/mask96.png""],[""img/mask22.png""],[""img/mask94.png""],[""img/mask4.png""],[""img/mask48.png""],[""img/mask15.png""],[""img/mask69.png""],[""img/mask25.png""],[""img/mask38.png""],[""img/mask21.png""],[""img/mask78.png""],[""img/mask46.png""],[""img/mask87.png""],[""img/mask76.png""],[""img/mask40.png""],[""img/mask33.png""]]]","","[15,24,14,21,28,19,32,26,11,13,10,6,35,30,22,5,0,27,8,7,29,33,12,20,31,18,25,34,3,23,16,17,1,4,2,9]","main","204","many-guess-6"
"","","","","","html-keyboard-response","103","542290","0.0-10.0-0.42","5d0c565f7374b40001cef0f8","640759fa512f630a2bdc333d","6408c184cf1aa4423556f7b0","null","","null","","","","","","","","","","","","","","","","","","","fixation","",""
"","","","","","many-guess-6","104","545327","0.0-10.0-1.42-0.42","5d0c565f7374b40001cef0f8","640759fa512f630a2bdc333d","6408c184cf1aa4423556f7b0","[1535.5]","","","[16,28,27,2,24,15,14,18,32,20,1,0,34,5,6,30,31,12,7,11,19,22,13,21,33,25,23,10,9,35,17,29,3,26,4,8]","[32,142,132,52,261,72,42,201,191,271,152,62,82,351,231,2,291,181,301,112,281,211,331,22,241,102,321,221,251,122,311,92,172,12,341,162]","32","242","121.22966703146781","[121.22966703146781]","[239.2296670314678]","[237]","[120,120,300,300,30,300,210,30,120]","0","36","0","149.3190000714967","27.173000071546994","16","[[[""img/mask36.png""],[""img/mask66.png""],[""img/mask17.png""],[""img/mask42.png""],[""img/mask58.png""],[""img/mask27.png""],[""img/mask63.png""],[""img/mask27.png""],[""img/mask36.png""],[""img/mask26.png""],[""img/mask41.png""],[""img/mask93.png""],[""img/mask18.png""],[""img/mask16.png""],[""img/mask63.png""],[""img/mask49.png""],[""img/mask59.png""],[""img/mask92.png""],[""img/mask15.png""],[""img/mask3.png""],[""img/mask50.png""],[""img/mask81.png""],[""img/mask74.png""],[""img/mask27.png""],[""img/mask54.png""],[""img/mask64.png""],[""img/mask50.png""],[""img/mask95.png""],[""img/mask79.png""],[""img/mask89.png""],[""img/mask76.png""],[""img/mask78.png""],[""img/mask1.png""],[""img/mask68.png""],[""img/mask88.png""],[""img/mask90.png""]]]","","[16,28,27,2,24,15,14,18,32,20,1,0,34,5,6,30,31,12,7,11,19,22,13,21,33,25,23,10,9,35,17,29,3,26,4,8]","main","242","many-guess-6"
"","","","","","html-keyboard-response","105","545828","0.0-10.0-0.43","5d0c565f7374b40001cef0f8","640759fa512f630a2bdc333d","6408c184cf1aa4423556f7b0","null","","null","","","","","","","","","","","","","","","","","","","fixation","",""
"","","","","","many-guess-6","106","548753","0.0-10.0-1.43-0.43","5d0c565f7374b40001cef0f8","640759fa512f630a2bdc333d","6408c184cf1aa4423556f7b0","[1561.6000000238419]","","","[11,32,17,9,31,13,26,16,14,12,34,35,4,33,18,2,24,1,22,25,0,21,7,3,23,28,6,15,5,30,19,8,10,20,27,29]","[151,101,231,121,191,271,290,141,161,340,251,171,11,91,350,131,51,1,330,280,111,310,21,81,320,241,181,300,31,71,41,201,211,221,61,261]","151","237","209.09170081330763","[209.09170081330763]","[332.0917008133076]","[332]","[300,300,120,300,210,120,210,30,30]","0","36","0","149.52599999995437","13.58100004773587","16","[[[""img/mask87.png""],[""img/mask56.png""],[""img/mask49.png""],[""img/mask71.png""],[""img/mask95.png""],[""img/mask52.png""],[""img/mask8.png""],[""img/mask29.png""],[""img/mask81.png""],[""img/mask42.png""],[""img/mask52.png""],[""img/mask61.png""],[""img/mask24.png""],[""img/mask11.png""],[""img/mask72.png""],[""img/mask11.png""],[""img/mask57.png""],[""img/mask1.png""],[""img/mask97.png""],[""img/mask89.png""],[""img/mask58.png""],[""img/mask7.png""],[""img/mask56.png""],[""img/mask38.png""],[""img/mask44.png""],[""img/mask57.png""],[""img/mask32.png""],[""img/mask45.png""],[""img/mask40.png""],[""img/mask97.png""],[""img/mask83.png""],[""img/mask69.png""],[""img/mask46.png""],[""img/mask98.png""],[""img/mask71.png""],[""img/mask73.png""]]]","","[11,32,17,9,31,13,26,16,14,12,34,35,4,33,18,2,24,1,22,25,0,21,7,3,23,28,6,15,5,30,19,8,10,20,27,29]","main","237","many-guess-6"
"","","","","","html-keyboard-response","107","549258","0.0-10.0-0.44","5d0c565f7374b40001cef0f8","640759fa512f630a2bdc333d","6408c184cf1aa4423556f7b0","null","","null","","","","","","","","","","","","","","","","","","","fixation","",""
"","","","","","color-precision2","108","552749","0.0-10.0-1.44-0.44","5d0c565f7374b40001cef0f8","640759fa512f630a2bdc333d","6408c184cf1aa4423556f7b0","[890.2999999523163]","","","[3]","[227]","227","230","96.62295180083622","[96.62295180083622]","[226.62295180083623]","[227]","0","0","1","0","149.11199997621588","1006.8689999761991","1000","[[[""img/mask66.png""]]]","","","main","230","color-precision2"
"","","","","","html-keyboard-response","109","553251","0.0-10.0-0.45","5d0c565f7374b40001cef0f8","640759fa512f630a2bdc333d","6408c184cf1aa4423556f7b0","null","","null","","","","","","","","","","","","","","","","","","","fixation","",""
"","","","","","color-precision2","110","557501","0.0-10.0-1.45-0.45","5d0c565f7374b40001cef0f8","640759fa512f630a2bdc333d","6408c184cf1aa4423556f7b0","[1942.5]","","","[21]","[161]","161","321","131.41997607496063","[131.41997607496063]","[170.41997607496063]","[169]","0","0","1","0","149.17299999995157","996.0930000238586","1000","[[[""img/mask7.png""]]]","","","main","321","color-precision2"
"","","","","","html-keyboard-response","111","558002","0.0-10.0-0.46","5d0c565f7374b40001cef0f8","640759fa512f630a2bdc333d","6408c184cf1aa4423556f7b0","null","","null","","","","","","","","","","","","","","","","","","","fixation","",""
"","","","","","color-precision2","112","561259","0.0-10.0-1.46-0.46","5d0c565f7374b40001cef0f8","640759fa512f630a2bdc333d","6408c184cf1aa4423556f7b0","[800.5]","","","[11]","[197]","197","41","244.84016467627902","[244.84016467627902]","[203.84016467627902]","[204]","0","0","1","0","149.00900007155724","1000.533000000054","1000","[[[""img/mask43.png""]]]","","","main","41","color-precision2"
"","","","","","html-keyboard-response","113","561759","0.0-10.0-0.47","5d0c565f7374b40001cef0f8","640759fa512f630a2bdc333d","6408c184cf1aa4423556f7b0","null","","null","","","","","","","","","","","","","","","","","","","fixation","",""
"","","","","","color-precision2","114","564983","0.0-10.0-1.47-0.47","5d0c565f7374b40001cef0f8","640759fa512f630a2bdc333d","6408c184cf1aa4423556f7b0","[341.3000000715256]","","","[16]","[10]","10","20","40.92026942658091","[40.92026942658091]","[20.92026942658091]","[19]","0","0","1","0","149.26300004764926","994.6530000715284","1000","[[[""img/mask87.png""]]]","","","main","20","color-precision2"
"","","","","","html-keyboard-response","115","565493","0.0-10.0-0.48","5d0c565f7374b40001cef0f8","640759fa512f630a2bdc333d","6408c184cf1aa4423556f7b0","null","","null","","","","","","","","","","","","","","","","","","","fixation","",""
"","","","","","many-guess-6","116","569119","0.0-10.0-1.48-0.48","5d0c565f7374b40001cef0f8","640759fa512f630a2bdc333d","6408c184cf1aa4423556f7b0","[2027.6999999284744]","","","[14,30,8,23,16,21,35,28,2,25,19,18,6,10,22,3,5,9,29,11,34,12,4,26,33,0,32,1,20,24,15,7,31,13,27,17]","[26,285,355,175,325,335,116,126,66,275,155,195,345,215,265,56,46,165,96,106,315,295,205,225,145,245,305,36,76,6,136,235,16,86,255,185]","26","74","87.11504882508316","[87.11504882508316]","[13.115048825083164]","[11]","[300,30,30,30,30,300,210,120,210]","0","36","0","149.4790000000503","23.217000071541406","16","[[[""img/mask86.png""],[""img/mask88.png""],[""img/mask54.png""],[""img/mask68.png""],[""img/mask13.png""],[""img/mask33.png""],[""img/mask54.png""],[""img/mask88.png""],[""img/mask74.png""],[""img/mask16.png""],[""img/mask11.png""],[""img/mask17.png""],[""img/mask14.png""],[""img/mask40.png""],[""img/mask60.png""],[""img/mask76.png""],[""img/mask10.png""],[""img/mask97.png""],[""img/mask63.png""],[""img/mask67.png""],[""img/mask56.png""],[""img/mask55.png""],[""img/mask34.png""],[""img/mask66.png""],[""img/mask24.png""],[""img/mask94.png""],[""img/mask11.png""],[""img/mask54.png""],[""img/mask24.png""],[""img/mask62.png""],[""img/mask22.png""],[""img/mask74.png""],[""img/mask38.png""],[""img/mask49.png""],[""img/mask4.png""],[""img/mask55.png""]]]","","[14,30,8,23,16,21,35,28,2,25,19,18,6,10,22,3,5,9,29,11,34,12,4,26,33,0,32,1,20,24,15,7,31,13,27,17]","main","74","many-guess-6"
"","","","","","html-keyboard-response","117","569621","0.0-10.0-0.49","5d0c565f7374b40001cef0f8","640759fa512f630a2bdc333d","6408c184cf1aa4423556f7b0","null","","null","","","","","","","","","","","","","","","","","","","fixation","",""
"","","","","","many-guess-6","118","572705","0.0-10.0-1.49-0.49","5d0c565f7374b40001cef0f8","640759fa512f630a2bdc333d","6408c184cf1aa4423556f7b0","[1413.5]","","","[13,33,15,6,24,7,19,26,35,30,2,28,11,10,29,21,3,5,23,27,14,20,12,18,0,8,1,31,17,9,34,16,22,25,4,32]","[27,107,47,316,166,236,196,256,156,346,206,37,126,77,116,7,266,17,57,176,326,67,87,296,286,306,336,186,146,97,276,226,246,356,136,216]","27","309","214.77467619481854","[214.77467619481854]","[265.77467619481854]","[266]","[30,300,30,300,120,120,300,210,30]","0","36","0","149.48199999995995","19.217000071541406","16","[[[""img/mask61.png""],[""img/mask41.png""],[""img/mask43.png""],[""img/mask51.png""],[""img/mask34.png""],[""img/mask35.png""],[""img/mask96.png""],[""img/mask29.png""],[""img/mask2.png""],[""img/mask60.png""],[""img/mask95.png""],[""img/mask84.png""],[""img/mask52.png""],[""img/mask55.png""],[""img/mask86.png""],[""img/mask74.png""],[""img/mask72.png""],[""img/mask33.png""],[""img/mask9.png""],[""img/mask13.png""],[""img/mask43.png""],[""img/mask88.png""],[""img/mask67.png""],[""img/mask91.png""],[""img/mask52.png""],[""img/mask17.png""],[""img/mask64.png""],[""img/mask43.png""],[""img/mask72.png""],[""img/mask88.png""],[""img/mask56.png""],[""img/mask29.png""],[""img/mask81.png""],[""img/mask13.png""],[""img/mask94.png""],[""img/mask71.png""]]]","","[13,33,15,6,24,7,19,26,35,30,2,28,11,10,29,21,3,5,23,27,14,20,12,18,0,8,1,31,17,9,34,16,22,25,4,32]","main","309","many-guess-6"
"","","","","","html-keyboard-response","119","573206","0.0-10.0-0.50","5d0c565f7374b40001cef0f8","640759fa512f630a2bdc333d","6408c184cf1aa4423556f7b0","null","","null","","","","","","","","","","","","","","","","","","","fixation","",""
"","","","","","many-guess-6","120","577057","0.0-10.0-1.50-0.50","5d0c565f7374b40001cef0f8","640759fa512f630a2bdc333d","6408c184cf1aa4423556f7b0","[2498.8000000715256]","","","[15,34,0,12,20,2,26,28,3,14,1,23,6,33,27,7,9,25,16,32,24,17,30,5,21,18,35,11,10,19,31,13,29,22,8,4]","[162,63,322,352,202,73,292,272,3,222,53,93,182,33,83,262,302,112,122,342,132,102,282,142,43,242,232,332,312,152,172,252,212,13,192,23]","162","67","154.2869150436353","[154.2869150436353]","[87.2869150436353]","[86]","[120,210,120,30,120,300,30,300,120]","0","36","0","149.64899997611064","20.715000023832545","16","[[[""img/mask13.png""],[""img/mask47.png""],[""img/mask51.png""],[""img/mask73.png""],[""img/mask34.png""],[""img/mask93.png""],[""img/mask50.png""],[""img/mask81.png""],[""img/mask59.png""],[""img/mask91.png""],[""img/mask1.png""],[""img/mask29.png""],[""img/mask94.png""],[""img/mask96.png""],[""img/mask40.png""],[""img/mask36.png""],[""img/mask34.png""],[""img/mask44.png""],[""img/mask41.png""],[""img/mask34.png""],[""img/mask63.png""],[""img/mask93.png""],[""img/mask48.png""],[""img/mask36.png""],[""img/mask93.png""],[""img/mask94.png""],[""img/mask13.png""],[""img/mask73.png""],[""img/mask93.png""],[""img/mask48.png""],[""img/mask17.png""],[""img/mask99.png""],[""img/mask30.png""],[""img/mask50.png""],[""img/mask58.png""],[""img/mask14.png""]]]","","[15,34,0,12,20,2,26,28,3,14,1,23,6,33,27,7,9,25,16,32,24,17,30,5,21,18,35,11,10,19,31,13,29,22,8,4]","main","67","many-guess-6"
"","","","","","html-keyboard-response","121","577558","0.0-10.0-0.51","5d0c565f7374b40001cef0f8","640759fa512f630a2bdc333d","6408c184cf1aa4423556f7b0","null","","null","","","","","","","","","","","","","","","","","","","fixation","",""
"","","","","","many-guess-6","122","580659","0.0-10.0-1.51-0.51","5d0c565f7374b40001cef0f8","640759fa512f630a2bdc333d","6408c184cf1aa4423556f7b0","[1517.5999999046326]","","","[1,23,17,4,28,32,26,33,9,12,35,2,31,18,19,24,13,3,25,11,7,16,30,0,15,34,27,29,22,14,21,5,20,6,8,10]","[170,330,280,190,11,121,260,230,61,220,340,101,320,51,300,240,310,1,210,270,31,180,71,250,131,111,141,91,350,160,81,150,21,200,41,290]","170","229","219.05810878691153","[219.05810878691153]","[350.05810878691153]","[350]","[300,210,210,30,30,300,210,120,300]","0","36","0","149.4989999999525","9.920999999972992","16","[[[""img/mask90.png""],[""img/mask31.png""],[""img/mask56.png""],[""img/mask23.png""],[""img/mask98.png""],[""img/mask74.png""],[""img/mask29.png""],[""img/mask68.png""],[""img/mask36.png""],[""img/mask92.png""],[""img/mask52.png""],[""img/mask36.png""],[""img/mask39.png""],[""img/mask56.png""],[""img/mask15.png""],[""img/mask52.png""],[""img/mask90.png""],[""img/mask26.png""],[""img/mask35.png""],[""img/mask69.png""],[""img/mask18.png""],[""img/mask15.png""],[""img/mask14.png""],[""img/mask37.png""],[""img/mask70.png""],[""img/mask86.png""],[""img/mask97.png""],[""img/mask52.png""],[""img/mask46.png""],[""img/mask16.png""],[""img/mask58.png""],[""img/mask11.png""],[""img/mask89.png""],[""img/mask13.png""],[""img/mask40.png""],[""img/mask80.png""]]]","","[1,23,17,4,28,32,26,33,9,12,35,2,31,18,19,24,13,3,25,11,7,16,30,0,15,34,27,29,22,14,21,5,20,6,8,10]","main","229","many-guess-6"
"","","","","","html-keyboard-response","123","581160","0.0-10.0-0.52","5d0c565f7374b40001cef0f8","640759fa512f630a2bdc333d","6408c184cf1aa4423556f7b0","null","","null","","","","","","","","","","","","","","","","","","","fixation","",""
"","","","","","many-guess-6","124","584447","0.0-10.0-1.52-0.52","5d0c565f7374b40001cef0f8","640759fa512f630a2bdc333d","6408c184cf1aa4423556f7b0","[1588.8000000715256]","","","[7,21,25,3,28,6,35,1,20,12,10,30,26,24,27,14,9,11,23,29,33,15,22,5,2,32,19,17,0,4,31,13,34,8,16,18]","[305,275,215,145,76,116,335,205,6,255,295,265,355,315,165,155,195,96,225,106,175,245,125,46,185,66,16,345,135,36,56,325,86,26,285,235]","305","268","82.09692359021228","[82.09692359021228]","[174.09692359021227]","[172]","[210,120,30,30,120,210,120,120,210]","0","36","0","149.40400004771072","8.325000047683716","16","[[[""img/mask88.png""],[""img/mask40.png""],[""img/mask27.png""],[""img/mask73.png""],[""img/mask7.png""],[""img/mask35.png""],[""img/mask57.png""],[""img/mask45.png""],[""img/mask16.png""],[""img/mask27.png""],[""img/mask71.png""],[""img/mask81.png""],[""img/mask9.png""],[""img/mask48.png""],[""img/mask19.png""],[""img/mask60.png""],[""img/mask21.png""],[""img/mask27.png""],[""img/mask30.png""],[""img/mask46.png""],[""img/mask10.png""],[""img/mask45.png""],[""img/mask56.png""],[""img/mask87.png""],[""img/mask29.png""],[""img/mask8.png""],[""img/mask31.png""],[""img/mask60.png""],[""img/mask86.png""],[""img/mask16.png""],[""img/mask53.png""],[""img/mask91.png""],[""img/mask48.png""],[""img/mask21.png""],[""img/mask96.png""],[""img/mask55.png""]]]","","[7,21,25,3,28,6,35,1,20,12,10,30,26,24,27,14,9,11,23,29,33,15,22,5,2,32,19,17,0,4,31,13,34,8,16,18]","main","268","many-guess-6"
"","","","","","html-keyboard-response","125","584948","0.0-10.0-0.53","5d0c565f7374b40001cef0f8","640759fa512f630a2bdc333d","6408c184cf1aa4423556f7b0","null","","null","","","","","","","","","","","","","","","","","","","fixation","",""
"","","","","","many-guess-6","126","588459","0.0-10.0-1.53-0.53","5d0c565f7374b40001cef0f8","640759fa512f630a2bdc333d","6408c184cf1aa4423556f7b0","[1817.5999999046326]","","","[17,8,35,31,1,25,34,11,3,12,32,30,21,22,29,6,5,2,33,13,27,0,18,14,26,10,20,16,24,15,23,7,9,4,28,19]","[287,28,307,277,327,18,357,297,8,48,58,178,78,337,317,168,207,128,247,217,188,88,138,237,257,38,68,197,158,267,108,148,118,347,98,227]","287","307","184.1184462212435","[184.1184462212435]","[237.1184462212435]","[236]","[300,30,300,120,300,300,120,300,30]","0","36","0","149.50499997613952","17.033000023802742","16","[[[""img/mask12.png""],[""img/mask46.png""],[""img/mask89.png""],[""img/mask73.png""],[""img/mask94.png""],[""img/mask100.png""],[""img/mask35.png""],[""img/mask68.png""],[""img/mask53.png""],[""img/mask81.png""],[""img/mask73.png""],[""img/mask44.png""],[""img/mask36.png""],[""img/mask36.png""],[""img/mask98.png""],[""img/mask64.png""],[""img/mask48.png""],[""img/mask70.png""],[""img/mask45.png""],[""img/mask7.png""],[""img/mask99.png""],[""img/mask58.png""],[""img/mask70.png""],[""img/mask16.png""],[""img/mask19.png""],[""img/mask56.png""],[""img/mask15.png""],[""img/mask81.png""],[""img/mask6.png""],[""img/mask3.png""],[""img/mask74.png""],[""img/mask68.png""],[""img/mask41.png""],[""img/mask38.png""],[""img/mask35.png""],[""img/mask50.png""]]]","","[17,8,35,31,1,25,34,11,3,12,32,30,21,22,29,6,5,2,33,13,27,0,18,14,26,10,20,16,24,15,23,7,9,4,28,19]","main","307","many-guess-6"
"","","","","","html-keyboard-response","127","588959","0.0-10.0-0.54","5d0c565f7374b40001cef0f8","640759fa512f630a2bdc333d","6408c184cf1aa4423556f7b0","null","","null","","","","","","","","","","","","","","","","","","","fixation","",""
"","","","","","color-precision2","128","591789","0.0-10.0-1.54-0.54","5d0c565f7374b40001cef0f8","640759fa512f630a2bdc333d","6408c184cf1aa4423556f7b0","[430.60000002384186]","","","[31]","[43]","43","273","","[null]","[null]","[48]","0","0","1","0","149.0470000714995","992.5670000000391","1000","[[[""img/mask10.png""]]]","","","main","273","color-precision2"
"","","","","","html-keyboard-response","129","592290","0.0-10.0-0.55","5d0c565f7374b40001cef0f8","640759fa512f630a2bdc333d","6408c184cf1aa4423556f7b0","null","","null","","","","","","","","","","","","","","","","","","","fixation","",""
"","","","","","many-guess-6","130","595299","0.0-10.0-1.55-0.55","5d0c565f7374b40001cef0f8","640759fa512f630a2bdc333d","6408c184cf1aa4423556f7b0","[1540.9000000953674]","","","[11,7,10,8,5,1,23,30,28,22,32,14,2,19,13,18,9,16,12,20,33,25,6,27,17,29,3,35,4,15,21,26,0,31,24,34]","[10,349,190,100,180,120,319,110,50,339,249,219,229,150,20,299,70,130,80,259,40,289,309,269,90,200,140,329,160,279,30,60,170,239,210,359]","10","22","221.71240354461554","[221.71240354461554]","[199.71240354461554]","[199]","[210,210,210,30,120,300,300,30,30]","0","36","0","149.59699997620191","32.62300002388656","16","[[[""img/mask74.png""],[""img/mask82.png""],[""img/mask45.png""],[""img/mask73.png""],[""img/mask17.png""],[""img/mask33.png""],[""img/mask9.png""],[""img/mask25.png""],[""img/mask35.png""],[""img/mask33.png""],[""img/mask41.png""],[""img/mask12.png""],[""img/mask54.png""],[""img/mask71.png""],[""img/mask30.png""],[""img/mask94.png""],[""img/mask22.png""],[""img/mask22.png""],[""img/mask97.png""],[""img/mask60.png""],[""img/mask18.png""],[""img/mask81.png""],[""img/mask1.png""],[""img/mask41.png""],[""img/mask53.png""],[""img/mask36.png""],[""img/mask23.png""],[""img/mask20.png""],[""img/mask83.png""],[""img/mask97.png""],[""img/mask27.png""],[""img/mask75.png""],[""img/mask86.png""],[""img/mask56.png""],[""img/mask93.png""],[""img/mask54.png""]]]","","[11,7,10,8,5,1,23,30,28,22,32,14,2,19,13,18,9,16,12,20,33,25,6,27,17,29,3,35,4,15,21,26,0,31,24,34]","main","22","many-guess-6"
"","","","","","html-keyboard-response","131","595806","0.0-10.0-0.56","5d0c565f7374b40001cef0f8","640759fa512f630a2bdc333d","6408c184cf1aa4423556f7b0","null","","null","","","","","","","","","","","","","","","","","","","fixation","",""
"","","","","","many-guess-6","132","598917","0.0-10.0-1.56-0.56","5d0c565f7374b40001cef0f8","640759fa512f630a2bdc333d","6408c184cf1aa4423556f7b0","[1592.1000000238419]","","","[16,18,3,0,28,21,22,32,13,27,30,24,34,20,35,19,15,10,33,9,25,26,5,2,6,1,4,29,17,14,7,31,8,12,11,23]","[157,347,98,177,18,167,257,307,357,247,187,78,48,277,267,118,227,88,147,128,8,58,108,237,28,287,327,297,138,217,317,337,68,207,38,197]","157","29","89.11782916437356","[89.11782916437356]","[60.11782916437356]","[58]","[300,300,120,210,30,120,210,300,30]","0","36","0","149.55300002382137","21.718999976175837","16","[[[""img/mask55.png""],[""img/mask89.png""],[""img/mask14.png""],[""img/mask92.png""],[""img/mask46.png""],[""img/mask96.png""],[""img/mask76.png""],[""img/mask10.png""],[""img/mask38.png""],[""img/mask97.png""],[""img/mask79.png""],[""img/mask52.png""],[""img/mask37.png""],[""img/mask55.png""],[""img/mask73.png""],[""img/mask91.png""],[""img/mask15.png""],[""img/mask20.png""],[""img/mask76.png""],[""img/mask4.png""],[""img/mask47.png""],[""img/mask69.png""],[""img/mask60.png""],[""img/mask94.png""],[""img/mask75.png""],[""img/mask44.png""],[""img/mask90.png""],[""img/mask11.png""],[""img/mask28.png""],[""img/mask20.png""],[""img/mask50.png""],[""img/mask87.png""],[""img/mask22.png""],[""img/mask6.png""],[""img/mask20.png""],[""img/mask39.png""]]]","","[16,18,3,0,28,21,22,32,13,27,30,24,34,20,35,19,15,10,33,9,25,26,5,2,6,1,4,29,17,14,7,31,8,12,11,23]","main","29","many-guess-6"
"","","","","","html-keyboard-response","133","599419","0.0-10.0-0.57","5d0c565f7374b40001cef0f8","640759fa512f630a2bdc333d","6408c184cf1aa4423556f7b0","null","","null","","","","","","","","","","","","","","","","","","","fixation","",""
"","","","","","many-guess-6","134","602355","0.0-10.0-1.57-0.57","5d0c565f7374b40001cef0f8","640759fa512f630a2bdc333d","6408c184cf1aa4423556f7b0","[1446.8000000715256]","","","[19,29,16,0,32,8,12,4,13,35,25,2,24,22,3,20,27,34,28,1,11,6,26,18,30,9,23,14,21,7,31,10,15,5,33,17]","[34,294,304,224,24,164,184,5,344,94,174,114,74,334,234,204,274,84,44,144,244,324,14,124,214,194,104,64,314,134,154,254,284,54,264,354]","34","153","317.35765578436167","[317.35765578436167]","[164.35765578436167]","[164]","[300,120,210,120,300,120,210,300,210]","0","36","0","149.6040000715293","11.758000023895875","16","[[[""img/mask82.png""],[""img/mask24.png""],[""img/mask44.png""],[""img/mask35.png""],[""img/mask59.png""],[""img/mask92.png""],[""img/mask25.png""],[""img/mask65.png""],[""img/mask92.png""],[""img/mask91.png""],[""img/mask10.png""],[""img/mask23.png""],[""img/mask27.png""],[""img/mask5.png""],[""img/mask28.png""],[""img/mask30.png""],[""img/mask79.png""],[""img/mask55.png""],[""img/mask31.png""],[""img/mask28.png""],[""img/mask41.png""],[""img/mask84.png""],[""img/mask23.png""],[""img/mask61.png""],[""img/mask49.png""],[""img/mask29.png""],[""img/mask3.png""],[""img/mask91.png""],[""img/mask66.png""],[""img/mask98.png""],[""img/mask67.png""],[""img/mask2.png""],[""img/mask87.png""],[""img/mask92.png""],[""img/mask62.png""],[""img/mask34.png""]]]","","[19,29,16,0,32,8,12,4,13,35,25,2,24,22,3,20,27,34,28,1,11,6,26,18,30,9,23,14,21,7,31,10,15,5,33,17]","main","153","many-guess-6"
"","","","","","html-keyboard-response","135","602857","0.0-10.0-0.58","5d0c565f7374b40001cef0f8","640759fa512f630a2bdc333d","6408c184cf1aa4423556f7b0","null","","null","","","","","","","","","","","","","","","","","","","fixation","",""
"","","","","","many-guess-6","136","605957","0.0-10.0-1.58-0.58","5d0c565f7374b40001cef0f8","640759fa512f630a2bdc333d","6408c184cf1aa4423556f7b0","[1581.8000000715256]","","","[20,34,23,18,13,27,3,22,7,4,9,16,0,30,29,15,14,26,33,11,31,2,12,24,1,10,17,19,8,32,35,25,21,5,6,28]","[88,178,268,218,208,108,38,128,28,258,297,288,68,228,347,48,8,78,238,158,138,278,307,337,148,317,357,248,18,168,58,188,98,198,118,327]","88","272","80.30193133513916","[80.30193133513916]","[168.30193133513916]","[166]","[300,30,30,120,30,30,120,210,120]","0","36","0","149.27700007148087","12.21799999999348","16","[[[""img/mask17.png""],[""img/mask54.png""],[""img/mask100.png""],[""img/mask5.png""],[""img/mask49.png""],[""img/mask50.png""],[""img/mask67.png""],[""img/mask6.png""],[""img/mask47.png""],[""img/mask84.png""],[""img/mask10.png""],[""img/mask6.png""],[""img/mask85.png""],[""img/mask45.png""],[""img/mask17.png""],[""img/mask89.png""],[""img/mask95.png""],[""img/mask4.png""],[""img/mask94.png""],[""img/mask38.png""],[""img/mask15.png""],[""img/mask88.png""],[""img/mask70.png""],[""img/mask84.png""],[""img/mask84.png""],[""img/mask43.png""],[""img/mask92.png""],[""img/mask63.png""],[""img/mask46.png""],[""img/mask7.png""],[""img/mask4.png""],[""img/mask40.png""],[""img/mask12.png""],[""img/mask39.png""],[""img/mask11.png""],[""img/mask82.png""]]]","","[20,34,23,18,13,27,3,22,7,4,9,16,0,30,29,15,14,26,33,11,31,2,12,24,1,10,17,19,8,32,35,25,21,5,6,28]","main","272","many-guess-6"
"","","","","","html-keyboard-response","137","606898","0.0-10.0-0.59","5d0c565f7374b40001cef0f8","640759fa512f630a2bdc333d","6408c184cf1aa4423556f7b0","940.3000000715256","Wow! You've completed 60 out of 180 trials! </p> <p>  </p><p> Take a quick break, then press any key when you're ready to continue."," ","","","","","","","","","","","","","","","","","","","fixation","",""
"","","","","","color-precision2","138","610686","0.0-10.0-1.59-0.59","5d0c565f7374b40001cef0f8","640759fa512f630a2bdc333d","6408c184cf1aa4423556f7b0","[478.7000000476837]","","","[32]","[234]","234","267","144.24849828932082","[144.24849828932082]","[237.24849828932082]","[236]","0","0","1","0","149.39700002386235","1003.7190000237897","1000","[[[""img/mask42.png""]]]","","","main","267","color-precision2"
"","","","","","html-keyboard-response","139","611196","0.0-10.0-0.60","5d0c565f7374b40001cef0f8","640759fa512f630a2bdc333d","6408c184cf1aa4423556f7b0","null","","null","","","","","","","","","","","","","","","","","","","fixation","",""
"","","","","","color-precision2","140","614289","0.0-10.0-1.60-0.60","5d0c565f7374b40001cef0f8","640759fa512f630a2bdc333d","6408c184cf1aa4423556f7b0","[663.9000000953674]","","","[3]","[226]","226","327","203.62167510747153","[203.62167510747153]","[236.62167510747153]","[236]","0","0","1","0","149.03400002385024","994.3249999999534","1000","[[[""img/mask21.png""]]]","","","main","327","color-precision2"
"","","","","","html-keyboard-response","141","614790","0.0-10.0-0.61","5d0c565f7374b40001cef0f8","640759fa512f630a2bdc333d","6408c184cf1aa4423556f7b0","null","","null","","","","","","","","","","","","","","","","","","","fixation","",""
"","","","","","many-guess-6","142","617983","0.0-10.0-1.61-0.61","5d0c565f7374b40001cef0f8","640759fa512f630a2bdc333d","6408c184cf1aa4423556f7b0","[1741.4000000953674]","","","[7,35,1,17,20,22,21,14,5,18,9,30,13,3,33,27,15,29,16,31,4,28,25,0,2,32,6,23,8,26,24,10,12,19,34,11]","[229,249,209,328,69,348,39,179,169,299,119,289,19,239,219,309,99,159,318,59,259,129,109,9,139,49,29,338,189,149,79,199,269,279,358,89]","229","34","204.738147710841","[204.738147710841]","[170.738147710841]","[170]","[210,300,120,210,300,300,210,210,30]","0","36","0","149.6689999999944","17.313000071560964","16","[[[""img/mask63.png""],[""img/mask32.png""],[""img/mask95.png""],[""img/mask44.png""],[""img/mask97.png""],[""img/mask29.png""],[""img/mask11.png""],[""img/mask11.png""],[""img/mask6.png""],[""img/mask41.png""],[""img/mask55.png""],[""img/mask73.png""],[""img/mask71.png""],[""img/mask28.png""],[""img/mask1.png""],[""img/mask51.png""],[""img/mask69.png""],[""img/mask94.png""],[""img/mask82.png""],[""img/mask40.png""],[""img/mask16.png""],[""img/mask45.png""],[""img/mask10.png""],[""img/mask16.png""],[""img/mask84.png""],[""img/mask79.png""],[""img/mask52.png""],[""img/mask17.png""],[""img/mask92.png""],[""img/mask4.png""],[""img/mask56.png""],[""img/mask64.png""],[""img/mask94.png""],[""img/mask2.png""],[""img/mask87.png""],[""img/mask28.png""]]]","","[7,35,1,17,20,22,21,14,5,18,9,30,13,3,33,27,15,29,16,31,4,28,25,0,2,32,6,23,8,26,24,10,12,19,34,11]","main","34","many-guess-6"
"","","","","","html-keyboard-response","143","618489","0.0-10.0-0.62","5d0c565f7374b40001cef0f8","640759fa512f630a2bdc333d","6408c184cf1aa4423556f7b0","null","","null","","","","","","","","","","","","","","","","","","","fixation","",""
"","","","","","color-precision2","144","624105","0.0-10.0-1.62-0.62","5d0c565f7374b40001cef0f8","640759fa512f630a2bdc333d","6408c184cf1aa4423556f7b0","[429.7000000476837]","","","[13]","[337]","337","238","204.80594893030494","[204.80594893030494]","[326.8059489303049]","[327]","0","0","1","0","149.1780000476865","1007.7139999761712","1000","[[[""img/mask47.png""]]]","","","main","238","color-precision2"
"","","","","","html-keyboard-response","145","624606","0.0-10.0-0.63","5d0c565f7374b40001cef0f8","640759fa512f630a2bdc333d","6408c184cf1aa4423556f7b0","null","","null","","","","","","","","","","","","","","","","","","","fixation","",""
"","","","","","color-precision2","146","628025","0.0-10.0-1.63-0.63","5d0c565f7374b40001cef0f8","640759fa512f630a2bdc333d","6408c184cf1aa4423556f7b0","[483.1999999284744]","","","[18]","[329]","329","105","96.74569627512727","[96.74569627512727]","[351.7456962751273]","[350]","0","0","1","0","149.36800004763063","1004.4830000000075","1000","[[[""img/mask88.png""]]]","","","main","105","color-precision2"
"","","","","","html-keyboard-response","147","628526","0.0-10.0-0.64","5d0c565f7374b40001cef0f8","640759fa512f630a2bdc333d","6408c184cf1aa4423556f7b0","null","","null","","","","","","","","","","","","","","","","","","","fixation","",""
"","","","","","many-guess-6","148","631355","0.0-10.0-1.64-0.64","5d0c565f7374b40001cef0f8","640759fa512f630a2bdc333d","6408c184cf1aa4423556f7b0","[1396.8999999761581]","","","[25,21,10,26,9,4,35,12,32,7,31,17,16,6,19,15,27,0,18,2,34,14,23,24,29,5,1,3,28,13,33,8,30,11,20,22]","[173,54,283,34,253,293,313,203,113,303,223,263,213,143,24,153,64,4,83,123,233,73,163,193,14,353,243,103,183,343,323,273,333,93,44,133]","173","154","193.55459192680644","[193.55459192680644]","[39.55459192680644]","[39]","[120,120,120,210,30,210,120,210,210]","0","36","0","149.47000004770234","18.71999999997206","16","[[[""img/mask18.png""],[""img/mask73.png""],[""img/mask42.png""],[""img/mask70.png""],[""img/mask15.png""],[""img/mask65.png""],[""img/mask74.png""],[""img/mask53.png""],[""img/mask16.png""],[""img/mask61.png""],[""img/mask67.png""],[""img/mask73.png""],[""img/mask39.png""],[""img/mask83.png""],[""img/mask35.png""],[""img/mask15.png""],[""img/mask64.png""],[""img/mask78.png""],[""img/mask57.png""],[""img/mask36.png""],[""img/mask94.png""],[""img/mask86.png""],[""img/mask20.png""],[""img/mask43.png""],[""img/mask99.png""],[""img/mask23.png""],[""img/mask50.png""],[""img/mask44.png""],[""img/mask98.png""],[""img/mask93.png""],[""img/mask21.png""],[""img/mask66.png""],[""img/mask4.png""],[""img/mask94.png""],[""img/mask80.png""],[""img/mask57.png""]]]","","[25,21,10,26,9,4,35,12,32,7,31,17,16,6,19,15,27,0,18,2,34,14,23,24,29,5,1,3,28,13,33,8,30,11,20,22]","main","154","many-guess-6"
"","","","","","html-keyboard-response","149","631857","0.0-10.0-0.65","5d0c565f7374b40001cef0f8","640759fa512f630a2bdc333d","6408c184cf1aa4423556f7b0","null","","null","","","","","","","","","","","","","","","","","","","fixation","",""
"","","","","","color-precision2","150","635321","0.0-10.0-1.65-0.65","5d0c565f7374b40001cef0f8","640759fa512f630a2bdc333d","6408c184cf1aa4423556f7b0","[945.6000000238419]","","","[30]","[232]","232","208","86.03563054813822","[86.03563054813822]","[238.03563054813822]","[236]","0","0","1","0","149.4889999999432","998.4700000477023","1000","[[[""img/mask16.png""]]]","","","main","208","color-precision2"
"","","","","","html-keyboard-response","151","635822","0.0-10.0-0.66","5d0c565f7374b40001cef0f8","640759fa512f630a2bdc333d","6408c184cf1aa4423556f7b0","null","","null","","","","","","","","","","","","","","","","","","","fixation","",""
"","","","","","many-guess-6","152","638381","0.0-10.0-1.66-0.66","5d0c565f7374b40001cef0f8","640759fa512f630a2bdc333d","6408c184cf1aa4423556f7b0","[1389.3000000715256]","","","[20,31,35,9,10,17,1,18,27,22,3,13,4,2,6,34,33,26,14,23,19,12,5,8,11,32,24,25,28,21,7,16,15,30,29,0]","[307,117,177,267,347,187,327,317,337,257,137,297,38,107,47,57,28,77,127,18,357,197,8,227,277,167,207,147,157,97,287,67,87,237,247,217]","307","190","357.99225306102153","[357.99225306102153]","[167.99225306102153]","[167]","[210,210,120,210,120,30,300,210,300]","0","36","0","149.30900002387352","18.84100007149391","16","[[[""img/mask11.png""],[""img/mask43.png""],[""img/mask89.png""],[""img/mask32.png""],[""img/mask74.png""],[""img/mask10.png""],[""img/mask68.png""],[""img/mask60.png""],[""img/mask22.png""],[""img/mask75.png""],[""img/mask83.png""],[""img/mask93.png""],[""img/mask21.png""],[""img/mask83.png""],[""img/mask31.png""],[""img/mask11.png""],[""img/mask79.png""],[""img/mask71.png""],[""img/mask50.png""],[""img/mask25.png""],[""img/mask7.png""],[""img/mask50.png""],[""img/mask32.png""],[""img/mask68.png""],[""img/mask45.png""],[""img/mask12.png""],[""img/mask32.png""],[""img/mask82.png""],[""img/mask65.png""],[""img/mask15.png""],[""img/mask3.png""],[""img/mask28.png""],[""img/mask20.png""],[""img/mask32.png""],[""img/mask42.png""],[""img/mask19.png""]]]","","[20,31,35,9,10,17,1,18,27,22,3,13,4,2,6,34,33,26,14,23,19,12,5,8,11,32,24,25,28,21,7,16,15,30,29,0]","main","190","many-guess-6"
"","","","","","html-keyboard-response","153","638883","0.0-10.0-0.67","5d0c565f7374b40001cef0f8","640759fa512f630a2bdc333d","6408c184cf1aa4423556f7b0","null","","null","","","","","","","","","","","","","","","","","","","fixation","",""
"","","","","","color-precision2","154","642207","0.0-10.0-1.67-0.67","5d0c565f7374b40001cef0f8","640759fa512f630a2bdc333d","6408c184cf1aa4423556f7b0","[748.8999999761581]","","","[23]","[291]","291","173","114.3587817493295","[114.3587817493295]","[301.3587817493295]","[299]","0","0","1","0","149.58000004768837","999.3210000238614","1000","[[[""img/mask36.png""]]]","","","main","173","color-precision2"
"","","","","","html-keyboard-response","155","642708","0.0-10.0-0.68","5d0c565f7374b40001cef0f8","640759fa512f630a2bdc333d","6408c184cf1aa4423556f7b0","null","","null","","","","","","","","","","","","","","","","","","","fixation","",""
"","","","","","color-precision2","156","645825","0.0-10.0-1.68-0.68","5d0c565f7374b40001cef0f8","640759fa512f630a2bdc333d","6408c184cf1aa4423556f7b0","[800.1999999284744]","","","[28]","[274]","274","2","272.10122902698396","[272.10122902698396]","[270.10122902698396]","[270]","0","0","1","0","149.50899999996182","994.552000047639","1000","[[[""img/mask17.png""]]]","","","main","2","color-precision2"
"","","","","","html-keyboard-response","157","646326","0.0-10.0-0.69","5d0c565f7374b40001cef0f8","640759fa512f630a2bdc333d","6408c184cf1aa4423556f7b0","null","","null","","","","","","","","","","","","","","","","","","","fixation","",""
"","","","","","color-precision2","158","649519","0.0-10.0-1.69-0.69","5d0c565f7374b40001cef0f8","640759fa512f630a2bdc333d","6408c184cf1aa4423556f7b0","[793.8999999761581]","","","[7]","[187]","187","327","159.54845147567596","[159.54845147567596]","[192.54845147567596]","[191]","0","0","1","0","149.22700004768558","999.9980000238866","1000","[[[""img/mask28.png""]]]","","","main","327","color-precision2"
"","","","","","html-keyboard-response","159","650020","0.0-10.0-0.70","5d0c565f7374b40001cef0f8","640759fa512f630a2bdc333d","6408c184cf1aa4423556f7b0","null","","null","","","","","","","","","","","","","","","","","","","fixation","",""
"","","","","","color-precision2","160","652813","0.0-10.0-1.70-0.70","5d0c565f7374b40001cef0f8","640759fa512f630a2bdc333d","6408c184cf1aa4423556f7b0","[421.2999999523163]","","","[3]","[55]","55","12","62.871689867787545","[62.871689867787545]","[50.871689867787545]","[50]","0","0","1","0","149.3950000476325","993.8270000715274","1000","[[[""img/mask9.png""]]]","","","main","12","color-precision2"
"","","","","","html-keyboard-response","161","653315","0.0-10.0-0.71","5d0c565f7374b40001cef0f8","640759fa512f630a2bdc333d","6408c184cf1aa4423556f7b0","null","","null","","","","","","","","","","","","","","","","","","","fixation","",""
"","","","","","many-guess-6","162","656438","0.0-10.0-1.71-0.71","5d0c565f7374b40001cef0f8","640759fa512f630a2bdc333d","6408c184cf1aa4423556f7b0","[1712.5999999046326]","","","[10,2,33,8,17,31,19,24,12,20,3,26,29,35,13,32,34,16,11,27,30,7,14,15,5,9,4,25,28,0,6,21,22,1,18,23]","[152,32,172,341,271,321,281,202,122,2,52,62,301,311,231,22,261,291,92,251,162,42,112,82,132,331,12,241,72,102,192,142,221,212,351,182]","152","207","194.92637243772518","[194.92637243772518]","[347.92637243772515]","[347]","[30,120,30,30,120,30,120,300,210]","0","36","0","149.58200000005309","15.316999976173975","16","[[[""img/mask17.png""],[""img/mask50.png""],[""img/mask91.png""],[""img/mask80.png""],[""img/mask22.png""],[""img/mask46.png""],[""img/mask38.png""],[""img/mask96.png""],[""img/mask19.png""],[""img/mask96.png""],[""img/mask12.png""],[""img/mask71.png""],[""img/mask2.png""],[""img/mask86.png""],[""img/mask43.png""],[""img/mask66.png""],[""img/mask84.png""],[""img/mask84.png""],[""img/mask22.png""],[""img/mask6.png""],[""img/mask63.png""],[""img/mask4.png""],[""img/mask31.png""],[""img/mask36.png""],[""img/mask83.png""],[""img/mask67.png""],[""img/mask23.png""],[""img/mask81.png""],[""img/mask2.png""],[""img/mask44.png""],[""img/mask79.png""],[""img/mask69.png""],[""img/mask68.png""],[""img/mask97.png""],[""img/mask60.png""],[""img/mask29.png""]]]","","[10,2,33,8,17,31,19,24,12,20,3,26,29,35,13,32,34,16,11,27,30,7,14,15,5,9,4,25,28,0,6,21,22,1,18,23]","main","207","many-guess-6"
"","","","","","html-keyboard-response","163","656938","0.0-10.0-0.72","5d0c565f7374b40001cef0f8","640759fa512f630a2bdc333d","6408c184cf1aa4423556f7b0","null","","null","","","","","","","","","","","","","","","","","","","fixation","",""
"","","","","","color-precision2","164","659939","0.0-10.0-1.72-0.72","5d0c565f7374b40001cef0f8","640759fa512f630a2bdc333d","6408c184cf1aa4423556f7b0","[563.8999999761581]","","","[15]","[53]","53","253","305.8022517974944","[305.8022517974944]","[52.80225179749442]","[53]","0","0","1","0","149.2470000477042","994.1100000477163","1000","[[[""img/mask15.png""]]]","","","main","253","color-precision2"
"","","","","","html-keyboard-response","165","660447","0.0-10.0-0.73","5d0c565f7374b40001cef0f8","640759fa512f630a2bdc333d","6408c184cf1aa4423556f7b0","null","","null","","","","","","","","","","","","","","","","","","","fixation","",""
"","","","","","many-guess-6","166","662845","0.0-10.0-1.73-0.73","5d0c565f7374b40001cef0f8","640759fa512f630a2bdc333d","6408c184cf1aa4423556f7b0","[1086.5]","","","[17,2,23,24,13,15,7,12,33,28,8,21,35,16,0,32,3,26,1,29,14,6,27,30,10,11,34,31,18,20,4,25,9,5,22,19]","[329,199,40,289,189,149,309,30,129,20,159,229,319,169,239,249,139,10,299,69,219,50,349,109,269,89,79,119,359,179,99,209,60,259,339,279]","329","93","182.9133685536167","[182.9133685536167]","[89.91336855361669]","[89]","[120,300,300,210,210,210,30,30,30]","0","36","0","149.61900004767813","21.078000071574934","16","[[[""img/mask74.png""],[""img/mask99.png""],[""img/mask39.png""],[""img/mask89.png""],[""img/mask87.png""],[""img/mask61.png""],[""img/mask31.png""],[""img/mask82.png""],[""img/mask94.png""],[""img/mask90.png""],[""img/mask26.png""],[""img/mask79.png""],[""img/mask46.png""],[""img/mask26.png""],[""img/mask9.png""],[""img/mask24.png""],[""img/mask38.png""],[""img/mask97.png""],[""img/mask53.png""],[""img/mask12.png""],[""img/mask14.png""],[""img/mask29.png""],[""img/mask3.png""],[""img/mask55.png""],[""img/mask59.png""],[""img/mask78.png""],[""img/mask49.png""],[""img/mask60.png""],[""img/mask11.png""],[""img/mask64.png""],[""img/mask35.png""],[""img/mask85.png""],[""img/mask93.png""],[""img/mask36.png""],[""img/mask63.png""],[""img/mask39.png""]]]","","[17,2,23,24,13,15,7,12,33,28,8,21,35,16,0,32,3,26,1,29,14,6,27,30,10,11,34,31,18,20,4,25,9,5,22,19]","main","93","many-guess-6"
"","","","","","html-keyboard-response","167","663346","0.0-10.0-0.74","5d0c565f7374b40001cef0f8","640759fa512f630a2bdc333d","6408c184cf1aa4423556f7b0","null","","null","","","","","","","","","","","","","","","","","","","fixation","",""
"","","","","","color-precision2","168","666741","0.0-10.0-1.74-0.74","5d0c565f7374b40001cef0f8","640759fa512f630a2bdc333d","6408c184cf1aa4423556f7b0","[766.1999999284744]","","","[7]","[317]","317","111","81.4541020830722","[81.4541020830722]","[330.4541020830722]","[328]","0","0","1","0","149.3670000715647","998.0350000238977","1000","[[[""img/mask1.png""]]]","","","main","111","color-precision2"
"","","","","","html-keyboard-response","169","667242","0.0-10.0-0.75","5d0c565f7374b40001cef0f8","640759fa512f630a2bdc333d","6408c184cf1aa4423556f7b0","null","","null","","","","","","","","","","","","","","","","","","","fixation","",""
"","","","","","many-guess-6","170","670559","0.0-10.0-1.75-0.75","5d0c565f7374b40001cef0f8","640759fa512f630a2bdc333d","6408c184cf1aa4423556f7b0","[1417.5]","","","[2,1,3,34,6,10,14,12,18,22,0,20,11,23,31,15,30,8,27,16,7,19,24,33,13,35,28,25,17,26,5,9,32,4,29,21]","[265,155,345,86,245,295,66,6,106,16,285,116,305,165,46,175,235,185,325,96,36,315,136,76,56,225,275,26,205,335,215,195,146,255,126,355]","265","110","121.90352456336211","[121.90352456336211]","[11.903524563362112]","[10]","[120,210,210,300,210,30,120,300,210]","0","36","0","149.500000071479","10.33300004771445","16","[[[""img/mask29.png""],[""img/mask30.png""],[""img/mask29.png""],[""img/mask6.png""],[""img/mask38.png""],[""img/mask62.png""],[""img/mask93.png""],[""img/mask78.png""],[""img/mask96.png""],[""img/mask54.png""],[""img/mask79.png""],[""img/mask54.png""],[""img/mask68.png""],[""img/mask56.png""],[""img/mask87.png""],[""img/mask96.png""],[""img/mask95.png""],[""img/mask85.png""],[""img/mask45.png""],[""img/mask4.png""],[""img/mask50.png""],[""img/mask38.png""],[""img/mask33.png""],[""img/mask97.png""],[""img/mask87.png""],[""img/mask82.png""],[""img/mask22.png""],[""img/mask83.png""],[""img/mask84.png""],[""img/mask16.png""],[""img/mask8.png""],[""img/mask7.png""],[""img/mask19.png""],[""img/mask100.png""],[""img/mask45.png""],[""img/mask27.png""]]]","","[2,1,3,34,6,10,14,12,18,22,0,20,11,23,31,15,30,8,27,16,7,19,24,33,13,35,28,25,17,26,5,9,32,4,29,21]","main","110","many-guess-6"
"","","","","","html-keyboard-response","171","671061","0.0-10.0-0.76","5d0c565f7374b40001cef0f8","640759fa512f630a2bdc333d","6408c184cf1aa4423556f7b0","null","","null","","","","","","","","","","","","","","","","","","","fixation","",""
"","","","","","many-guess-6","172","673703","0.0-10.0-1.76-0.76","5d0c565f7374b40001cef0f8","640759fa512f630a2bdc333d","6408c184cf1aa4423556f7b0","[1411.1999999284744]","","","[22,24,29,28,10,18,25,3,8,2,1,17,5,13,11,33,12,21,0,19,32,30,23,35,4,9,15,26,16,31,20,6,34,7,14,27]","[64,353,204,54,254,244,214,114,134,194,323,94,343,333,34,313,14,184,104,234,283,273,144,303,74,124,174,44,24,84,264,224,164,154,293,4]","64","97","352.6178973721638","[352.6178973721638]","[255.61789737216378]","[255]","[120,300,120,120,30,120,300,30,300]","0","36","0","149.42400004772935","17.448000071570277","16","[[[""img/mask42.png""],[""img/mask34.png""],[""img/mask67.png""],[""img/mask85.png""],[""img/mask41.png""],[""img/mask20.png""],[""img/mask8.png""],[""img/mask82.png""],[""img/mask45.png""],[""img/mask87.png""],[""img/mask40.png""],[""img/mask33.png""],[""img/mask8.png""],[""img/mask27.png""],[""img/mask49.png""],[""img/mask44.png""],[""img/mask14.png""],[""img/mask33.png""],[""img/mask25.png""],[""img/mask38.png""],[""img/mask7.png""],[""img/mask58.png""],[""img/mask79.png""],[""img/mask19.png""],[""img/mask49.png""],[""img/mask3.png""],[""img/mask74.png""],[""img/mask49.png""],[""img/mask37.png""],[""img/mask59.png""],[""img/mask67.png""],[""img/mask64.png""],[""img/mask71.png""],[""img/mask69.png""],[""img/mask31.png""],[""img/mask88.png""]]]","","[22,24,29,28,10,18,25,3,8,2,1,17,5,13,11,33,12,21,0,19,32,30,23,35,4,9,15,26,16,31,20,6,34,7,14,27]","main","97","many-guess-6"
"","","","","","html-keyboard-response","173","674206","0.0-10.0-0.77","5d0c565f7374b40001cef0f8","640759fa512f630a2bdc333d","6408c184cf1aa4423556f7b0","null","","null","","","","","","","","","","","","","","","","","","","fixation","",""
"","","","","","color-precision2","174","677019","0.0-10.0-1.77-0.77","5d0c565f7374b40001cef0f8","640759fa512f630a2bdc333d","6408c184cf1aa4423556f7b0","[560.6000000238419]","","","[10]","[137]","137","63","206.12715337103828","[206.12715337103828]","[143.12715337103828]","[143]","0","0","1","0","149.31899997615255","993.5560000715777","1000","[[[""img/mask60.png""]]]","","","main","63","color-precision2"
"","","","","","html-keyboard-response","175","677521","0.0-10.0-0.78","5d0c565f7374b40001cef0f8","640759fa512f630a2bdc333d","6408c184cf1aa4423556f7b0","null","","null","","","","","","","","","","","","","","","","","","","fixation","",""
"","","","","","color-precision2","176","680265","0.0-10.0-1.78-0.78","5d0c565f7374b40001cef0f8","640759fa512f630a2bdc333d","6408c184cf1aa4423556f7b0","[273.2999999523163]","","","[13]","[54]","54","89","141.76176136370208","[141.76176136370208]","[52.76176136370208]","[51]","0","0","1","0","149.58500007155817","1000.6890000238782","1000","[[[""img/mask82.png""]]]","","","main","89","color-precision2"
"","","","","","html-keyboard-response","177","681012","0.0-10.0-0.79","5d0c565f7374b40001cef0f8","640759fa512f630a2bdc333d","6408c184cf1aa4423556f7b0","746.2999999523163","Wow! You've completed 80 out of 180 trials! </p> <p>  </p><p> Take a quick break, then press any key when you're ready to continue."," ","","","","","","","","","","","","","","","","","","","fixation","",""
