"success","timeout","failed_images","failed_audio","failed_video","trial_type","trial_index","time_elapsed","internal_node_id","subject_id","study_id","session_id","rt","stimulus","response","position_of_items","colors_of_items","color_of_target","wheel_spin","response_angle","physical_response_angle","reported_color_angle","reported_color_discrete","locs","which_test","set_size","wheel_num_options","actual_mask_duration","actual_stim_duration","CMDispTime","maskArray","maskRotation","item_positions","task","randomSpinAmount","mainTask"
"true","false","[]","[]","[]","preload","0","3766","0.0-0.0","5d4a41890e604c00011ade8b","640759fa512f630a2bdc333d","640785d078ed9db654f1b431","","","","","","","","","","","","","","","","","","","","","","","",""
"true","","","","","fullscreen","1","14355","0.0-1.0","5d4a41890e604c00011ade8b","640759fa512f630a2bdc333d","640785d078ed9db654f1b431","","","","","","","","","","","","","","","","","","","","","","","",""
"","","","","","html-keyboard-response","2","18701","0.0-2.0","5d4a41890e604c00011ade8b","640759fa512f630a2bdc333d","640785d078ed9db654f1b431","4344.600000143051","What a beautiful Tuesday to do some awesome science! </p> <p>  </p><p> </p>
    By completing this survey or questionnaire, you are consenting to be in this research study. </p>
    Your participation is voluntary and you can stop at any time.<p> [Press any key to continue] </p>","n","","","","","","","","","","","","","","","","","","","","",""
"","","","","","html-keyboard-response","3","28703","0.0-3.0","5d4a41890e604c00011ade8b","640759fa512f630a2bdc333d","640785d078ed9db654f1b431","7950.100000143051","
    <div style='width: 1000px;'>
    <div style='float: center;'><img src='img/TaskInstructions1.png'></img>
    </div>
    "," ","","","","","","","","","","","","","","","","","","","","",""
"","","","","","html-keyboard-response","4","31196","0.0-4.0","5d4a41890e604c00011ade8b","640759fa512f630a2bdc333d","640785d078ed9db654f1b431","2492.0999999046326","
    <div style='width: 1000px;'>
    <div style='float: center;'><img src='img/TaskInstructions1.png'></img>
    </div>
    ","g","","","","","","","","","","","","","","","","","","","","",""
"","","","","","html-keyboard-response","5","41200","0.0-5.0","5d4a41890e604c00011ade8b","640759fa512f630a2bdc333d","640785d078ed9db654f1b431","null","
    <div style='width: 1000px;'>
    <div style='float: center;'><img src='img/TaskInstructions2.png'></img>
    </div>
    ","null","","","","","","","","","","","","","","","","","","","","",""
"","","","","","html-keyboard-response","6","42084","0.0-6.0","5d4a41890e604c00011ade8b","640759fa512f630a2bdc333d","640785d078ed9db654f1b431","883.4000000953674","
    <div style='width: 1000px;'>
    <div style='float: center;'><img src='img/TaskInstructions2.png'></img>
    </div>
    ","g","","","","","","","","","","","","","","","","","","","","",""
"","","","","","video-keyboard-response","7","47300","0.0-7.0","5d4a41890e604c00011ade8b","640759fa512f630a2bdc333d","640785d078ed9db654f1b431","5213.300000190735","[""video/TaskInstructions3.mp4""]","g","","","","","","","","","","","","","","","","","","","","",""
"","","","","","image-keyboard-response","8","54300","0.0-8.0-0.0","5d4a41890e604c00011ade8b","640759fa512f630a2bdc333d","640785d078ed9db654f1b431","6998.200000047684","img/training1.png"," ","","","","","","","","","","","","","","","","","","","","",""
"","","","","","color-precision2","9","61938","0.0-8.0-1.0-0.0","5d4a41890e604c00011ade8b","640759fa512f630a2bdc333d","640785d078ed9db654f1b431","[2583.5999999046326]","","","[35]","[217]","217","42","275.9009373223909","[275.9009373223909]","[233.90093732239092]","[234]","0","0","1","0","499.4810001907317","995.3360001907349","1000","","","0","training","",""
"","","","","","image-keyboard-response","10","66604","0.0-8.0-0.1","5d4a41890e604c00011ade8b","640759fa512f630a2bdc333d","640785d078ed9db654f1b431","4665.100000143051","img/training2.png","f","","","","","","","","","","","","","","","","","","","","",""
"","","","","","many-guess-6","11","73418","0.0-8.0-1.1-0.1","5d4a41890e604c00011ade8b","640759fa512f630a2bdc333d","640785d078ed9db654f1b431","[2064.0999999046326]","","","[26,35,10]","[122,218,289]","122","207","213.2680046498312","[213.2680046498312]","[6.268004649831198]","[6]","[30,120,210,30,300,30,30,30,300,210,120,300,30,210,30,210,300,120,300,120,120,30,210,300,120,210,300,210,300,120,300,120,30,210,30,210]","0","3","0","999.3750000476866","997.7540000476874","1000","[[[""img/mask44.png""],[""img/mask24.png""],[""img/mask21.png""]]]","","[26,35,10]","training","",""
"","","","","","image-keyboard-response","12","77820","0.0-8.0-0.2","5d4a41890e604c00011ade8b","640759fa512f630a2bdc333d","640785d078ed9db654f1b431","4401","img/training3.png"," ","","","","","","","","","","","","","","","","","","","","",""
"","","","","","[""many-guess-6""]","13","83411","0.0-8.0-1.2-0.2","5d4a41890e604c00011ade8b","640759fa512f630a2bdc333d","640785d078ed9db654f1b431","[1873.5999999046326]","","","[4,17,5,11,0]","[344,33,331,283,267]","344","74","293.97295464842887","[293.97295464842887]","[219.97295464842887]","[220]","[300,300,210,210,300,120,120,120,30,30,300,300,210,30,300,120,300,30,210,300,30,30,30,30,300,30,30,30,210,120,210,30,30,30,210,210]","0","5","0","499.54099999999744","495.60500004768255","500","[[[""img/mask74.png""],[""img/mask94.png""],[""img/mask98.png""],[""img/mask18.png""],[""img/mask33.png""]]]","","[4,17,5,11,0]","training","",""
"","","","","","image-keyboard-response","14","85644","0.0-8.0-0.3","5d4a41890e604c00011ade8b","640759fa512f630a2bdc333d","640785d078ed9db654f1b431","2231.4000000953674","img/training4.png","g","","","","","","","","","","","","","","","","","","","","",""
"","","","","","[""many-guess-6""]","15","89744","0.0-8.0-1.3-0.3","5d4a41890e604c00011ade8b","640759fa512f630a2bdc333d","640785d078ed9db654f1b431","[1722.3999998569489]","","","[28,35,19,20,3,27,18,23,11,5]","[288,207,130,166,306,328,240,193,106,262]","288","206","182.74497055978557","[182.74497055978557]","[336.74497055978554]","[336]","[300,300,210,30,300,210,210,120,120,30,120,300,30,300,300,120,120,300,300,30,210,120,120,210,120,120,210,120,30,210,210,300,120,30,210,210]","0","10","0","132.74600009537244","132.27900009536825","132","[[[""img/mask91.png""],[""img/mask58.png""],[""img/mask74.png""],[""img/mask48.png""],[""img/mask81.png""],[""img/mask76.png""],[""img/mask79.png""],[""img/mask36.png""],[""img/mask39.png""],[""img/mask79.png""]]]","","[28,35,19,20,3,27,18,23,11,5]","training","",""
"","","","","","image-keyboard-response","16","91892","0.0-8.0-0.4","5d4a41890e604c00011ade8b","640759fa512f630a2bdc333d","640785d078ed9db654f1b431","2146.2999999523163","img/training5.png","g","","","","","","","","","","","","","","","","","","","","",""
"","","","","","[""many-guess-6""]","17","95293","0.0-8.0-1.4-0.4","5d4a41890e604c00011ade8b","640759fa512f630a2bdc333d","640785d078ed9db654f1b431","[1288.5]","","","[3,16,2,34,12,18,31,4,8,10,7,29,5,26,13,6,1,23,33,22,30,32,0,11,35,28,9,19,14,21,17,27,20,25,15,24]","[208,118,237,168,198,158,18,88,327,148,227,257,357,267,287,218,337,317,277,78,247,38,188,138,98,347,48,297,8,307,128,68,58,28,178,108]","208","94","12.299566435187073","[12.299566435187073]","[278.2995664351871]","[277]","[30,210,120,300,210,300,210,30,30,30,30,300,300,210,30,210,120,30,300,30,120,300,300,120,30,210,120,300,300,30,300,30,300,210,210,120]","0","36","0","132.6480000953743","18.779999999998836","16","[[[""img/mask98.png""],[""img/mask94.png""],[""img/mask47.png""],[""img/mask47.png""],[""img/mask88.png""],[""img/mask31.png""],[""img/mask51.png""],[""img/mask37.png""],[""img/mask11.png""],[""img/mask97.png""],[""img/mask64.png""],[""img/mask57.png""],[""img/mask72.png""],[""img/mask91.png""],[""img/mask48.png""],[""img/mask96.png""],[""img/mask67.png""],[""img/mask100.png""],[""img/mask55.png""],[""img/mask30.png""],[""img/mask97.png""],[""img/mask72.png""],[""img/mask55.png""],[""img/mask20.png""],[""img/mask56.png""],[""img/mask7.png""],[""img/mask73.png""],[""img/mask52.png""],[""img/mask12.png""],[""img/mask18.png""],[""img/mask74.png""],[""img/mask48.png""],[""img/mask21.png""],[""img/mask4.png""],[""img/mask41.png""],[""img/mask45.png""]]]","","[3,16,2,34,12,18,31,4,8,10,7,29,5,26,13,6,1,23,33,22,30,32,0,11,35,28,9,19,14,21,17,27,20,25,15,24]","training","",""
"","","","","","image-keyboard-response","18","97563","0.0-9.0","5d4a41890e604c00011ade8b","640759fa512f630a2bdc333d","640785d078ed9db654f1b431","2269.4000000953674","[""img/endTraining.png""]","g","","","","","","","","","","","","","","","","","","","","",""
"","","","","","color-precision2","19","101735","0.0-10.0-0.0-0.0","5d4a41890e604c00011ade8b","640759fa512f630a2bdc333d","640785d078ed9db654f1b431","[1163.2000000476837]","","","[15]","[8]","8","163","158.07766029930787","[158.07766029930787]","[355.07766029930787]","[354]","0","0","1","0","149.07000004767906","1006.6310000953672","1000","[[[""img/mask23.png""]]]","","","main","163","color-precision2"
"","","","","","html-keyboard-response","20","102237","0.0-10.0-1.0","5d4a41890e604c00011ade8b","640759fa512f630a2bdc333d","640785d078ed9db654f1b431","null","","null","","","","","","","","","","","","","","","","","","","fixation","",""
"","","","","","color-precision2","21","106018","0.0-10.0-0.1-0.1","5d4a41890e604c00011ade8b","640759fa512f630a2bdc333d","640785d078ed9db654f1b431","[1197.2999999523163]","","","[12]","[81]","81","334","64.57846432329778","[64.57846432329778]","[90.5784643232978]","[89]","0","0","1","0","148.98600014304975","1005.9170000476879","1000","[[[""img/mask5.png""]]]","","","main","334","color-precision2"
"","","","","","html-keyboard-response","22","106521","0.0-10.0-1.1","5d4a41890e604c00011ade8b","640759fa512f630a2bdc333d","640785d078ed9db654f1b431","null","","null","","","","","","","","","","","","","","","","","","","fixation","",""
"","","","","","color-precision2","23","110809","0.0-10.0-0.2-0.2","5d4a41890e604c00011ade8b","640759fa512f630a2bdc333d","640785d078ed9db654f1b431","[1421.0999999046326]","","","[17]","[340]","340","353","320.7773903713726","[320.7773903713726]","[327.7773903713726]","[328]","0","0","1","0","149.18600014304684","995.4079999999958","1000","[[[""img/mask70.png""]]]","","","main","353","color-precision2"
"","","","","","html-keyboard-response","24","111310","0.0-10.0-1.2","5d4a41890e604c00011ade8b","640759fa512f630a2bdc333d","640785d078ed9db654f1b431","null","","null","","","","","","","","","","","","","","","","","","","fixation","",""
"","","","","","many-guess-6","25","114799","0.0-10.0-0.3-0.3","5d4a41890e604c00011ade8b","640759fa512f630a2bdc333d","640785d078ed9db654f1b431","[1894.4000000953674]","","","[24,34,21,10,11,7,9,6,27,17,5,18,20,25,32,23,31,2,16,26,12,22,13,30,35,29,14,15,33,28,0,4,1,19,3,8]","[261,121,52,151,201,231,251,241,111,351,301,171,141,32,91,341,211,101,191,181,311,331,281,22,291,131,161,12,42,62,81,71,221,271,321,2]","261","292","29.148260599318785","[29.148260599318785]","[97.1482605993188]","[96]","[30,300,30,30,120,120,300,120,210]","0","36","0","149.34200014304952","15.193000143044628","16","[[[""img/mask61.png""],[""img/mask7.png""],[""img/mask5.png""],[""img/mask7.png""],[""img/mask79.png""],[""img/mask24.png""],[""img/mask12.png""],[""img/mask95.png""],[""img/mask49.png""],[""img/mask52.png""],[""img/mask64.png""],[""img/mask65.png""],[""img/mask25.png""],[""img/mask86.png""],[""img/mask24.png""],[""img/mask74.png""],[""img/mask51.png""],[""img/mask57.png""],[""img/mask100.png""],[""img/mask57.png""],[""img/mask96.png""],[""img/mask95.png""],[""img/mask32.png""],[""img/mask100.png""],[""img/mask51.png""],[""img/mask24.png""],[""img/mask64.png""],[""img/mask17.png""],[""img/mask57.png""],[""img/mask53.png""],[""img/mask78.png""],[""img/mask52.png""],[""img/mask75.png""],[""img/mask88.png""],[""img/mask5.png""],[""img/mask29.png""]]]","","[24,34,21,10,11,7,9,6,27,17,5,18,20,25,32,23,31,2,16,26,12,22,13,30,35,29,14,15,33,28,0,4,1,19,3,8]","main","292","many-guess-6"
"","","","","","html-keyboard-response","26","115302","0.0-10.0-1.3","5d4a41890e604c00011ade8b","640759fa512f630a2bdc333d","640785d078ed9db654f1b431","null","","null","","","","","","","","","","","","","","","","","","","fixation","",""
"","","","","","many-guess-6","27","118621","0.0-10.0-0.4-0.4","5d4a41890e604c00011ade8b","640759fa512f630a2bdc333d","640785d078ed9db654f1b431","[1750.7999999523163]","","","[17,13,10,11,33,7,1,6,22,15,28,24,23,35,9,34,27,26,18,30,4,20,12,5,25,31,2,0,32,21,14,16,3,19,29,8]","[255,325,126,76,46,116,155,215,195,66,96,135,165,235,265,6,185,56,295,86,345,275,225,285,205,245,106,355,145,175,305,26,335,315,16,36]","255","50","119.88269165820587","[119.88269165820587]","[69.88269165820587]","[68]","[210,30,300,120,120,300,120,120,210]","0","36","0","149.68300004767661","16.930000143052894","16","[[[""img/mask33.png""],[""img/mask82.png""],[""img/mask60.png""],[""img/mask7.png""],[""img/mask15.png""],[""img/mask81.png""],[""img/mask70.png""],[""img/mask74.png""],[""img/mask37.png""],[""img/mask14.png""],[""img/mask75.png""],[""img/mask39.png""],[""img/mask57.png""],[""img/mask10.png""],[""img/mask85.png""],[""img/mask94.png""],[""img/mask18.png""],[""img/mask100.png""],[""img/mask24.png""],[""img/mask84.png""],[""img/mask46.png""],[""img/mask8.png""],[""img/mask4.png""],[""img/mask25.png""],[""img/mask84.png""],[""img/mask45.png""],[""img/mask73.png""],[""img/mask18.png""],[""img/mask88.png""],[""img/mask92.png""],[""img/mask6.png""],[""img/mask91.png""],[""img/mask55.png""],[""img/mask4.png""],[""img/mask91.png""],[""img/mask49.png""]]]","","[17,13,10,11,33,7,1,6,22,15,28,24,23,35,9,34,27,26,18,30,4,20,12,5,25,31,2,0,32,21,14,16,3,19,29,8]","main","50","many-guess-6"
"","","","","","html-keyboard-response","28","119123","0.0-10.0-1.4","5d4a41890e604c00011ade8b","640759fa512f630a2bdc333d","640785d078ed9db654f1b431","null","","null","","","","","","","","","","","","","","","","","","","fixation","",""
"","","","","","color-precision2","29","122223","0.0-10.0-0.5-0.5","5d4a41890e604c00011ade8b","640759fa512f630a2bdc333d","640785d078ed9db654f1b431","[635.4000000953674]","","","[0]","[243]","243","166","59.05317339906613","[59.05317339906613]","[253.05317339906614]","[251]","0","0","1","0","148.99100019074103","1001.4839999999967","1000","[[[""img/mask7.png""]]]","","","main","166","color-precision2"
"","","","","","html-keyboard-response","30","122724","0.0-10.0-1.5","5d4a41890e604c00011ade8b","640759fa512f630a2bdc333d","640785d078ed9db654f1b431","null","","null","","","","","","","","","","","","","","","","","","","fixation","",""
"","","","","","color-precision2","31","126474","0.0-10.0-0.6-0.6","5d4a41890e604c00011ade8b","640759fa512f630a2bdc333d","640785d078ed9db654f1b431","[1152.7999999523163]","","","[23]","[339]","339","322","312.4958494619218","[312.4958494619218]","[350.4958494619218]","[350]","0","0","1","0","148.32900009537116","1000.5540001907357","1000","[[[""img/mask16.png""]]]","","","main","322","color-precision2"
"","","","","","html-keyboard-response","32","126975","0.0-10.0-1.6","5d4a41890e604c00011ade8b","640759fa512f630a2bdc333d","640785d078ed9db654f1b431","null","","null","","","","","","","","","","","","","","","","","","","fixation","",""
"","","","","","color-precision2","33","131509","0.0-10.0-0.7-0.7","5d4a41890e604c00011ade8b","640759fa512f630a2bdc333d","640785d078ed9db654f1b431","[704]","","","[0]","[29]","29","171","204.47003226225544","[204.47003226225544]","[33.470032262255444]","[33]","0","0","1","0","149.70800019073067","1006.6039999999921","1000","[[[""img/mask92.png""]]]","","","main","171","color-precision2"
"","","","","","html-keyboard-response","34","132011","0.0-10.0-1.7","5d4a41890e604c00011ade8b","640759fa512f630a2bdc333d","640785d078ed9db654f1b431","null","","null","","","","","","","","","","","","","","","","","","","fixation","",""
"","","","","","color-precision2","35","135924","0.0-10.0-0.8-0.8","5d4a41890e604c00011ade8b","640759fa512f630a2bdc333d","640785d078ed9db654f1b431","[1136.7999999523163]","","","[15]","[97]","97","45","146.09140915125693","[146.09140915125693]","[101.09140915125693]","[99]","0","0","1","0","149.50300009537023","993.7180000476947","1000","[[[""img/mask79.png""]]]","","","main","45","color-precision2"
"","","","","","html-keyboard-response","36","136440","0.0-10.0-1.8","5d4a41890e604c00011ade8b","640759fa512f630a2bdc333d","640785d078ed9db654f1b431","null","","null","","","","","","","","","","","","","","","","","","","fixation","",""
"","","","","","color-precision2","37","140362","0.0-10.0-0.9-0.9","5d4a41890e604c00011ade8b","640759fa512f630a2bdc333d","640785d078ed9db654f1b431","[891.1000001430511]","","","[28]","[196]","196","226","48.00656452596297","[48.00656452596297]","[182.00656452596297]","[180]","0","0","1","0","149.05600014305674","1006.1830000953632","1000","[[[""img/mask73.png""]]]","","","main","226","color-precision2"
"","","","","","html-keyboard-response","38","140872","0.0-10.0-1.9","5d4a41890e604c00011ade8b","640759fa512f630a2bdc333d","640785d078ed9db654f1b431","null","","null","","","","","","","","","","","","","","","","","","","fixation","",""
"","","","","","color-precision2","39","144834","0.0-10.0-0.10-0.10","5d4a41890e604c00011ade8b","640759fa512f630a2bdc333d","640785d078ed9db654f1b431","[796.7000000476837]","","","[16]","[195]","195","300","119.48247180378038","[119.48247180378038]","[179.48247180378038]","[178]","0","0","1","0","148.03100009536138","994.5550001430383","1000","[[[""img/mask67.png""]]]","","","main","300","color-precision2"
"","","","","","html-keyboard-response","40","145335","0.0-10.0-1.10","5d4a41890e604c00011ade8b","640759fa512f630a2bdc333d","640785d078ed9db654f1b431","null","","null","","","","","","","","","","","","","","","","","","","fixation","",""
"","","","","","color-precision2","41","149368","0.0-10.0-0.11-0.11","5d4a41890e604c00011ade8b","640759fa512f630a2bdc333d","640785d078ed9db654f1b431","[1247.6000001430511]","","","[12]","[156]","156","108","284.05102470707305","[284.05102470707305]","[176.05102470707305]","[176]","0","0","1","0","149.47299999999814","1004.30799999999","1000","[[[""img/mask61.png""]]]","","","main","108","color-precision2"
"","","","","","html-keyboard-response","42","149870","0.0-10.0-1.11","5d4a41890e604c00011ade8b","640759fa512f630a2bdc333d","640785d078ed9db654f1b431","null","","null","","","","","","","","","","","","","","","","","","","fixation","",""
"","","","","","many-guess-6","43","152740","0.0-10.0-0.12-0.12","5d4a41890e604c00011ade8b","640759fa512f630a2bdc333d","640785d078ed9db654f1b431","[1369.7999999523163]","","","[9,23,31,30,32,3,25,27,33,19,29,1,22,16,15,5,4,24,21,20,17,14,8,7,0,13,11,12,18,2,10,35,28,6,34,26]","[4,34,254,44,174,194,204,24,234,244,54,264,134,324,144,304,334,353,344,94,294,284,214,154,14,224,184,84,274,164,314,64,114,124,104,74]","4","83","8.192626158593688","[8.192626158593688]","[285.19262615859367]","[284]","[120,300,30,120,30,30,210,30,30]","0","36","0","149.3630001907295","24.80000009536161","16","[[[""img/mask96.png""],[""img/mask46.png""],[""img/mask79.png""],[""img/mask29.png""],[""img/mask10.png""],[""img/mask32.png""],[""img/mask2.png""],[""img/mask49.png""],[""img/mask38.png""],[""img/mask66.png""],[""img/mask97.png""],[""img/mask82.png""],[""img/mask97.png""],[""img/mask75.png""],[""img/mask48.png""],[""img/mask15.png""],[""img/mask69.png""],[""img/mask64.png""],[""img/mask42.png""],[""img/mask41.png""],[""img/mask87.png""],[""img/mask10.png""],[""img/mask76.png""],[""img/mask26.png""],[""img/mask15.png""],[""img/mask100.png""],[""img/mask54.png""],[""img/mask59.png""],[""img/mask52.png""],[""img/mask90.png""],[""img/mask58.png""],[""img/mask37.png""],[""img/mask100.png""],[""img/mask20.png""],[""img/mask77.png""],[""img/mask36.png""]]]","","[9,23,31,30,32,3,25,27,33,19,29,1,22,16,15,5,4,24,21,20,17,14,8,7,0,13,11,12,18,2,10,35,28,6,34,26]","main","83","many-guess-6"
"","","","","","html-keyboard-response","44","153246","0.0-10.0-1.12","5d4a41890e604c00011ade8b","640759fa512f630a2bdc333d","640785d078ed9db654f1b431","null","","null","","","","","","","","","","","","","","","","","","","fixation","",""
"","","","","","many-guess-6","45","156378","0.0-10.0-0.13-0.13","5d4a41890e604c00011ade8b","640759fa512f630a2bdc333d","640785d078ed9db654f1b431","[1340.9000000953674]","","","[21,6,30,9,7,24,35,22,8,3,26,1,19,28,34,33,12,27,4,0,13,2,29,14,10,20,31,11,25,18,16,15,5,17,23,32]","[225,175,155,45,294,145,265,25,165,135,324,65,284,215,354,115,205,235,5,95,185,35,195,105,55,314,304,344,85,75,275,334,15,125,245,255]","225","277","195.82915221953218","[195.82915221953218]","[278.82915221953215]","[279]","[300,30,120,120,30,30,210,120,120]","0","36","0","149.5730000953772","13.917000095359981","16","[[[""img/mask82.png""],[""img/mask9.png""],[""img/mask73.png""],[""img/mask50.png""],[""img/mask31.png""],[""img/mask10.png""],[""img/mask90.png""],[""img/mask12.png""],[""img/mask9.png""],[""img/mask57.png""],[""img/mask44.png""],[""img/mask94.png""],[""img/mask23.png""],[""img/mask43.png""],[""img/mask83.png""],[""img/mask5.png""],[""img/mask58.png""],[""img/mask45.png""],[""img/mask27.png""],[""img/mask6.png""],[""img/mask74.png""],[""img/mask15.png""],[""img/mask21.png""],[""img/mask2.png""],[""img/mask31.png""],[""img/mask33.png""],[""img/mask96.png""],[""img/mask100.png""],[""img/mask58.png""],[""img/mask63.png""],[""img/mask61.png""],[""img/mask31.png""],[""img/mask86.png""],[""img/mask55.png""],[""img/mask97.png""],[""img/mask27.png""]]]","","[21,6,30,9,7,24,35,22,8,3,26,1,19,28,34,33,12,27,4,0,13,2,29,14,10,20,31,11,25,18,16,15,5,17,23,32]","main","277","many-guess-6"
"","","","","","html-keyboard-response","46","156880","0.0-10.0-1.13","5d4a41890e604c00011ade8b","640759fa512f630a2bdc333d","640785d078ed9db654f1b431","null","","null","","","","","","","","","","","","","","","","","","","fixation","",""
"","","","","","color-precision2","47","160012","0.0-10.0-0.14-0.14","5d4a41890e604c00011ade8b","640759fa512f630a2bdc333d","640785d078ed9db654f1b431","[641.2999999523163]","","","[18]","[82]","82","82","160.05848578151767","[160.05848578151767]","[78.05848578151767]","[77]","0","0","1","0","148.39600009538117","1005.4260001430521","1000","[[[""img/mask77.png""]]]","","","main","82","color-precision2"
"","","","","","html-keyboard-response","48","160513","0.0-10.0-1.14","5d4a41890e604c00011ade8b","640759fa512f630a2bdc333d","640785d078ed9db654f1b431","null","","null","","","","","","","","","","","","","","","","","","","fixation","",""
"","","","","","color-precision2","49","163864","0.0-10.0-0.15-0.15","5d4a41890e604c00011ade8b","640759fa512f630a2bdc333d","640785d078ed9db654f1b431","[1027.5]","","","[17]","[267]","267","44","317.2044750900724","[317.2044750900724]","[273.2044750900724]","[273]","0","0","1","0","149.17499999998836","992.4340000953816","1000","[[[""img/mask50.png""]]]","","","main","44","color-precision2"
"","","","","","html-keyboard-response","50","164366","0.0-10.0-1.15","5d4a41890e604c00011ade8b","640759fa512f630a2bdc333d","640785d078ed9db654f1b431","null","","null","","","","","","","","","","","","","","","","","","","fixation","",""
"","","","","","many-guess-6","51","169591","0.0-10.0-0.16-0.16","5d4a41890e604c00011ade8b","640759fa512f630a2bdc333d","640785d078ed9db654f1b431","[1571]","","","[27,20,10,19,18,2,6,13,7,17,5,4,29,16,30,11,14,33,25,28,15,34,23,21,3,0,22,24,8,12,1,31,26,35,32,9]","[201,191,21,341,181,41,71,211,131,231,81,11,271,1,31,151,261,121,291,321,331,161,311,51,91,251,281,141,111,101,221,171,241,301,61,350]","201","62","10.971762314403488","[10.971762314403488]","[308.97176231440346]","[308]","[300,300,30,210,30,210,120,120,120]","0","36","0","149.32300019072136","11.5540000476758","16","[[[""img/mask94.png""],[""img/mask39.png""],[""img/mask19.png""],[""img/mask25.png""],[""img/mask40.png""],[""img/mask78.png""],[""img/mask37.png""],[""img/mask83.png""],[""img/mask22.png""],[""img/mask19.png""],[""img/mask77.png""],[""img/mask85.png""],[""img/mask79.png""],[""img/mask87.png""],[""img/mask30.png""],[""img/mask20.png""],[""img/mask53.png""],[""img/mask51.png""],[""img/mask73.png""],[""img/mask72.png""],[""img/mask13.png""],[""img/mask99.png""],[""img/mask88.png""],[""img/mask90.png""],[""img/mask72.png""],[""img/mask28.png""],[""img/mask56.png""],[""img/mask21.png""],[""img/mask54.png""],[""img/mask53.png""],[""img/mask30.png""],[""img/mask55.png""],[""img/mask90.png""],[""img/mask95.png""],[""img/mask87.png""],[""img/mask42.png""]]]","","[27,20,10,19,18,2,6,13,7,17,5,4,29,16,30,11,14,33,25,28,15,34,23,21,3,0,22,24,8,12,1,31,26,35,32,9]","main","62","many-guess-6"
"","","","","","html-keyboard-response","52","170093","0.0-10.0-1.16","5d4a41890e604c00011ade8b","640759fa512f630a2bdc333d","640785d078ed9db654f1b431","null","","null","","","","","","","","","","","","","","","","","","","fixation","",""
"","","","","","color-precision2","53","174285","0.0-10.0-0.17-0.17","5d4a41890e604c00011ade8b","640759fa512f630a2bdc333d","640785d078ed9db654f1b431","[1214.2999999523163]","","","[16]","[255]","255","290","198.51538714250202","[198.51538714250202]","[268.51538714250205]","[268]","0","0","1","0","148.61900014305138","996.4890001430467","1000","[[[""img/mask21.png""]]]","","","main","290","color-precision2"
"","","","","","html-keyboard-response","54","174786","0.0-10.0-1.17","5d4a41890e604c00011ade8b","640759fa512f630a2bdc333d","640785d078ed9db654f1b431","null","","null","","","","","","","","","","","","","","","","","","","fixation","",""
"","","","","","color-precision2","55","180914","0.0-10.0-0.18-0.18","5d4a41890e604c00011ade8b","640759fa512f630a2bdc333d","640785d078ed9db654f1b431","[3742.2999999523163]","","","[29]","[26]","26","81","128.0717638609887","[128.0717638609887]","[47.07176386098871]","[45]","0","0","1","0","149.2240000476886","1006.2430001907342","1000","[[[""img/mask1.png""]]]","","","main","81","color-precision2"
"","","","","","html-keyboard-response","56","181415","0.0-10.0-1.18","5d4a41890e604c00011ade8b","640759fa512f630a2bdc333d","640785d078ed9db654f1b431","null","","null","","","","","","","","","","","","","","","","","","","fixation","",""
"","","","","","many-guess-6","57","184406","0.0-10.0-0.19-0.19","5d4a41890e604c00011ade8b","640759fa512f630a2bdc333d","640785d078ed9db654f1b431","[1335]","","","[13,20,24,11,19,26,30,5,14,9,32,10,3,7,28,8,31,17,18,15,12,25,35,6,22,27,2,23,0,4,34,33,16,1,21,29]","[265,355,165,205,135,325,315,285,175,335,305,46,6,105,275,56,155,125,26,195,235,295,36,115,255,95,215,225,16,145,345,185,66,86,76,245]","265","211","346.88439902157364","[346.88439902157364]","[135.88439902157364]","[135]","[30,300,120,210,30,210,30,120,210]","0","36","0","149.47400009536068","13.156000047689304","16","[[[""img/mask98.png""],[""img/mask58.png""],[""img/mask87.png""],[""img/mask97.png""],[""img/mask30.png""],[""img/mask28.png""],[""img/mask87.png""],[""img/mask68.png""],[""img/mask1.png""],[""img/mask71.png""],[""img/mask93.png""],[""img/mask45.png""],[""img/mask81.png""],[""img/mask41.png""],[""img/mask7.png""],[""img/mask75.png""],[""img/mask50.png""],[""img/mask23.png""],[""img/mask60.png""],[""img/mask85.png""],[""img/mask44.png""],[""img/mask13.png""],[""img/mask53.png""],[""img/mask43.png""],[""img/mask32.png""],[""img/mask32.png""],[""img/mask34.png""],[""img/mask49.png""],[""img/mask91.png""],[""img/mask54.png""],[""img/mask100.png""],[""img/mask96.png""],[""img/mask30.png""],[""img/mask35.png""],[""img/mask3.png""],[""img/mask40.png""]]]","","[13,20,24,11,19,26,30,5,14,9,32,10,3,7,28,8,31,17,18,15,12,25,35,6,22,27,2,23,0,4,34,33,16,1,21,29]","main","211","many-guess-6"
"","","","","","html-keyboard-response","58","188764","0.0-10.0-1.19","5d4a41890e604c00011ade8b","640759fa512f630a2bdc333d","640785d078ed9db654f1b431","4357.299999952316","Wow! You've completed 20 out of 180 trials! </p> <p>  </p><p> Take a quick break, then press any key when you're ready to continue.","m","","","","","","","","","","","","","","","","","","","fixation","",""
"","","","","","many-guess-6","59","193313","0.0-10.0-0.20-0.20","5d4a41890e604c00011ade8b","640759fa512f630a2bdc333d","640785d078ed9db654f1b431","[2041.0999999046326]","","","[30,1,17,27,6,23,16,8,21,33,0,10,7,4,22,31,24,35,20,29,5,26,12,14,11,2,25,18,19,28,9,3,32,34,15,13]","[18,307,277,207,77,107,157,327,117,187,87,37,227,57,177,247,317,217,47,297,67,8,197,127,97,137,347,147,357,167,287,27,237,267,337,257]","18","43","72.1663593209275","[72.1663593209275]","[29.166359320927498]","[27]","[300,30,120,120,120,30,300,120,120]","0","36","0","149.40500019074534","26.802000095369294","16","[[[""img/mask78.png""],[""img/mask19.png""],[""img/mask4.png""],[""img/mask61.png""],[""img/mask17.png""],[""img/mask90.png""],[""img/mask55.png""],[""img/mask91.png""],[""img/mask90.png""],[""img/mask98.png""],[""img/mask58.png""],[""img/mask33.png""],[""img/mask62.png""],[""img/mask21.png""],[""img/mask6.png""],[""img/mask7.png""],[""img/mask16.png""],[""img/mask87.png""],[""img/mask89.png""],[""img/mask22.png""],[""img/mask29.png""],[""img/mask57.png""],[""img/mask64.png""],[""img/mask99.png""],[""img/mask10.png""],[""img/mask8.png""],[""img/mask33.png""],[""img/mask3.png""],[""img/mask11.png""],[""img/mask87.png""],[""img/mask4.png""],[""img/mask6.png""],[""img/mask60.png""],[""img/mask90.png""],[""img/mask3.png""],[""img/mask11.png""]]]","","[30,1,17,27,6,23,16,8,21,33,0,10,7,4,22,31,24,35,20,29,5,26,12,14,11,2,25,18,19,28,9,3,32,34,15,13]","main","43","many-guess-6"
"","","","","","html-keyboard-response","60","193815","0.0-10.0-1.20","5d4a41890e604c00011ade8b","640759fa512f630a2bdc333d","640785d078ed9db654f1b431","null","","null","","","","","","","","","","","","","","","","","","","fixation","",""
"","","","","","many-guess-6","61","196630","0.0-10.0-0.21-0.21","5d4a41890e604c00011ade8b","640759fa512f630a2bdc333d","640785d078ed9db654f1b431","[1241.7000000476837]","","","[12,22,8,30,23,7,10,1,14,29,24,16,3,19,31,21,27,11,28,9,20,0,26,34,33,15,25,13,4,2,17,32,6,18,35,5]","[151,121,141,21,61,211,1,161,111,271,301,321,231,251,181,51,131,11,171,311,101,221,81,91,31,191,291,41,341,351,241,261,281,71,331,201]","151","49","0.4224659282058582","[0.4224659282058582]","[311.42246592820584]","[311]","[30,210,300,300,300,210,210,30,210]","0","36","0","149.7000000953558","23.83700004767161","16","[[[""img/mask37.png""],[""img/mask18.png""],[""img/mask88.png""],[""img/mask68.png""],[""img/mask1.png""],[""img/mask60.png""],[""img/mask9.png""],[""img/mask88.png""],[""img/mask21.png""],[""img/mask35.png""],[""img/mask89.png""],[""img/mask68.png""],[""img/mask39.png""],[""img/mask94.png""],[""img/mask89.png""],[""img/mask23.png""],[""img/mask41.png""],[""img/mask94.png""],[""img/mask77.png""],[""img/mask79.png""],[""img/mask85.png""],[""img/mask52.png""],[""img/mask80.png""],[""img/mask46.png""],[""img/mask49.png""],[""img/mask62.png""],[""img/mask25.png""],[""img/mask100.png""],[""img/mask77.png""],[""img/mask57.png""],[""img/mask4.png""],[""img/mask9.png""],[""img/mask2.png""],[""img/mask20.png""],[""img/mask16.png""],[""img/mask34.png""]]]","","[12,22,8,30,23,7,10,1,14,29,24,16,3,19,31,21,27,11,28,9,20,0,26,34,33,15,25,13,4,2,17,32,6,18,35,5]","main","49","many-guess-6"
"","","","","","html-keyboard-response","62","197131","0.0-10.0-1.21","5d4a41890e604c00011ade8b","640759fa512f630a2bdc333d","640785d078ed9db654f1b431","null","","null","","","","","","","","","","","","","","","","","","","fixation","",""
"","","","","","color-precision2","63","200175","0.0-10.0-0.22-0.22","5d4a41890e604c00011ade8b","640759fa512f630a2bdc333d","640785d078ed9db654f1b431","[737.2999999523163]","","","[9]","[286]","286","208","116.64457337377864","[116.64457337377864]","[268.64457337377866]","[267]","0","0","1","0","149.21500009536976","1003.2760000476846","1000","[[[""img/mask72.png""]]]","","","main","208","color-precision2"
"","","","","","html-keyboard-response","64","200677","0.0-10.0-1.22","5d4a41890e604c00011ade8b","640759fa512f630a2bdc333d","640785d078ed9db654f1b431","null","","null","","","","","","","","","","","","","","","","","","","fixation","",""
"","","","","","many-guess-6","65","203547","0.0-10.0-0.23-0.23","5d4a41890e604c00011ade8b","640759fa512f630a2bdc333d","640785d078ed9db654f1b431","[1359]","","","[8,16,1,24,13,22,18,2,6,7,19,11,32,5,31,33,25,23,35,9,27,10,4,30,34,0,12,21,29,20,14,26,15,28,3,17]","[80,170,60,20,269,190,30,10,309,239,140,210,160,50,130,150,279,229,219,120,359,70,110,349,249,100,259,200,40,339,289,90,299,329,319,180]","80","226","23.039738988995964","[23.039738988995964]","[157.03973898899596]","[156]","[210,300,300,300,300,210,30,30,210]","0","36","0","149.48100004767184","14.887000047689071","16","[[[""img/mask84.png""],[""img/mask27.png""],[""img/mask73.png""],[""img/mask78.png""],[""img/mask32.png""],[""img/mask3.png""],[""img/mask21.png""],[""img/mask10.png""],[""img/mask63.png""],[""img/mask84.png""],[""img/mask46.png""],[""img/mask54.png""],[""img/mask9.png""],[""img/mask94.png""],[""img/mask28.png""],[""img/mask48.png""],[""img/mask87.png""],[""img/mask57.png""],[""img/mask10.png""],[""img/mask42.png""],[""img/mask24.png""],[""img/mask70.png""],[""img/mask75.png""],[""img/mask22.png""],[""img/mask55.png""],[""img/mask37.png""],[""img/mask1.png""],[""img/mask36.png""],[""img/mask89.png""],[""img/mask22.png""],[""img/mask36.png""],[""img/mask66.png""],[""img/mask66.png""],[""img/mask77.png""],[""img/mask52.png""],[""img/mask97.png""]]]","","[8,16,1,24,13,22,18,2,6,7,19,11,32,5,31,33,25,23,35,9,27,10,4,30,34,0,12,21,29,20,14,26,15,28,3,17]","main","226","many-guess-6"
"","","","","","html-keyboard-response","66","204049","0.0-10.0-1.23","5d4a41890e604c00011ade8b","640759fa512f630a2bdc333d","640785d078ed9db654f1b431","null","","null","","","","","","","","","","","","","","","","","","","fixation","",""
"","","","","","color-precision2","67","207061","0.0-10.0-0.24-0.24","5d4a41890e604c00011ade8b","640759fa512f630a2bdc333d","640785d078ed9db654f1b431","[555.7000000476837]","","","[27]","[305]","305","265","203.4963499795112","[203.4963499795112]","[298.4963499795112]","[298]","0","0","1","0","149.215000190743","997.081000190723","1000","[[[""img/mask62.png""]]]","","","main","265","color-precision2"
"","","","","","html-keyboard-response","68","207571","0.0-10.0-1.24","5d4a41890e604c00011ade8b","640759fa512f630a2bdc333d","640785d078ed9db654f1b431","null","","null","","","","","","","","","","","","","","","","","","","fixation","",""
"","","","","","many-guess-6","69","210486","0.0-10.0-0.25-0.25","5d4a41890e604c00011ade8b","640759fa512f630a2bdc333d","640785d078ed9db654f1b431","[1498.2000000476837]","","","[21,20,2,1,33,31,22,10,23,3,0,26,35,9,5,29,19,15,32,17,18,8,16,6,12,13,7,28,11,4,30,14,25,34,27,24]","[211,231,300,41,260,280,201,340,21,61,250,81,310,290,320,151,1,181,240,221,191,71,171,91,350,131,101,111,330,121,11,141,51,31,270,161]","211","26","358.5638101386074","[358.5638101386074]","[332.5638101386074]","[332]","[120,120,30,30,210,120,30,120,300]","0","36","0","149.5790001907444","10.103999999992084","16","[[[""img/mask69.png""],[""img/mask75.png""],[""img/mask29.png""],[""img/mask3.png""],[""img/mask74.png""],[""img/mask22.png""],[""img/mask83.png""],[""img/mask47.png""],[""img/mask58.png""],[""img/mask2.png""],[""img/mask99.png""],[""img/mask7.png""],[""img/mask9.png""],[""img/mask89.png""],[""img/mask45.png""],[""img/mask3.png""],[""img/mask3.png""],[""img/mask53.png""],[""img/mask52.png""],[""img/mask78.png""],[""img/mask73.png""],[""img/mask41.png""],[""img/mask100.png""],[""img/mask95.png""],[""img/mask27.png""],[""img/mask63.png""],[""img/mask41.png""],[""img/mask76.png""],[""img/mask96.png""],[""img/mask3.png""],[""img/mask89.png""],[""img/mask60.png""],[""img/mask49.png""],[""img/mask90.png""],[""img/mask79.png""],[""img/mask2.png""]]]","","[21,20,2,1,33,31,22,10,23,3,0,26,35,9,5,29,19,15,32,17,18,8,16,6,12,13,7,28,11,4,30,14,25,34,27,24]","main","26","many-guess-6"
"","","","","","html-keyboard-response","70","210988","0.0-10.0-1.25","5d4a41890e604c00011ade8b","640759fa512f630a2bdc333d","640785d078ed9db654f1b431","null","","null","","","","","","","","","","","","","","","","","","","fixation","",""
"","","","","","many-guess-6","71","215079","0.0-10.0-0.26-0.26","5d4a41890e604c00011ade8b","640759fa512f630a2bdc333d","640785d078ed9db654f1b431","[2141.7000000476837]","","","[15,8,29,10,5,23,16,19,4,18,6,35,27,14,22,1,32,3,26,0,33,31,28,13,34,11,2,24,30,7,25,21,12,20,9,17]","[314,14,353,304,114,94,54,194,44,234,164,24,134,224,294,34,343,333,274,124,104,84,184,204,284,214,4,323,74,244,174,144,64,154,264,254]","314","11","294.96465642545525","[294.96465642545525]","[283.96465642545525]","[284]","[120,30,210,300,210,30,210,30,120]","0","36","0","149.47700004768558","10.862000047694892","16","[[[""img/mask36.png""],[""img/mask10.png""],[""img/mask88.png""],[""img/mask67.png""],[""img/mask28.png""],[""img/mask99.png""],[""img/mask64.png""],[""img/mask20.png""],[""img/mask18.png""],[""img/mask8.png""],[""img/mask72.png""],[""img/mask45.png""],[""img/mask90.png""],[""img/mask53.png""],[""img/mask62.png""],[""img/mask32.png""],[""img/mask76.png""],[""img/mask74.png""],[""img/mask86.png""],[""img/mask90.png""],[""img/mask28.png""],[""img/mask15.png""],[""img/mask42.png""],[""img/mask32.png""],[""img/mask66.png""],[""img/mask92.png""],[""img/mask25.png""],[""img/mask95.png""],[""img/mask90.png""],[""img/mask93.png""],[""img/mask50.png""],[""img/mask10.png""],[""img/mask92.png""],[""img/mask7.png""],[""img/mask15.png""],[""img/mask52.png""]]]","","[15,8,29,10,5,23,16,19,4,18,6,35,27,14,22,1,32,3,26,0,33,31,28,13,34,11,2,24,30,7,25,21,12,20,9,17]","main","11","many-guess-6"
"","","","","","html-keyboard-response","72","215581","0.0-10.0-1.26","5d4a41890e604c00011ade8b","640759fa512f630a2bdc333d","640785d078ed9db654f1b431","null","","null","","","","","","","","","","","","","","","","","","","fixation","",""
"","","","","","many-guess-6","73","218208","0.0-10.0-0.27-0.27","5d4a41890e604c00011ade8b","640759fa512f630a2bdc333d","640785d078ed9db654f1b431","[1219.7999999523163]","","","[13,0,15,34,3,18,1,25,21,8,11,14,23,12,27,24,20,6,35,4,19,29,16,30,7,26,33,32,5,31,9,28,22,10,2,17]","[251,162,82,201,221,22,72,231,241,92,12,152,281,271,191,261,2,32,42,122,341,102,132,351,142,52,301,311,172,181,291,211,112,321,331,62]","251","25","350.03843627196244","[350.03843627196244]","[325.03843627196244]","[324]","[300,210,30,30,300,120,30,30,210]","0","36","0","149.47800004767487","10.316000047692796","16","[[[""img/mask74.png""],[""img/mask9.png""],[""img/mask66.png""],[""img/mask56.png""],[""img/mask11.png""],[""img/mask99.png""],[""img/mask91.png""],[""img/mask9.png""],[""img/mask89.png""],[""img/mask85.png""],[""img/mask52.png""],[""img/mask19.png""],[""img/mask4.png""],[""img/mask53.png""],[""img/mask64.png""],[""img/mask28.png""],[""img/mask79.png""],[""img/mask71.png""],[""img/mask27.png""],[""img/mask37.png""],[""img/mask11.png""],[""img/mask47.png""],[""img/mask54.png""],[""img/mask78.png""],[""img/mask59.png""],[""img/mask38.png""],[""img/mask15.png""],[""img/mask24.png""],[""img/mask32.png""],[""img/mask29.png""],[""img/mask94.png""],[""img/mask9.png""],[""img/mask11.png""],[""img/mask9.png""],[""img/mask10.png""],[""img/mask7.png""]]]","","[13,0,15,34,3,18,1,25,21,8,11,14,23,12,27,24,20,6,35,4,19,29,16,30,7,26,33,32,5,31,9,28,22,10,2,17]","main","25","many-guess-6"
"","","","","","html-keyboard-response","74","218710","0.0-10.0-1.27","5d4a41890e604c00011ade8b","640759fa512f630a2bdc333d","640785d078ed9db654f1b431","null","","null","","","","","","","","","","","","","","","","","","","fixation","",""
"","","","","","many-guess-6","75","222151","0.0-10.0-0.28-0.28","5d4a41890e604c00011ade8b","640759fa512f630a2bdc333d","640785d078ed9db654f1b431","[2013.4000000953674]","","","[21,33,16,22,8,5,25,32,11,29,28,18,27,30,24,9,14,26,0,31,13,12,20,7,4,23,34,35,10,6,2,15,17,19,1,3]","[25,75,145,205,235,175,165,195,215,225,325,295,335,305,285,275,345,15,125,185,105,265,45,245,35,65,135,6,155,255,315,115,355,55,85,95]","25","188","228.07975720552903","[228.07975720552903]","[40.079757205529035]","[40]","[210,210,30,120,30,120,120,120,30]","0","36","0","149.7670000953658","20.803000143059762","16","[[[""img/mask34.png""],[""img/mask61.png""],[""img/mask88.png""],[""img/mask78.png""],[""img/mask90.png""],[""img/mask26.png""],[""img/mask100.png""],[""img/mask52.png""],[""img/mask31.png""],[""img/mask50.png""],[""img/mask84.png""],[""img/mask12.png""],[""img/mask3.png""],[""img/mask36.png""],[""img/mask60.png""],[""img/mask54.png""],[""img/mask7.png""],[""img/mask27.png""],[""img/mask62.png""],[""img/mask28.png""],[""img/mask65.png""],[""img/mask31.png""],[""img/mask69.png""],[""img/mask65.png""],[""img/mask88.png""],[""img/mask3.png""],[""img/mask4.png""],[""img/mask71.png""],[""img/mask77.png""],[""img/mask2.png""],[""img/mask8.png""],[""img/mask21.png""],[""img/mask5.png""],[""img/mask72.png""],[""img/mask97.png""],[""img/mask79.png""]]]","","[21,33,16,22,8,5,25,32,11,29,28,18,27,30,24,9,14,26,0,31,13,12,20,7,4,23,34,35,10,6,2,15,17,19,1,3]","main","188","many-guess-6"
"","","","","","html-keyboard-response","76","222654","0.0-10.0-1.28","5d4a41890e604c00011ade8b","640759fa512f630a2bdc333d","640785d078ed9db654f1b431","null","","null","","","","","","","","","","","","","","","","","","","fixation","",""
"","","","","","many-guess-6","77","225630","0.0-10.0-0.29-0.29","5d4a41890e604c00011ade8b","640759fa512f630a2bdc333d","640785d078ed9db654f1b431","[1393]","","","[8,4,6,1,32,18,15,26,20,30,3,7,22,24,0,2,34,21,19,25,10,11,17,27,23,28,13,29,16,35,5,9,31,33,12,14]","[40,11,1,250,160,50,290,60,270,140,260,170,330,210,90,190,200,21,340,320,310,150,240,80,70,350,180,130,280,30,300,230,110,220,100,120]","40","240","131.62519432573006","[131.62519432573006]","[251.62519432573006]","[250]","[300,210,300,210,300,30,30,30,300]","0","36","0","149.40600014306256","8.953000190726016","16","[[[""img/mask29.png""],[""img/mask91.png""],[""img/mask8.png""],[""img/mask14.png""],[""img/mask83.png""],[""img/mask42.png""],[""img/mask52.png""],[""img/mask61.png""],[""img/mask5.png""],[""img/mask88.png""],[""img/mask88.png""],[""img/mask76.png""],[""img/mask55.png""],[""img/mask8.png""],[""img/mask58.png""],[""img/mask14.png""],[""img/mask7.png""],[""img/mask66.png""],[""img/mask69.png""],[""img/mask65.png""],[""img/mask3.png""],[""img/mask18.png""],[""img/mask15.png""],[""img/mask58.png""],[""img/mask53.png""],[""img/mask99.png""],[""img/mask32.png""],[""img/mask28.png""],[""img/mask59.png""],[""img/mask17.png""],[""img/mask66.png""],[""img/mask89.png""],[""img/mask36.png""],[""img/mask67.png""],[""img/mask6.png""],[""img/mask98.png""]]]","","[8,4,6,1,32,18,15,26,20,30,3,7,22,24,0,2,34,21,19,25,10,11,17,27,23,28,13,29,16,35,5,9,31,33,12,14]","main","240","many-guess-6"
"","","","","","html-keyboard-response","78","226133","0.0-10.0-1.29","5d4a41890e604c00011ade8b","640759fa512f630a2bdc333d","640785d078ed9db654f1b431","null","","null","","","","","","","","","","","","","","","","","","","fixation","",""
"","","","","","many-guess-6","79","229565","0.0-10.0-0.30-0.30","5d4a41890e604c00011ade8b","640759fa512f630a2bdc333d","640785d078ed9db654f1b431","[1328.0999999046326]","","","[23,35,32,2,26,20,27,33,29,11,0,16,6,21,3,4,19,17,24,31,22,14,25,7,15,12,8,18,1,10,5,28,30,34,9,13]","[69,218,89,288,358,9,59,79,118,39,208,188,348,158,278,49,178,128,248,308,99,238,318,109,29,198,228,138,298,268,168,19,148,328,338,258]","69","83","2.5839301246506596","[2.5839301246506596]","[279.5839301246507]","[279]","[300,210,210,120,300,300,210,210,120]","0","36","0","149.11100019072182","23.585000095365103","16","[[[""img/mask20.png""],[""img/mask41.png""],[""img/mask10.png""],[""img/mask93.png""],[""img/mask58.png""],[""img/mask26.png""],[""img/mask45.png""],[""img/mask13.png""],[""img/mask84.png""],[""img/mask52.png""],[""img/mask90.png""],[""img/mask45.png""],[""img/mask70.png""],[""img/mask32.png""],[""img/mask38.png""],[""img/mask97.png""],[""img/mask93.png""],[""img/mask82.png""],[""img/mask16.png""],[""img/mask57.png""],[""img/mask35.png""],[""img/mask3.png""],[""img/mask1.png""],[""img/mask46.png""],[""img/mask63.png""],[""img/mask19.png""],[""img/mask28.png""],[""img/mask35.png""],[""img/mask40.png""],[""img/mask50.png""],[""img/mask92.png""],[""img/mask6.png""],[""img/mask46.png""],[""img/mask67.png""],[""img/mask85.png""],[""img/mask64.png""]]]","","[23,35,32,2,26,20,27,33,29,11,0,16,6,21,3,4,19,17,24,31,22,14,25,7,15,12,8,18,1,10,5,28,30,34,9,13]","main","83","many-guess-6"
"","","","","","html-keyboard-response","80","230067","0.0-10.0-1.30","5d4a41890e604c00011ade8b","640759fa512f630a2bdc333d","640785d078ed9db654f1b431","null","","null","","","","","","","","","","","","","","","","","","","fixation","",""
"","","","","","color-precision2","81","233476","0.0-10.0-0.31-0.31","5d4a41890e604c00011ade8b","640759fa512f630a2bdc333d","640785d078ed9db654f1b431","[871.7999999523163]","","","[33]","[319]","319","263","223.01167254350491","[223.01167254350491]","[320.0116725435049]","[320]","0","0","1","0","149.70300014305394","1003.5690000476898","1000","[[[""img/mask66.png""]]]","","","main","263","color-precision2"
"","","","","","html-keyboard-response","82","233978","0.0-10.0-1.31","5d4a41890e604c00011ade8b","640759fa512f630a2bdc333d","640785d078ed9db654f1b431","null","","null","","","","","","","","","","","","","","","","","","","fixation","",""
"","","","","","color-precision2","83","237376","0.0-10.0-0.32-0.32","5d4a41890e604c00011ade8b","640759fa512f630a2bdc333d","640785d078ed9db654f1b431","[853.6000001430511]","","","[12]","[38]","38","13","47.79031613851563","[47.79031613851563]","[34.79031613851563]","[34]","0","0","1","0","149.25800014304696","1001.5109999999986","1000","[[[""img/mask37.png""]]]","","","main","13","color-precision2"
"","","","","","html-keyboard-response","84","237877","0.0-10.0-1.32","5d4a41890e604c00011ade8b","640759fa512f630a2bdc333d","640785d078ed9db654f1b431","null","","null","","","","","","","","","","","","","","","","","","","fixation","",""
"","","","","","color-precision2","85","240954","0.0-10.0-0.33-0.33","5d4a41890e604c00011ade8b","640759fa512f630a2bdc333d","640785d078ed9db654f1b431","[599.9000000953674]","","","[34]","[154]","154","8","158.64205427140655","[158.64205427140655]","[150.64205427140655]","[149]","0","0","1","0","149.39900009537814","992.8219999999856","1000","[[[""img/mask53.png""]]]","","","main","8","color-precision2"
"","","","","","html-keyboard-response","86","241455","0.0-10.0-1.33","5d4a41890e604c00011ade8b","640759fa512f630a2bdc333d","640785d078ed9db654f1b431","null","","null","","","","","","","","","","","","","","","","","","","fixation","",""
"","","","","","color-precision2","87","244745","0.0-10.0-0.34-0.34","5d4a41890e604c00011ade8b","640759fa512f630a2bdc333d","640785d078ed9db654f1b431","[474]","","","[17]","[346]","346","135","125.24688997708004","[125.24688997708004]","[350.24688997708006]","[348]","0","0","1","0","144.64500009536278","997.2900001907256","1000","[[[""img/mask45.png""]]]","","","main","135","color-precision2"
"","","","","","html-keyboard-response","88","245257","0.0-10.0-1.34","5d4a41890e604c00011ade8b","640759fa512f630a2bdc333d","640785d078ed9db654f1b431","null","","null","","","","","","","","","","","","","","","","","","","fixation","",""
"","","","","","color-precision2","89","248017","0.0-10.0-0.35-0.35","5d4a41890e604c00011ade8b","640759fa512f630a2bdc333d","640785d078ed9db654f1b431","[313.10000014305115]","","","[16]","[56]","56","73","142.78961394753603","[142.78961394753603]","[69.78961394753603]","[69]","0","0","1","0","149.24000004769186","994.666000190744","1000","[[[""img/mask33.png""]]]","","","main","73","color-precision2"
"","","","","","html-keyboard-response","90","248523","0.0-10.0-1.35","5d4a41890e604c00011ade8b","640759fa512f630a2bdc333d","640785d078ed9db654f1b431","null","","null","","","","","","","","","","","","","","","","","","","fixation","",""
"","","","","","many-guess-6","91","251366","0.0-10.0-0.36-0.36","5d4a41890e604c00011ade8b","640759fa512f630a2bdc333d","640785d078ed9db654f1b431","[1362]","","","[16,6,28,21,9,1,29,35,11,13,34,8,26,20,22,5,27,2,12,14,19,3,4,25,23,15,10,17,33,32,18,0,7,30,31,24]","[302,222,73,232,163,93,262,103,252,272,83,203,123,23,13,322,292,173,143,153,282,342,113,183,352,63,212,193,53,33,133,43,3,242,332,312]","302","118","352.6033739564421","[352.6033739564421]","[234.6033739564421]","[234]","[300,30,210,120,210,120,120,300,300]","0","36","0","149.64500014306395","22.21200019074604","16","[[[""img/mask46.png""],[""img/mask68.png""],[""img/mask10.png""],[""img/mask17.png""],[""img/mask86.png""],[""img/mask99.png""],[""img/mask2.png""],[""img/mask28.png""],[""img/mask66.png""],[""img/mask57.png""],[""img/mask37.png""],[""img/mask46.png""],[""img/mask47.png""],[""img/mask26.png""],[""img/mask71.png""],[""img/mask83.png""],[""img/mask96.png""],[""img/mask49.png""],[""img/mask11.png""],[""img/mask82.png""],[""img/mask31.png""],[""img/mask16.png""],[""img/mask11.png""],[""img/mask100.png""],[""img/mask50.png""],[""img/mask51.png""],[""img/mask53.png""],[""img/mask17.png""],[""img/mask44.png""],[""img/mask29.png""],[""img/mask53.png""],[""img/mask23.png""],[""img/mask5.png""],[""img/mask86.png""],[""img/mask19.png""],[""img/mask91.png""]]]","","[16,6,28,21,9,1,29,35,11,13,34,8,26,20,22,5,27,2,12,14,19,3,4,25,23,15,10,17,33,32,18,0,7,30,31,24]","main","118","many-guess-6"
"","","","","","html-keyboard-response","92","251868","0.0-10.0-1.36","5d4a41890e604c00011ade8b","640759fa512f630a2bdc333d","640785d078ed9db654f1b431","null","","null","","","","","","","","","","","","","","","","","","","fixation","",""
"","","","","","many-guess-6","93","254857","0.0-10.0-0.37-0.37","5d4a41890e604c00011ade8b","640759fa512f630a2bdc333d","640785d078ed9db654f1b431","[1286.1000001430511]","","","[27,12,32,9,26,14,7,19,0,28,33,6,30,5,10,13,34,18,16,31,17,35,22,4,23,2,3,25,1,29,21,8,11,24,20,15]","[243,64,124,114,193,333,164,174,213,84,14,253,353,44,154,34,203,4,74,183,323,343,223,94,24,273,104,283,134,293,54,144,233,313,263,303]","243","197","279.8525645243907","[279.8525645243907]","[82.85256452439069]","[83]","[210,300,30,30,210,30,120,30,210]","0","36","0","149.56300019074115","22.384000190737424","16","[[[""img/mask31.png""],[""img/mask32.png""],[""img/mask48.png""],[""img/mask62.png""],[""img/mask18.png""],[""img/mask34.png""],[""img/mask30.png""],[""img/mask61.png""],[""img/mask20.png""],[""img/mask74.png""],[""img/mask31.png""],[""img/mask50.png""],[""img/mask15.png""],[""img/mask63.png""],[""img/mask61.png""],[""img/mask50.png""],[""img/mask55.png""],[""img/mask32.png""],[""img/mask3.png""],[""img/mask91.png""],[""img/mask30.png""],[""img/mask9.png""],[""img/mask21.png""],[""img/mask60.png""],[""img/mask65.png""],[""img/mask77.png""],[""img/mask62.png""],[""img/mask42.png""],[""img/mask59.png""],[""img/mask15.png""],[""img/mask80.png""],[""img/mask65.png""],[""img/mask92.png""],[""img/mask6.png""],[""img/mask27.png""],[""img/mask2.png""]]]","","[27,12,32,9,26,14,7,19,0,28,33,6,30,5,10,13,34,18,16,31,17,35,22,4,23,2,3,25,1,29,21,8,11,24,20,15]","main","197","many-guess-6"
"","","","","","html-keyboard-response","94","255358","0.0-10.0-1.37","5d4a41890e604c00011ade8b","640759fa512f630a2bdc333d","640785d078ed9db654f1b431","null","","null","","","","","","","","","","","","","","","","","","","fixation","",""
"","","","","","many-guess-6","95","257974","0.0-10.0-0.38-0.38","5d4a41890e604c00011ade8b","640759fa512f630a2bdc333d","640785d078ed9db654f1b431","[1186.2000000476837]","","","[26,19,2,3,12,21,0,14,35,11,34,13,25,17,8,27,16,15,32,6,22,7,9,28,33,20,1,30,5,24,29,10,23,31,18,4]","[319,69,50,329,289,199,209,129,139,30,169,99,269,20,349,159,339,89,149,79,309,10,179,279,219,40,189,109,239,359,299,119,229,249,59,259]","319","272","60.14701888467725","[60.14701888467725]","[148.14701888467727]","[147]","[210,30,210,300,210,300,210,300,120]","0","36","0","149.3350000953651","21.517000190739054","16","[[[""img/mask69.png""],[""img/mask43.png""],[""img/mask17.png""],[""img/mask99.png""],[""img/mask39.png""],[""img/mask59.png""],[""img/mask29.png""],[""img/mask14.png""],[""img/mask14.png""],[""img/mask35.png""],[""img/mask84.png""],[""img/mask21.png""],[""img/mask11.png""],[""img/mask89.png""],[""img/mask5.png""],[""img/mask71.png""],[""img/mask87.png""],[""img/mask91.png""],[""img/mask30.png""],[""img/mask15.png""],[""img/mask73.png""],[""img/mask92.png""],[""img/mask25.png""],[""img/mask19.png""],[""img/mask76.png""],[""img/mask1.png""],[""img/mask25.png""],[""img/mask89.png""],[""img/mask85.png""],[""img/mask61.png""],[""img/mask94.png""],[""img/mask94.png""],[""img/mask89.png""],[""img/mask82.png""],[""img/mask28.png""],[""img/mask60.png""]]]","","[26,19,2,3,12,21,0,14,35,11,34,13,25,17,8,27,16,15,32,6,22,7,9,28,33,20,1,30,5,24,29,10,23,31,18,4]","main","272","many-guess-6"
"","","","","","html-keyboard-response","96","258476","0.0-10.0-1.38","5d4a41890e604c00011ade8b","640759fa512f630a2bdc333d","640785d078ed9db654f1b431","null","","null","","","","","","","","","","","","","","","","","","","fixation","",""
"","","","","","many-guess-6","97","261687","0.0-10.0-0.39-0.39","5d4a41890e604c00011ade8b","640759fa512f630a2bdc333d","640785d078ed9db654f1b431","[1149]","","","[23,27,29,33,1,7,22,12,21,5,24,0,34,30,19,32,10,3,18,2,13,28,14,16,11,25,17,26,31,6,9,20,35,4,15,8]","[297,247,48,177,138,227,257,287,187,28,167,317,88,327,207,8,157,68,18,38,128,337,217,118,108,267,78,237,347,307,277,357,148,197,58,98]","297","60","3.7018344077515755","[3.7018344077515755]","[303.70183440775156]","[303]","[120,210,30,120,210,30,30,210,300]","0","36","0","149.57500014302786","26.55400019075023","16","[[[""img/mask78.png""],[""img/mask7.png""],[""img/mask59.png""],[""img/mask71.png""],[""img/mask39.png""],[""img/mask27.png""],[""img/mask64.png""],[""img/mask30.png""],[""img/mask98.png""],[""img/mask11.png""],[""img/mask18.png""],[""img/mask16.png""],[""img/mask26.png""],[""img/mask28.png""],[""img/mask48.png""],[""img/mask68.png""],[""img/mask52.png""],[""img/mask15.png""],[""img/mask6.png""],[""img/mask3.png""],[""img/mask2.png""],[""img/mask67.png""],[""img/mask76.png""],[""img/mask27.png""],[""img/mask97.png""],[""img/mask9.png""],[""img/mask74.png""],[""img/mask56.png""],[""img/mask71.png""],[""img/mask13.png""],[""img/mask70.png""],[""img/mask88.png""],[""img/mask84.png""],[""img/mask68.png""],[""img/mask63.png""],[""img/mask58.png""]]]","","[23,27,29,33,1,7,22,12,21,5,24,0,34,30,19,32,10,3,18,2,13,28,14,16,11,25,17,26,31,6,9,20,35,4,15,8]","main","60","many-guess-6"
"","","","","","html-keyboard-response","98","263899","0.0-10.0-1.39","5d4a41890e604c00011ade8b","640759fa512f630a2bdc333d","640785d078ed9db654f1b431","2211.2000000476837","Wow! You've completed 40 out of 180 trials! </p> <p>  </p><p> Take a quick break, then press any key when you're ready to continue.","n","","","","","","","","","","","","","","","","","","","fixation","",""
"","","","","","many-guess-6","99","266896","0.0-10.0-0.40-0.40","5d4a41890e604c00011ade8b","640759fa512f630a2bdc333d","640785d078ed9db654f1b431","[1209]","","","[3,13,27,28,15,16,33,20,10,25,34,2,24,17,19,18,31,22,32,4,5,7,6,35,21,30,14,12,11,23,0,8,9,1,26,29]","[186,326,226,176,47,156,356,266,136,77,276,107,316,216,67,126,296,17,346,246,87,336,206,196,116,27,306,146,166,7,97,236,57,256,37,286]","186","334","185.01626790287082","[185.01626790287082]","[211.01626790287082]","[210]","[300,210,120,30,120,300,120,300,300]","0","36","0","149.4810001430451","18.840000143041834","16","[[[""img/mask55.png""],[""img/mask85.png""],[""img/mask80.png""],[""img/mask22.png""],[""img/mask32.png""],[""img/mask70.png""],[""img/mask91.png""],[""img/mask60.png""],[""img/mask10.png""],[""img/mask4.png""],[""img/mask23.png""],[""img/mask8.png""],[""img/mask98.png""],[""img/mask19.png""],[""img/mask67.png""],[""img/mask91.png""],[""img/mask37.png""],[""img/mask27.png""],[""img/mask63.png""],[""img/mask75.png""],[""img/mask35.png""],[""img/mask100.png""],[""img/mask64.png""],[""img/mask7.png""],[""img/mask70.png""],[""img/mask56.png""],[""img/mask9.png""],[""img/mask97.png""],[""img/mask33.png""],[""img/mask51.png""],[""img/mask47.png""],[""img/mask52.png""],[""img/mask7.png""],[""img/mask54.png""],[""img/mask100.png""],[""img/mask17.png""]]]","","[3,13,27,28,15,16,33,20,10,25,34,2,24,17,19,18,31,22,32,4,5,7,6,35,21,30,14,12,11,23,0,8,9,1,26,29]","main","334","many-guess-6"
"","","","","","html-keyboard-response","100","267398","0.0-10.0-1.40","5d4a41890e604c00011ade8b","640759fa512f630a2bdc333d","640785d078ed9db654f1b431","null","","null","","","","","","","","","","","","","","","","","","","fixation","",""
"","","","","","color-precision2","101","270564","0.0-10.0-0.41-0.41","5d4a41890e604c00011ade8b","640759fa512f630a2bdc333d","640785d078ed9db654f1b431","[476.09999990463257]","","","[35]","[232]","232","321","200.9213567356196","[200.9213567356196]","[239.9213567356196]","[239]","0","0","1","0","148.94699999998556","1005.6340000953642","1000","[[[""img/mask82.png""]]]","","","main","321","color-precision2"
"","","","","","html-keyboard-response","102","271066","0.0-10.0-1.41","5d4a41890e604c00011ade8b","640759fa512f630a2bdc333d","640785d078ed9db654f1b431","null","","null","","","","","","","","","","","","","","","","","","","fixation","",""
"","","","","","many-guess-6","103","274209","0.0-10.0-0.42-0.42","5d4a41890e604c00011ade8b","640759fa512f630a2bdc333d","640785d078ed9db654f1b431","[1588]","","","[17,5,30,4,1,13,19,21,22,3,12,0,24,26,35,16,31,14,27,18,7,25,28,32,11,29,23,8,10,33,9,6,34,15,20,2]","[254,144,234,194,303,273,64,184,214,44,14,124,204,264,34,293,224,154,114,353,94,343,134,24,84,244,54,74,174,164,104,313,4,333,323,283]","254","69","121.44585828172218","[121.44585828172218]","[52.44585828172218]","[51]","[210,210,30,300,300,30,300,120,210]","0","36","0","149.44900004769443","13.891000190749764","16","[[[""img/mask10.png""],[""img/mask37.png""],[""img/mask72.png""],[""img/mask47.png""],[""img/mask81.png""],[""img/mask75.png""],[""img/mask24.png""],[""img/mask66.png""],[""img/mask72.png""],[""img/mask36.png""],[""img/mask34.png""],[""img/mask26.png""],[""img/mask19.png""],[""img/mask36.png""],[""img/mask21.png""],[""img/mask69.png""],[""img/mask44.png""],[""img/mask11.png""],[""img/mask89.png""],[""img/mask56.png""],[""img/mask40.png""],[""img/mask42.png""],[""img/mask5.png""],[""img/mask36.png""],[""img/mask57.png""],[""img/mask17.png""],[""img/mask92.png""],[""img/mask69.png""],[""img/mask42.png""],[""img/mask72.png""],[""img/mask73.png""],[""img/mask52.png""],[""img/mask26.png""],[""img/mask65.png""],[""img/mask16.png""],[""img/mask85.png""]]]","","[17,5,30,4,1,13,19,21,22,3,12,0,24,26,35,16,31,14,27,18,7,25,28,32,11,29,23,8,10,33,9,6,34,15,20,2]","main","69","many-guess-6"
"","","","","","html-keyboard-response","104","274711","0.0-10.0-1.42","5d4a41890e604c00011ade8b","640759fa512f630a2bdc333d","640785d078ed9db654f1b431","null","","null","","","","","","","","","","","","","","","","","","","fixation","",""
"","","","","","color-precision2","105","278770","0.0-10.0-0.43-0.43","5d4a41890e604c00011ade8b","640759fa512f630a2bdc333d","640785d078ed9db654f1b431","[915.2999999523163]","","","[26]","[143]","143","37","176.8590909049092","[176.8590909049092]","[139.8590909049092]","[139]","0","0","1","0","146.85200004768558","997.0950000477023","1000","[[[""img/mask39.png""]]]","","","main","37","color-precision2"
"","","","","","html-keyboard-response","106","279270","0.0-10.0-1.43","5d4a41890e604c00011ade8b","640759fa512f630a2bdc333d","640785d078ed9db654f1b431","null","","null","","","","","","","","","","","","","","","","","","","fixation","",""
"","","","","","many-guess-6","107","282816","0.0-10.0-0.44-0.44","5d4a41890e604c00011ade8b","640759fa512f630a2bdc333d","640785d078ed9db654f1b431","[1361.8999998569489]","","","[18,27,8,17,15,13,21,26,34,31,22,1,19,25,28,35,23,29,14,10,5,32,24,12,16,2,30,20,3,7,9,4,6,0,11,33]","[5,264,294,15,274,154,44,174,74,144,25,234,224,164,194,204,244,64,254,54,214,94,134,84,35,124,354,304,324,184,104,344,114,314,284,334]","5","154","14.631989487089873","[14.631989487089873]","[220.63198948708987]","[219]","[210,300,120,120,120,120,120,120,300]","0","36","0","149.4820000953623","12.750000190746505","16","[[[""img/mask52.png""],[""img/mask77.png""],[""img/mask25.png""],[""img/mask97.png""],[""img/mask33.png""],[""img/mask56.png""],[""img/mask79.png""],[""img/mask21.png""],[""img/mask74.png""],[""img/mask48.png""],[""img/mask65.png""],[""img/mask57.png""],[""img/mask25.png""],[""img/mask45.png""],[""img/mask85.png""],[""img/mask50.png""],[""img/mask57.png""],[""img/mask79.png""],[""img/mask71.png""],[""img/mask75.png""],[""img/mask8.png""],[""img/mask95.png""],[""img/mask63.png""],[""img/mask80.png""],[""img/mask5.png""],[""img/mask52.png""],[""img/mask99.png""],[""img/mask37.png""],[""img/mask68.png""],[""img/mask87.png""],[""img/mask58.png""],[""img/mask43.png""],[""img/mask30.png""],[""img/mask45.png""],[""img/mask31.png""],[""img/mask69.png""]]]","","[18,27,8,17,15,13,21,26,34,31,22,1,19,25,28,35,23,29,14,10,5,32,24,12,16,2,30,20,3,7,9,4,6,0,11,33]","main","154","many-guess-6"
"","","","","","html-keyboard-response","108","283318","0.0-10.0-1.44","5d4a41890e604c00011ade8b","640759fa512f630a2bdc333d","640785d078ed9db654f1b431","null","","null","","","","","","","","","","","","","","","","","","","fixation","",""
"","","","","","color-precision2","109","286747","0.0-10.0-0.45-0.45","5d4a41890e604c00011ade8b","640759fa512f630a2bdc333d","640785d078ed9db654f1b431","[659.0999999046326]","","","[6]","[288]","288","146","73.85690986350102","[73.85690986350102]","[287.856909863501]","[286]","0","0","1","0","149.25300004769815","994.960000047693","1000","[[[""img/mask97.png""]]]","","","main","146","color-precision2"
"","","","","","html-keyboard-response","110","287249","0.0-10.0-1.45","5d4a41890e604c00011ade8b","640759fa512f630a2bdc333d","640785d078ed9db654f1b431","null","","null","","","","","","","","","","","","","","","","","","","fixation","",""
"","","","","","color-precision2","111","291461","0.0-10.0-0.46-0.46","5d4a41890e604c00011ade8b","640759fa512f630a2bdc333d","640785d078ed9db654f1b431","[323.2000000476837]","","","[9]","[207]","207","303","127.43347119264287","[127.43347119264287]","[184.43347119264286]","[183]","0","0","1","0","149.3350000953651","1003.9580000476562","1000","[[[""img/mask99.png""]]]","","","main","303","color-precision2"
"","","","","","html-keyboard-response","112","291962","0.0-10.0-1.46","5d4a41890e604c00011ade8b","640759fa512f630a2bdc333d","640785d078ed9db654f1b431","null","","null","","","","","","","","","","","","","","","","","","","fixation","",""
"","","","","","many-guess-6","113","294669","0.0-10.0-0.47-0.47","5d4a41890e604c00011ade8b","640759fa512f630a2bdc333d","640785d078ed9db654f1b431","[1281.2999999523163]","","","[6,12,5,8,0,31,33,24,28,16,9,29,7,22,11,19,14,3,30,15,23,13,32,4,10,34,17,20,1,18,2,25,27,21,26,35]","[274,124,154,24,343,4,94,114,14,323,214,224,84,293,254,74,204,54,234,64,194,244,264,303,313,174,144,134,333,164,184,44,104,283,353,34]","274","288","24.843630705518514","[24.843630705518514]","[96.84363070551854]","[95]","[210,300,120,120,300,30,30,210,210]","0","36","0","149.29100019071484","17.31400000001304","16","[[[""img/mask89.png""],[""img/mask54.png""],[""img/mask70.png""],[""img/mask87.png""],[""img/mask79.png""],[""img/mask15.png""],[""img/mask97.png""],[""img/mask63.png""],[""img/mask80.png""],[""img/mask100.png""],[""img/mask37.png""],[""img/mask27.png""],[""img/mask68.png""],[""img/mask89.png""],[""img/mask71.png""],[""img/mask55.png""],[""img/mask72.png""],[""img/mask24.png""],[""img/mask22.png""],[""img/mask80.png""],[""img/mask21.png""],[""img/mask19.png""],[""img/mask97.png""],[""img/mask20.png""],[""img/mask99.png""],[""img/mask34.png""],[""img/mask68.png""],[""img/mask49.png""],[""img/mask76.png""],[""img/mask34.png""],[""img/mask60.png""],[""img/mask96.png""],[""img/mask66.png""],[""img/mask25.png""],[""img/mask86.png""],[""img/mask43.png""]]]","","[6,12,5,8,0,31,33,24,28,16,9,29,7,22,11,19,14,3,30,15,23,13,32,4,10,34,17,20,1,18,2,25,27,21,26,35]","main","288","many-guess-6"
"","","","","","html-keyboard-response","114","295170","0.0-10.0-1.47","5d4a41890e604c00011ade8b","640759fa512f630a2bdc333d","640785d078ed9db654f1b431","null","","null","","","","","","","","","","","","","","","","","","","fixation","",""
"","","","","","many-guess-6","115","298226","0.0-10.0-0.48-0.48","5d4a41890e604c00011ade8b","640759fa512f630a2bdc333d","640785d078ed9db654f1b431","[1054.7999999523163]","","","[35,2,8,7,31,18,1,10,3,11,22,20,19,13,12,30,34,16,29,33,21,4,14,17,0,9,28,32,26,24,23,27,5,25,15,6]","[74,313,214,254,84,174,343,94,224,303,104,333,154,264,164,34,54,194,323,283,144,4,14,353,204,184,64,114,244,293,44,124,134,273,24,234]","74","255","355.32864766923274","[355.32864766923274]","[100.32864766923274]","[100]","[30,300,120,30,120,210,300,210,30]","0","36","0","149.53400004765717","19.826000047673006","16","[[[""img/mask40.png""],[""img/mask98.png""],[""img/mask68.png""],[""img/mask43.png""],[""img/mask70.png""],[""img/mask23.png""],[""img/mask72.png""],[""img/mask59.png""],[""img/mask90.png""],[""img/mask7.png""],[""img/mask19.png""],[""img/mask17.png""],[""img/mask18.png""],[""img/mask96.png""],[""img/mask93.png""],[""img/mask92.png""],[""img/mask44.png""],[""img/mask99.png""],[""img/mask6.png""],[""img/mask12.png""],[""img/mask10.png""],[""img/mask71.png""],[""img/mask12.png""],[""img/mask45.png""],[""img/mask9.png""],[""img/mask53.png""],[""img/mask85.png""],[""img/mask9.png""],[""img/mask12.png""],[""img/mask65.png""],[""img/mask67.png""],[""img/mask70.png""],[""img/mask96.png""],[""img/mask59.png""],[""img/mask97.png""],[""img/mask80.png""]]]","","[35,2,8,7,31,18,1,10,3,11,22,20,19,13,12,30,34,16,29,33,21,4,14,17,0,9,28,32,26,24,23,27,5,25,15,6]","main","255","many-guess-6"
"","","","","","html-keyboard-response","116","298727","0.0-10.0-1.48","5d4a41890e604c00011ade8b","640759fa512f630a2bdc333d","640785d078ed9db654f1b431","null","","null","","","","","","","","","","","","","","","","","","","fixation","",""
"","","","","","many-guess-6","117","301597","0.0-10.0-0.49-0.49","5d4a41890e604c00011ade8b","640759fa512f630a2bdc333d","640785d078ed9db654f1b431","[1159]","","","[0,22,29,10,7,21,12,17,23,30,26,31,9,27,34,25,18,19,20,2,33,13,16,14,1,28,8,11,35,15,24,6,4,32,3,5]","[343,263,243,24,94,64,193,293,14,4,333,134,54,74,164,213,283,124,233,203,353,303,114,253,104,223,174,313,44,273,144,183,84,154,323,34]","343","241","171.45834804979845","[171.45834804979845]","[290.4583480497985]","[290]","[210,300,120,30,30,300,300,120,210]","0","36","0","148.319000190706","27.0540000476758","16","[[[""img/mask28.png""],[""img/mask55.png""],[""img/mask75.png""],[""img/mask46.png""],[""img/mask92.png""],[""img/mask71.png""],[""img/mask7.png""],[""img/mask87.png""],[""img/mask72.png""],[""img/mask11.png""],[""img/mask95.png""],[""img/mask55.png""],[""img/mask20.png""],[""img/mask38.png""],[""img/mask21.png""],[""img/mask80.png""],[""img/mask89.png""],[""img/mask29.png""],[""img/mask3.png""],[""img/mask88.png""],[""img/mask16.png""],[""img/mask30.png""],[""img/mask79.png""],[""img/mask27.png""],[""img/mask3.png""],[""img/mask93.png""],[""img/mask80.png""],[""img/mask87.png""],[""img/mask32.png""],[""img/mask87.png""],[""img/mask98.png""],[""img/mask21.png""],[""img/mask50.png""],[""img/mask42.png""],[""img/mask72.png""],[""img/mask27.png""]]]","","[0,22,29,10,7,21,12,17,23,30,26,31,9,27,34,25,18,19,20,2,33,13,16,14,1,28,8,11,35,15,24,6,4,32,3,5]","main","241","many-guess-6"
"","","","","","html-keyboard-response","118","302098","0.0-10.0-1.49","5d4a41890e604c00011ade8b","640759fa512f630a2bdc333d","640785d078ed9db654f1b431","null","","null","","","","","","","","","","","","","","","","","","","fixation","",""
"","","","","","color-precision2","119","304900","0.0-10.0-0.50-0.50","5d4a41890e604c00011ade8b","640759fa512f630a2bdc333d","640785d078ed9db654f1b431","[361.2999999523163]","","","[16]","[137]","137","2","134.1266047198666","[134.1266047198666]","[132.1266047198666]","[130]","0","0","1","0","149.3700000953395","997.587000190746","1000","[[[""img/mask3.png""]]]","","","main","2","color-precision2"
"","","","","","html-keyboard-response","120","305402","0.0-10.0-1.50","5d4a41890e604c00011ade8b","640759fa512f630a2bdc333d","640785d078ed9db654f1b431","null","","null","","","","","","","","","","","","","","","","","","","fixation","",""
"","","","","","many-guess-6","121","307940","0.0-10.0-0.51-0.51","5d4a41890e604c00011ade8b","640759fa512f630a2bdc333d","640785d078ed9db654f1b431","[1201.7999999523163]","","","[28,22,7,16,10,32,17,24,12,6,23,4,27,33,30,26,13,25,11,8,31,35,34,2,1,9,18,15,29,20,14,21,19,0,5,3]","[88,267,187,128,207,227,237,108,98,337,177,217,317,18,28,277,307,157,257,138,147,48,327,38,347,118,287,78,8,68,167,357,197,297,247,58]","88","321","163.19007000448934","[163.19007000448934]","[202.19007000448934]","[201]","[120,300,30,210,30,30,120,120,30]","0","36","0","149.36300009535626","13.813000095367897","16","[[[""img/mask77.png""],[""img/mask62.png""],[""img/mask71.png""],[""img/mask5.png""],[""img/mask19.png""],[""img/mask48.png""],[""img/mask20.png""],[""img/mask58.png""],[""img/mask7.png""],[""img/mask18.png""],[""img/mask88.png""],[""img/mask73.png""],[""img/mask91.png""],[""img/mask49.png""],[""img/mask9.png""],[""img/mask83.png""],[""img/mask88.png""],[""img/mask73.png""],[""img/mask73.png""],[""img/mask42.png""],[""img/mask41.png""],[""img/mask97.png""],[""img/mask50.png""],[""img/mask32.png""],[""img/mask49.png""],[""img/mask10.png""],[""img/mask10.png""],[""img/mask36.png""],[""img/mask66.png""],[""img/mask59.png""],[""img/mask86.png""],[""img/mask31.png""],[""img/mask63.png""],[""img/mask21.png""],[""img/mask82.png""],[""img/mask43.png""]]]","","[28,22,7,16,10,32,17,24,12,6,23,4,27,33,30,26,13,25,11,8,31,35,34,2,1,9,18,15,29,20,14,21,19,0,5,3]","main","321","many-guess-6"
"","","","","","html-keyboard-response","122","308442","0.0-10.0-1.51","5d4a41890e604c00011ade8b","640759fa512f630a2bdc333d","640785d078ed9db654f1b431","null","","null","","","","","","","","","","","","","","","","","","","fixation","",""
"","","","","","many-guess-6","123","310838","0.0-10.0-0.52-0.52","5d4a41890e604c00011ade8b","640759fa512f630a2bdc333d","640785d078ed9db654f1b431","[1033.2000000476837]","","","[32,5,12,35,0,17,24,28,3,27,8,26,10,30,15,14,7,25,6,33,29,9,11,16,18,34,2,21,4,22,1,13,19,20,23,31]","[68,178,158,138,128,327,288,48,297,168,38,8,238,188,98,118,88,317,228,148,307,58,278,248,218,347,198,108,357,208,78,268,18,258,337,28]","68","328","351.72378175098737","[351.72378175098737]","[23.72378175098737]","[23]","[210,30,120,210,30,30,120,30,30]","0","36","0","149.5410000953707","21.316000190738123","16","[[[""img/mask71.png""],[""img/mask87.png""],[""img/mask64.png""],[""img/mask16.png""],[""img/mask93.png""],[""img/mask63.png""],[""img/mask52.png""],[""img/mask21.png""],[""img/mask53.png""],[""img/mask75.png""],[""img/mask71.png""],[""img/mask71.png""],[""img/mask69.png""],[""img/mask77.png""],[""img/mask88.png""],[""img/mask1.png""],[""img/mask95.png""],[""img/mask1.png""],[""img/mask73.png""],[""img/mask81.png""],[""img/mask19.png""],[""img/mask1.png""],[""img/mask26.png""],[""img/mask61.png""],[""img/mask62.png""],[""img/mask14.png""],[""img/mask12.png""],[""img/mask91.png""],[""img/mask30.png""],[""img/mask27.png""],[""img/mask47.png""],[""img/mask77.png""],[""img/mask24.png""],[""img/mask33.png""],[""img/mask95.png""],[""img/mask74.png""]]]","","[32,5,12,35,0,17,24,28,3,27,8,26,10,30,15,14,7,25,6,33,29,9,11,16,18,34,2,21,4,22,1,13,19,20,23,31]","main","328","many-guess-6"
"","","","","","html-keyboard-response","124","311340","0.0-10.0-1.52","5d4a41890e604c00011ade8b","640759fa512f630a2bdc333d","640785d078ed9db654f1b431","null","","null","","","","","","","","","","","","","","","","","","","fixation","",""
"","","","","","color-precision2","125","314175","0.0-10.0-0.53-0.53","5d4a41890e604c00011ade8b","640759fa512f630a2bdc333d","640785d078ed9db654f1b431","[470.2999999523163]","","","[10]","[251]","251","253","145.93707366844848","[145.93707366844848]","[252.93707366844848]","[251]","0","0","1","0","149.28200014302274","995.5010000953916","1000","[[[""img/mask12.png""]]]","","","main","253","color-precision2"
"","","","","","html-keyboard-response","126","314686","0.0-10.0-1.53","5d4a41890e604c00011ade8b","640759fa512f630a2bdc333d","640785d078ed9db654f1b431","null","","null","","","","","","","","","","","","","","","","","","","fixation","",""
"","","","","","color-precision2","127","317667","0.0-10.0-0.54-0.54","5d4a41890e604c00011ade8b","640759fa512f630a2bdc333d","640785d078ed9db654f1b431","[445.39999985694885]","","","[33]","[255]","255","276","166.74017261691606","[166.74017261691606]","[250.74017261691606]","[250]","0","0","1","0","149.26300009537954","995.4080000476679","1000","[[[""img/mask35.png""]]]","","","main","276","color-precision2"
"","","","","","html-keyboard-response","128","318169","0.0-10.0-1.54","5d4a41890e604c00011ade8b","640759fa512f630a2bdc333d","640785d078ed9db654f1b431","null","","null","","","","","","","","","","","","","","","","","","","fixation","",""
"","","","","","color-precision2","129","321313","0.0-10.0-0.55-0.55","5d4a41890e604c00011ade8b","640759fa512f630a2bdc333d","640785d078ed9db654f1b431","[941.6999998092651]","","","[31]","[127]","127","292","65.05914487373386","[65.05914487373386]","[133.05914487373386]","[132]","0","0","1","0","149.07400004769443","993.8760000476614","1000","[[[""img/mask18.png""]]]","","","main","292","color-precision2"
"","","","","","html-keyboard-response","130","321815","0.0-10.0-1.55","5d4a41890e604c00011ade8b","640759fa512f630a2bdc333d","640785d078ed9db654f1b431","null","","null","","","","","","","","","","","","","","","","","","","fixation","",""
"","","","","","many-guess-6","131","324631","0.0-10.0-0.56-0.56","5d4a41890e604c00011ade8b","640759fa512f630a2bdc333d","640785d078ed9db654f1b431","[1408.8999998569489]","","","[24,6,0,13,28,34,12,14,7,8,19,21,20,2,23,4,5,10,33,27,22,35,1,16,17,9,30,31,3,15,29,25,32,11,18,26]","[191,72,131,221,231,82,92,181,141,151,201,52,351,271,42,211,62,22,161,291,111,281,2,261,301,241,32,311,171,121,12,321,331,251,101,341]","191","233","36.378241125244465","[36.378241125244465]","[163.37824112524447]","[162]","[300,30,300,30,300,120,30,210,30]","0","36","0","149.15400019072695","21.81600014306605","16","[[[""img/mask49.png""],[""img/mask28.png""],[""img/mask44.png""],[""img/mask88.png""],[""img/mask40.png""],[""img/mask51.png""],[""img/mask27.png""],[""img/mask71.png""],[""img/mask47.png""],[""img/mask75.png""],[""img/mask11.png""],[""img/mask59.png""],[""img/mask93.png""],[""img/mask3.png""],[""img/mask26.png""],[""img/mask97.png""],[""img/mask59.png""],[""img/mask92.png""],[""img/mask3.png""],[""img/mask42.png""],[""img/mask25.png""],[""img/mask42.png""],[""img/mask58.png""],[""img/mask70.png""],[""img/mask42.png""],[""img/mask67.png""],[""img/mask93.png""],[""img/mask18.png""],[""img/mask52.png""],[""img/mask54.png""],[""img/mask45.png""],[""img/mask31.png""],[""img/mask13.png""],[""img/mask6.png""],[""img/mask25.png""],[""img/mask97.png""]]]","","[24,6,0,13,28,34,12,14,7,8,19,21,20,2,23,4,5,10,33,27,22,35,1,16,17,9,30,31,3,15,29,25,32,11,18,26]","main","233","many-guess-6"
"","","","","","html-keyboard-response","132","325132","0.0-10.0-1.56","5d4a41890e604c00011ade8b","640759fa512f630a2bdc333d","640785d078ed9db654f1b431","null","","null","","","","","","","","","","","","","","","","","","","fixation","",""
"","","","","","many-guess-6","133","327199","0.0-10.0-0.57-0.57","5d4a41890e604c00011ade8b","640759fa512f630a2bdc333d","640785d078ed9db654f1b431","[777.7000000476837]","","","[4,28,20,19,27,29,21,25,24,32,13,31,30,34,33,8,5,9,35,15,1,18,7,10,14,11,26,17,2,22,6,16,23,3,12,0]","[27,356,157,177,127,246,336,107,167,77,187,226,276,266,67,57,47,346,206,37,216,17,137,286,316,306,296,87,117,147,236,7,97,326,196,256]","27","307","335.1279709001145","[335.1279709001145]","[28.12797090011452]","[28]","[210,30,30,210,120,30,120,30,30]","0","36","0","149.15400019072695","13.78100000001723","16","[[[""img/mask76.png""],[""img/mask12.png""],[""img/mask92.png""],[""img/mask68.png""],[""img/mask82.png""],[""img/mask37.png""],[""img/mask65.png""],[""img/mask20.png""],[""img/mask56.png""],[""img/mask8.png""],[""img/mask53.png""],[""img/mask19.png""],[""img/mask98.png""],[""img/mask14.png""],[""img/mask47.png""],[""img/mask9.png""],[""img/mask44.png""],[""img/mask16.png""],[""img/mask52.png""],[""img/mask57.png""],[""img/mask29.png""],[""img/mask45.png""],[""img/mask80.png""],[""img/mask19.png""],[""img/mask47.png""],[""img/mask73.png""],[""img/mask16.png""],[""img/mask38.png""],[""img/mask66.png""],[""img/mask53.png""],[""img/mask5.png""],[""img/mask7.png""],[""img/mask89.png""],[""img/mask76.png""],[""img/mask100.png""],[""img/mask98.png""]]]","","[4,28,20,19,27,29,21,25,24,32,13,31,30,34,33,8,5,9,35,15,1,18,7,10,14,11,26,17,2,22,6,16,23,3,12,0]","main","307","many-guess-6"
"","","","","","html-keyboard-response","134","327701","0.0-10.0-1.57","5d4a41890e604c00011ade8b","640759fa512f630a2bdc333d","640785d078ed9db654f1b431","null","","null","","","","","","","","","","","","","","","","","","","fixation","",""
"","","","","","many-guess-6","135","330460","0.0-10.0-0.58-0.58","5d4a41890e604c00011ade8b","640759fa512f630a2bdc333d","640785d078ed9db654f1b431","[1338.7999999523163]","","","[21,11,27,0,26,15,17,2,20,19,3,13,7,23,4,33,18,9,34,32,24,14,6,28,29,1,5,31,35,25,12,8,10,30,16,22]","[136,66,17,206,56,46,316,196,336,296,346,26,306,86,146,286,76,256,116,106,176,156,326,166,7,246,236,216,356,126,266,226,36,276,186,96]","136","244","154.41628985951078","[154.41628985951078]","[270.4162898595108]","[269]","[210,300,120,120,30,120,300,30,210]","0","36","0","149.7160001907614","22.94200004771119","16","[[[""img/mask86.png""],[""img/mask13.png""],[""img/mask28.png""],[""img/mask56.png""],[""img/mask35.png""],[""img/mask49.png""],[""img/mask34.png""],[""img/mask33.png""],[""img/mask67.png""],[""img/mask71.png""],[""img/mask35.png""],[""img/mask62.png""],[""img/mask57.png""],[""img/mask23.png""],[""img/mask99.png""],[""img/mask53.png""],[""img/mask33.png""],[""img/mask22.png""],[""img/mask28.png""],[""img/mask40.png""],[""img/mask35.png""],[""img/mask14.png""],[""img/mask97.png""],[""img/mask22.png""],[""img/mask72.png""],[""img/mask11.png""],[""img/mask16.png""],[""img/mask100.png""],[""img/mask46.png""],[""img/mask23.png""],[""img/mask47.png""],[""img/mask39.png""],[""img/mask77.png""],[""img/mask34.png""],[""img/mask90.png""],[""img/mask7.png""]]]","","[21,11,27,0,26,15,17,2,20,19,3,13,7,23,4,33,18,9,34,32,24,14,6,28,29,1,5,31,35,25,12,8,10,30,16,22]","main","244","many-guess-6"
"","","","","","html-keyboard-response","136","330963","0.0-10.0-1.58","5d4a41890e604c00011ade8b","640759fa512f630a2bdc333d","640785d078ed9db654f1b431","null","","null","","","","","","","","","","","","","","","","","","","fixation","",""
"","","","","","many-guess-6","137","333864","0.0-10.0-0.59-0.59","5d4a41890e604c00011ade8b","640759fa512f630a2bdc333d","640785d078ed9db654f1b431","[1292.7000000476837]","","","[29,11,6,10,4,9,31,35,33,23,34,30,1,27,18,32,16,20,15,7,13,22,24,2,12,25,17,21,8,0,26,5,19,3,14,28]","[225,125,55,255,265,185,305,155,175,205,325,335,6,245,275,285,85,355,145,35,45,65,75,235,115,195,95,295,135,315,105,215,16,345,25,165]","225","114","74.57820552920678","[74.57820552920678]","[320.5782055292068]","[319]","[30,300,300,30,210,120,210,300,300]","0","36","0","149.4110000000219","7.940000047674403","16","[[[""img/mask93.png""],[""img/mask9.png""],[""img/mask16.png""],[""img/mask41.png""],[""img/mask55.png""],[""img/mask30.png""],[""img/mask29.png""],[""img/mask75.png""],[""img/mask37.png""],[""img/mask40.png""],[""img/mask7.png""],[""img/mask53.png""],[""img/mask58.png""],[""img/mask16.png""],[""img/mask14.png""],[""img/mask90.png""],[""img/mask99.png""],[""img/mask72.png""],[""img/mask36.png""],[""img/mask1.png""],[""img/mask83.png""],[""img/mask46.png""],[""img/mask84.png""],[""img/mask19.png""],[""img/mask57.png""],[""img/mask55.png""],[""img/mask7.png""],[""img/mask45.png""],[""img/mask76.png""],[""img/mask64.png""],[""img/mask51.png""],[""img/mask5.png""],[""img/mask41.png""],[""img/mask17.png""],[""img/mask64.png""],[""img/mask43.png""]]]","","[29,11,6,10,4,9,31,35,33,23,34,30,1,27,18,32,16,20,15,7,13,22,24,2,12,25,17,21,8,0,26,5,19,3,14,28]","main","114","many-guess-6"
"","","","","","html-keyboard-response","138","384258","0.0-10.0-1.59","5d4a41890e604c00011ade8b","640759fa512f630a2bdc333d","640785d078ed9db654f1b431","50393.200000047684","Wow! You've completed 60 out of 180 trials! </p> <p>  </p><p> Take a quick break, then press any key when you're ready to continue.","g","","","","","","","","","","","","","","","","","","","fixation","",""
"","","","","","color-precision2","139","388608","0.0-10.0-0.60-0.60","5d4a41890e604c00011ade8b","640759fa512f630a2bdc333d","640785d078ed9db654f1b431","[852.9000000953674]","","","[9]","[330]","330","19","4.0767097101889735","[4.0767097101889735]","[345.076709710189]","[345]","0","0","1","0","149.18500009534182","1003.5829999999842","1000","[[[""img/mask70.png""]]]","","","main","19","color-precision2"
"","","","","","html-keyboard-response","140","389110","0.0-10.0-1.60","5d4a41890e604c00011ade8b","640759fa512f630a2bdc333d","640785d078ed9db654f1b431","null","","null","","","","","","","","","","","","","","","","","","","fixation","",""
"","","","","","color-precision2","141","392144","0.0-10.0-0.61-0.61","5d4a41890e604c00011ade8b","640759fa512f630a2bdc333d","640785d078ed9db654f1b431","[655.6999998092651]","","","[18]","[126]","126","99","229.31058072646303","[229.31058072646303]","[130.31058072646303]","[131]","0","0","1","0","149.3850000476814","1002.6070001430344","1000","[[[""img/mask60.png""]]]","","","main","99","color-precision2"
"","","","","","html-keyboard-response","142","392646","0.0-10.0-1.61","5d4a41890e604c00011ade8b","640759fa512f630a2bdc333d","640785d078ed9db654f1b431","null","","null","","","","","","","","","","","","","","","","","","","fixation","",""
"","","","","","color-precision2","143","396321","0.0-10.0-0.62-0.62","5d4a41890e604c00011ade8b","640759fa512f630a2bdc333d","640785d078ed9db654f1b431","[898.7999999523163]","","","[26]","[326]","326","156","142.53560657716378","[142.53560657716378]","[346.5356065771638]","[345]","0","0","1","0","149.04800000000978","992.310999999987","1000","[[[""img/mask74.png""]]]","","","main","156","color-precision2"
"","","","","","html-keyboard-response","144","396822","0.0-10.0-1.62","5d4a41890e604c00011ade8b","640759fa512f630a2bdc333d","640785d078ed9db654f1b431","null","","null","","","","","","","","","","","","","","","","","","","fixation","",""
"","","","","","many-guess-6","145","400195","0.0-10.0-0.63-0.63","5d4a41890e604c00011ade8b","640759fa512f630a2bdc333d","640785d078ed9db654f1b431","[1573.5]","","","[22,23,19,20,21,30,14,13,31,7,1,3,18,33,27,28,4,2,6,29,35,0,26,24,15,25,5,34,32,16,9,10,8,17,11,12]","[43,263,173,283,103,113,33,123,213,163,193,352,3,133,342,13,243,23,93,293,143,223,323,153,53,273,203,333,233,253,73,63,303,83,183,313]","43","176","199.83818154420186","[199.83818154420186]","[23.83818154420186]","[24]","[120,120,120,210,30,300,210,300,210]","0","36","0","149.09700014302507","23.14700019074371","16","[[[""img/mask50.png""],[""img/mask41.png""],[""img/mask48.png""],[""img/mask34.png""],[""img/mask32.png""],[""img/mask89.png""],[""img/mask40.png""],[""img/mask27.png""],[""img/mask73.png""],[""img/mask73.png""],[""img/mask44.png""],[""img/mask67.png""],[""img/mask56.png""],[""img/mask76.png""],[""img/mask3.png""],[""img/mask30.png""],[""img/mask91.png""],[""img/mask75.png""],[""img/mask88.png""],[""img/mask16.png""],[""img/mask79.png""],[""img/mask39.png""],[""img/mask90.png""],[""img/mask14.png""],[""img/mask47.png""],[""img/mask60.png""],[""img/mask1.png""],[""img/mask62.png""],[""img/mask37.png""],[""img/mask26.png""],[""img/mask92.png""],[""img/mask58.png""],[""img/mask85.png""],[""img/mask73.png""],[""img/mask11.png""],[""img/mask25.png""]]]","","[22,23,19,20,21,30,14,13,31,7,1,3,18,33,27,28,4,2,6,29,35,0,26,24,15,25,5,34,32,16,9,10,8,17,11,12]","main","176","many-guess-6"
"","","","","","html-keyboard-response","146","400697","0.0-10.0-1.63","5d4a41890e604c00011ade8b","640759fa512f630a2bdc333d","640785d078ed9db654f1b431","null","","null","","","","","","","","","","","","","","","","","","","fixation","",""
"","","","","","many-guess-6","147","403811","0.0-10.0-0.64-0.64","5d4a41890e604c00011ade8b","640759fa512f630a2bdc333d","640785d078ed9db654f1b431","[1573.4000000953674]","","","[0,23,1,19,16,22,14,11,35,13,15,2,4,25,30,27,20,26,9,12,33,21,24,3,5,17,29,6,28,32,31,18,7,34,10,8]","[28,68,288,118,258,188,158,358,178,208,298,228,108,8,308,198,98,48,268,338,238,348,18,58,148,328,78,318,128,138,218,278,168,88,248,38]","28","270","41.41187274037303","[41.41187274037303]","[131.41187274037304]","[130]","[300,120,300,210,210,30,210,120,120]","0","36","0","149.51800019072834","15.697000047657639","16","[[[""img/mask21.png""],[""img/mask14.png""],[""img/mask69.png""],[""img/mask16.png""],[""img/mask21.png""],[""img/mask2.png""],[""img/mask97.png""],[""img/mask26.png""],[""img/mask88.png""],[""img/mask32.png""],[""img/mask54.png""],[""img/mask50.png""],[""img/mask46.png""],[""img/mask6.png""],[""img/mask22.png""],[""img/mask22.png""],[""img/mask12.png""],[""img/mask1.png""],[""img/mask22.png""],[""img/mask36.png""],[""img/mask91.png""],[""img/mask52.png""],[""img/mask37.png""],[""img/mask96.png""],[""img/mask43.png""],[""img/mask57.png""],[""img/mask64.png""],[""img/mask21.png""],[""img/mask77.png""],[""img/mask42.png""],[""img/mask7.png""],[""img/mask47.png""],[""img/mask25.png""],[""img/mask90.png""],[""img/mask66.png""],[""img/mask69.png""]]]","","[0,23,1,19,16,22,14,11,35,13,15,2,4,25,30,27,20,26,9,12,33,21,24,3,5,17,29,6,28,32,31,18,7,34,10,8]","main","270","many-guess-6"
"","","","","","html-keyboard-response","148","404312","0.0-10.0-1.64","5d4a41890e604c00011ade8b","640759fa512f630a2bdc333d","640785d078ed9db654f1b431","null","","null","","","","","","","","","","","","","","","","","","","fixation","",""
"","","","","","many-guess-6","149","407349","0.0-10.0-0.65-0.65","5d4a41890e604c00011ade8b","640759fa512f630a2bdc333d","640785d078ed9db654f1b431","[1477.6999998092651]","","","[15,34,1,24,18,6,19,7,9,16,20,13,23,11,29,21,26,22,0,31,35,4,10,8,25,33,2,17,5,28,32,12,14,27,30,3]","[164,353,34,154,174,104,333,14,64,313,144,303,114,224,94,194,293,134,74,214,243,323,84,263,273,204,233,343,184,24,44,283,253,124,54,4]","164","70","178.79293681106068","[178.79293681106068]","[108.79293681106068]","[108]","[210,300,210,300,300,210,210,300,300]","0","36","0","149.50400000001537","10.026000047684647","16","[[[""img/mask11.png""],[""img/mask43.png""],[""img/mask57.png""],[""img/mask64.png""],[""img/mask38.png""],[""img/mask20.png""],[""img/mask100.png""],[""img/mask99.png""],[""img/mask41.png""],[""img/mask57.png""],[""img/mask47.png""],[""img/mask88.png""],[""img/mask81.png""],[""img/mask87.png""],[""img/mask15.png""],[""img/mask46.png""],[""img/mask14.png""],[""img/mask66.png""],[""img/mask99.png""],[""img/mask40.png""],[""img/mask56.png""],[""img/mask41.png""],[""img/mask48.png""],[""img/mask94.png""],[""img/mask91.png""],[""img/mask75.png""],[""img/mask64.png""],[""img/mask71.png""],[""img/mask72.png""],[""img/mask75.png""],[""img/mask68.png""],[""img/mask100.png""],[""img/mask70.png""],[""img/mask17.png""],[""img/mask63.png""],[""img/mask56.png""]]]","","[15,34,1,24,18,6,19,7,9,16,20,13,23,11,29,21,26,22,0,31,35,4,10,8,25,33,2,17,5,28,32,12,14,27,30,3]","main","70","many-guess-6"
"","","","","","html-keyboard-response","150","407850","0.0-10.0-1.65","5d4a41890e604c00011ade8b","640759fa512f630a2bdc333d","640785d078ed9db654f1b431","null","","null","","","","","","","","","","","","","","","","","","","fixation","",""
"","","","","","color-precision2","151","411072","0.0-10.0-0.66-0.66","5d4a41890e604c00011ade8b","640759fa512f630a2bdc333d","640785d078ed9db654f1b431","[384.2999999523163]","","","[3]","[35]","35","40","66.44601124184528","[66.44601124184528]","[26.446011241845284]","[25]","0","0","1","0","149.2270000000135","1001.2300000477117","1000","[[[""img/mask82.png""]]]","","","main","40","color-precision2"
"","","","","","html-keyboard-response","152","411574","0.0-10.0-1.66","5d4a41890e604c00011ade8b","640759fa512f630a2bdc333d","640785d078ed9db654f1b431","null","","null","","","","","","","","","","","","","","","","","","","fixation","",""
"","","","","","color-precision2","153","414333","0.0-10.0-0.67-0.67","5d4a41890e604c00011ade8b","640759fa512f630a2bdc333d","640785d078ed9db654f1b431","[311.40000009536743]","","","[19]","[20]","20","142","","[null]","[null]","[5]","0","0","1","0","149.51799999998184","1006.6470001907437","1000","[[[""img/mask43.png""]]]","","","main","142","color-precision2"
"","","","","","html-keyboard-response","154","414835","0.0-10.0-1.67","5d4a41890e604c00011ade8b","640759fa512f630a2bdc333d","640785d078ed9db654f1b431","null","","null","","","","","","","","","","","","","","","","","","","fixation","",""
"","","","","","many-guess-6","155","418730","0.0-10.0-0.68-0.68","5d4a41890e604c00011ade8b","640759fa512f630a2bdc333d","640785d078ed9db654f1b431","[1524.7000000476837]","","","[20,4,6,31,28,18,9,13,17,30,32,8,16,1,21,33,35,27,7,14,0,12,29,3,10,11,34,26,24,15,2,19,5,22,25,23]","[141,331,321,211,181,291,91,351,22,341,151,221,52,71,131,311,231,81,271,121,161,62,201,32,2,12,171,261,301,241,251,191,281,42,111,101]","141","353","175.4767505704118","[175.4767505704118]","[182.4767505704118]","[181]","[300,120,300,30,300,120,120,120,30]","0","36","0","148.99400014302228","12.660000095376745","16","[[[""img/mask35.png""],[""img/mask78.png""],[""img/mask29.png""],[""img/mask89.png""],[""img/mask62.png""],[""img/mask65.png""],[""img/mask22.png""],[""img/mask7.png""],[""img/mask31.png""],[""img/mask84.png""],[""img/mask89.png""],[""img/mask42.png""],[""img/mask62.png""],[""img/mask77.png""],[""img/mask38.png""],[""img/mask72.png""],[""img/mask21.png""],[""img/mask64.png""],[""img/mask25.png""],[""img/mask41.png""],[""img/mask29.png""],[""img/mask42.png""],[""img/mask93.png""],[""img/mask94.png""],[""img/mask25.png""],[""img/mask39.png""],[""img/mask9.png""],[""img/mask33.png""],[""img/mask70.png""],[""img/mask16.png""],[""img/mask38.png""],[""img/mask20.png""],[""img/mask27.png""],[""img/mask19.png""],[""img/mask42.png""],[""img/mask25.png""]]]","","[20,4,6,31,28,18,9,13,17,30,32,8,16,1,21,33,35,27,7,14,0,12,29,3,10,11,34,26,24,15,2,19,5,22,25,23]","main","353","many-guess-6"
"","","","","","html-keyboard-response","156","419231","0.0-10.0-1.68","5d4a41890e604c00011ade8b","640759fa512f630a2bdc333d","640785d078ed9db654f1b431","null","","null","","","","","","","","","","","","","","","","","","","fixation","",""
"","","","","","many-guess-6","157","422198","0.0-10.0-0.69-0.69","5d4a41890e604c00011ade8b","640759fa512f630a2bdc333d","640785d078ed9db654f1b431","[1310.2000000476837]","","","[8,2,1,15,3,0,18,10,25,31,11,14,22,27,24,35,30,17,33,13,12,20,6,9,32,23,21,16,29,26,19,5,34,4,28,7]","[89,189,29,339,59,239,169,309,229,99,329,299,259,279,289,319,219,249,159,269,79,39,359,119,349,49,179,199,139,149,10,69,129,209,20,109]","89","123","93.45370073242044","[93.45370073242044]","[330.45370073242043]","[329]","[30,210,300,30,30,120,300,210,30]","0","36","0","149.66200009535532","15.703000143053941","16","[[[""img/mask84.png""],[""img/mask49.png""],[""img/mask80.png""],[""img/mask59.png""],[""img/mask18.png""],[""img/mask10.png""],[""img/mask14.png""],[""img/mask80.png""],[""img/mask80.png""],[""img/mask100.png""],[""img/mask64.png""],[""img/mask35.png""],[""img/mask46.png""],[""img/mask43.png""],[""img/mask82.png""],[""img/mask41.png""],[""img/mask82.png""],[""img/mask85.png""],[""img/mask53.png""],[""img/mask58.png""],[""img/mask34.png""],[""img/mask93.png""],[""img/mask68.png""],[""img/mask45.png""],[""img/mask71.png""],[""img/mask65.png""],[""img/mask14.png""],[""img/mask86.png""],[""img/mask62.png""],[""img/mask100.png""],[""img/mask68.png""],[""img/mask97.png""],[""img/mask55.png""],[""img/mask74.png""],[""img/mask65.png""],[""img/mask54.png""]]]","","[8,2,1,15,3,0,18,10,25,31,11,14,22,27,24,35,30,17,33,13,12,20,6,9,32,23,21,16,29,26,19,5,34,4,28,7]","main","123","many-guess-6"
"","","","","","html-keyboard-response","158","422699","0.0-10.0-1.69","5d4a41890e604c00011ade8b","640759fa512f630a2bdc333d","640785d078ed9db654f1b431","null","","null","","","","","","","","","","","","","","","","","","","fixation","",""
"","","","","","many-guess-6","159","426108","0.0-10.0-0.70-0.70","5d4a41890e604c00011ade8b","640759fa512f630a2bdc333d","640785d078ed9db654f1b431","[1770]","","","[2,24,22,20,8,34,11,31,33,23,14,16,12,3,18,4,5,29,28,7,0,17,25,10,32,35,6,27,19,26,21,15,1,13,9,30]","[291,32,122,211,171,72,161,132,251,241,271,181,221,22,261,231,52,92,62,82,351,281,191,321,341,102,331,12,2,141,201,301,151,311,112,42]","291","352","352.07028613174754","[352.07028613174754]","[0.07028613174753673]","[359]","[30,300,300,120,30,120,120,120,30]","0","36","0","149.37400014302693","21.5910000000149","16","[[[""img/mask43.png""],[""img/mask46.png""],[""img/mask4.png""],[""img/mask70.png""],[""img/mask64.png""],[""img/mask85.png""],[""img/mask82.png""],[""img/mask80.png""],[""img/mask47.png""],[""img/mask3.png""],[""img/mask28.png""],[""img/mask34.png""],[""img/mask81.png""],[""img/mask82.png""],[""img/mask20.png""],[""img/mask75.png""],[""img/mask91.png""],[""img/mask55.png""],[""img/mask68.png""],[""img/mask33.png""],[""img/mask79.png""],[""img/mask66.png""],[""img/mask99.png""],[""img/mask59.png""],[""img/mask50.png""],[""img/mask22.png""],[""img/mask42.png""],[""img/mask46.png""],[""img/mask58.png""],[""img/mask19.png""],[""img/mask4.png""],[""img/mask89.png""],[""img/mask43.png""],[""img/mask46.png""],[""img/mask73.png""],[""img/mask72.png""]]]","","[2,24,22,20,8,34,11,31,33,23,14,16,12,3,18,4,5,29,28,7,0,17,25,10,32,35,6,27,19,26,21,15,1,13,9,30]","main","352","many-guess-6"
"","","","","","html-keyboard-response","160","426610","0.0-10.0-1.70","5d4a41890e604c00011ade8b","640759fa512f630a2bdc333d","640785d078ed9db654f1b431","null","","null","","","","","","","","","","","","","","","","","","","fixation","",""
"","","","","","many-guess-6","161","429357","0.0-10.0-0.71-0.71","5d4a41890e604c00011ade8b","640759fa512f630a2bdc333d","640785d078ed9db654f1b431","[1185.5999999046326]","","","[33,34,22,16,15,25,0,18,28,3,9,19,30,23,26,24,8,27,2,5,35,31,4,29,1,32,17,20,14,6,11,10,7,13,12,21]","[349,90,10,280,160,140,100,150,290,339,190,250,200,70,130,319,120,300,359,310,270,110,170,230,60,329,240,30,50,260,210,180,220,20,40,80]","349","41","47.24069379463048","[47.24069379463048]","[6.240693794630481]","[5]","[30,30,300,300,120,300,300,120,300]","0","36","0","149.3510001907125","15.48800014302833","16","[[[""img/mask65.png""],[""img/mask100.png""],[""img/mask85.png""],[""img/mask34.png""],[""img/mask65.png""],[""img/mask8.png""],[""img/mask57.png""],[""img/mask74.png""],[""img/mask63.png""],[""img/mask67.png""],[""img/mask75.png""],[""img/mask58.png""],[""img/mask73.png""],[""img/mask18.png""],[""img/mask23.png""],[""img/mask32.png""],[""img/mask60.png""],[""img/mask94.png""],[""img/mask57.png""],[""img/mask54.png""],[""img/mask50.png""],[""img/mask22.png""],[""img/mask25.png""],[""img/mask35.png""],[""img/mask8.png""],[""img/mask71.png""],[""img/mask100.png""],[""img/mask54.png""],[""img/mask84.png""],[""img/mask19.png""],[""img/mask7.png""],[""img/mask55.png""],[""img/mask55.png""],[""img/mask3.png""],[""img/mask41.png""],[""img/mask34.png""]]]","","[33,34,22,16,15,25,0,18,28,3,9,19,30,23,26,24,8,27,2,5,35,31,4,29,1,32,17,20,14,6,11,10,7,13,12,21]","main","41","many-guess-6"
"","","","","","html-keyboard-response","162","429858","0.0-10.0-1.71","5d4a41890e604c00011ade8b","640759fa512f630a2bdc333d","640785d078ed9db654f1b431","null","","null","","","","","","","","","","","","","","","","","","","fixation","",""
"","","","","","many-guess-6","163","432530","0.0-10.0-0.72-0.72","5d4a41890e604c00011ade8b","640759fa512f630a2bdc333d","640785d078ed9db654f1b431","[1391.8000001907349]","","","[0,10,8,28,5,18,15,33,6,13,4,29,12,1,27,21,2,34,25,30,26,14,7,19,24,32,3,16,9,11,22,31,23,17,20,35]","[192,63,222,142,33,292,123,23,322,132,242,162,342,83,262,352,182,202,172,252,152,73,3,282,43,13,302,93,113,232,103,272,53,212,312,332]","192","159","205.82055649334262","[205.82055649334262]","[46.82055649334262]","[46]","[30,120,30,210,210,210,30,30,300]","0","36","0","149.54100019071484","15.475000095379073","16","[[[""img/mask53.png""],[""img/mask69.png""],[""img/mask75.png""],[""img/mask44.png""],[""img/mask55.png""],[""img/mask83.png""],[""img/mask5.png""],[""img/mask77.png""],[""img/mask19.png""],[""img/mask42.png""],[""img/mask61.png""],[""img/mask54.png""],[""img/mask97.png""],[""img/mask73.png""],[""img/mask100.png""],[""img/mask3.png""],[""img/mask94.png""],[""img/mask89.png""],[""img/mask52.png""],[""img/mask22.png""],[""img/mask34.png""],[""img/mask38.png""],[""img/mask54.png""],[""img/mask26.png""],[""img/mask9.png""],[""img/mask90.png""],[""img/mask32.png""],[""img/mask81.png""],[""img/mask9.png""],[""img/mask100.png""],[""img/mask49.png""],[""img/mask92.png""],[""img/mask53.png""],[""img/mask74.png""],[""img/mask65.png""],[""img/mask38.png""]]]","","[0,10,8,28,5,18,15,33,6,13,4,29,12,1,27,21,2,34,25,30,26,14,7,19,24,32,3,16,9,11,22,31,23,17,20,35]","main","159","many-guess-6"
"","","","","","html-keyboard-response","164","433031","0.0-10.0-1.72","5d4a41890e604c00011ade8b","640759fa512f630a2bdc333d","640785d078ed9db654f1b431","null","","null","","","","","","","","","","","","","","","","","","","fixation","",""
"","","","","","color-precision2","165","436218","0.0-10.0-0.73-0.73","5d4a41890e604c00011ade8b","640759fa512f630a2bdc333d","640785d078ed9db654f1b431","[663.2999999523163]","","","[23]","[94]","94","100","182.69973526121103","[182.69973526121103]","[82.69973526121103]","[82]","0","0","1","0","148.7670000953949","1002.7139999999781","1000","[[[""img/mask98.png""]]]","","","main","100","color-precision2"
"","","","","","html-keyboard-response","166","436720","0.0-10.0-1.73","5d4a41890e604c00011ade8b","640759fa512f630a2bdc333d","640785d078ed9db654f1b431","null","","null","","","","","","","","","","","","","","","","","","","fixation","",""
"","","","","","color-precision2","167","439898","0.0-10.0-0.74-0.74","5d4a41890e604c00011ade8b","640759fa512f630a2bdc333d","640785d078ed9db654f1b431","[842.5]","","","[29]","[41]","41","225","248.67330800135335","[248.67330800135335]","[23.673308001353348]","[24]","0","0","1","0","149.27000019070692","1001.8870001430623","1000","[[[""img/mask56.png""]]]","","","main","225","color-precision2"
"","","","","","html-keyboard-response","168","440400","0.0-10.0-1.74","5d4a41890e604c00011ade8b","640759fa512f630a2bdc333d","640785d078ed9db654f1b431","null","","null","","","","","","","","","","","","","","","","","","","fixation","",""
