"success","timeout","failed_images","failed_audio","failed_video","trial_type","trial_index","time_elapsed","internal_node_id","subject_id","study_id","session_id","rt","stimulus","response","position_of_items","colors_of_items","color_of_target","wheel_spin","response_angle","physical_response_angle","reported_color_angle","reported_color_discrete","locs","which_test","set_size","wheel_num_options","actual_mask_duration","actual_stim_duration","CMDispTime","maskArray","maskRotation","item_positions","task","randomSpinAmount","mainTask"
"true","false","[]","[]","[]","preload","0","1591","0.0-0.0","5dd56b0bb0438951fd535966","640759fa512f630a2bdc333d","6408c177c347c840b5e435df","","","","","","","","","","","","","","","","","","","","","","","",""
"true","","","","","fullscreen","1","5228","0.0-1.0","5dd56b0bb0438951fd535966","640759fa512f630a2bdc333d","6408c177c347c840b5e435df","","","","","","","","","","","","","","","","","","","","","","","",""
"","","","","","html-keyboard-response","2","9537","0.0-2.0","5dd56b0bb0438951fd535966","640759fa512f630a2bdc333d","6408c177c347c840b5e435df","4308.399999991059","What a beautiful Wednesday to do some awesome science! </p> <p>  </p><p> </p>
    By completing this survey or questionnaire, you are consenting to be in this research study. </p>
    Your participation is voluntary and you can stop at any time.<p> [Press any key to continue] </p>","l","","","","","","","","","","","","","","","","","","","","",""
"","","","","","html-keyboard-response","3","19553","0.0-3.0","5dd56b0bb0438951fd535966","640759fa512f630a2bdc333d","6408c177c347c840b5e435df","6439.70000000298","
    <div style='width: 1000px;'>
    <div style='float: center;'><img src='img/TaskInstructions1.png'></img>
    </div>
    ","l","","","","","","","","","","","","","","","","","","","","",""
"","","","","","html-keyboard-response","4","21395","0.0-4.0","5dd56b0bb0438951fd535966","640759fa512f630a2bdc333d","6408c177c347c840b5e435df","1841.3999999910593","
    <div style='width: 1000px;'>
    <div style='float: center;'><img src='img/TaskInstructions1.png'></img>
    </div>
    ","k","","","","","","","","","","","","","","","","","","","","",""
"","","","","","html-keyboard-response","5","31405","0.0-5.0","5dd56b0bb0438951fd535966","640759fa512f630a2bdc333d","6408c177c347c840b5e435df","null","
    <div style='width: 1000px;'>
    <div style='float: center;'><img src='img/TaskInstructions2.png'></img>
    </div>
    ","null","","","","","","","","","","","","","","","","","","","","",""
"","","","","","html-keyboard-response","6","50631","0.0-6.0","5dd56b0bb0438951fd535966","640759fa512f630a2bdc333d","6408c177c347c840b5e435df","19225.20000000298","
    <div style='width: 1000px;'>
    <div style='float: center;'><img src='img/TaskInstructions2.png'></img>
    </div>
    ","k","","","","","","","","","","","","","","","","","","","","",""
"","","","","","video-keyboard-response","7","60504","0.0-7.0","5dd56b0bb0438951fd535966","640759fa512f630a2bdc333d","6408c177c347c840b5e435df","9871.5","[""video/TaskInstructions3.mp4""]","k","","","","","","","","","","","","","","","","","","","","",""
"","","","","","image-keyboard-response","8","65665","0.0-8.0-0.0","5dd56b0bb0438951fd535966","640759fa512f630a2bdc333d","6408c177c347c840b5e435df","5159.79999999702","img/training1.png","k","","","","","","","","","","","","","","","","","","","","",""
"","","","","","color-precision2","9","79028","0.0-8.0-1.0-0.0","5dd56b0bb0438951fd535966","640759fa512f630a2bdc333d","6408c177c347c840b5e435df","[6209.79999999702]","","","[23]","[148]","148","106","251.90055537814536","[251.90055537814536]","[145.90055537814536]","[148]","0","0","1","0","499.68599999701837","1008.0349999970203","1000","","","0","training","",""
"","","","","","image-keyboard-response","10","84282","0.0-8.0-0.1","5dd56b0bb0438951fd535966","640759fa512f630a2bdc333d","6408c177c347c840b5e435df","5254.5","img/training2.png","k","","","","","","","","","","","","","","","","","","","","",""
"","","","","","many-guess-6","11","95229","0.0-8.0-1.1-0.1","5dd56b0bb0438951fd535966","640759fa512f630a2bdc333d","6408c177c347c840b5e435df","[5744.899999991059]","","","[12,15,31]","[144,43,161]","144","140","293.38450870666287","[293.38450870666287]","[153.38450870666287]","[153]","[300,210,210,30,120,30,30,210,120,300,210,120,120,30,210,120,120,300,300,120,300,300,210,30,30,30,30,300,210,300,120,120,210,120,210,210]","0","3","0","999.4279999999999","1000.0739999970247","1000","[[[""img/mask57.png""],[""img/mask84.png""],[""img/mask34.png""]]]","","[12,15,31]","training","",""
"","","","","","image-keyboard-response","12","99916","0.0-8.0-0.2","5dd56b0bb0438951fd535966","640759fa512f630a2bdc333d","6408c177c347c840b5e435df","4686.70000000298","img/training3.png","j","","","","","","","","","","","","","","","","","","","","",""
"","","","","","[""many-guess-6""]","13","106286","0.0-8.0-1.2-0.2","5dd56b0bb0438951fd535966","640759fa512f630a2bdc333d","6408c177c347c840b5e435df","[3185.7999999970198]","","","[24,5,20,32,0]","[232,170,121,274,190]","232","172","309.07116450803534","[309.07116450803534]","[137.07116450803534]","[137]","[210,210,300,120,300,210,210,210,30,300,210,120,210,210,210,300,210,30,210,210,210,210,120,210,120,210,30,120,210,210,210,120,120,120,120,120]","0","5","0","499.6929999880813","495.9319999940344","500","[[[""img/mask78.png""],[""img/mask28.png""],[""img/mask2.png""],[""img/mask82.png""],[""img/mask11.png""]]]","","[24,5,20,32,0]","training","",""
"","","","","","image-keyboard-response","14","109941","0.0-8.0-0.3","5dd56b0bb0438951fd535966","640759fa512f630a2bdc333d","6408c177c347c840b5e435df","3654.7000000029802","img/training4.png","j","","","","","","","","","","","","","","","","","","","","",""
"","","","","","[""many-guess-6""]","15","115007","0.0-8.0-1.3-0.3","5dd56b0bb0438951fd535966","640759fa512f630a2bdc333d","6408c177c347c840b5e435df","[2523.5999999940395]","","","[15,1,27,35,22,25,32,23,0,31]","[247,190,326,214,224,236,288,265,178,298]","247","16","258.56089658071375","[258.56089658071375]","[242.56089658071375]","[243]","[30,120,120,210,120,300,300,210,30,210,210,120,30,120,300,210,120,120,120,300,120,30,120,120,30,120,120,30,120,120,120,210,120,300,120,210]","0","10","0","133.05899999702524","140.26200000000244","132","[[[""img/mask12.png""],[""img/mask81.png""],[""img/mask67.png""],[""img/mask89.png""],[""img/mask95.png""],[""img/mask69.png""],[""img/mask60.png""],[""img/mask23.png""],[""img/mask6.png""],[""img/mask53.png""]]]","","[15,1,27,35,22,25,32,23,0,31]","training","",""
"","","","","","image-keyboard-response","16","117574","0.0-8.0-0.4","5dd56b0bb0438951fd535966","640759fa512f630a2bdc333d","6408c177c347c840b5e435df","2566.7999999970198","img/training5.png","j","","","","","","","","","","","","","","","","","","","","",""
"","","","","","[""many-guess-6""]","17","121832","0.0-8.0-1.4-0.4","5dd56b0bb0438951fd535966","640759fa512f630a2bdc333d","6408c177c347c840b5e435df","[1531.9000000059605]","","","[11,6,5,27,12,34,35,1,26,9,2,28,21,22,33,32,24,23,18,3,16,4,30,10,15,29,0,14,20,7,17,19,8,25,31,13]","[252,262,63,193,13,103,352,113,332,173,53,33,73,243,223,123,282,233,302,93,322,183,153,43,83,312,133,342,163,203,272,143,292,3,23,213]","252","321","313.2921134716843","[313.2921134716843]","[352.2921134716843]","[352]","[30,30,300,120,300,120,120,30,300,30,30,120,210,120,30,30,300,210,120,300,120,30,30,30,30,210,120,120,120,210,30,120,300,300,30,300]","0","36","0","133.08099998807302","9.865000000005239","16","[[[""img/mask36.png""],[""img/mask10.png""],[""img/mask10.png""],[""img/mask62.png""],[""img/mask16.png""],[""img/mask92.png""],[""img/mask55.png""],[""img/mask82.png""],[""img/mask38.png""],[""img/mask26.png""],[""img/mask75.png""],[""img/mask87.png""],[""img/mask50.png""],[""img/mask14.png""],[""img/mask84.png""],[""img/mask78.png""],[""img/mask4.png""],[""img/mask76.png""],[""img/mask86.png""],[""img/mask19.png""],[""img/mask22.png""],[""img/mask26.png""],[""img/mask81.png""],[""img/mask63.png""],[""img/mask26.png""],[""img/mask62.png""],[""img/mask19.png""],[""img/mask63.png""],[""img/mask70.png""],[""img/mask28.png""],[""img/mask15.png""],[""img/mask97.png""],[""img/mask24.png""],[""img/mask8.png""],[""img/mask58.png""],[""img/mask71.png""]]]","","[11,6,5,27,12,34,35,1,26,9,2,28,21,22,33,32,24,23,18,3,16,4,30,10,15,29,0,14,20,7,17,19,8,25,31,13]","training","",""
"","","","","","image-keyboard-response","18","126616","0.0-9.0","5dd56b0bb0438951fd535966","640759fa512f630a2bdc333d","6408c177c347c840b5e435df","4783.100000008941","[""img/endTraining.png""]","j","","","","","","","","","","","","","","","","","","","","",""
"","","","","","many-guess-6","19","131089","0.0-10.0-0.0-0.0","5dd56b0bb0438951fd535966","640759fa512f630a2bdc333d","6408c177c347c840b5e435df","[1922.5]","","","[31,29,7,32,25,23,33,11,28,6,2,34,16,8,14,24,22,5,1,20,4,12,18,9,13,26,0,17,10,19,15,27,30,21,3,35]","[252,3,53,312,142,282,152,172,272,132,212,162,222,302,93,322,232,182,43,73,262,352,192,23,122,202,102,33,292,242,112,83,342,332,63,13]","252","146","301.85220842283167","[301.85220842283167]","[155.85220842283167]","[156]","[120,210,300,210,300,120,120,300,30]","0","36","0","149.56499999403604","24.994999988077325","16","[[[""img/mask89.png""],[""img/mask57.png""],[""img/mask93.png""],[""img/mask91.png""],[""img/mask84.png""],[""img/mask47.png""],[""img/mask91.png""],[""img/mask45.png""],[""img/mask65.png""],[""img/mask68.png""],[""img/mask97.png""],[""img/mask23.png""],[""img/mask1.png""],[""img/mask25.png""],[""img/mask76.png""],[""img/mask3.png""],[""img/mask23.png""],[""img/mask72.png""],[""img/mask38.png""],[""img/mask48.png""],[""img/mask94.png""],[""img/mask86.png""],[""img/mask29.png""],[""img/mask89.png""],[""img/mask30.png""],[""img/mask59.png""],[""img/mask65.png""],[""img/mask40.png""],[""img/mask26.png""],[""img/mask7.png""],[""img/mask76.png""],[""img/mask48.png""],[""img/mask22.png""],[""img/mask10.png""],[""img/mask67.png""],[""img/mask11.png""]]]","","[31,29,7,32,25,23,33,11,28,6,2,34,16,8,14,24,22,5,1,20,4,12,18,9,13,26,0,17,10,19,15,27,30,21,3,35]","main","146","many-guess-6"
"","","","","","html-keyboard-response","20","131591","0.0-10.0-1.0","5dd56b0bb0438951fd535966","640759fa512f630a2bdc333d","6408c177c347c840b5e435df","null","","null","","","","","","","","","","","","","","","","","","","fixation","",""
"","","","","","many-guess-6","21","135378","0.0-10.0-0.1-0.1","5dd56b0bb0438951fd535966","640759fa512f630a2bdc333d","6408c177c347c840b5e435df","[1860.8999999910593]","","","[25,17,5,2,6,33,19,35,34,16,7,21,10,28,23,0,20,15,22,32,24,14,18,9,12,3,27,1,30,11,31,13,29,4,8,26]","[299,119,30,209,239,259,229,79,89,199,149,99,309,319,139,269,179,279,159,10,70,60,40,20,249,50,339,189,219,109,359,329,289,349,129,169]","299","254","42.997048442154025","[42.997048442154025]","[148.99704844215404]","[147]","[210,120,120,210,30,210,300,120,30]","0","36","0","149.83399999106769","9.456999988091411","16","[[[""img/mask76.png""],[""img/mask86.png""],[""img/mask12.png""],[""img/mask98.png""],[""img/mask13.png""],[""img/mask70.png""],[""img/mask63.png""],[""img/mask30.png""],[""img/mask25.png""],[""img/mask48.png""],[""img/mask79.png""],[""img/mask45.png""],[""img/mask47.png""],[""img/mask39.png""],[""img/mask56.png""],[""img/mask24.png""],[""img/mask76.png""],[""img/mask40.png""],[""img/mask54.png""],[""img/mask79.png""],[""img/mask80.png""],[""img/mask100.png""],[""img/mask49.png""],[""img/mask12.png""],[""img/mask94.png""],[""img/mask95.png""],[""img/mask98.png""],[""img/mask21.png""],[""img/mask99.png""],[""img/mask27.png""],[""img/mask14.png""],[""img/mask99.png""],[""img/mask8.png""],[""img/mask60.png""],[""img/mask27.png""],[""img/mask48.png""]]]","","[25,17,5,2,6,33,19,35,34,16,7,21,10,28,23,0,20,15,22,32,24,14,18,9,12,3,27,1,30,11,31,13,29,4,8,26]","main","254","many-guess-6"
"","","","","","html-keyboard-response","22","135878","0.0-10.0-1.1","5dd56b0bb0438951fd535966","640759fa512f630a2bdc333d","6408c177c347c840b5e435df","null","","null","","","","","","","","","","","","","","","","","","","fixation","",""
"","","","","","color-precision2","23","139530","0.0-10.0-0.2-0.2","5dd56b0bb0438951fd535966","640759fa512f630a2bdc333d","6408c177c347c840b5e435df","[1046.9000000059605]","","","[12]","[234]","234","97","315.69328315655105","[315.69328315655105]","[218.69328315655105]","[219]","0","0","1","0","149.6599999940372","993.9829999940412","1000","[[[""img/mask7.png""]]]","","","main","97","color-precision2"
"","","","","","html-keyboard-response","24","140031","0.0-10.0-1.2","5dd56b0bb0438951fd535966","640759fa512f630a2bdc333d","6408c177c347c840b5e435df","null","","null","","","","","","","","","","","","","","","","","","","fixation","",""
"","","","","","many-guess-6","25","144171","0.0-10.0-0.3-0.3","5dd56b0bb0438951fd535966","640759fa512f630a2bdc333d","6408c177c347c840b5e435df","[1704.2000000029802]","","","[8,6,20,16,34,22,12,15,26,24,28,0,21,29,32,5,30,25,33,31,35,2,11,14,1,17,18,7,3,27,10,23,13,19,4,9]","[239,219,249,49,328,209,308,298,39,288,338,9,99,189,59,278,69,229,119,179,159,199,348,19,129,259,269,89,149,29,358,318,79,139,109,169]","239","13","333.2980213057468","[333.2980213057468]","[320.2980213057468]","[320]","[300,210,30,120,300,210,210,120,120]","0","36","0","149.66599999702885","11.815999994025333","16","[[[""img/mask48.png""],[""img/mask91.png""],[""img/mask41.png""],[""img/mask78.png""],[""img/mask35.png""],[""img/mask16.png""],[""img/mask40.png""],[""img/mask94.png""],[""img/mask36.png""],[""img/mask54.png""],[""img/mask14.png""],[""img/mask68.png""],[""img/mask64.png""],[""img/mask5.png""],[""img/mask35.png""],[""img/mask10.png""],[""img/mask83.png""],[""img/mask4.png""],[""img/mask79.png""],[""img/mask8.png""],[""img/mask74.png""],[""img/mask5.png""],[""img/mask76.png""],[""img/mask74.png""],[""img/mask85.png""],[""img/mask66.png""],[""img/mask70.png""],[""img/mask31.png""],[""img/mask7.png""],[""img/mask16.png""],[""img/mask5.png""],[""img/mask14.png""],[""img/mask21.png""],[""img/mask98.png""],[""img/mask84.png""],[""img/mask79.png""]]]","","[8,6,20,16,34,22,12,15,26,24,28,0,21,29,32,5,30,25,33,31,35,2,11,14,1,17,18,7,3,27,10,23,13,19,4,9]","main","13","many-guess-6"
"","","","","","html-keyboard-response","26","144673","0.0-10.0-1.3","5dd56b0bb0438951fd535966","640759fa512f630a2bdc333d","6408c177c347c840b5e435df","null","","null","","","","","","","","","","","","","","","","","","","fixation","",""
"","","","","","many-guess-6","27","148524","0.0-10.0-0.4-0.4","5dd56b0bb0438951fd535966","640759fa512f630a2bdc333d","6408c177c347c840b5e435df","[2156.7000000029802]","","","[27,32,34,10,1,33,23,13,22,2,0,26,21,8,7,18,20,11,17,6,5,29,9,16,12,19,15,14,4,3,25,30,28,24,35,31]","[79,219,259,278,149,89,179,159,29,308,109,169,19,239,49,249,358,69,209,189,269,199,348,99,59,119,39,338,129,9,318,229,288,328,139,298]","79","299","205.93373167521045","[205.93373167521045]","[266.9337316752104]","[267]","[300,300,120,30,30,120,300,120,300]","0","36","0","149.7309999910649","19.67499999998836","16","[[[""img/mask63.png""],[""img/mask86.png""],[""img/mask73.png""],[""img/mask94.png""],[""img/mask69.png""],[""img/mask45.png""],[""img/mask33.png""],[""img/mask57.png""],[""img/mask85.png""],[""img/mask11.png""],[""img/mask32.png""],[""img/mask99.png""],[""img/mask12.png""],[""img/mask22.png""],[""img/mask37.png""],[""img/mask75.png""],[""img/mask96.png""],[""img/mask8.png""],[""img/mask33.png""],[""img/mask97.png""],[""img/mask13.png""],[""img/mask15.png""],[""img/mask100.png""],[""img/mask38.png""],[""img/mask38.png""],[""img/mask68.png""],[""img/mask40.png""],[""img/mask20.png""],[""img/mask33.png""],[""img/mask81.png""],[""img/mask82.png""],[""img/mask92.png""],[""img/mask48.png""],[""img/mask19.png""],[""img/mask89.png""],[""img/mask16.png""]]]","","[27,32,34,10,1,33,23,13,22,2,0,26,21,8,7,18,20,11,17,6,5,29,9,16,12,19,15,14,4,3,25,30,28,24,35,31]","main","299","many-guess-6"
"","","","","","html-keyboard-response","28","149024","0.0-10.0-1.4","5dd56b0bb0438951fd535966","640759fa512f630a2bdc333d","6408c177c347c840b5e435df","null","","null","","","","","","","","","","","","","","","","","","","fixation","",""
"","","","","","color-precision2","29","152572","0.0-10.0-0.5-0.5","5dd56b0bb0438951fd535966","640759fa512f630a2bdc333d","6408c177c347c840b5e435df","[621.8000000119209]","","","[19]","[154]","154","248","46.21197431172021","[46.21197431172021]","[158.2119743117202]","[156]","0","0","1","0","149.53199999107164","992.5619999940391","1000","[[[""img/mask25.png""]]]","","","main","248","color-precision2"
"","","","","","html-keyboard-response","30","153073","0.0-10.0-1.5","5dd56b0bb0438951fd535966","640759fa512f630a2bdc333d","6408c177c347c840b5e435df","null","","null","","","","","","","","","","","","","","","","","","","fixation","",""
"","","","","","many-guess-6","31","156533","0.0-10.0-0.6-0.6","5dd56b0bb0438951fd535966","640759fa512f630a2bdc333d","6408c177c347c840b5e435df","[1565.7000000029802]","","","[21,5,12,29,24,34,10,28,22,35,32,0,27,30,15,14,6,18,25,26,1,31,2,33,8,11,9,17,19,23,13,20,7,16,4,3]","[311,152,132,211,92,251,62,171,271,241,142,12,82,301,331,351,221,341,72,42,32,191,22,2,261,181,112,122,291,201,281,102,321,52,231,162]","311","278","339.0455215189697","[339.0455215189697]","[61.04552151896968]","[61]","[300,300,120,300,210,210,300,210,210]","0","36","0","149.76500000001397","20.80899998807581","16","[[[""img/mask92.png""],[""img/mask7.png""],[""img/mask76.png""],[""img/mask82.png""],[""img/mask50.png""],[""img/mask99.png""],[""img/mask93.png""],[""img/mask65.png""],[""img/mask74.png""],[""img/mask53.png""],[""img/mask42.png""],[""img/mask23.png""],[""img/mask5.png""],[""img/mask8.png""],[""img/mask89.png""],[""img/mask84.png""],[""img/mask12.png""],[""img/mask72.png""],[""img/mask1.png""],[""img/mask53.png""],[""img/mask96.png""],[""img/mask85.png""],[""img/mask9.png""],[""img/mask50.png""],[""img/mask85.png""],[""img/mask25.png""],[""img/mask38.png""],[""img/mask16.png""],[""img/mask9.png""],[""img/mask7.png""],[""img/mask23.png""],[""img/mask91.png""],[""img/mask72.png""],[""img/mask9.png""],[""img/mask87.png""],[""img/mask33.png""]]]","","[21,5,12,29,24,34,10,28,22,35,32,0,27,30,15,14,6,18,25,26,1,31,2,33,8,11,9,17,19,23,13,20,7,16,4,3]","main","278","many-guess-6"
"","","","","","html-keyboard-response","32","157034","0.0-10.0-1.6","5dd56b0bb0438951fd535966","640759fa512f630a2bdc333d","6408c177c347c840b5e435df","null","","null","","","","","","","","","","","","","","","","","","","fixation","",""
"","","","","","color-precision2","33","160301","0.0-10.0-0.7-0.7","5dd56b0bb0438951fd535966","640759fa512f630a2bdc333d","6408c177c347c840b5e435df","[517.5]","","","[35]","[265]","265","67","330.8399025752805","[330.8399025752805]","[263.8399025752805]","[265]","0","0","1","0","149.49199999403208","992.4169999880833","1000","[[[""img/mask89.png""]]]","","","main","67","color-precision2"
"","","","","","html-keyboard-response","34","160803","0.0-10.0-1.7","5dd56b0bb0438951fd535966","640759fa512f630a2bdc333d","6408c177c347c840b5e435df","null","","null","","","","","","","","","","","","","","","","","","","fixation","",""
"","","","","","color-precision2","35","165022","0.0-10.0-0.8-0.8","5dd56b0bb0438951fd535966","640759fa512f630a2bdc333d","6408c177c347c840b5e435df","[1688.1000000089407]","","","[9]","[260]","260","275","186.86768739228333","[186.86768739228333]","[271.8676873922833]","[271]","0","0","1","0","149.58899998807465","995.2899999940419","1000","[[[""img/mask5.png""]]]","","","main","275","color-precision2"
"","","","","","html-keyboard-response","36","165523","0.0-10.0-1.8","5dd56b0bb0438951fd535966","640759fa512f630a2bdc333d","6408c177c347c840b5e435df","null","","null","","","","","","","","","","","","","","","","","","","fixation","",""
"","","","","","many-guess-6","37","170687","0.0-10.0-0.9-0.9","5dd56b0bb0438951fd535966","640759fa512f630a2bdc333d","6408c177c347c840b5e435df","[1836.2000000029802]","","","[30,24,11,5,8,32,27,31,1,25,9,0,20,13,6,7,21,23,17,3,22,18,26,28,15,19,16,29,2,34,12,10,4,33,35,14]","[76,206,116,26,256,236,325,305,335,296,355,246,96,226,266,146,106,216,16,176,126,156,36,46,345,315,286,66,136,186,56,6,166,86,196,276]","76","297","11.907685279945731","[11.907685279945731]","[74.90768527994572]","[76]","[30,120,120,300,120,210,210,120,210]","0","36","0","149.6839999880758","31.410999991057906","16","[[[""img/mask42.png""],[""img/mask55.png""],[""img/mask24.png""],[""img/mask86.png""],[""img/mask77.png""],[""img/mask63.png""],[""img/mask52.png""],[""img/mask5.png""],[""img/mask47.png""],[""img/mask31.png""],[""img/mask23.png""],[""img/mask82.png""],[""img/mask28.png""],[""img/mask49.png""],[""img/mask94.png""],[""img/mask81.png""],[""img/mask84.png""],[""img/mask12.png""],[""img/mask31.png""],[""img/mask81.png""],[""img/mask86.png""],[""img/mask90.png""],[""img/mask67.png""],[""img/mask19.png""],[""img/mask93.png""],[""img/mask73.png""],[""img/mask89.png""],[""img/mask12.png""],[""img/mask51.png""],[""img/mask14.png""],[""img/mask74.png""],[""img/mask28.png""],[""img/mask21.png""],[""img/mask33.png""],[""img/mask34.png""],[""img/mask12.png""]]]","","[30,24,11,5,8,32,27,31,1,25,9,0,20,13,6,7,21,23,17,3,22,18,26,28,15,19,16,29,2,34,12,10,4,33,35,14]","main","297","many-guess-6"
"","","","","","html-keyboard-response","38","171188","0.0-10.0-1.9","5dd56b0bb0438951fd535966","640759fa512f630a2bdc333d","6408c177c347c840b5e435df","null","","null","","","","","","","","","","","","","","","","","","","fixation","",""
"","","","","","color-precision2","39","174855","0.0-10.0-0.10-0.10","5dd56b0bb0438951fd535966","640759fa512f630a2bdc333d","6408c177c347c840b5e435df","[821.3000000119209]","","","[5]","[288]","288","188","125.77865672107812","[125.77865672107812]","[297.7786567210781]","[296]","0","0","1","0","149.29699999999139","1002.2059999940393","1000","[[[""img/mask96.png""]]]","","","main","188","color-precision2"
"","","","","","html-keyboard-response","40","175356","0.0-10.0-1.10","5dd56b0bb0438951fd535966","640759fa512f630a2bdc333d","6408c177c347c840b5e435df","null","","null","","","","","","","","","","","","","","","","","","","fixation","",""
"","","","","","many-guess-6","41","180104","0.0-10.0-0.11-0.11","5dd56b0bb0438951fd535966","640759fa512f630a2bdc333d","6408c177c347c840b5e435df","[1986.9000000059605]","","","[30,25,26,5,11,13,1,16,28,21,33,6,3,10,14,32,8,34,12,22,31,4,15,17,9,23,20,27,35,24,7,29,0,19,2,18]","[104,313,24,4,304,254,264,244,184,224,274,353,214,154,323,204,34,234,333,343,134,174,284,164,124,74,44,14,114,294,94,84,64,144,194,54]","104","186","60.690026474622236","[60.690026474622236]","[234.69002647462224]","[233]","[300,30,120,300,30,210,30,300,120]","0","36","0","149.70499999405","24.238999997032806","16","[[[""img/mask68.png""],[""img/mask32.png""],[""img/mask48.png""],[""img/mask28.png""],[""img/mask43.png""],[""img/mask64.png""],[""img/mask32.png""],[""img/mask74.png""],[""img/mask61.png""],[""img/mask25.png""],[""img/mask36.png""],[""img/mask40.png""],[""img/mask53.png""],[""img/mask24.png""],[""img/mask42.png""],[""img/mask11.png""],[""img/mask61.png""],[""img/mask81.png""],[""img/mask82.png""],[""img/mask82.png""],[""img/mask24.png""],[""img/mask77.png""],[""img/mask94.png""],[""img/mask83.png""],[""img/mask6.png""],[""img/mask77.png""],[""img/mask9.png""],[""img/mask67.png""],[""img/mask14.png""],[""img/mask64.png""],[""img/mask67.png""],[""img/mask3.png""],[""img/mask77.png""],[""img/mask94.png""],[""img/mask84.png""],[""img/mask86.png""]]]","","[30,25,26,5,11,13,1,16,28,21,33,6,3,10,14,32,8,34,12,22,31,4,15,17,9,23,20,27,35,24,7,29,0,19,2,18]","main","186","many-guess-6"
"","","","","","html-keyboard-response","42","180605","0.0-10.0-1.11","5dd56b0bb0438951fd535966","640759fa512f630a2bdc333d","6408c177c347c840b5e435df","null","","null","","","","","","","","","","","","","","","","","","","fixation","",""
"","","","","","many-guess-6","43","185689","0.0-10.0-0.12-0.12","5dd56b0bb0438951fd535966","640759fa512f630a2bdc333d","6408c177c347c840b5e435df","[2738.2000000029802]","","","[32,21,3,0,14,25,6,33,13,19,7,10,4,9,28,34,22,20,18,5,1,17,2,31,24,27,35,15,12,23,30,16,29,8,11,26]","[186,116,256,226,106,356,36,306,286,326,56,346,296,16,46,316,276,176,246,196,126,26,156,86,136,166,6,216,146,206,66,266,336,76,96,236]","186","257","41.682424138673156","[41.682424138673156]","[144.68242413867316]","[143]","[210,30,300,300,120,120,210,210,210]","0","36","0","149.5819999880914","16.56899999702","16","[[[""img/mask18.png""],[""img/mask96.png""],[""img/mask58.png""],[""img/mask32.png""],[""img/mask64.png""],[""img/mask55.png""],[""img/mask11.png""],[""img/mask84.png""],[""img/mask81.png""],[""img/mask13.png""],[""img/mask56.png""],[""img/mask96.png""],[""img/mask51.png""],[""img/mask65.png""],[""img/mask40.png""],[""img/mask70.png""],[""img/mask47.png""],[""img/mask94.png""],[""img/mask16.png""],[""img/mask58.png""],[""img/mask18.png""],[""img/mask12.png""],[""img/mask83.png""],[""img/mask2.png""],[""img/mask12.png""],[""img/mask50.png""],[""img/mask5.png""],[""img/mask86.png""],[""img/mask5.png""],[""img/mask8.png""],[""img/mask97.png""],[""img/mask24.png""],[""img/mask82.png""],[""img/mask95.png""],[""img/mask36.png""],[""img/mask71.png""]]]","","[32,21,3,0,14,25,6,33,13,19,7,10,4,9,28,34,22,20,18,5,1,17,2,31,24,27,35,15,12,23,30,16,29,8,11,26]","main","257","many-guess-6"
"","","","","","html-keyboard-response","44","186189","0.0-10.0-1.12","5dd56b0bb0438951fd535966","640759fa512f630a2bdc333d","6408c177c347c840b5e435df","null","","null","","","","","","","","","","","","","","","","","","","fixation","",""
"","","","","","many-guess-6","45","191153","0.0-10.0-0.13-0.13","5dd56b0bb0438951fd535966","640759fa512f630a2bdc333d","6408c177c347c840b5e435df","[2886.4000000059605]","","","[22,1,32,13,23,5,17,21,30,3,7,35,25,31,8,2,0,4,9,19,15,16,34,14,26,29,20,18,33,24,11,27,6,10,12,28]","[204,174,55,105,344,85,334,324,164,194,35,274,304,284,144,25,224,95,234,354,65,75,125,314,254,214,45,5,244,134,264,154,15,184,115,294]","204","292","301.14477606354313","[301.14477606354313]","[9.144776063543134]","[10]","[210,210,300,120,210,210,210,300,120]","0","36","0","149.8079999970214","19.818999991053715","16","[[[""img/mask4.png""],[""img/mask25.png""],[""img/mask1.png""],[""img/mask28.png""],[""img/mask8.png""],[""img/mask43.png""],[""img/mask57.png""],[""img/mask3.png""],[""img/mask100.png""],[""img/mask96.png""],[""img/mask96.png""],[""img/mask58.png""],[""img/mask63.png""],[""img/mask60.png""],[""img/mask35.png""],[""img/mask90.png""],[""img/mask83.png""],[""img/mask57.png""],[""img/mask90.png""],[""img/mask85.png""],[""img/mask92.png""],[""img/mask52.png""],[""img/mask97.png""],[""img/mask37.png""],[""img/mask57.png""],[""img/mask65.png""],[""img/mask62.png""],[""img/mask83.png""],[""img/mask38.png""],[""img/mask68.png""],[""img/mask92.png""],[""img/mask100.png""],[""img/mask10.png""],[""img/mask58.png""],[""img/mask66.png""],[""img/mask12.png""]]]","","[22,1,32,13,23,5,17,21,30,3,7,35,25,31,8,2,0,4,9,19,15,16,34,14,26,29,20,18,33,24,11,27,6,10,12,28]","main","292","many-guess-6"
"","","","","","html-keyboard-response","46","191656","0.0-10.0-1.13","5dd56b0bb0438951fd535966","640759fa512f630a2bdc333d","6408c177c347c840b5e435df","null","","null","","","","","","","","","","","","","","","","","","","fixation","",""
"","","","","","color-precision2","47","194634","0.0-10.0-0.14-0.14","5dd56b0bb0438951fd535966","640759fa512f630a2bdc333d","6408c177c347c840b5e435df","[499.90000000596046]","","","[21]","[233]","233","46","282.7537681230258","[282.7537681230258]","[236.7537681230258]","[237]","0","0","1","0","149.62700000000768","1003.254999997007","1000","[[[""img/mask63.png""]]]","","","main","46","color-precision2"
"","","","","","html-keyboard-response","48","195135","0.0-10.0-1.14","5dd56b0bb0438951fd535966","640759fa512f630a2bdc333d","6408c177c347c840b5e435df","null","","null","","","","","","","","","","","","","","","","","","","fixation","",""
"","","","","","many-guess-6","49","198242","0.0-10.0-0.15-0.15","5dd56b0bb0438951fd535966","640759fa512f630a2bdc333d","6408c177c347c840b5e435df","[1408.5999999940395]","","","[9,30,14,0,22,21,5,4,19,31,11,23,24,3,27,29,33,6,7,18,32,34,10,8,28,20,13,25,16,17,26,35,15,2,12,1]","[204,115,154,194,244,164,95,264,5,254,35,274,135,15,125,184,65,284,294,214,344,145,105,55,25,314,324,75,174,45,334,354,224,304,85,234]","204","43","344.56795843277047","[344.56795843277047]","[301.56795843277047]","[301]","[120,120,120,210,300,30,210,120,120]","0","36","0","149.81599998808815","8.352999991067918","16","[[[""img/mask98.png""],[""img/mask60.png""],[""img/mask89.png""],[""img/mask61.png""],[""img/mask8.png""],[""img/mask56.png""],[""img/mask62.png""],[""img/mask95.png""],[""img/mask64.png""],[""img/mask5.png""],[""img/mask19.png""],[""img/mask6.png""],[""img/mask87.png""],[""img/mask42.png""],[""img/mask46.png""],[""img/mask83.png""],[""img/mask78.png""],[""img/mask2.png""],[""img/mask84.png""],[""img/mask2.png""],[""img/mask100.png""],[""img/mask48.png""],[""img/mask73.png""],[""img/mask10.png""],[""img/mask20.png""],[""img/mask63.png""],[""img/mask53.png""],[""img/mask30.png""],[""img/mask11.png""],[""img/mask28.png""],[""img/mask59.png""],[""img/mask89.png""],[""img/mask29.png""],[""img/mask48.png""],[""img/mask40.png""],[""img/mask5.png""]]]","","[9,30,14,0,22,21,5,4,19,31,11,23,24,3,27,29,33,6,7,18,32,34,10,8,28,20,13,25,16,17,26,35,15,2,12,1]","main","43","many-guess-6"
"","","","","","html-keyboard-response","50","198744","0.0-10.0-1.15","5dd56b0bb0438951fd535966","640759fa512f630a2bdc333d","6408c177c347c840b5e435df","null","","null","","","","","","","","","","","","","","","","","","","fixation","",""
"","","","","","color-precision2","51","202458","0.0-10.0-0.16-0.16","5dd56b0bb0438951fd535966","640759fa512f630a2bdc333d","6408c177c347c840b5e435df","[541.7000000029802]","","","[2]","[249]","249","188","73.95708075498547","[73.95708075498547]","[245.95708075498547]","[244]","0","0","1","0","149.50599999402766","1004.82099999403","1000","[[[""img/mask25.png""]]]","","","main","188","color-precision2"
"","","","","","html-keyboard-response","52","202959","0.0-10.0-1.16","5dd56b0bb0438951fd535966","640759fa512f630a2bdc333d","6408c177c347c840b5e435df","null","","null","","","","","","","","","","","","","","","","","","","fixation","",""
"","","","","","color-precision2","53","205995","0.0-10.0-0.17-0.17","5dd56b0bb0438951fd535966","640759fa512f630a2bdc333d","6408c177c347c840b5e435df","[561.5]","","","[14]","[308]","308","151","106.81218850564174","[106.81218850564174]","[315.81218850564176]","[314]","0","0","1","0","149.54099999999744","998.0609999880835","1000","[[[""img/mask1.png""]]]","","","main","151","color-precision2"
"","","","","","html-keyboard-response","54","206497","0.0-10.0-1.17","5dd56b0bb0438951fd535966","640759fa512f630a2bdc333d","6408c177c347c840b5e435df","null","","null","","","","","","","","","","","","","","","","","","","fixation","",""
"","","","","","color-precision2","55","209555","0.0-10.0-0.18-0.18","5dd56b0bb0438951fd535966","640759fa512f630a2bdc333d","6408c177c347c840b5e435df","[355.3999999910593]","","","[9]","[227]","227","219","103.98754103478996","[103.98754103478996]","[244.98754103478996]","[243]","0","0","1","0","149.47999999701278","996.904999991064","1000","[[[""img/mask92.png""]]]","","","main","219","color-precision2"
"","","","","","html-keyboard-response","56","210056","0.0-10.0-1.18","5dd56b0bb0438951fd535966","640759fa512f630a2bdc333d","6408c177c347c840b5e435df","null","","null","","","","","","","","","","","","","","","","","","","fixation","",""
"","","","","","many-guess-6","57","213948","0.0-10.0-0.19-0.19","5dd56b0bb0438951fd535966","640759fa512f630a2bdc333d","6408c177c347c840b5e435df","[2081.4000000059605]","","","[14,19,15,25,18,22,13,16,24,8,4,1,17,2,28,33,9,26,31,32,6,21,0,34,29,27,30,5,23,12,7,10,20,3,11,35]","[66,46,255,325,295,86,205,125,275,16,115,96,6,145,56,285,245,135,155,345,175,106,195,165,26,215,235,225,315,335,265,355,36,305,76,185]","66","230","46.23346199461313","[46.23346199461313]","[176.23346199461312]","[175]","[300,300,30,120,120,120,210,120,120]","0","36","0","149.91899999402813","30.538999997021165","16","[[[""img/mask25.png""],[""img/mask58.png""],[""img/mask72.png""],[""img/mask50.png""],[""img/mask38.png""],[""img/mask46.png""],[""img/mask85.png""],[""img/mask15.png""],[""img/mask25.png""],[""img/mask60.png""],[""img/mask33.png""],[""img/mask65.png""],[""img/mask47.png""],[""img/mask81.png""],[""img/mask84.png""],[""img/mask19.png""],[""img/mask81.png""],[""img/mask45.png""],[""img/mask5.png""],[""img/mask83.png""],[""img/mask56.png""],[""img/mask42.png""],[""img/mask93.png""],[""img/mask42.png""],[""img/mask4.png""],[""img/mask66.png""],[""img/mask46.png""],[""img/mask31.png""],[""img/mask80.png""],[""img/mask81.png""],[""img/mask58.png""],[""img/mask67.png""],[""img/mask47.png""],[""img/mask45.png""],[""img/mask10.png""],[""img/mask9.png""]]]","","[14,19,15,25,18,22,13,16,24,8,4,1,17,2,28,33,9,26,31,32,6,21,0,34,29,27,30,5,23,12,7,10,20,3,11,35]","main","230","many-guess-6"
"","","","","","html-keyboard-response","58","229692","0.0-10.0-1.19","5dd56b0bb0438951fd535966","640759fa512f630a2bdc333d","6408c177c347c840b5e435df","15744.5","Wow! You've completed 20 out of 180 trials! </p> <p>  </p><p> Take a quick break, then press any key when you're ready to continue.","j","","","","","","","","","","","","","","","","","","","fixation","",""
"","","","","","color-precision2","59","233886","0.0-10.0-0.20-0.20","5dd56b0bb0438951fd535966","640759fa512f630a2bdc333d","6408c177c347c840b5e435df","[736.2999999970198]","","","[9]","[55]","55","267","317.4422263895843","[317.4422263895843]","[50.44222638958428]","[51]","0","0","1","0","149.49799999999232","993.9159999940312","1000","[[[""img/mask24.png""]]]","","","main","267","color-precision2"
"","","","","","html-keyboard-response","60","234387","0.0-10.0-1.20","5dd56b0bb0438951fd535966","640759fa512f630a2bdc333d","6408c177c347c840b5e435df","null","","null","","","","","","","","","","","","","","","","","","","fixation","",""
"","","","","","many-guess-6","61","237991","0.0-10.0-0.21-0.21","5dd56b0bb0438951fd535966","640759fa512f630a2bdc333d","6408c177c347c840b5e435df","[2057.8999999910593]","","","[30,8,21,33,31,20,4,10,5,24,9,17,34,23,1,26,15,2,25,35,18,13,14,16,29,3,27,12,0,32,11,7,6,22,28,19]","[9,29,79,69,268,238,338,128,328,178,288,98,89,298,59,228,358,39,218,198,208,248,278,19,49,108,318,348,148,168,258,308,118,158,138,188]","9","321","263.5004603641429","[263.5004603641429]","[302.5004603641429]","[303]","[120,30,210,120,210,120,300,30,300]","0","36","0","149.69899999105837","14.292999994038837","16","[[[""img/mask93.png""],[""img/mask73.png""],[""img/mask34.png""],[""img/mask70.png""],[""img/mask94.png""],[""img/mask29.png""],[""img/mask67.png""],[""img/mask2.png""],[""img/mask48.png""],[""img/mask41.png""],[""img/mask62.png""],[""img/mask22.png""],[""img/mask57.png""],[""img/mask9.png""],[""img/mask76.png""],[""img/mask93.png""],[""img/mask48.png""],[""img/mask26.png""],[""img/mask100.png""],[""img/mask19.png""],[""img/mask32.png""],[""img/mask33.png""],[""img/mask21.png""],[""img/mask75.png""],[""img/mask41.png""],[""img/mask2.png""],[""img/mask27.png""],[""img/mask21.png""],[""img/mask34.png""],[""img/mask16.png""],[""img/mask93.png""],[""img/mask60.png""],[""img/mask47.png""],[""img/mask3.png""],[""img/mask82.png""],[""img/mask54.png""]]]","","[30,8,21,33,31,20,4,10,5,24,9,17,34,23,1,26,15,2,25,35,18,13,14,16,29,3,27,12,0,32,11,7,6,22,28,19]","main","321","many-guess-6"
"","","","","","html-keyboard-response","62","238492","0.0-10.0-1.21","5dd56b0bb0438951fd535966","640759fa512f630a2bdc333d","6408c177c347c840b5e435df","null","","null","","","","","","","","","","","","","","","","","","","fixation","",""
"","","","","","many-guess-6","63","241775","0.0-10.0-0.22-0.22","5dd56b0bb0438951fd535966","640759fa512f630a2bdc333d","6408c177c347c840b5e435df","[1925.7000000029802]","","","[35,1,33,24,17,13,15,6,12,29,8,16,25,32,30,14,7,28,10,23,20,2,3,4,19,31,22,0,11,9,21,26,5,18,34,27]","[72,202,252,142,262,33,232,312,102,192,42,322,352,332,3,52,212,92,82,172,272,112,302,122,342,292,23,162,282,13,242,182,62,222,152,132]","72","86","309.91839680933896","[309.91839680933896]","[223.91839680933896]","[224]","[210,300,30,30,30,210,120,120,210]","0","36","0","149.82899999106303","23.268000000010943","16","[[[""img/mask56.png""],[""img/mask37.png""],[""img/mask67.png""],[""img/mask50.png""],[""img/mask72.png""],[""img/mask64.png""],[""img/mask24.png""],[""img/mask84.png""],[""img/mask93.png""],[""img/mask79.png""],[""img/mask39.png""],[""img/mask7.png""],[""img/mask96.png""],[""img/mask13.png""],[""img/mask56.png""],[""img/mask17.png""],[""img/mask68.png""],[""img/mask98.png""],[""img/mask26.png""],[""img/mask68.png""],[""img/mask26.png""],[""img/mask4.png""],[""img/mask26.png""],[""img/mask89.png""],[""img/mask61.png""],[""img/mask79.png""],[""img/mask88.png""],[""img/mask75.png""],[""img/mask97.png""],[""img/mask98.png""],[""img/mask86.png""],[""img/mask57.png""],[""img/mask53.png""],[""img/mask84.png""],[""img/mask91.png""],[""img/mask89.png""]]]","","[35,1,33,24,17,13,15,6,12,29,8,16,25,32,30,14,7,28,10,23,20,2,3,4,19,31,22,0,11,9,21,26,5,18,34,27]","main","86","many-guess-6"
"","","","","","html-keyboard-response","64","242275","0.0-10.0-1.22","5dd56b0bb0438951fd535966","640759fa512f630a2bdc333d","6408c177c347c840b5e435df","null","","null","","","","","","","","","","","","","","","","","","","fixation","",""
"","","","","","many-guess-6","65","246311","0.0-10.0-0.23-0.23","5dd56b0bb0438951fd535966","640759fa512f630a2bdc333d","6408c177c347c840b5e435df","[1995.7999999970198]","","","[19,12,4,17,8,34,0,13,15,31,35,30,6,5,7,22,33,32,9,16,18,27,3,10,11,2,1,28,23,29,20,21,25,26,14,24]","[168,18,347,318,148,88,188,158,357,278,48,308,128,138,328,238,98,258,298,178,28,198,78,218,248,8,108,268,68,288,58,208,118,38,337,228]","168","117","7.091723070870104","[7.091723070870104]","[250.0917230708701]","[249]","[30,300,30,210,300,300,30,300,120]","0","36","0","149.88499999701162","21.70099999703234","16","[[[""img/mask98.png""],[""img/mask53.png""],[""img/mask13.png""],[""img/mask33.png""],[""img/mask80.png""],[""img/mask38.png""],[""img/mask10.png""],[""img/mask7.png""],[""img/mask4.png""],[""img/mask28.png""],[""img/mask98.png""],[""img/mask85.png""],[""img/mask3.png""],[""img/mask87.png""],[""img/mask47.png""],[""img/mask37.png""],[""img/mask60.png""],[""img/mask74.png""],[""img/mask63.png""],[""img/mask91.png""],[""img/mask48.png""],[""img/mask92.png""],[""img/mask24.png""],[""img/mask62.png""],[""img/mask10.png""],[""img/mask3.png""],[""img/mask7.png""],[""img/mask99.png""],[""img/mask79.png""],[""img/mask91.png""],[""img/mask38.png""],[""img/mask2.png""],[""img/mask5.png""],[""img/mask66.png""],[""img/mask39.png""],[""img/mask60.png""]]]","","[19,12,4,17,8,34,0,13,15,31,35,30,6,5,7,22,33,32,9,16,18,27,3,10,11,2,1,28,23,29,20,21,25,26,14,24]","main","117","many-guess-6"
"","","","","","html-keyboard-response","66","246813","0.0-10.0-1.23","5dd56b0bb0438951fd535966","640759fa512f630a2bdc333d","6408c177c347c840b5e435df","null","","null","","","","","","","","","","","","","","","","","","","fixation","",""
"","","","","","many-guess-6","67","250008","0.0-10.0-0.24-0.24","5dd56b0bb0438951fd535966","640759fa512f630a2bdc333d","6408c177c347c840b5e435df","[1908.7999999970198]","","","[26,5,34,28,17,30,21,20,15,2,11,24,31,35,32,3,22,1,25,29,16,27,13,10,6,8,23,9,0,18,7,33,19,14,4,12]","[216,66,265,295,36,76,355,236,226,136,176,96,156,126,325,335,56,186,345,16,166,116,46,86,305,206,285,26,255,245,196,146,106,315,275,6]","216","298","334.25289322760193","[334.25289322760193]","[36.25289322760193]","[36]","[30,210,300,120,300,120,300,210,30]","0","36","0","149.7859999910579","22.834999994025566","16","[[[""img/mask90.png""],[""img/mask28.png""],[""img/mask73.png""],[""img/mask94.png""],[""img/mask2.png""],[""img/mask29.png""],[""img/mask50.png""],[""img/mask14.png""],[""img/mask84.png""],[""img/mask76.png""],[""img/mask66.png""],[""img/mask70.png""],[""img/mask99.png""],[""img/mask69.png""],[""img/mask60.png""],[""img/mask79.png""],[""img/mask11.png""],[""img/mask41.png""],[""img/mask74.png""],[""img/mask89.png""],[""img/mask83.png""],[""img/mask25.png""],[""img/mask34.png""],[""img/mask94.png""],[""img/mask64.png""],[""img/mask92.png""],[""img/mask35.png""],[""img/mask71.png""],[""img/mask87.png""],[""img/mask17.png""],[""img/mask28.png""],[""img/mask9.png""],[""img/mask44.png""],[""img/mask79.png""],[""img/mask30.png""],[""img/mask76.png""]]]","","[26,5,34,28,17,30,21,20,15,2,11,24,31,35,32,3,22,1,25,29,16,27,13,10,6,8,23,9,0,18,7,33,19,14,4,12]","main","298","many-guess-6"
"","","","","","html-keyboard-response","68","250508","0.0-10.0-1.24","5dd56b0bb0438951fd535966","640759fa512f630a2bdc333d","6408c177c347c840b5e435df","null","","null","","","","","","","","","","","","","","","","","","","fixation","",""
"","","","","","color-precision2","69","253792","0.0-10.0-0.25-0.25","5dd56b0bb0438951fd535966","640759fa512f630a2bdc333d","6408c177c347c840b5e435df","[793.2000000029802]","","","[24]","[83]","83","38","119.86478156124804","[119.86478156124804]","[81.86478156124804]","[80]","0","0","1","0","149.73299999107257","1002.0699999910721","1000","[[[""img/mask68.png""]]]","","","main","38","color-precision2"
"","","","","","html-keyboard-response","70","254293","0.0-10.0-1.25","5dd56b0bb0438951fd535966","640759fa512f630a2bdc333d","6408c177c347c840b5e435df","null","","null","","","","","","","","","","","","","","","","","","","fixation","",""
"","","","","","color-precision2","71","258033","0.0-10.0-0.26-0.26","5dd56b0bb0438951fd535966","640759fa512f630a2bdc333d","6408c177c347c840b5e435df","[483.59999999403954]","","","[16]","[81]","81","51","119.77936018816781","[119.77936018816781]","[68.77936018816781]","[67]","0","0","1","0","149.61899999700836","1000.9209999970335","1000","[[[""img/mask52.png""]]]","","","main","51","color-precision2"
"","","","","","html-keyboard-response","72","258534","0.0-10.0-1.26","5dd56b0bb0438951fd535966","640759fa512f630a2bdc333d","6408c177c347c840b5e435df","null","","null","","","","","","","","","","","","","","","","","","","fixation","",""
"","","","","","color-precision2","73","261466","0.0-10.0-0.27-0.27","5dd56b0bb0438951fd535966","640759fa512f630a2bdc333d","6408c177c347c840b5e435df","[516.0999999940395]","","","[2]","[92]","92","224","308.79833477224787","[308.79833477224787]","[84.79833477224787]","[85]","0","0","1","0","149.4789999880595","994.1969999940484","1000","[[[""img/mask71.png""]]]","","","main","224","color-precision2"
"","","","","","html-keyboard-response","74","261967","0.0-10.0-1.27","5dd56b0bb0438951fd535966","640759fa512f630a2bdc333d","6408c177c347c840b5e435df","null","","null","","","","","","","","","","","","","","","","","","","fixation","",""
"","","","","","many-guess-6","75","264850","0.0-10.0-0.28-0.28","5dd56b0bb0438951fd535966","640759fa512f630a2bdc333d","6408c177c347c840b5e435df","[1434.1000000089407]","","","[7,33,1,28,21,14,24,11,13,17,20,0,4,19,34,5,16,32,18,15,26,2,27,22,23,12,29,10,6,3,30,35,8,9,25,31]","[304,294,334,55,284,205,274,354,145,235,45,35,314,115,185,65,344,125,215,264,135,245,85,225,15,155,105,25,165,5,175,324,95,255,195,75]","304","152","320.68807786576593","[320.68807786576593]","[168.68807786576593]","[168]","[300,210,30,210,30,120,30,120,30]","0","36","0","149.72299999702955","18.461999988066964","16","[[[""img/mask16.png""],[""img/mask99.png""],[""img/mask28.png""],[""img/mask63.png""],[""img/mask54.png""],[""img/mask8.png""],[""img/mask4.png""],[""img/mask2.png""],[""img/mask64.png""],[""img/mask48.png""],[""img/mask3.png""],[""img/mask46.png""],[""img/mask44.png""],[""img/mask27.png""],[""img/mask71.png""],[""img/mask26.png""],[""img/mask70.png""],[""img/mask64.png""],[""img/mask10.png""],[""img/mask14.png""],[""img/mask89.png""],[""img/mask71.png""],[""img/mask40.png""],[""img/mask26.png""],[""img/mask2.png""],[""img/mask24.png""],[""img/mask54.png""],[""img/mask57.png""],[""img/mask9.png""],[""img/mask80.png""],[""img/mask15.png""],[""img/mask12.png""],[""img/mask51.png""],[""img/mask66.png""],[""img/mask92.png""],[""img/mask73.png""]]]","","[7,33,1,28,21,14,24,11,13,17,20,0,4,19,34,5,16,32,18,15,26,2,27,22,23,12,29,10,6,3,30,35,8,9,25,31]","main","152","many-guess-6"
"","","","","","html-keyboard-response","76","265350","0.0-10.0-1.28","5dd56b0bb0438951fd535966","640759fa512f630a2bdc333d","6408c177c347c840b5e435df","null","","null","","","","","","","","","","","","","","","","","","","fixation","",""
"","","","","","many-guess-6","77","268955","0.0-10.0-0.29-0.29","5dd56b0bb0438951fd535966","640759fa512f630a2bdc333d","6408c177c347c840b5e435df","[2072.0999999940395]","","","[3,25,31,28,16,2,23,30,11,24,9,12,4,22,18,19,32,6,1,20,0,34,8,5,21,27,26,17,7,10,29,33,35,14,15,13]","[10,269,110,40,50,219,130,289,299,30,209,20,239,249,189,70,199,160,339,180,60,150,279,90,359,329,140,319,349,309,229,80,259,100,170,120]","10","263","251.2426915904211","[251.2426915904211]","[348.2426915904211]","[348]","[300,300,30,210,300,210,120,210,120]","0","36","0","149.65799999405863","15.90500000002794","16","[[[""img/mask80.png""],[""img/mask92.png""],[""img/mask53.png""],[""img/mask86.png""],[""img/mask46.png""],[""img/mask95.png""],[""img/mask21.png""],[""img/mask25.png""],[""img/mask8.png""],[""img/mask23.png""],[""img/mask22.png""],[""img/mask39.png""],[""img/mask57.png""],[""img/mask11.png""],[""img/mask4.png""],[""img/mask84.png""],[""img/mask90.png""],[""img/mask64.png""],[""img/mask100.png""],[""img/mask68.png""],[""img/mask79.png""],[""img/mask85.png""],[""img/mask30.png""],[""img/mask6.png""],[""img/mask75.png""],[""img/mask99.png""],[""img/mask21.png""],[""img/mask73.png""],[""img/mask87.png""],[""img/mask28.png""],[""img/mask85.png""],[""img/mask90.png""],[""img/mask91.png""],[""img/mask72.png""],[""img/mask82.png""],[""img/mask46.png""]]]","","[3,25,31,28,16,2,23,30,11,24,9,12,4,22,18,19,32,6,1,20,0,34,8,5,21,27,26,17,7,10,29,33,35,14,15,13]","main","263","many-guess-6"
"","","","","","html-keyboard-response","78","269455","0.0-10.0-1.29","5dd56b0bb0438951fd535966","640759fa512f630a2bdc333d","6408c177c347c840b5e435df","null","","null","","","","","","","","","","","","","","","","","","","fixation","",""
"","","","","","many-guess-6","79","272627","0.0-10.0-0.30-0.30","5dd56b0bb0438951fd535966","640759fa512f630a2bdc333d","6408c177c347c840b5e435df","[1794.4000000059605]","","","[6,4,13,26,28,15,11,27,10,21,12,19,2,16,17,5,3,24,35,25,30,18,31,0,29,34,14,1,8,20,7,32,33,9,22,23]","[305,355,126,256,216,315,86,325,136,26,275,295,166,16,46,146,6,206,106,236,186,285,176,246,96,66,345,196,266,36,56,116,156,226,76,335]","305","326","320.2921657890073","[320.2921657890073]","[354.2921657890073]","[354]","[30,210,120,30,30,30,30,30,300]","0","36","0","149.64499999402324","10.375","16","[[[""img/mask95.png""],[""img/mask58.png""],[""img/mask97.png""],[""img/mask77.png""],[""img/mask87.png""],[""img/mask81.png""],[""img/mask31.png""],[""img/mask51.png""],[""img/mask43.png""],[""img/mask60.png""],[""img/mask80.png""],[""img/mask80.png""],[""img/mask4.png""],[""img/mask52.png""],[""img/mask66.png""],[""img/mask40.png""],[""img/mask64.png""],[""img/mask74.png""],[""img/mask63.png""],[""img/mask31.png""],[""img/mask78.png""],[""img/mask68.png""],[""img/mask87.png""],[""img/mask10.png""],[""img/mask46.png""],[""img/mask18.png""],[""img/mask100.png""],[""img/mask64.png""],[""img/mask97.png""],[""img/mask82.png""],[""img/mask7.png""],[""img/mask75.png""],[""img/mask28.png""],[""img/mask25.png""],[""img/mask29.png""],[""img/mask69.png""]]]","","[6,4,13,26,28,15,11,27,10,21,12,19,2,16,17,5,3,24,35,25,30,18,31,0,29,34,14,1,8,20,7,32,33,9,22,23]","main","326","many-guess-6"
"","","","","","html-keyboard-response","80","273127","0.0-10.0-1.30","5dd56b0bb0438951fd535966","640759fa512f630a2bdc333d","6408c177c347c840b5e435df","null","","null","","","","","","","","","","","","","","","","","","","fixation","",""
"","","","","","color-precision2","81","276131","0.0-10.0-0.31-0.31","5dd56b0bb0438951fd535966","640759fa512f630a2bdc333d","6408c177c347c840b5e435df","[398.70000000298023]","","","[8]","[179]","179","95","273.1911977780613","[273.1911977780613]","[178.19119777806128]","[179]","0","0","1","0","149.6039999940549","1006.3159999999916","1000","[[[""img/mask77.png""]]]","","","main","95","color-precision2"
"","","","","","html-keyboard-response","82","276634","0.0-10.0-1.31","5dd56b0bb0438951fd535966","640759fa512f630a2bdc333d","6408c177c347c840b5e435df","null","","null","","","","","","","","","","","","","","","","","","","fixation","",""
"","","","","","color-precision2","83","279372","0.0-10.0-0.32-0.32","5dd56b0bb0438951fd535966","640759fa512f630a2bdc333d","6408c177c347c840b5e435df","[222.59999999403954]","","","[19]","[93]","93","64","161.65614348399862","[161.65614348399862]","[97.65614348399862]","[97]","0","0","1","0","149.3909999880707","991.8659999910742","1000","[[[""img/mask6.png""]]]","","","main","64","color-precision2"
"","","","","","html-keyboard-response","84","279872","0.0-10.0-1.32","5dd56b0bb0438951fd535966","640759fa512f630a2bdc333d","6408c177c347c840b5e435df","null","","null","","","","","","","","","","","","","","","","","","","fixation","",""
"","","","","","color-precision2","85","283212","0.0-10.0-0.33-0.33","5dd56b0bb0438951fd535966","640759fa512f630a2bdc333d","6408c177c347c840b5e435df","[479.79999999701977]","","","[0]","[347]","347","257","243.72718776229908","[243.72718776229908]","[346.7271877622991]","[347]","0","0","1","0","149.63699998805532","993.5589999970398","1000","[[[""img/mask35.png""]]]","","","main","257","color-precision2"
"","","","","","html-keyboard-response","86","283713","0.0-10.0-1.33","5dd56b0bb0438951fd535966","640759fa512f630a2bdc333d","6408c177c347c840b5e435df","null","","null","","","","","","","","","","","","","","","","","","","fixation","",""
"","","","","","color-precision2","87","286477","0.0-10.0-0.34-0.34","5dd56b0bb0438951fd535966","640759fa512f630a2bdc333d","6408c177c347c840b5e435df","[260.8999999910593]","","","[25]","[151]","151","67","233.33602243768738","[233.33602243768738]","[166.33602243768738]","[166]","0","0","1","0","149.74800000002142","996.0619999999763","1000","[[[""img/mask94.png""]]]","","","main","67","color-precision2"
"","","","","","html-keyboard-response","88","286978","0.0-10.0-1.34","5dd56b0bb0438951fd535966","640759fa512f630a2bdc333d","6408c177c347c840b5e435df","null","","null","","","","","","","","","","","","","","","","","","","fixation","",""
"","","","","","many-guess-6","89","290061","0.0-10.0-0.35-0.35","5dd56b0bb0438951fd535966","640759fa512f630a2bdc333d","6408c177c347c840b5e435df","[1645.2999999970198]","","","[3,12,18,14,23,11,10,1,20,32,35,6,31,16,5,24,25,0,34,29,26,7,21,33,19,28,27,2,17,13,15,8,30,9,22,4]","[171,321,161,61,231,131,101,311,201,91,211,42,291,2,121,301,281,71,351,341,51,181,151,241,32,331,251,271,111,22,261,12,141,221,81,191]","171","160","316.7950603938871","[316.7950603938871]","[156.79506039388713]","[157]","[300,300,30,30,120,300,30,120,30]","0","36","0","149.74300000001676","23.960999991046265","16","[[[""img/mask69.png""],[""img/mask76.png""],[""img/mask55.png""],[""img/mask60.png""],[""img/mask21.png""],[""img/mask75.png""],[""img/mask18.png""],[""img/mask50.png""],[""img/mask78.png""],[""img/mask35.png""],[""img/mask68.png""],[""img/mask95.png""],[""img/mask67.png""],[""img/mask19.png""],[""img/mask30.png""],[""img/mask20.png""],[""img/mask34.png""],[""img/mask12.png""],[""img/mask33.png""],[""img/mask17.png""],[""img/mask36.png""],[""img/mask76.png""],[""img/mask11.png""],[""img/mask46.png""],[""img/mask97.png""],[""img/mask14.png""],[""img/mask10.png""],[""img/mask69.png""],[""img/mask35.png""],[""img/mask81.png""],[""img/mask22.png""],[""img/mask43.png""],[""img/mask91.png""],[""img/mask34.png""],[""img/mask23.png""],[""img/mask52.png""]]]","","[3,12,18,14,23,11,10,1,20,32,35,6,31,16,5,24,25,0,34,29,26,7,21,33,19,28,27,2,17,13,15,8,30,9,22,4]","main","160","many-guess-6"
"","","","","","html-keyboard-response","90","290561","0.0-10.0-1.35","5dd56b0bb0438951fd535966","640759fa512f630a2bdc333d","6408c177c347c840b5e435df","null","","null","","","","","","","","","","","","","","","","","","","fixation","",""
"","","","","","color-precision2","91","293742","0.0-10.0-0.36-0.36","5dd56b0bb0438951fd535966","640759fa512f630a2bdc333d","6408c177c347c840b5e435df","[575.7000000029802]","","","[1]","[150]","150","208","357.28631597615635","[357.28631597615635]","[149.28631597615635]","[150]","0","0","1","0","149.68400000000838","993.2079999880516","1000","[[[""img/mask56.png""]]]","","","main","208","color-precision2"
"","","","","","html-keyboard-response","92","294242","0.0-10.0-1.36","5dd56b0bb0438951fd535966","640759fa512f630a2bdc333d","6408c177c347c840b5e435df","null","","null","","","","","","","","","","","","","","","","","","","fixation","",""
"","","","","","color-precision2","93","297542","0.0-10.0-0.37-0.37","5dd56b0bb0438951fd535966","640759fa512f630a2bdc333d","6408c177c347c840b5e435df","[476.1000000089407]","","","[14]","[175]","175","345","172.08790007742056","[172.08790007742056]","[187.08790007742056]","[186]","0","0","1","0","149.56599999108585","994.9870000000228","1000","[[[""img/mask71.png""]]]","","","main","345","color-precision2"
"","","","","","html-keyboard-response","94","298042","0.0-10.0-1.37","5dd56b0bb0438951fd535966","640759fa512f630a2bdc333d","6408c177c347c840b5e435df","null","","null","","","","","","","","","","","","","","","","","","","fixation","",""
"","","","","","many-guess-6","95","302583","0.0-10.0-0.38-0.38","5dd56b0bb0438951fd535966","640759fa512f630a2bdc333d","6408c177c347c840b5e435df","[2000.5]","","","[11,4,1,15,26,16,17,22,7,31,18,20,12,30,29,10,0,5,25,35,3,21,2,9,34,23,33,19,27,14,6,8,24,32,28,13]","[300,161,141,320,41,101,91,11,340,350,290,231,81,181,250,270,221,310,51,31,1,21,61,71,131,121,280,191,241,211,260,111,330,151,201,171]","300","101","325.0315553018721","[325.0315553018721]","[224.03155530187212]","[224]","[30,30,30,30,300,120,300,210,120]","0","36","0","149.7079999910784","13.34299998806091","16","[[[""img/mask76.png""],[""img/mask10.png""],[""img/mask19.png""],[""img/mask60.png""],[""img/mask52.png""],[""img/mask2.png""],[""img/mask88.png""],[""img/mask75.png""],[""img/mask74.png""],[""img/mask44.png""],[""img/mask66.png""],[""img/mask35.png""],[""img/mask91.png""],[""img/mask33.png""],[""img/mask11.png""],[""img/mask62.png""],[""img/mask99.png""],[""img/mask45.png""],[""img/mask42.png""],[""img/mask86.png""],[""img/mask38.png""],[""img/mask94.png""],[""img/mask17.png""],[""img/mask51.png""],[""img/mask91.png""],[""img/mask17.png""],[""img/mask24.png""],[""img/mask57.png""],[""img/mask63.png""],[""img/mask100.png""],[""img/mask61.png""],[""img/mask93.png""],[""img/mask4.png""],[""img/mask27.png""],[""img/mask32.png""],[""img/mask51.png""]]]","","[11,4,1,15,26,16,17,22,7,31,18,20,12,30,29,10,0,5,25,35,3,21,2,9,34,23,33,19,27,14,6,8,24,32,28,13]","main","101","many-guess-6"
"","","","","","html-keyboard-response","96","303083","0.0-10.0-1.38","5dd56b0bb0438951fd535966","640759fa512f630a2bdc333d","6408c177c347c840b5e435df","null","","null","","","","","","","","","","","","","","","","","","","fixation","",""
"","","","","","many-guess-6","97","306671","0.0-10.0-0.39-0.39","5dd56b0bb0438951fd535966","640759fa512f630a2bdc333d","6408c177c347c840b5e435df","[1955.5]","","","[31,1,26,9,13,25,33,20,21,8,16,24,32,28,30,10,23,22,11,2,19,14,12,3,17,27,15,6,35,7,29,5,4,34,0,18]","[164,224,54,34,244,24,273,184,124,303,254,313,204,293,343,14,144,323,94,214,114,64,194,84,264,44,174,353,333,134,283,154,4,104,74,234]","164","49","13.869368238073914","[13.869368238073914]","[324.8693682380739]","[324]","[120,120,300,210,300,300,30,30,120]","0","36","0","149.81399998808047","9.255999997025356","16","[[[""img/mask68.png""],[""img/mask34.png""],[""img/mask58.png""],[""img/mask10.png""],[""img/mask37.png""],[""img/mask72.png""],[""img/mask45.png""],[""img/mask79.png""],[""img/mask65.png""],[""img/mask61.png""],[""img/mask94.png""],[""img/mask71.png""],[""img/mask75.png""],[""img/mask81.png""],[""img/mask4.png""],[""img/mask73.png""],[""img/mask43.png""],[""img/mask98.png""],[""img/mask52.png""],[""img/mask22.png""],[""img/mask82.png""],[""img/mask19.png""],[""img/mask38.png""],[""img/mask41.png""],[""img/mask54.png""],[""img/mask62.png""],[""img/mask19.png""],[""img/mask81.png""],[""img/mask42.png""],[""img/mask13.png""],[""img/mask47.png""],[""img/mask19.png""],[""img/mask31.png""],[""img/mask77.png""],[""img/mask41.png""],[""img/mask92.png""]]]","","[31,1,26,9,13,25,33,20,21,8,16,24,32,28,30,10,23,22,11,2,19,14,12,3,17,27,15,6,35,7,29,5,4,34,0,18]","main","49","many-guess-6"
"","","","","","html-keyboard-response","98","314087","0.0-10.0-1.39","5dd56b0bb0438951fd535966","640759fa512f630a2bdc333d","6408c177c347c840b5e435df","7415.899999991059","Wow! You've completed 40 out of 180 trials! </p> <p>  </p><p> Take a quick break, then press any key when you're ready to continue.","j","","","","","","","","","","","","","","","","","","","fixation","",""
"","","","","","color-precision2","99","317721","0.0-10.0-0.40-0.40","5dd56b0bb0438951fd535966","640759fa512f630a2bdc333d","6408c177c347c840b5e435df","[904.9000000059605]","","","[27]","[286]","286","185","122.8261461800102","[122.8261461800102]","[297.8261461800102]","[296]","0","0","1","0","149.49599999998463","1002.9219999940251","1000","[[[""img/mask9.png""]]]","","","main","185","color-precision2"
"","","","","","html-keyboard-response","100","318221","0.0-10.0-1.40","5dd56b0bb0438951fd535966","640759fa512f630a2bdc333d","6408c177c347c840b5e435df","null","","null","","","","","","","","","","","","","","","","","","","fixation","",""
"","","","","","many-guess-6","101","322066","0.0-10.0-0.41-0.41","5dd56b0bb0438951fd535966","640759fa512f630a2bdc333d","6408c177c347c840b5e435df","[2233.2999999970198]","","","[1,21,23,33,2,0,6,35,3,10,22,18,13,26,7,31,25,24,15,9,14,32,17,19,4,5,20,8,12,27,34,30,29,28,11,16]","[15,295,305,255,344,235,245,265,125,335,155,5,95,275,225,145,175,354,165,185,65,135,215,205,45,105,315,35,75,195,115,285,25,55,85,325]","15","182","287.20505734814185","[287.20505734814185]","[105.20505734814185]","[106]","[30,210,120,30,210,30,300,300,210]","0","36","0","149.65500000002794","10.583999994036276","16","[[[""img/mask40.png""],[""img/mask4.png""],[""img/mask45.png""],[""img/mask1.png""],[""img/mask25.png""],[""img/mask65.png""],[""img/mask63.png""],[""img/mask83.png""],[""img/mask20.png""],[""img/mask84.png""],[""img/mask46.png""],[""img/mask68.png""],[""img/mask36.png""],[""img/mask15.png""],[""img/mask77.png""],[""img/mask67.png""],[""img/mask90.png""],[""img/mask5.png""],[""img/mask13.png""],[""img/mask8.png""],[""img/mask85.png""],[""img/mask79.png""],[""img/mask55.png""],[""img/mask72.png""],[""img/mask32.png""],[""img/mask90.png""],[""img/mask15.png""],[""img/mask33.png""],[""img/mask48.png""],[""img/mask66.png""],[""img/mask62.png""],[""img/mask39.png""],[""img/mask18.png""],[""img/mask87.png""],[""img/mask96.png""],[""img/mask98.png""]]]","","[1,21,23,33,2,0,6,35,3,10,22,18,13,26,7,31,25,24,15,9,14,32,17,19,4,5,20,8,12,27,34,30,29,28,11,16]","main","182","many-guess-6"
"","","","","","html-keyboard-response","102","322567","0.0-10.0-1.41","5dd56b0bb0438951fd535966","640759fa512f630a2bdc333d","6408c177c347c840b5e435df","null","","null","","","","","","","","","","","","","","","","","","","fixation","",""
"","","","","","color-precision2","103","325474","0.0-10.0-0.42-0.42","5dd56b0bb0438951fd535966","640759fa512f630a2bdc333d","6408c177c347c840b5e435df","[558]","","","[6]","[102]","102","219","306.60413669519556","[306.60413669519556]","[87.60413669519556]","[88]","0","0","1","0","149.44099999999162","997.7629999999772","1000","[[[""img/mask22.png""]]]","","","main","219","color-precision2"
"","","","","","html-keyboard-response","104","325974","0.0-10.0-1.42","5dd56b0bb0438951fd535966","640759fa512f630a2bdc333d","6408c177c347c840b5e435df","null","","null","","","","","","","","","","","","","","","","","","","fixation","",""
"","","","","","many-guess-6","105","329427","0.0-10.0-0.43-0.43","5dd56b0bb0438951fd535966","640759fa512f630a2bdc333d","6408c177c347c840b5e435df","[2093.9000000059605]","","","[35,11,10,27,23,18,3,14,5,19,15,30,12,31,4,26,25,24,32,0,22,17,6,16,29,20,21,13,33,9,7,28,2,8,1,34]","[311,131,161,271,191,2,42,241,251,22,121,101,211,52,12,351,341,81,261,181,71,281,201,111,171,91,221,141,151,32,331,291,61,321,231,301]","311","199","199.08710788523024","[199.08710788523024]","[0.08710788523023894]","[359]","[210,120,120,30,120,30,120,210,210]","0","36","0","149.78299998806324","12.033999994047917","16","[[[""img/mask54.png""],[""img/mask99.png""],[""img/mask22.png""],[""img/mask83.png""],[""img/mask82.png""],[""img/mask21.png""],[""img/mask16.png""],[""img/mask77.png""],[""img/mask66.png""],[""img/mask8.png""],[""img/mask15.png""],[""img/mask22.png""],[""img/mask5.png""],[""img/mask88.png""],[""img/mask90.png""],[""img/mask95.png""],[""img/mask22.png""],[""img/mask30.png""],[""img/mask7.png""],[""img/mask87.png""],[""img/mask6.png""],[""img/mask35.png""],[""img/mask9.png""],[""img/mask99.png""],[""img/mask46.png""],[""img/mask14.png""],[""img/mask32.png""],[""img/mask21.png""],[""img/mask6.png""],[""img/mask72.png""],[""img/mask42.png""],[""img/mask17.png""],[""img/mask39.png""],[""img/mask74.png""],[""img/mask65.png""],[""img/mask43.png""]]]","","[35,11,10,27,23,18,3,14,5,19,15,30,12,31,4,26,25,24,32,0,22,17,6,16,29,20,21,13,33,9,7,28,2,8,1,34]","main","199","many-guess-6"
"","","","","","html-keyboard-response","106","329927","0.0-10.0-1.43","5dd56b0bb0438951fd535966","640759fa512f630a2bdc333d","6408c177c347c840b5e435df","null","","null","","","","","","","","","","","","","","","","","","","fixation","",""
"","","","","","many-guess-6","107","333291","0.0-10.0-0.44-0.44","5dd56b0bb0438951fd535966","640759fa512f630a2bdc333d","6408c177c347c840b5e435df","[1741.9000000059605]","","","[18,33,13,16,21,9,3,35,17,14,19,5,7,2,25,32,0,10,23,8,1,30,20,15,24,22,28,4,6,12,29,27,11,26,34,31]","[209,120,150,130,50,70,349,239,269,249,199,219,319,259,100,10,90,40,189,140,160,60,180,329,299,339,20,170,279,229,289,309,30,359,80,110]","209","282","352.35516609438014","[352.35516609438014]","[70.35516609438014]","[70]","[300,210,210,120,210,30,300,210,300]","0","36","0","149.82499999401625","22.04999999998836","16","[[[""img/mask2.png""],[""img/mask21.png""],[""img/mask67.png""],[""img/mask13.png""],[""img/mask69.png""],[""img/mask40.png""],[""img/mask61.png""],[""img/mask54.png""],[""img/mask85.png""],[""img/mask21.png""],[""img/mask63.png""],[""img/mask90.png""],[""img/mask31.png""],[""img/mask3.png""],[""img/mask41.png""],[""img/mask61.png""],[""img/mask58.png""],[""img/mask3.png""],[""img/mask90.png""],[""img/mask88.png""],[""img/mask9.png""],[""img/mask76.png""],[""img/mask96.png""],[""img/mask96.png""],[""img/mask86.png""],[""img/mask50.png""],[""img/mask50.png""],[""img/mask81.png""],[""img/mask25.png""],[""img/mask7.png""],[""img/mask99.png""],[""img/mask36.png""],[""img/mask51.png""],[""img/mask68.png""],[""img/mask46.png""],[""img/mask41.png""]]]","","[18,33,13,16,21,9,3,35,17,14,19,5,7,2,25,32,0,10,23,8,1,30,20,15,24,22,28,4,6,12,29,27,11,26,34,31]","main","282","many-guess-6"
"","","","","","html-keyboard-response","108","333791","0.0-10.0-1.44","5dd56b0bb0438951fd535966","640759fa512f630a2bdc333d","6408c177c347c840b5e435df","null","","null","","","","","","","","","","","","","","","","","","","fixation","",""
"","","","","","color-precision2","109","337075","0.0-10.0-0.45-0.45","5dd56b0bb0438951fd535966","640759fa512f630a2bdc333d","6408c177c347c840b5e435df","[542.7000000029802]","","","[29]","[29]","29","108","135.9778133014665","[135.9778133014665]","[27.97781330146651]","[26]","0","0","1","0","149.6259999940521","1005.531999988074","1000","[[[""img/mask1.png""]]]","","","main","108","color-precision2"
"","","","","","html-keyboard-response","110","337577","0.0-10.0-1.45","5dd56b0bb0438951fd535966","640759fa512f630a2bdc333d","6408c177c347c840b5e435df","null","","null","","","","","","","","","","","","","","","","","","","fixation","",""
"","","","","","many-guess-6","111","340756","0.0-10.0-0.46-0.46","5dd56b0bb0438951fd535966","640759fa512f630a2bdc333d","6408c177c347c840b5e435df","[1640.0999999940395]","","","[4,34,12,28,32,13,18,25,16,10,11,0,9,22,29,27,8,1,15,14,20,21,19,17,2,31,24,35,33,30,23,6,5,26,7,3]","[102,202,3,292,332,182,242,302,132,172,322,252,112,342,33,82,222,232,262,142,43,312,53,63,352,73,122,23,162,13,282,272,212,192,152,92]","102","54","319.6122052993871","[319.6122052993871]","[265.6122052993871]","[266]","[300,210,210,210,210,300,210,30,300]","0","36","0","149.74399999104207","11.304999994055834","16","[[[""img/mask99.png""],[""img/mask43.png""],[""img/mask65.png""],[""img/mask80.png""],[""img/mask17.png""],[""img/mask44.png""],[""img/mask74.png""],[""img/mask51.png""],[""img/mask97.png""],[""img/mask65.png""],[""img/mask22.png""],[""img/mask43.png""],[""img/mask49.png""],[""img/mask51.png""],[""img/mask36.png""],[""img/mask47.png""],[""img/mask83.png""],[""img/mask58.png""],[""img/mask21.png""],[""img/mask95.png""],[""img/mask76.png""],[""img/mask70.png""],[""img/mask25.png""],[""img/mask33.png""],[""img/mask65.png""],[""img/mask51.png""],[""img/mask44.png""],[""img/mask62.png""],[""img/mask92.png""],[""img/mask97.png""],[""img/mask87.png""],[""img/mask14.png""],[""img/mask63.png""],[""img/mask45.png""],[""img/mask36.png""],[""img/mask46.png""]]]","","[4,34,12,28,32,13,18,25,16,10,11,0,9,22,29,27,8,1,15,14,20,21,19,17,2,31,24,35,33,30,23,6,5,26,7,3]","main","54","many-guess-6"
"","","","","","html-keyboard-response","112","341258","0.0-10.0-1.46","5dd56b0bb0438951fd535966","640759fa512f630a2bdc333d","6408c177c347c840b5e435df","null","","null","","","","","","","","","","","","","","","","","","","fixation","",""
"","","","","","many-guess-6","113","345356","0.0-10.0-0.47-0.47","5dd56b0bb0438951fd535966","640759fa512f630a2bdc333d","6408c177c347c840b5e435df","[2557.4000000059605]","","","[27,22,26,24,1,6,33,4,28,20,18,3,2,17,8,10,30,9,34,23,11,13,32,35,14,21,15,16,7,31,19,5,0,12,25,29]","[5,145,254,135,165,284,324,45,195,95,225,314,65,244,235,334,35,15,344,354,175,105,185,85,205,25,75,304,155,55,115,274,264,215,294,125]","5","300","202.7394032076447","[202.7394032076447]","[262.7394032076447]","[262]","[210,300,210,120,30,210,300,300,300]","0","36","0","149.73599999403814","20.48300000000745","16","[[[""img/mask58.png""],[""img/mask57.png""],[""img/mask44.png""],[""img/mask22.png""],[""img/mask46.png""],[""img/mask75.png""],[""img/mask21.png""],[""img/mask64.png""],[""img/mask14.png""],[""img/mask54.png""],[""img/mask7.png""],[""img/mask72.png""],[""img/mask79.png""],[""img/mask25.png""],[""img/mask25.png""],[""img/mask36.png""],[""img/mask15.png""],[""img/mask12.png""],[""img/mask85.png""],[""img/mask69.png""],[""img/mask23.png""],[""img/mask62.png""],[""img/mask4.png""],[""img/mask68.png""],[""img/mask46.png""],[""img/mask17.png""],[""img/mask11.png""],[""img/mask8.png""],[""img/mask51.png""],[""img/mask40.png""],[""img/mask43.png""],[""img/mask94.png""],[""img/mask31.png""],[""img/mask70.png""],[""img/mask88.png""],[""img/mask4.png""]]]","","[27,22,26,24,1,6,33,4,28,20,18,3,2,17,8,10,30,9,34,23,11,13,32,35,14,21,15,16,7,31,19,5,0,12,25,29]","main","300","many-guess-6"
"","","","","","html-keyboard-response","114","345858","0.0-10.0-1.47","5dd56b0bb0438951fd535966","640759fa512f630a2bdc333d","6408c177c347c840b5e435df","null","","null","","","","","","","","","","","","","","","","","","","fixation","",""
"","","","","","many-guess-6","115","349333","0.0-10.0-0.48-0.48","5dd56b0bb0438951fd535966","640759fa512f630a2bdc333d","6408c177c347c840b5e435df","[1883.9000000059605]","","","[35,11,10,19,25,15,22,3,9,8,32,0,28,2,17,31,23,33,27,21,4,18,6,20,13,29,5,14,30,24,12,1,16,7,34,26]","[68,238,358,328,278,138,188,228,128,48,338,148,298,9,158,118,208,218,248,258,78,88,29,108,348,19,178,58,38,308,198,168,318,98,288,268]","68","240","267.31403542344117","[267.31403542344117]","[27.31403542344117]","[27]","[30,30,210,30,300,210,30,210,210]","0","36","0","149.79699998808792","10.236999996996019","16","[[[""img/mask95.png""],[""img/mask97.png""],[""img/mask1.png""],[""img/mask27.png""],[""img/mask70.png""],[""img/mask6.png""],[""img/mask62.png""],[""img/mask77.png""],[""img/mask2.png""],[""img/mask42.png""],[""img/mask24.png""],[""img/mask51.png""],[""img/mask21.png""],[""img/mask75.png""],[""img/mask79.png""],[""img/mask58.png""],[""img/mask5.png""],[""img/mask90.png""],[""img/mask24.png""],[""img/mask69.png""],[""img/mask98.png""],[""img/mask65.png""],[""img/mask42.png""],[""img/mask6.png""],[""img/mask32.png""],[""img/mask13.png""],[""img/mask38.png""],[""img/mask95.png""],[""img/mask6.png""],[""img/mask16.png""],[""img/mask57.png""],[""img/mask84.png""],[""img/mask75.png""],[""img/mask92.png""],[""img/mask92.png""],[""img/mask98.png""]]]","","[35,11,10,19,25,15,22,3,9,8,32,0,28,2,17,31,23,33,27,21,4,18,6,20,13,29,5,14,30,24,12,1,16,7,34,26]","main","240","many-guess-6"
"","","","","","html-keyboard-response","116","349834","0.0-10.0-1.48","5dd56b0bb0438951fd535966","640759fa512f630a2bdc333d","6408c177c347c840b5e435df","null","","null","","","","","","","","","","","","","","","","","","","fixation","",""
"","","","","","many-guess-6","117","353550","0.0-10.0-0.49-0.49","5dd56b0bb0438951fd535966","640759fa512f630a2bdc333d","6408c177c347c840b5e435df","[2050.5]","","","[29,26,9,8,7,6,16,12,0,34,23,35,10,14,19,2,31,1,3,30,5,25,20,22,15,33,32,27,24,13,17,4,18,11,28,21]","[327,208,267,237,58,297,108,257,68,128,138,287,168,148,8,118,347,307,18,198,48,357,228,98,28,178,218,337,317,277,38,247,188,158,78,88]","327","265","61.79418742808023","[61.79418742808023]","[156.79418742808022]","[155]","[210,210,120,30,30,120,300,210,300]","0","36","0","149.66399999405257","16.01399999402929","16","[[[""img/mask31.png""],[""img/mask33.png""],[""img/mask18.png""],[""img/mask5.png""],[""img/mask83.png""],[""img/mask89.png""],[""img/mask71.png""],[""img/mask82.png""],[""img/mask93.png""],[""img/mask10.png""],[""img/mask5.png""],[""img/mask18.png""],[""img/mask44.png""],[""img/mask1.png""],[""img/mask24.png""],[""img/mask11.png""],[""img/mask98.png""],[""img/mask65.png""],[""img/mask15.png""],[""img/mask15.png""],[""img/mask30.png""],[""img/mask62.png""],[""img/mask46.png""],[""img/mask35.png""],[""img/mask51.png""],[""img/mask52.png""],[""img/mask23.png""],[""img/mask22.png""],[""img/mask80.png""],[""img/mask77.png""],[""img/mask1.png""],[""img/mask89.png""],[""img/mask10.png""],[""img/mask16.png""],[""img/mask97.png""],[""img/mask96.png""]]]","","[29,26,9,8,7,6,16,12,0,34,23,35,10,14,19,2,31,1,3,30,5,25,20,22,15,33,32,27,24,13,17,4,18,11,28,21]","main","265","many-guess-6"
"","","","","","html-keyboard-response","118","354052","0.0-10.0-1.49","5dd56b0bb0438951fd535966","640759fa512f630a2bdc333d","6408c177c347c840b5e435df","null","","null","","","","","","","","","","","","","","","","","","","fixation","",""
"","","","","","many-guess-6","119","358086","0.0-10.0-0.50-0.50","5dd56b0bb0438951fd535966","640759fa512f630a2bdc333d","6408c177c347c840b5e435df","[1303.7000000029802]","","","[18,0,15,2,16,4,6,32,29,28,26,23,1,24,27,34,33,3,10,25,11,31,8,20,30,19,13,12,22,35,21,5,14,7,17,9]","[312,72,202,23,82,13,332,92,232,142,262,272,282,122,292,112,322,252,32,302,342,182,242,42,172,132,192,222,352,212,52,3,152,62,102,162]","312","30","314.2956865542095","[314.2956865542095]","[284.2956865542095]","[284]","[120,30,300,210,30,210,210,210,30]","0","36","0","149.78899999108398","24.300999988103285","16","[[[""img/mask23.png""],[""img/mask24.png""],[""img/mask65.png""],[""img/mask65.png""],[""img/mask78.png""],[""img/mask17.png""],[""img/mask35.png""],[""img/mask12.png""],[""img/mask60.png""],[""img/mask70.png""],[""img/mask10.png""],[""img/mask80.png""],[""img/mask61.png""],[""img/mask100.png""],[""img/mask36.png""],[""img/mask49.png""],[""img/mask48.png""],[""img/mask56.png""],[""img/mask48.png""],[""img/mask72.png""],[""img/mask23.png""],[""img/mask54.png""],[""img/mask63.png""],[""img/mask56.png""],[""img/mask72.png""],[""img/mask42.png""],[""img/mask13.png""],[""img/mask36.png""],[""img/mask80.png""],[""img/mask83.png""],[""img/mask78.png""],[""img/mask25.png""],[""img/mask72.png""],[""img/mask91.png""],[""img/mask12.png""],[""img/mask32.png""]]]","","[18,0,15,2,16,4,6,32,29,28,26,23,1,24,27,34,33,3,10,25,11,31,8,20,30,19,13,12,22,35,21,5,14,7,17,9]","main","30","many-guess-6"
"","","","","","html-keyboard-response","120","358587","0.0-10.0-1.50","5dd56b0bb0438951fd535966","640759fa512f630a2bdc333d","6408c177c347c840b5e435df","null","","null","","","","","","","","","","","","","","","","","","","fixation","",""
"","","","","","color-precision2","121","361958","0.0-10.0-0.51-0.51","5dd56b0bb0438951fd535966","640759fa512f630a2bdc333d","6408c177c347c840b5e435df","[859.2999999970198]","","","[0]","[187]","187","341","158.38510763174418","[158.38510763174418]","[177.38510763174418]","[176]","0","0","1","0","149.60099999402883","994.9239999940619","1000","[[[""img/mask2.png""]]]","","","main","341","color-precision2"
"","","","","","html-keyboard-response","122","362460","0.0-10.0-1.51","5dd56b0bb0438951fd535966","640759fa512f630a2bdc333d","6408c177c347c840b5e435df","null","","null","","","","","","","","","","","","","","","","","","","fixation","",""
"","","","","","many-guess-6","123","365935","0.0-10.0-0.52-0.52","5dd56b0bb0438951fd535966","640759fa512f630a2bdc333d","6408c177c347c840b5e435df","[1486.0999999940395]","","","[12,23,18,24,9,17,27,21,19,5,7,13,31,3,6,15,11,14,33,4,32,29,25,10,0,34,8,1,16,35,30,26,28,20,22,2]","[346,216,207,266,256,7,47,117,356,316,67,177,127,286,236,57,276,326,87,246,17,97,77,37,226,306,187,107,336,197,167,27,137,296,157,147]","346","355","349.0422061954701","[349.0422061954701]","[354.0422061954701]","[354]","[300,30,120,300,30,30,30,30,300]","0","36","0","149.84999999107094","21.710999991046265","16","[[[""img/mask55.png""],[""img/mask86.png""],[""img/mask22.png""],[""img/mask96.png""],[""img/mask80.png""],[""img/mask13.png""],[""img/mask85.png""],[""img/mask12.png""],[""img/mask44.png""],[""img/mask40.png""],[""img/mask18.png""],[""img/mask30.png""],[""img/mask96.png""],[""img/mask85.png""],[""img/mask80.png""],[""img/mask69.png""],[""img/mask30.png""],[""img/mask56.png""],[""img/mask12.png""],[""img/mask95.png""],[""img/mask75.png""],[""img/mask18.png""],[""img/mask42.png""],[""img/mask66.png""],[""img/mask76.png""],[""img/mask18.png""],[""img/mask95.png""],[""img/mask6.png""],[""img/mask35.png""],[""img/mask41.png""],[""img/mask20.png""],[""img/mask91.png""],[""img/mask99.png""],[""img/mask9.png""],[""img/mask60.png""],[""img/mask23.png""]]]","","[12,23,18,24,9,17,27,21,19,5,7,13,31,3,6,15,11,14,33,4,32,29,25,10,0,34,8,1,16,35,30,26,28,20,22,2]","main","355","many-guess-6"
"","","","","","html-keyboard-response","124","366436","0.0-10.0-1.52","5dd56b0bb0438951fd535966","640759fa512f630a2bdc333d","6408c177c347c840b5e435df","null","","null","","","","","","","","","","","","","","","","","","","fixation","",""
"","","","","","color-precision2","125","369623","0.0-10.0-0.53-0.53","5dd56b0bb0438951fd535966","640759fa512f630a2bdc333d","6408c177c347c840b5e435df","[607.9000000059605]","","","[26]","[263]","263","100","8.335478570739204","[8.335478570739204]","[268.3354785707392]","[267]","0","0","1","0","149.58699999999953","1006.7209999969928","1000","[[[""img/mask64.png""]]]","","","main","100","color-precision2"
"","","","","","html-keyboard-response","126","370124","0.0-10.0-1.53","5dd56b0bb0438951fd535966","640759fa512f630a2bdc333d","6408c177c347c840b5e435df","null","","null","","","","","","","","","","","","","","","","","","","fixation","",""
"","","","","","many-guess-6","127","374448","0.0-10.0-0.54-0.54","5dd56b0bb0438951fd535966","640759fa512f630a2bdc333d","6408c177c347c840b5e435df","[2782.5999999940395]","","","[25,32,16,2,17,33,9,15,19,30,35,13,14,31,18,24,27,8,1,12,23,7,26,21,4,22,6,29,3,34,10,11,5,0,20,28]","[35,274,204,154,104,294,124,214,334,74,144,15,194,284,184,55,84,304,354,314,224,264,234,114,324,25,94,174,244,344,254,134,65,164,5,45]","35","55","74.0932143382591","[74.0932143382591]","[19.093214338259102]","[17]","[210,300,30,210,30,210,30,30,30]","0","36","0","149.77199998806464","15.131999988050666","16","[[[""img/mask78.png""],[""img/mask11.png""],[""img/mask61.png""],[""img/mask55.png""],[""img/mask85.png""],[""img/mask27.png""],[""img/mask69.png""],[""img/mask23.png""],[""img/mask21.png""],[""img/mask89.png""],[""img/mask15.png""],[""img/mask30.png""],[""img/mask72.png""],[""img/mask56.png""],[""img/mask76.png""],[""img/mask36.png""],[""img/mask40.png""],[""img/mask33.png""],[""img/mask17.png""],[""img/mask81.png""],[""img/mask77.png""],[""img/mask18.png""],[""img/mask91.png""],[""img/mask11.png""],[""img/mask17.png""],[""img/mask98.png""],[""img/mask86.png""],[""img/mask78.png""],[""img/mask78.png""],[""img/mask89.png""],[""img/mask31.png""],[""img/mask65.png""],[""img/mask79.png""],[""img/mask95.png""],[""img/mask32.png""],[""img/mask90.png""]]]","","[25,32,16,2,17,33,9,15,19,30,35,13,14,31,18,24,27,8,1,12,23,7,26,21,4,22,6,29,3,34,10,11,5,0,20,28]","main","55","many-guess-6"
"","","","","","html-keyboard-response","128","374949","0.0-10.0-1.54","5dd56b0bb0438951fd535966","640759fa512f630a2bdc333d","6408c177c347c840b5e435df","null","","null","","","","","","","","","","","","","","","","","","","fixation","",""
"","","","","","color-precision2","129","378177","0.0-10.0-0.55-0.55","5dd56b0bb0438951fd535966","640759fa512f630a2bdc333d","6408c177c347c840b5e435df","[411.09999999403954]","","","[21]","[115]","115","228","342.4181235007581","[342.4181235007581]","[114.4181235007581]","[115]","0","0","1","0","149.65299999405397","995.3640000000014","1000","[[[""img/mask27.png""]]]","","","main","228","color-precision2"
"","","","","","html-keyboard-response","130","378677","0.0-10.0-1.55","5dd56b0bb0438951fd535966","640759fa512f630a2bdc333d","6408c177c347c840b5e435df","null","","null","","","","","","","","","","","","","","","","","","","fixation","",""
"","","","","","color-precision2","131","381952","0.0-10.0-0.56-0.56","5dd56b0bb0438951fd535966","640759fa512f630a2bdc333d","6408c177c347c840b5e435df","[720.5]","","","[12]","[254]","254","186","88.90181982282584","[88.90181982282584]","[262.9018198228258]","[261]","0","0","1","0","149.56699999107514","1003.39899999107","1000","[[[""img/mask89.png""]]]","","","main","186","color-precision2"
"","","","","","html-keyboard-response","132","382453","0.0-10.0-1.56","5dd56b0bb0438951fd535966","640759fa512f630a2bdc333d","6408c177c347c840b5e435df","null","","null","","","","","","","","","","","","","","","","","","","fixation","",""
"","","","","","many-guess-6","133","385977","0.0-10.0-0.57-0.57","5dd56b0bb0438951fd535966","640759fa512f630a2bdc333d","6408c177c347c840b5e435df","[2028.7999999970198]","","","[10,20,5,18,12,25,29,28,11,27,15,30,7,8,24,19,14,17,4,1,16,22,35,0,2,6,34,21,9,33,26,31,3,13,32,23]","[245,16,115,36,26,95,215,165,255,285,125,175,205,65,145,265,295,55,85,75,275,335,6,345,135,315,355,305,46,185,325,225,155,195,235,105]","245","26","7.21680423861171","[7.21680423861171]","[341.2168042386117]","[340]","[210,300,300,120,30,300,120,210,120]","0","36","0","149.8389999999781","23.85999998805346","16","[[[""img/mask22.png""],[""img/mask74.png""],[""img/mask57.png""],[""img/mask78.png""],[""img/mask87.png""],[""img/mask93.png""],[""img/mask59.png""],[""img/mask69.png""],[""img/mask5.png""],[""img/mask76.png""],[""img/mask49.png""],[""img/mask12.png""],[""img/mask13.png""],[""img/mask86.png""],[""img/mask81.png""],[""img/mask80.png""],[""img/mask80.png""],[""img/mask14.png""],[""img/mask43.png""],[""img/mask92.png""],[""img/mask3.png""],[""img/mask91.png""],[""img/mask40.png""],[""img/mask43.png""],[""img/mask60.png""],[""img/mask41.png""],[""img/mask80.png""],[""img/mask88.png""],[""img/mask34.png""],[""img/mask77.png""],[""img/mask2.png""],[""img/mask69.png""],[""img/mask42.png""],[""img/mask70.png""],[""img/mask42.png""],[""img/mask14.png""]]]","","[10,20,5,18,12,25,29,28,11,27,15,30,7,8,24,19,14,17,4,1,16,22,35,0,2,6,34,21,9,33,26,31,3,13,32,23]","main","26","many-guess-6"
"","","","","","html-keyboard-response","134","386477","0.0-10.0-1.57","5dd56b0bb0438951fd535966","640759fa512f630a2bdc333d","6408c177c347c840b5e435df","null","","null","","","","","","","","","","","","","","","","","","","fixation","",""
"","","","","","color-precision2","135","390865","0.0-10.0-0.58-0.58","5dd56b0bb0438951fd535966","640759fa512f630a2bdc333d","6408c177c347c840b5e435df","[1783.9000000059605]","","","[9]","[154]","154","172","318.51900862428727","[318.51900862428727]","[146.51900862428727]","[146]","0","0","1","0","149.61099999997532","1004.6349999880767","1000","[[[""img/mask27.png""]]]","","","main","172","color-precision2"
"","","","","","html-keyboard-response","136","391366","0.0-10.0-1.58","5dd56b0bb0438951fd535966","640759fa512f630a2bdc333d","6408c177c347c840b5e435df","null","","null","","","","","","","","","","","","","","","","","","","fixation","",""
"","","","","","color-precision2","137","394378","0.0-10.0-0.59-0.59","5dd56b0bb0438951fd535966","640759fa512f630a2bdc333d","6408c177c347c840b5e435df","[563]","","","[26]","[151]","151","30","191.51989486748806","[191.51989486748806]","[161.51989486748806]","[161]","0","0","1","0","149.7979999910458","1001.317999994033","1000","[[[""img/mask3.png""]]]","","","main","30","color-precision2"
"","","","","","html-keyboard-response","138","397929","0.0-10.0-1.59","5dd56b0bb0438951fd535966","640759fa512f630a2bdc333d","6408c177c347c840b5e435df","3551.0999999940395","Wow! You've completed 60 out of 180 trials! </p> <p>  </p><p> Take a quick break, then press any key when you're ready to continue.","j","","","","","","","","","","","","","","","","","","","fixation","",""
"","","","","","many-guess-6","139","401451","0.0-10.0-0.60-0.60","5dd56b0bb0438951fd535966","640759fa512f630a2bdc333d","6408c177c347c840b5e435df","[1569.4000000059605]","","","[19,30,28,27,8,14,22,17,15,26,29,6,13,3,11,4,32,21,16,9,1,18,7,12,33,23,31,35,24,25,0,34,20,5,2,10]","[206,316,37,146,306,296,196,76,226,286,356,106,57,126,116,47,256,156,136,186,17,326,236,246,336,216,276,266,66,176,7,166,96,86,27,346]","206","275","285.71078153293405","[285.71078153293405]","[10.71078153293405]","[11]","[300,120,120,210,300,210,210,210,300]","0","36","0","149.729999988107","9.662999997031875","16","[[[""img/mask32.png""],[""img/mask46.png""],[""img/mask29.png""],[""img/mask71.png""],[""img/mask31.png""],[""img/mask81.png""],[""img/mask23.png""],[""img/mask97.png""],[""img/mask58.png""],[""img/mask4.png""],[""img/mask32.png""],[""img/mask47.png""],[""img/mask91.png""],[""img/mask38.png""],[""img/mask97.png""],[""img/mask46.png""],[""img/mask24.png""],[""img/mask20.png""],[""img/mask37.png""],[""img/mask41.png""],[""img/mask35.png""],[""img/mask6.png""],[""img/mask89.png""],[""img/mask67.png""],[""img/mask54.png""],[""img/mask36.png""],[""img/mask47.png""],[""img/mask67.png""],[""img/mask7.png""],[""img/mask61.png""],[""img/mask52.png""],[""img/mask99.png""],[""img/mask48.png""],[""img/mask97.png""],[""img/mask41.png""],[""img/mask39.png""]]]","","[19,30,28,27,8,14,22,17,15,26,29,6,13,3,11,4,32,21,16,9,1,18,7,12,33,23,31,35,24,25,0,34,20,5,2,10]","main","275","many-guess-6"
"","","","","","html-keyboard-response","140","401952","0.0-10.0-1.60","5dd56b0bb0438951fd535966","640759fa512f630a2bdc333d","6408c177c347c840b5e435df","null","","null","","","","","","","","","","","","","","","","","","","fixation","",""
"","","","","","color-precision2","141","404635","0.0-10.0-0.61-0.61","5dd56b0bb0438951fd535966","640759fa512f630a2bdc333d","6408c177c347c840b5e435df","[303.70000000298023]","","","[24]","[284]","284","40","321.1279385988264","[321.1279385988264]","[281.1279385988264]","[281]","0","0","1","0","149.68999998806976","1004.2169999910402","1000","[[[""img/mask43.png""]]]","","","main","40","color-precision2"
"","","","","","html-keyboard-response","142","405144","0.0-10.0-1.61","5dd56b0bb0438951fd535966","640759fa512f630a2bdc333d","6408c177c347c840b5e435df","null","","null","","","","","","","","","","","","","","","","","","","fixation","",""
"","","","","","color-precision2","143","408971","0.0-10.0-0.62-0.62","5dd56b0bb0438951fd535966","640759fa512f630a2bdc333d","6408c177c347c840b5e435df","[257]","","","[2]","[248]","248","68","324.27106887350214","[324.27106887350214]","[256.27106887350214]","[256]","0","0","1","0","149.6019999970449","1003.140000000014","1000","[[[""img/mask98.png""]]]","","","main","68","color-precision2"
"","","","","","html-keyboard-response","144","409472","0.0-10.0-1.62","5dd56b0bb0438951fd535966","640759fa512f630a2bdc333d","6408c177c347c840b5e435df","null","","null","","","","","","","","","","","","","","","","","","","fixation","",""
"","","","","","many-guess-6","145","413716","0.0-10.0-0.63-0.63","5dd56b0bb0438951fd535966","640759fa512f630a2bdc333d","6408c177c347c840b5e435df","[2801.7000000029802]","","","[21,33,7,16,4,10,23,3,11,32,12,6,30,18,0,25,29,27,19,2,8,28,26,31,24,35,20,17,1,15,13,34,9,22,5,14]","[42,222,242,172,202,82,352,312,152,332,262,112,132,3,92,192,33,122,182,142,52,282,342,302,272,72,23,212,13,232,162,102,252,322,62,292]","42","2","73.99610749202529","[73.99610749202529]","[71.99610749202529]","[70]","[120,210,120,30,210,210,120,210,210]","0","36","0","149.76299999997718","18.31199998810189","16","[[[""img/mask66.png""],[""img/mask40.png""],[""img/mask71.png""],[""img/mask94.png""],[""img/mask36.png""],[""img/mask92.png""],[""img/mask20.png""],[""img/mask8.png""],[""img/mask10.png""],[""img/mask27.png""],[""img/mask10.png""],[""img/mask92.png""],[""img/mask86.png""],[""img/mask30.png""],[""img/mask26.png""],[""img/mask60.png""],[""img/mask51.png""],[""img/mask20.png""],[""img/mask69.png""],[""img/mask89.png""],[""img/mask7.png""],[""img/mask55.png""],[""img/mask50.png""],[""img/mask28.png""],[""img/mask46.png""],[""img/mask68.png""],[""img/mask87.png""],[""img/mask90.png""],[""img/mask87.png""],[""img/mask58.png""],[""img/mask15.png""],[""img/mask19.png""],[""img/mask37.png""],[""img/mask25.png""],[""img/mask47.png""],[""img/mask94.png""]]]","","[21,33,7,16,4,10,23,3,11,32,12,6,30,18,0,25,29,27,19,2,8,28,26,31,24,35,20,17,1,15,13,34,9,22,5,14]","main","2","many-guess-6"
"","","","","","html-keyboard-response","146","414218","0.0-10.0-1.63","5dd56b0bb0438951fd535966","640759fa512f630a2bdc333d","6408c177c347c840b5e435df","null","","null","","","","","","","","","","","","","","","","","","","fixation","",""
"","","","","","color-precision2","147","417044","0.0-10.0-0.64-0.64","5dd56b0bb0438951fd535966","640759fa512f630a2bdc333d","6408c177c347c840b5e435df","[363.29999999701977]","","","[31]","[181]","181","136","307.8970271334098","[307.8970271334098]","[171.89702713340978]","[173]","0","0","1","0","149.4899999940535","993.308999994013","1000","[[[""img/mask24.png""]]]","","","main","136","color-precision2"
"","","","","","html-keyboard-response","148","417545","0.0-10.0-1.64","5dd56b0bb0438951fd535966","640759fa512f630a2bdc333d","6408c177c347c840b5e435df","null","","null","","","","","","","","","","","","","","","","","","","fixation","",""
"","","","","","many-guess-6","149","420461","0.0-10.0-0.65-0.65","5dd56b0bb0438951fd535966","640759fa512f630a2bdc333d","6408c177c347c840b5e435df","[1630]","","","[22,13,2,0,19,23,17,21,33,28,9,6,4,10,20,5,16,1,7,18,34,15,30,8,24,27,32,11,35,3,25,31,12,26,14,29]","[138,298,78,358,9,228,338,68,148,118,108,318,348,59,88,268,198,39,218,308,128,278,168,188,29,288,328,98,238,248,49,158,258,208,19,178]","138","44","230.79468858819442","[230.79468858819442]","[186.79468858819442]","[188]","[30,30,210,120,210,300,30,30,30]","0","36","0","149.66599999699974","8.710000000020955","16","[[[""img/mask11.png""],[""img/mask63.png""],[""img/mask49.png""],[""img/mask67.png""],[""img/mask97.png""],[""img/mask60.png""],[""img/mask88.png""],[""img/mask64.png""],[""img/mask87.png""],[""img/mask21.png""],[""img/mask23.png""],[""img/mask88.png""],[""img/mask22.png""],[""img/mask95.png""],[""img/mask13.png""],[""img/mask53.png""],[""img/mask60.png""],[""img/mask71.png""],[""img/mask100.png""],[""img/mask43.png""],[""img/mask79.png""],[""img/mask75.png""],[""img/mask46.png""],[""img/mask62.png""],[""img/mask85.png""],[""img/mask12.png""],[""img/mask29.png""],[""img/mask46.png""],[""img/mask80.png""],[""img/mask96.png""],[""img/mask11.png""],[""img/mask71.png""],[""img/mask31.png""],[""img/mask71.png""],[""img/mask100.png""],[""img/mask80.png""]]]","","[22,13,2,0,19,23,17,21,33,28,9,6,4,10,20,5,16,1,7,18,34,15,30,8,24,27,32,11,35,3,25,31,12,26,14,29]","main","44","many-guess-6"
"","","","","","html-keyboard-response","150","420962","0.0-10.0-1.65","5dd56b0bb0438951fd535966","640759fa512f630a2bdc333d","6408c177c347c840b5e435df","null","","null","","","","","","","","","","","","","","","","","","","fixation","",""
"","","","","","many-guess-6","151","425053","0.0-10.0-0.66-0.66","5dd56b0bb0438951fd535966","640759fa512f630a2bdc333d","6408c177c347c840b5e435df","[1822.5]","","","[9,12,29,4,35,22,28,18,6,27,7,25,33,1,19,5,0,15,20,30,14,2,24,17,16,8,10,34,32,31,21,13,23,26,3,11]","[3,263,243,113,23,163,123,13,33,183,332,143,193,73,342,273,153,313,283,63,303,322,93,253,223,352,133,203,53,103,43,213,83,293,173,233]","3","176","239.0675639752265","[239.0675639752265]","[63.067563975226506]","[63]","[30,300,120,30,120,30,30,30,120]","0","36","0","149.86099999997532","31.37599999405211","16","[[[""img/mask44.png""],[""img/mask57.png""],[""img/mask59.png""],[""img/mask44.png""],[""img/mask73.png""],[""img/mask40.png""],[""img/mask2.png""],[""img/mask5.png""],[""img/mask81.png""],[""img/mask33.png""],[""img/mask50.png""],[""img/mask43.png""],[""img/mask63.png""],[""img/mask7.png""],[""img/mask94.png""],[""img/mask64.png""],[""img/mask67.png""],[""img/mask34.png""],[""img/mask14.png""],[""img/mask15.png""],[""img/mask95.png""],[""img/mask73.png""],[""img/mask3.png""],[""img/mask18.png""],[""img/mask26.png""],[""img/mask97.png""],[""img/mask11.png""],[""img/mask43.png""],[""img/mask97.png""],[""img/mask23.png""],[""img/mask31.png""],[""img/mask91.png""],[""img/mask94.png""],[""img/mask70.png""],[""img/mask49.png""],[""img/mask54.png""]]]","","[9,12,29,4,35,22,28,18,6,27,7,25,33,1,19,5,0,15,20,30,14,2,24,17,16,8,10,34,32,31,21,13,23,26,3,11]","main","176","many-guess-6"
"","","","","","html-keyboard-response","152","425554","0.0-10.0-1.66","5dd56b0bb0438951fd535966","640759fa512f630a2bdc333d","6408c177c347c840b5e435df","null","","null","","","","","","","","","","","","","","","","","","","fixation","",""
"","","","","","many-guess-6","153","429478","0.0-10.0-0.67-0.67","5dd56b0bb0438951fd535966","640759fa512f630a2bdc333d","6408c177c347c840b5e435df","[2147.2000000029802]","","","[1,35,12,14,32,22,7,13,28,10,15,17,33,3,31,18,6,19,0,30,21,29,20,16,4,23,27,5,9,11,26,25,34,2,24,8]","[299,130,279,309,110,120,30,339,250,100,50,259,190,329,220,90,70,20,180,150,269,80,210,289,170,10,40,200,160,140,60,240,349,359,319,230]","299","291","84.3929095357908","[84.3929095357908]","[153.3929095357908]","[151]","[300,30,120,210,30,120,120,30,30]","0","36","0","149.6969999910798","13.440999997023027","16","[[[""img/mask65.png""],[""img/mask49.png""],[""img/mask94.png""],[""img/mask60.png""],[""img/mask94.png""],[""img/mask49.png""],[""img/mask23.png""],[""img/mask95.png""],[""img/mask32.png""],[""img/mask15.png""],[""img/mask1.png""],[""img/mask54.png""],[""img/mask85.png""],[""img/mask64.png""],[""img/mask15.png""],[""img/mask98.png""],[""img/mask41.png""],[""img/mask18.png""],[""img/mask43.png""],[""img/mask1.png""],[""img/mask80.png""],[""img/mask76.png""],[""img/mask55.png""],[""img/mask27.png""],[""img/mask58.png""],[""img/mask32.png""],[""img/mask32.png""],[""img/mask90.png""],[""img/mask30.png""],[""img/mask86.png""],[""img/mask19.png""],[""img/mask44.png""],[""img/mask35.png""],[""img/mask99.png""],[""img/mask7.png""],[""img/mask93.png""]]]","","[1,35,12,14,32,22,7,13,28,10,15,17,33,3,31,18,6,19,0,30,21,29,20,16,4,23,27,5,9,11,26,25,34,2,24,8]","main","291","many-guess-6"
"","","","","","html-keyboard-response","154","429979","0.0-10.0-1.67","5dd56b0bb0438951fd535966","640759fa512f630a2bdc333d","6408c177c347c840b5e435df","null","","null","","","","","","","","","","","","","","","","","","","fixation","",""
"","","","","","many-guess-6","155","433559","0.0-10.0-0.68-0.68","5dd56b0bb0438951fd535966","640759fa512f630a2bdc333d","6408c177c347c840b5e435df","[2077.5999999940395]","","","[9,31,10,12,32,7,26,22,28,2,3,11,14,16,20,24,21,15,27,35,0,29,19,8,4,25,17,23,13,6,5,33,30,18,34,1]","[62,12,211,251,2,301,52,151,311,72,241,32,231,271,131,42,261,281,221,112,82,191,291,102,341,321,171,122,161,92,201,22,351,181,331,141]","62","151","190.02867583489302","[190.02867583489302]","[39.02867583489302]","[38]","[120,30,300,120,120,210,300,120,30]","0","36","0","149.77799999999115","20.517999991076067","16","[[[""img/mask12.png""],[""img/mask55.png""],[""img/mask92.png""],[""img/mask18.png""],[""img/mask72.png""],[""img/mask31.png""],[""img/mask30.png""],[""img/mask37.png""],[""img/mask54.png""],[""img/mask27.png""],[""img/mask39.png""],[""img/mask39.png""],[""img/mask66.png""],[""img/mask1.png""],[""img/mask26.png""],[""img/mask95.png""],[""img/mask69.png""],[""img/mask57.png""],[""img/mask57.png""],[""img/mask92.png""],[""img/mask76.png""],[""img/mask34.png""],[""img/mask58.png""],[""img/mask20.png""],[""img/mask96.png""],[""img/mask94.png""],[""img/mask52.png""],[""img/mask22.png""],[""img/mask70.png""],[""img/mask44.png""],[""img/mask81.png""],[""img/mask57.png""],[""img/mask9.png""],[""img/mask96.png""],[""img/mask88.png""],[""img/mask6.png""]]]","","[9,31,10,12,32,7,26,22,28,2,3,11,14,16,20,24,21,15,27,35,0,29,19,8,4,25,17,23,13,6,5,33,30,18,34,1]","main","151","many-guess-6"
"","","","","","html-keyboard-response","156","434059","0.0-10.0-1.68","5dd56b0bb0438951fd535966","640759fa512f630a2bdc333d","6408c177c347c840b5e435df","null","","null","","","","","","","","","","","","","","","","","","","fixation","",""
"","","","","","color-precision2","157","437223","0.0-10.0-0.69-0.69","5dd56b0bb0438951fd535966","640759fa512f630a2bdc333d","6408c177c347c840b5e435df","[558.8000000119209]","","","[0]","[130]","130","32","176.18719800611657","[176.18719800611657]","[144.18719800611657]","[143]","0","0","1","0","149.65599999402184","1007.2749999910593","1000","[[[""img/mask70.png""]]]","","","main","32","color-precision2"
"","","","","","html-keyboard-response","158","437724","0.0-10.0-1.69","5dd56b0bb0438951fd535966","640759fa512f630a2bdc333d","6408c177c347c840b5e435df","null","","null","","","","","","","","","","","","","","","","","","","fixation","",""
"","","","","","many-guess-6","159","440792","0.0-10.0-0.70-0.70","5dd56b0bb0438951fd535966","640759fa512f630a2bdc333d","6408c177c347c840b5e435df","[1544.3999999910593]","","","[30,27,4,14,2,29,1,35,7,11,6,13,20,17,23,12,26,8,3,10,32,24,33,16,28,0,18,22,9,19,34,15,21,31,5,25]","[234,274,284,254,334,25,105,204,5,85,75,164,324,264,244,154,35,344,45,55,314,15,294,214,354,304,125,115,135,224,174,194,145,184,65,95]","234","225","275.59340129930786","[275.59340129930786]","[50.59340129930786]","[51]","[120,300,120,300,30,210,120,210,300]","0","36","0","149.66899999702582","13.626999991072807","16","[[[""img/mask39.png""],[""img/mask88.png""],[""img/mask83.png""],[""img/mask96.png""],[""img/mask64.png""],[""img/mask59.png""],[""img/mask14.png""],[""img/mask71.png""],[""img/mask50.png""],[""img/mask17.png""],[""img/mask12.png""],[""img/mask75.png""],[""img/mask58.png""],[""img/mask23.png""],[""img/mask80.png""],[""img/mask55.png""],[""img/mask17.png""],[""img/mask54.png""],[""img/mask42.png""],[""img/mask48.png""],[""img/mask91.png""],[""img/mask14.png""],[""img/mask71.png""],[""img/mask52.png""],[""img/mask46.png""],[""img/mask30.png""],[""img/mask72.png""],[""img/mask86.png""],[""img/mask62.png""],[""img/mask62.png""],[""img/mask33.png""],[""img/mask79.png""],[""img/mask11.png""],[""img/mask79.png""],[""img/mask65.png""],[""img/mask100.png""]]]","","[30,27,4,14,2,29,1,35,7,11,6,13,20,17,23,12,26,8,3,10,32,24,33,16,28,0,18,22,9,19,34,15,21,31,5,25]","main","225","many-guess-6"
"","","","","","html-keyboard-response","160","441294","0.0-10.0-1.70","5dd56b0bb0438951fd535966","640759fa512f630a2bdc333d","6408c177c347c840b5e435df","null","","null","","","","","","","","","","","","","","","","","","","fixation","",""
"","","","","","many-guess-6","161","444032","0.0-10.0-0.71-0.71","5dd56b0bb0438951fd535966","640759fa512f630a2bdc333d","6408c177c347c840b5e435df","[1451.0999999940395]","","","[6,18,30,1,7,34,32,2,13,19,4,5,16,31,12,3,9,26,23,27,24,14,21,35,8,11,0,33,10,25,28,20,22,17,15,29]","[63,342,183,93,232,292,252,73,143,302,83,173,113,203,23,272,332,43,123,223,153,213,352,53,3,262,193,133,163,13,33,282,103,322,312,242]","63","11","308.9041089166553","[308.9041089166553]","[297.9041089166553]","[298]","[120,210,120,120,120,30,300,300,210]","0","36","0","149.68499999999767","16.428999991039746","16","[[[""img/mask61.png""],[""img/mask63.png""],[""img/mask94.png""],[""img/mask72.png""],[""img/mask21.png""],[""img/mask46.png""],[""img/mask19.png""],[""img/mask18.png""],[""img/mask62.png""],[""img/mask94.png""],[""img/mask10.png""],[""img/mask58.png""],[""img/mask58.png""],[""img/mask33.png""],[""img/mask68.png""],[""img/mask92.png""],[""img/mask69.png""],[""img/mask26.png""],[""img/mask80.png""],[""img/mask48.png""],[""img/mask97.png""],[""img/mask62.png""],[""img/mask46.png""],[""img/mask96.png""],[""img/mask93.png""],[""img/mask65.png""],[""img/mask51.png""],[""img/mask25.png""],[""img/mask95.png""],[""img/mask30.png""],[""img/mask72.png""],[""img/mask41.png""],[""img/mask83.png""],[""img/mask69.png""],[""img/mask72.png""],[""img/mask72.png""]]]","","[6,18,30,1,7,34,32,2,13,19,4,5,16,31,12,3,9,26,23,27,24,14,21,35,8,11,0,33,10,25,28,20,22,17,15,29]","main","11","many-guess-6"
"","","","","","html-keyboard-response","162","444532","0.0-10.0-1.71","5dd56b0bb0438951fd535966","640759fa512f630a2bdc333d","6408c177c347c840b5e435df","null","","null","","","","","","","","","","","","","","","","","","","fixation","",""
