"success","timeout","failed_images","failed_audio","failed_video","trial_type","trial_index","time_elapsed","internal_node_id","subject_id","study_id","session_id","rt","stimulus","response","position_of_items","colors_of_items","color_of_target","wheel_spin","response_angle","physical_response_angle","reported_color_angle","reported_color_discrete","locs","which_test","set_size","wheel_num_options","actual_mask_duration","actual_stim_duration","CMDispTime","maskArray","maskRotation","item_positions","task","randomSpinAmount","mainTask"
"true","false","[]","[]","[]","preload","0","2285","0.0-0.0","5e42f74f5b772a18434cabf7","640759fa512f630a2bdc333d","64077ce44ddf22f50a6ff9d7","","","","","","","","","","","","","","","","","","","","","","","",""
"true","","","","","fullscreen","1","7183","0.0-1.0","5e42f74f5b772a18434cabf7","640759fa512f630a2bdc333d","64077ce44ddf22f50a6ff9d7","","","","","","","","","","","","","","","","","","","","","","","",""
"","","","","","html-keyboard-response","2","15151","0.0-2.0","5e42f74f5b772a18434cabf7","640759fa512f630a2bdc333d","64077ce44ddf22f50a6ff9d7","7963","What a beautiful Tuesday to do some awesome science! </p> <p>  </p><p> </p>
    By completing this survey or questionnaire, you are consenting to be in this research study. </p>
    Your participation is voluntary and you can stop at any time.<p> [Press any key to continue] </p>"," ","","","","","","","","","","","","","","","","","","","","",""
"","","","","","html-keyboard-response","3","25175","0.0-3.0","5e42f74f5b772a18434cabf7","640759fa512f630a2bdc333d","64077ce44ddf22f50a6ff9d7","null","
    <div style='width: 1000px;'>
    <div style='float: center;'><img src='img/TaskInstructions1.png'></img>
    </div>
    ","null","","","","","","","","","","","","","","","","","","","","",""
"","","","","","html-keyboard-response","4","30561","0.0-4.0","5e42f74f5b772a18434cabf7","640759fa512f630a2bdc333d","64077ce44ddf22f50a6ff9d7","5384","
    <div style='width: 1000px;'>
    <div style='float: center;'><img src='img/TaskInstructions1.png'></img>
    </div>
    "," ","","","","","","","","","","","","","","","","","","","","",""
"","","","","","html-keyboard-response","5","40579","0.0-5.0","5e42f74f5b772a18434cabf7","640759fa512f630a2bdc333d","64077ce44ddf22f50a6ff9d7","null","
    <div style='width: 1000px;'>
    <div style='float: center;'><img src='img/TaskInstructions2.png'></img>
    </div>
    ","null","","","","","","","","","","","","","","","","","","","","",""
"","","","","","html-keyboard-response","6","74545","0.0-6.0","5e42f74f5b772a18434cabf7","640759fa512f630a2bdc333d","64077ce44ddf22f50a6ff9d7","33961","
    <div style='width: 1000px;'>
    <div style='float: center;'><img src='img/TaskInstructions2.png'></img>
    </div>
    "," ","","","","","","","","","","","","","","","","","","","","",""
"","","","","","video-keyboard-response","7","95945","0.0-7.0","5e42f74f5b772a18434cabf7","640759fa512f630a2bdc333d","64077ce44ddf22f50a6ff9d7","21354","[""video/TaskInstructions3.mp4""]"," ","","","","","","","","","","","","","","","","","","","","",""
"","","","","","image-keyboard-response","8","105901","0.0-8.0-0.0","5e42f74f5b772a18434cabf7","640759fa512f630a2bdc333d","64077ce44ddf22f50a6ff9d7","9951","img/training1.png"," ","","","","","","","","","","","","","","","","","","","","",""
"","","","","","color-precision2","9","151246","0.0-8.0-1.0-0.0","5e42f74f5b772a18434cabf7","640759fa512f630a2bdc333d","64077ce44ddf22f50a6ff9d7","[2141]","","","[11]","[296]","296","69","1.7211533025799912","[1.7211533025799912]","[292.72115330258]","[292]","0","0","1","0","499.64000000001397","995.9599999999919","1000","","","0","training","",""
"","","","","","image-keyboard-response","10","168248","0.0-8.0-0.1","5e42f74f5b772a18434cabf7","640759fa512f630a2bdc333d","64077ce44ddf22f50a6ff9d7","17001","img/training2.png"," ","","","","","","","","","","","","","","","","","","","","",""
"","","","","","many-guess-6","11","179333","0.0-8.0-1.1-0.1","5e42f74f5b772a18434cabf7","640759fa512f630a2bdc333d","64077ce44ddf22f50a6ff9d7","[4014]","","","[7,32,18]","[167,129,256]","167","14","235.6905084616154","[235.6905084616154]","[221.6905084616154]","[222]","[120,120,210,300,30,210,30,300,300,120,120,210,300,30,300,210,300,120,30,120,30,300,30,120,30,300,300,120,30,30,30,300,300,30,210,120]","0","3","0","999.0400000000081","994.359999999986","1000","[[[""img/mask70.png""],[""img/mask91.png""],[""img/mask31.png""]]]","","[7,32,18]","training","",""
"","","","","","image-keyboard-response","12","186617","0.0-8.0-0.2","5e42f74f5b772a18434cabf7","640759fa512f630a2bdc333d","64077ce44ddf22f50a6ff9d7","7282","img/training3.png"," ","","","","","","","","","","","","","","","","","","","","",""
"","","","","","[""many-guess-6""]","13","192893","0.0-8.0-1.2-0.2","5e42f74f5b772a18434cabf7","640759fa512f630a2bdc333d","64077ce44ddf22f50a6ff9d7","[2208]","","","[2,27,20,3,34]","[43,332,105,347,279]","43","245","241.7986352882278","[241.7986352882278]","[356.79863528822784]","[357]","[210,300,300,120,120,210,300,120,300,300,210,30,210,120,210,300,210,300,300,120,210,30,300,30,120,210,210,300,120,120,300,210,30,30,300,210]","0","5","0","499.14000000001397","502.4800000000105","500","[[[""img/mask16.png""],[""img/mask34.png""],[""img/mask90.png""],[""img/mask22.png""],[""img/mask80.png""]]]","","[2,27,20,3,34]","training","",""
"","","","","","image-keyboard-response","14","203475","0.0-8.0-0.3","5e42f74f5b772a18434cabf7","640759fa512f630a2bdc333d","64077ce44ddf22f50a6ff9d7","10580","img/training4.png"," ","","","","","","","","","","","","","","","","","","","","",""
"","","","","","[""many-guess-6""]","15","214190","0.0-8.0-1.3-0.3","5e42f74f5b772a18434cabf7","640759fa512f630a2bdc333d","64077ce44ddf22f50a6ff9d7","[6571]","","","[31,27,18,23,34,5,28,12,35,32]","[31,79,96,284,5,333,61,129,157,299]","31","263","226.3262128094053","[226.3262128094053]","[323.3262128094053]","[324]","[300,300,30,30,210,30,30,30,300,300,210,300,300,210,210,300,120,210,30,210,210,120,300,30,30,30,300,120,210,300,120,210,300,300,300,210]","0","10","0","132.89999999999418","133.89999999999418","132","[[[""img/mask30.png""],[""img/mask62.png""],[""img/mask80.png""],[""img/mask39.png""],[""img/mask25.png""],[""img/mask13.png""],[""img/mask34.png""],[""img/mask1.png""],[""img/mask99.png""],[""img/mask44.png""]]]","","[31,27,18,23,34,5,28,12,35,32]","training","",""
"","","","","","image-keyboard-response","16","220825","0.0-8.0-0.4","5e42f74f5b772a18434cabf7","640759fa512f630a2bdc333d","64077ce44ddf22f50a6ff9d7","6632","img/training5.png"," ","","","","","","","","","","","","","","","","","","","","",""
"","","","","","[""many-guess-6""]","17","229012","0.0-8.0-1.4-0.4","5e42f74f5b772a18434cabf7","640759fa512f630a2bdc333d","64077ce44ddf22f50a6ff9d7","[3791]","","","[10,2,35,11,4,18,22,26,31,14,32,16,9,7,23,30,25,6,3,1,8,29,17,21,33,27,12,28,0,24,15,19,20,34,5,13]","[88,118,167,267,297,137,147,327,277,157,187,217,247,307,337,357,177,38,197,78,227,347,68,317,18,207,257,287,237,108,28,128,98,8,58,48]","88","58","14.650452183459825","[14.650452183459825]","[316.65045218345983]","[316]","[210,120,210,300,120,210,300,30,210,30,120,120,30,30,210,30,210,120,120,210,300,30,30,300,30,210,300,300,210,210,120,210,300,210,30,300]","0","36","0","132.54000000000815","17.54000000000815","16","[[[""img/mask10.png""],[""img/mask55.png""],[""img/mask47.png""],[""img/mask66.png""],[""img/mask40.png""],[""img/mask23.png""],[""img/mask61.png""],[""img/mask70.png""],[""img/mask33.png""],[""img/mask15.png""],[""img/mask41.png""],[""img/mask34.png""],[""img/mask78.png""],[""img/mask41.png""],[""img/mask73.png""],[""img/mask18.png""],[""img/mask37.png""],[""img/mask17.png""],[""img/mask95.png""],[""img/mask53.png""],[""img/mask67.png""],[""img/mask27.png""],[""img/mask6.png""],[""img/mask72.png""],[""img/mask96.png""],[""img/mask33.png""],[""img/mask79.png""],[""img/mask78.png""],[""img/mask58.png""],[""img/mask6.png""],[""img/mask93.png""],[""img/mask57.png""],[""img/mask42.png""],[""img/mask26.png""],[""img/mask68.png""],[""img/mask3.png""]]]","","[10,2,35,11,4,18,22,26,31,14,32,16,9,7,23,30,25,6,3,1,8,29,17,21,33,27,12,28,0,24,15,19,20,34,5,13]","training","",""
"","","","","","image-keyboard-response","18","256785","0.0-9.0","5e42f74f5b772a18434cabf7","640759fa512f630a2bdc333d","64077ce44ddf22f50a6ff9d7","27748","[""img/endTraining.png""]"," ","","","","","","","","","","","","","","","","","","","","",""
"","","","","","color-precision2","19","262565","0.0-10.0-0.0-0.0","5e42f74f5b772a18434cabf7","640759fa512f630a2bdc333d","64077ce44ddf22f50a6ff9d7","[1244]","","","[31]","[180]","180","154","8.183726885531478","[8.183726885531478]","[214.18372688553148]","[213]","0","0","1","0","149.5","991.8400000000256","1000","[[[""img/mask81.png""]]]","","","main","154","color-precision2"
"","","","","","html-keyboard-response","20","263081","0.0-10.0-1.0","5e42f74f5b772a18434cabf7","640759fa512f630a2bdc333d","64077ce44ddf22f50a6ff9d7","null","","null","","","","","","","","","","","","","","","","","","","fixation","",""
"","","","","","color-precision2","21","271516","0.0-10.0-0.1-0.1","5e42f74f5b772a18434cabf7","640759fa512f630a2bdc333d","64077ce44ddf22f50a6ff9d7","[1628]","","","[21]","[87]","87","238","338.6129750844501","[338.6129750844501]","[100.61297508445011]","[100]","0","0","1","0","149.3400000000256","999.679999999993","1000","[[[""img/mask98.png""]]]","","","main","238","color-precision2"
"","","","","","html-keyboard-response","22","272021","0.0-10.0-1.1","5e42f74f5b772a18434cabf7","640759fa512f630a2bdc333d","64077ce44ddf22f50a6ff9d7","null","","null","","","","","","","","","","","","","","","","","","","fixation","",""
"","","","","","color-precision2","23","279355","0.0-10.0-0.2-0.2","5e42f74f5b772a18434cabf7","640759fa512f630a2bdc333d","64077ce44ddf22f50a6ff9d7","[2018]","","","[34]","[329]","329","20","4.5586014299680775","[4.5586014299680775]","[344.55860142996806]","[344]","0","0","1","0","149.64000000001397","992.9799999999814","1000","[[[""img/mask32.png""]]]","","","main","20","color-precision2"
"","","","","","html-keyboard-response","24","279866","0.0-10.0-1.2","5e42f74f5b772a18434cabf7","640759fa512f630a2bdc333d","64077ce44ddf22f50a6ff9d7","null","","null","","","","","","","","","","","","","","","","","","","fixation","",""
"","","","","","many-guess-6","25","285729","0.0-10.0-0.3-0.3","5e42f74f5b772a18434cabf7","640759fa512f630a2bdc333d","64077ce44ddf22f50a6ff9d7","[3574]","","","[18,14,23,8,7,27,26,9,19,20,24,16,2,1,0,35,13,34,3,17,25,12,4,6,11,21,31,33,32,5,22,28,30,29,10,15]","[162,252,272,352,43,332,33,312,322,13,212,172,153,3,342,113,123,202,242,182,73,143,103,292,262,192,93,222,133,63,83,53,282,23,232,302]","162","101","140.47855589897037","[140.47855589897037]","[39.47855589897037]","[38]","[300,300,30,210,30,210,210,210,30]","0","36","0","149.40000000002328","26.820000000006985","16","[[[""img/mask12.png""],[""img/mask27.png""],[""img/mask30.png""],[""img/mask53.png""],[""img/mask92.png""],[""img/mask10.png""],[""img/mask52.png""],[""img/mask98.png""],[""img/mask76.png""],[""img/mask82.png""],[""img/mask77.png""],[""img/mask91.png""],[""img/mask99.png""],[""img/mask45.png""],[""img/mask61.png""],[""img/mask46.png""],[""img/mask40.png""],[""img/mask43.png""],[""img/mask27.png""],[""img/mask37.png""],[""img/mask87.png""],[""img/mask90.png""],[""img/mask12.png""],[""img/mask19.png""],[""img/mask13.png""],[""img/mask72.png""],[""img/mask23.png""],[""img/mask56.png""],[""img/mask89.png""],[""img/mask71.png""],[""img/mask8.png""],[""img/mask11.png""],[""img/mask71.png""],[""img/mask33.png""],[""img/mask3.png""],[""img/mask62.png""]]]","","[18,14,23,8,7,27,26,9,19,20,24,16,2,1,0,35,13,34,3,17,25,12,4,6,11,21,31,33,32,5,22,28,30,29,10,15]","main","101","many-guess-6"
"","","","","","html-keyboard-response","26","286240","0.0-10.0-1.3","5e42f74f5b772a18434cabf7","640759fa512f630a2bdc333d","64077ce44ddf22f50a6ff9d7","null","","null","","","","","","","","","","","","","","","","","","","fixation","",""
"","","","","","many-guess-6","27","296452","0.0-10.0-0.4-0.4","5e42f74f5b772a18434cabf7","640759fa512f630a2bdc333d","64077ce44ddf22f50a6ff9d7","[6912]","","","[8,32,11,3,22,28,30,35,27,9,5,31,20,4,1,0,21,6,29,25,15,24,12,13,19,33,7,17,23,34,18,26,14,2,10,16]","[224,214,204,75,294,35,174,344,304,314,45,184,105,115,254,274,15,264,194,324,144,234,135,244,5,125,334,85,354,154,55,95,25,164,65,284]","224","237","301.98719952965195","[301.98719952965195]","[64.98719952965195]","[65]","[30,120,300,120,30,210,30,300,210]","0","36","0","148.9199999999837","18.260000000009313","16","[[[""img/mask1.png""],[""img/mask35.png""],[""img/mask56.png""],[""img/mask54.png""],[""img/mask71.png""],[""img/mask61.png""],[""img/mask64.png""],[""img/mask68.png""],[""img/mask75.png""],[""img/mask43.png""],[""img/mask87.png""],[""img/mask23.png""],[""img/mask84.png""],[""img/mask74.png""],[""img/mask1.png""],[""img/mask34.png""],[""img/mask66.png""],[""img/mask21.png""],[""img/mask87.png""],[""img/mask29.png""],[""img/mask60.png""],[""img/mask71.png""],[""img/mask59.png""],[""img/mask92.png""],[""img/mask71.png""],[""img/mask33.png""],[""img/mask22.png""],[""img/mask4.png""],[""img/mask55.png""],[""img/mask40.png""],[""img/mask63.png""],[""img/mask14.png""],[""img/mask18.png""],[""img/mask40.png""],[""img/mask59.png""],[""img/mask71.png""]]]","","[8,32,11,3,22,28,30,35,27,9,5,31,20,4,1,0,21,6,29,25,15,24,12,13,19,33,7,17,23,34,18,26,14,2,10,16]","main","237","many-guess-6"
"","","","","","html-keyboard-response","28","296968","0.0-10.0-1.4","5e42f74f5b772a18434cabf7","640759fa512f630a2bdc333d","64077ce44ddf22f50a6ff9d7","null","","null","","","","","","","","","","","","","","","","","","","fixation","",""
"","","","","","many-guess-6","29","304336","0.0-10.0-0.5-0.5","5e42f74f5b772a18434cabf7","640759fa512f630a2bdc333d","64077ce44ddf22f50a6ff9d7","[3664]","","","[24,8,35,7,2,16,22,11,29,32,3,12,26,27,13,30,9,15,1,18,33,6,21,20,4,17,5,10,31,0,28,25,23,34,14,19]","[250,21,310,131,190,290,111,41,260,161,230,81,171,31,340,220,180,1,280,350,240,151,141,11,320,101,91,61,270,121,330,300,200,51,71,210]","250","169","224.3549441824679","[224.3549441824679]","[55.354944182467904]","[55]","[30,120,210,30,30,300,300,30,120]","0","36","0","149.59999999997672","19.94000000000233","16","[[[""img/mask46.png""],[""img/mask84.png""],[""img/mask34.png""],[""img/mask57.png""],[""img/mask65.png""],[""img/mask68.png""],[""img/mask3.png""],[""img/mask53.png""],[""img/mask58.png""],[""img/mask44.png""],[""img/mask22.png""],[""img/mask77.png""],[""img/mask85.png""],[""img/mask72.png""],[""img/mask71.png""],[""img/mask85.png""],[""img/mask15.png""],[""img/mask53.png""],[""img/mask44.png""],[""img/mask20.png""],[""img/mask98.png""],[""img/mask16.png""],[""img/mask80.png""],[""img/mask75.png""],[""img/mask80.png""],[""img/mask11.png""],[""img/mask52.png""],[""img/mask55.png""],[""img/mask71.png""],[""img/mask15.png""],[""img/mask99.png""],[""img/mask14.png""],[""img/mask48.png""],[""img/mask64.png""],[""img/mask88.png""],[""img/mask28.png""]]]","","[24,8,35,7,2,16,22,11,29,32,3,12,26,27,13,30,9,15,1,18,33,6,21,20,4,17,5,10,31,0,28,25,23,34,14,19]","main","169","many-guess-6"
"","","","","","html-keyboard-response","30","304839","0.0-10.0-1.5","5e42f74f5b772a18434cabf7","640759fa512f630a2bdc333d","64077ce44ddf22f50a6ff9d7","null","","null","","","","","","","","","","","","","","","","","","","fixation","",""
"","","","","","color-precision2","31","312542","0.0-10.0-0.6-0.6","5e42f74f5b772a18434cabf7","640759fa512f630a2bdc333d","64077ce44ddf22f50a6ff9d7","[3385]","","","[32]","[338]","338","61","50.29981527627895","[50.29981527627895]","[349.29981527627893]","[348]","0","0","1","0","149.2399999999907","997.5800000000163","1000","[[[""img/mask73.png""]]]","","","main","61","color-precision2"
"","","","","","html-keyboard-response","32","313045","0.0-10.0-1.6","5e42f74f5b772a18434cabf7","640759fa512f630a2bdc333d","64077ce44ddf22f50a6ff9d7","null","","null","","","","","","","","","","","","","","","","","","","fixation","",""
"","","","","","color-precision2","33","317552","0.0-10.0-0.7-0.7","5e42f74f5b772a18434cabf7","640759fa512f630a2bdc333d","64077ce44ddf22f50a6ff9d7","[880]","","","[0]","[179]","179","227","53.28839206375545","[53.28839206375545]","[186.28839206375545]","[185]","0","0","1","0","148.97999999998137","1000.320000000007","1000","[[[""img/mask70.png""]]]","","","main","227","color-precision2"
"","","","","","html-keyboard-response","34","318056","0.0-10.0-1.7","5e42f74f5b772a18434cabf7","640759fa512f630a2bdc333d","64077ce44ddf22f50a6ff9d7","null","","null","","","","","","","","","","","","","","","","","","","fixation","",""
"","","","","","many-guess-6","35","322970","0.0-10.0-0.8-0.8","5e42f74f5b772a18434cabf7","640759fa512f630a2bdc333d","64077ce44ddf22f50a6ff9d7","[2714]","","","[4,0,20,12,31,9,15,34,27,13,17,25,33,30,29,19,11,14,28,7,8,10,32,16,22,21,5,26,35,6,24,2,3,1,23,18]","[186,17,167,326,306,356,137,37,196,47,97,147,216,206,346,27,157,177,246,117,316,107,87,276,286,77,57,67,266,256,127,336,296,7,236,226]","186","282","236.34984248552593","[236.34984248552593]","[314.3498424855259]","[314]","[210,30,300,210,120,120,120,30,210]","0","36","0","149.53999999997905","16.880000000004657","16","[[[""img/mask20.png""],[""img/mask85.png""],[""img/mask39.png""],[""img/mask97.png""],[""img/mask94.png""],[""img/mask89.png""],[""img/mask56.png""],[""img/mask36.png""],[""img/mask38.png""],[""img/mask12.png""],[""img/mask1.png""],[""img/mask74.png""],[""img/mask39.png""],[""img/mask76.png""],[""img/mask99.png""],[""img/mask85.png""],[""img/mask40.png""],[""img/mask24.png""],[""img/mask38.png""],[""img/mask21.png""],[""img/mask85.png""],[""img/mask62.png""],[""img/mask10.png""],[""img/mask44.png""],[""img/mask5.png""],[""img/mask3.png""],[""img/mask60.png""],[""img/mask12.png""],[""img/mask96.png""],[""img/mask75.png""],[""img/mask5.png""],[""img/mask91.png""],[""img/mask45.png""],[""img/mask66.png""],[""img/mask34.png""],[""img/mask54.png""]]]","","[4,0,20,12,31,9,15,34,27,13,17,25,33,30,29,19,11,14,28,7,8,10,32,16,22,21,5,26,35,6,24,2,3,1,23,18]","main","282","many-guess-6"
"","","","","","html-keyboard-response","36","323474","0.0-10.0-1.8","5e42f74f5b772a18434cabf7","640759fa512f630a2bdc333d","64077ce44ddf22f50a6ff9d7","null","","null","","","","","","","","","","","","","","","","","","","fixation","",""
"","","","","","many-guess-6","37","334036","0.0-10.0-0.9-0.9","5e42f74f5b772a18434cabf7","640759fa512f630a2bdc333d","64077ce44ddf22f50a6ff9d7","[8032]","","","[3,31,30,19,20,16,21,29,18,4,14,7,25,34,33,5,32,2,10,22,17,15,11,35,28,13,6,23,0,1,27,24,12,9,8,26]","[200,91,180,120,170,160,140,260,31,240,340,21,61,41,350,320,110,71,330,11,81,220,280,290,101,130,300,1,230,51,150,310,190,250,270,210]","200","99","44.161244490540966","[44.161244490540966]","[305.161244490541]","[304]","[30,120,30,210,300,30,210,30,300]","0","36","0","148.79999999998836","25.14000000001397","16","[[[""img/mask85.png""],[""img/mask30.png""],[""img/mask55.png""],[""img/mask68.png""],[""img/mask85.png""],[""img/mask100.png""],[""img/mask97.png""],[""img/mask60.png""],[""img/mask92.png""],[""img/mask13.png""],[""img/mask68.png""],[""img/mask20.png""],[""img/mask77.png""],[""img/mask21.png""],[""img/mask73.png""],[""img/mask93.png""],[""img/mask59.png""],[""img/mask94.png""],[""img/mask72.png""],[""img/mask15.png""],[""img/mask33.png""],[""img/mask3.png""],[""img/mask41.png""],[""img/mask87.png""],[""img/mask48.png""],[""img/mask73.png""],[""img/mask37.png""],[""img/mask35.png""],[""img/mask18.png""],[""img/mask1.png""],[""img/mask12.png""],[""img/mask17.png""],[""img/mask34.png""],[""img/mask70.png""],[""img/mask96.png""],[""img/mask34.png""]]]","","[3,31,30,19,20,16,21,29,18,4,14,7,25,34,33,5,32,2,10,22,17,15,11,35,28,13,6,23,0,1,27,24,12,9,8,26]","main","99","many-guess-6"
"","","","","","html-keyboard-response","38","334539","0.0-10.0-1.9","5e42f74f5b772a18434cabf7","640759fa512f630a2bdc333d","64077ce44ddf22f50a6ff9d7","null","","null","","","","","","","","","","","","","","","","","","","fixation","",""
"","","","","","many-guess-6","39","341182","0.0-10.0-0.10-0.10","5e42f74f5b772a18434cabf7","640759fa512f630a2bdc333d","64077ce44ddf22f50a6ff9d7","[4409]","","","[26,10,23,8,31,9,12,1,11,14,16,25,34,4,18,35,6,21,13,19,27,20,22,2,30,3,15,17,32,28,7,0,29,33,24,5]","[166,335,225,126,235,255,205,26,56,156,116,46,265,245,146,285,96,325,66,196,275,215,355,186,6,305,345,315,295,76,106,16,136,176,86,36]","166","310","297.2311395571072","[297.2311395571072]","[347.2311395571072]","[347]","[30,30,300,300,300,300,120,210,300]","0","36","0","148.7399999999907","13.099999999976717","16","[[[""img/mask81.png""],[""img/mask92.png""],[""img/mask56.png""],[""img/mask86.png""],[""img/mask42.png""],[""img/mask43.png""],[""img/mask35.png""],[""img/mask33.png""],[""img/mask94.png""],[""img/mask80.png""],[""img/mask60.png""],[""img/mask78.png""],[""img/mask49.png""],[""img/mask10.png""],[""img/mask48.png""],[""img/mask62.png""],[""img/mask60.png""],[""img/mask53.png""],[""img/mask5.png""],[""img/mask97.png""],[""img/mask43.png""],[""img/mask69.png""],[""img/mask68.png""],[""img/mask46.png""],[""img/mask95.png""],[""img/mask38.png""],[""img/mask3.png""],[""img/mask74.png""],[""img/mask40.png""],[""img/mask50.png""],[""img/mask63.png""],[""img/mask64.png""],[""img/mask38.png""],[""img/mask65.png""],[""img/mask57.png""],[""img/mask49.png""]]]","","[26,10,23,8,31,9,12,1,11,14,16,25,34,4,18,35,6,21,13,19,27,20,22,2,30,3,15,17,32,28,7,0,29,33,24,5]","main","310","many-guess-6"
"","","","","","html-keyboard-response","40","341684","0.0-10.0-1.10","5e42f74f5b772a18434cabf7","640759fa512f630a2bdc333d","64077ce44ddf22f50a6ff9d7","null","","null","","","","","","","","","","","","","","","","","","","fixation","",""
"","","","","","many-guess-6","41","347919","0.0-10.0-0.11-0.11","5e42f74f5b772a18434cabf7","640759fa512f630a2bdc333d","64077ce44ddf22f50a6ff9d7","[3428]","","","[13,27,7,35,4,31,28,20,29,12,6,16,2,18,25,34,14,10,19,21,11,22,5,23,0,17,26,24,30,9,3,1,8,15,32,33]","[120,260,349,10,250,20,150,40,110,319,299,200,210,279,100,359,60,30,269,50,70,329,339,289,230,170,160,90,309,180,80,140,220,190,130,240]","120","278","64.54065168177499","[64.54065168177499]","[146.540651681775]","[145]","[210,210,300,300,210,120,210,210,30]","0","36","0","147.59999999997672","25.94000000000233","16","[[[""img/mask83.png""],[""img/mask78.png""],[""img/mask97.png""],[""img/mask62.png""],[""img/mask72.png""],[""img/mask81.png""],[""img/mask1.png""],[""img/mask29.png""],[""img/mask9.png""],[""img/mask25.png""],[""img/mask42.png""],[""img/mask61.png""],[""img/mask29.png""],[""img/mask34.png""],[""img/mask55.png""],[""img/mask4.png""],[""img/mask1.png""],[""img/mask99.png""],[""img/mask97.png""],[""img/mask96.png""],[""img/mask52.png""],[""img/mask42.png""],[""img/mask62.png""],[""img/mask68.png""],[""img/mask63.png""],[""img/mask17.png""],[""img/mask32.png""],[""img/mask86.png""],[""img/mask20.png""],[""img/mask10.png""],[""img/mask55.png""],[""img/mask7.png""],[""img/mask84.png""],[""img/mask91.png""],[""img/mask42.png""],[""img/mask88.png""]]]","","[13,27,7,35,4,31,28,20,29,12,6,16,2,18,25,34,14,10,19,21,11,22,5,23,0,17,26,24,30,9,3,1,8,15,32,33]","main","278","many-guess-6"
"","","","","","html-keyboard-response","42","348432","0.0-10.0-1.11","5e42f74f5b772a18434cabf7","640759fa512f630a2bdc333d","64077ce44ddf22f50a6ff9d7","null","","null","","","","","","","","","","","","","","","","","","","fixation","",""
"","","","","","many-guess-6","43","354986","0.0-10.0-0.12-0.12","5e42f74f5b772a18434cabf7","640759fa512f630a2bdc333d","64077ce44ddf22f50a6ff9d7","[4247]","","","[10,26,30,32,2,0,8,15,25,3,23,20,5,4,9,1,18,24,12,28,31,27,17,34,21,16,13,7,35,11,14,6,29,33,22,19]","[81,280,230,51,210,111,300,1,270,260,41,140,31,61,340,320,220,11,121,21,190,130,250,330,310,160,150,71,170,240,200,350,101,180,91,290]","81","318","296.4817647002161","[296.4817647002161]","[338.4817647002161]","[339]","[300,300,30,210,210,210,30,120,120]","0","36","0","149.71999999997206","12.179999999993015","16","[[[""img/mask97.png""],[""img/mask17.png""],[""img/mask1.png""],[""img/mask14.png""],[""img/mask80.png""],[""img/mask87.png""],[""img/mask36.png""],[""img/mask56.png""],[""img/mask22.png""],[""img/mask86.png""],[""img/mask74.png""],[""img/mask19.png""],[""img/mask34.png""],[""img/mask26.png""],[""img/mask82.png""],[""img/mask23.png""],[""img/mask69.png""],[""img/mask51.png""],[""img/mask66.png""],[""img/mask69.png""],[""img/mask89.png""],[""img/mask49.png""],[""img/mask45.png""],[""img/mask64.png""],[""img/mask5.png""],[""img/mask48.png""],[""img/mask68.png""],[""img/mask14.png""],[""img/mask70.png""],[""img/mask86.png""],[""img/mask53.png""],[""img/mask32.png""],[""img/mask98.png""],[""img/mask25.png""],[""img/mask17.png""],[""img/mask88.png""]]]","","[10,26,30,32,2,0,8,15,25,3,23,20,5,4,9,1,18,24,12,28,31,27,17,34,21,16,13,7,35,11,14,6,29,33,22,19]","main","318","many-guess-6"
"","","","","","html-keyboard-response","44","355497","0.0-10.0-1.12","5e42f74f5b772a18434cabf7","640759fa512f630a2bdc333d","64077ce44ddf22f50a6ff9d7","null","","null","","","","","","","","","","","","","","","","","","","fixation","",""
"","","","","","many-guess-6","45","363005","0.0-10.0-0.13-0.13","5e42f74f5b772a18434cabf7","640759fa512f630a2bdc333d","64077ce44ddf22f50a6ff9d7","[5598]","","","[28,27,24,0,21,23,17,12,33,30,9,14,13,10,1,25,20,8,18,34,32,3,31,35,29,16,11,7,26,2,15,5,6,19,4,22]","[9,129,219,79,358,149,269,169,139,259,298,209,59,119,189,338,348,109,29,249,99,229,39,19,328,308,69,318,288,239,279,89,199,179,159,49]","9","298","311.7293667041926","[311.7293667041926]","[13.729366704192614]","[14]","[30,120,210,300,30,300,210,300,30]","0","36","0","149.6599999999744","23","16","[[[""img/mask13.png""],[""img/mask76.png""],[""img/mask93.png""],[""img/mask15.png""],[""img/mask47.png""],[""img/mask70.png""],[""img/mask1.png""],[""img/mask37.png""],[""img/mask23.png""],[""img/mask6.png""],[""img/mask30.png""],[""img/mask8.png""],[""img/mask25.png""],[""img/mask95.png""],[""img/mask30.png""],[""img/mask13.png""],[""img/mask60.png""],[""img/mask85.png""],[""img/mask39.png""],[""img/mask16.png""],[""img/mask65.png""],[""img/mask80.png""],[""img/mask99.png""],[""img/mask40.png""],[""img/mask90.png""],[""img/mask55.png""],[""img/mask38.png""],[""img/mask7.png""],[""img/mask61.png""],[""img/mask42.png""],[""img/mask89.png""],[""img/mask58.png""],[""img/mask76.png""],[""img/mask59.png""],[""img/mask51.png""],[""img/mask25.png""]]]","","[28,27,24,0,21,23,17,12,33,30,9,14,13,10,1,25,20,8,18,34,32,3,31,35,29,16,11,7,26,2,15,5,6,19,4,22]","main","298","many-guess-6"
"","","","","","html-keyboard-response","46","363514","0.0-10.0-1.13","5e42f74f5b772a18434cabf7","640759fa512f630a2bdc333d","64077ce44ddf22f50a6ff9d7","null","","null","","","","","","","","","","","","","","","","","","","fixation","",""
"","","","","","many-guess-6","47","368280","0.0-10.0-0.14-0.14","5e42f74f5b772a18434cabf7","640759fa512f630a2bdc333d","64077ce44ddf22f50a6ff9d7","[2924]","","","[14,7,32,10,3,34,30,0,26,21,22,11,28,29,8,9,24,20,12,25,6,5,31,16,23,19,33,15,35,18,2,13,17,27,1,4]","[170,210,10,20,60,339,220,30,190,50,70,110,259,269,230,349,279,90,289,160,40,200,309,180,100,80,299,329,120,249,240,130,140,319,150,359]","170","327","246.68073340352584","[246.68073340352584]","[279.68073340352584]","[280]","[210,30,30,300,120,210,30,300,120]","0","36","0","148.78000000002794","17.099999999976717","16","[[[""img/mask97.png""],[""img/mask51.png""],[""img/mask52.png""],[""img/mask54.png""],[""img/mask96.png""],[""img/mask67.png""],[""img/mask48.png""],[""img/mask54.png""],[""img/mask90.png""],[""img/mask45.png""],[""img/mask97.png""],[""img/mask49.png""],[""img/mask72.png""],[""img/mask90.png""],[""img/mask98.png""],[""img/mask66.png""],[""img/mask29.png""],[""img/mask46.png""],[""img/mask73.png""],[""img/mask55.png""],[""img/mask80.png""],[""img/mask35.png""],[""img/mask35.png""],[""img/mask2.png""],[""img/mask100.png""],[""img/mask5.png""],[""img/mask32.png""],[""img/mask93.png""],[""img/mask18.png""],[""img/mask76.png""],[""img/mask49.png""],[""img/mask27.png""],[""img/mask4.png""],[""img/mask43.png""],[""img/mask48.png""],[""img/mask18.png""]]]","","[14,7,32,10,3,34,30,0,26,21,22,11,28,29,8,9,24,20,12,25,6,5,31,16,23,19,33,15,35,18,2,13,17,27,1,4]","main","327","many-guess-6"
"","","","","","html-keyboard-response","48","368794","0.0-10.0-1.14","5e42f74f5b772a18434cabf7","640759fa512f630a2bdc333d","64077ce44ddf22f50a6ff9d7","null","","null","","","","","","","","","","","","","","","","","","","fixation","",""
"","","","","","color-precision2","49","380867","0.0-10.0-0.15-0.15","5e42f74f5b772a18434cabf7","640759fa512f630a2bdc333d","64077ce44ddf22f50a6ff9d7","[9041]","","","[34]","[160]","160","320","133.9285782645793","[133.9285782645793]","[173.9285782645793]","[172]","0","0","1","0","148.67999999999302","1001","1000","[[[""img/mask5.png""]]]","","","main","320","color-precision2"
"","","","","","html-keyboard-response","50","381369","0.0-10.0-1.15","5e42f74f5b772a18434cabf7","640759fa512f630a2bdc333d","64077ce44ddf22f50a6ff9d7","null","","null","","","","","","","","","","","","","","","","","","","fixation","",""
"","","","","","color-precision2","51","389605","0.0-10.0-0.16-0.16","5e42f74f5b772a18434cabf7","640759fa512f630a2bdc333d","64077ce44ddf22f50a6ff9d7","[4580]","","","[7]","[228]","228","30","266.1418670076225","[266.1418670076225]","[236.14186700762252]","[236]","0","0","1","0","148.97999999998137","998.320000000007","1000","[[[""img/mask67.png""]]]","","","main","30","color-precision2"
"","","","","","html-keyboard-response","52","390115","0.0-10.0-1.16","5e42f74f5b772a18434cabf7","640759fa512f630a2bdc333d","64077ce44ddf22f50a6ff9d7","null","","null","","","","","","","","","","","","","","","","","","","fixation","",""
"","","","","","color-precision2","53","394638","0.0-10.0-0.17-0.17","5e42f74f5b772a18434cabf7","640759fa512f630a2bdc333d","64077ce44ddf22f50a6ff9d7","[613]","","","[2]","[183]","183","217","48.1432173820106","[48.1432173820106]","[191.1432173820106]","[190]","0","0","1","0","149.2399999999907","1007.5800000000163","1000","[[[""img/mask99.png""]]]","","","main","217","color-precision2"
"","","","","","html-keyboard-response","54","395145","0.0-10.0-1.17","5e42f74f5b772a18434cabf7","640759fa512f630a2bdc333d","64077ce44ddf22f50a6ff9d7","null","","null","","","","","","","","","","","","","","","","","","","fixation","",""
"","","","","","color-precision2","55","400109","0.0-10.0-0.18-0.18","5e42f74f5b772a18434cabf7","640759fa512f630a2bdc333d","64077ce44ddf22f50a6ff9d7","[1602]","","","[30]","[141]","141","75","219.57190067169694","[219.57190067169694]","[144.57190067169694]","[144]","0","0","1","0","148.78000000002794","1007.1199999999953","1000","[[[""img/mask28.png""]]]","","","main","75","color-precision2"
"","","","","","html-keyboard-response","56","400614","0.0-10.0-1.18","5e42f74f5b772a18434cabf7","640759fa512f630a2bdc333d","64077ce44ddf22f50a6ff9d7","null","","null","","","","","","","","","","","","","","","","","","","fixation","",""
"","","","","","many-guess-6","57","407010","0.0-10.0-0.19-0.19","5e42f74f5b772a18434cabf7","640759fa512f630a2bdc333d","64077ce44ddf22f50a6ff9d7","[3052]","","","[27,18,26,1,10,23,2,22,24,33,15,32,17,34,9,35,29,6,30,3,0,5,31,12,8,13,25,19,28,16,7,14,11,20,21,4]","[308,69,219,59,288,338,9,209,89,298,39,149,139,328,119,49,109,159,348,318,79,189,99,278,358,29,19,259,179,169,229,239,268,129,249,199]","308","307","238.24248954538444","[238.24248954538444]","[291.24248954538444]","[291]","[30,30,210,300,300,300,300,30,120]","0","36","0","148.96000000002095","19.29999999998836","16","[[[""img/mask13.png""],[""img/mask95.png""],[""img/mask100.png""],[""img/mask19.png""],[""img/mask20.png""],[""img/mask59.png""],[""img/mask82.png""],[""img/mask6.png""],[""img/mask55.png""],[""img/mask43.png""],[""img/mask16.png""],[""img/mask74.png""],[""img/mask66.png""],[""img/mask12.png""],[""img/mask14.png""],[""img/mask23.png""],[""img/mask51.png""],[""img/mask18.png""],[""img/mask93.png""],[""img/mask36.png""],[""img/mask58.png""],[""img/mask53.png""],[""img/mask19.png""],[""img/mask23.png""],[""img/mask76.png""],[""img/mask24.png""],[""img/mask60.png""],[""img/mask8.png""],[""img/mask91.png""],[""img/mask24.png""],[""img/mask85.png""],[""img/mask3.png""],[""img/mask78.png""],[""img/mask35.png""],[""img/mask75.png""],[""img/mask74.png""]]]","","[27,18,26,1,10,23,2,22,24,33,15,32,17,34,9,35,29,6,30,3,0,5,31,12,8,13,25,19,28,16,7,14,11,20,21,4]","main","307","many-guess-6"
"","","","","","html-keyboard-response","58","418568","0.0-10.0-1.19","5e42f74f5b772a18434cabf7","640759fa512f630a2bdc333d","64077ce44ddf22f50a6ff9d7","11557","Wow! You've completed 20 out of 180 trials! </p> <p>  </p><p> Take a quick break, then press any key when you're ready to continue."," ","","","","","","","","","","","","","","","","","","","fixation","",""
"","","","","","color-precision2","59","426215","0.0-10.0-0.20-0.20","5e42f74f5b772a18434cabf7","640759fa512f630a2bdc333d","64077ce44ddf22f50a6ff9d7","[2189]","","","[14]","[85]","85","196","282.22964588897264","[282.22964588897264]","[86.22964588897264]","[86]","0","0","1","0","148.20000000001164","993.539999999979","1000","[[[""img/mask39.png""]]]","","","main","196","color-precision2"
"","","","","","html-keyboard-response","60","426722","0.0-10.0-1.20","5e42f74f5b772a18434cabf7","640759fa512f630a2bdc333d","64077ce44ddf22f50a6ff9d7","null","","null","","","","","","","","","","","","","","","","","","","fixation","",""
"","","","","","color-precision2","61","431984","0.0-10.0-0.21-0.21","5e42f74f5b772a18434cabf7","640759fa512f630a2bdc333d","64077ce44ddf22f50a6ff9d7","[1624]","","","[22]","[23]","23","215","197.92345071184505","[197.92345071184505]","[342.923450711845]","[342]","0","0","1","0","148.71999999997206","997.0599999999977","1000","[[[""img/mask1.png""]]]","","","main","215","color-precision2"
"","","","","","html-keyboard-response","62","432488","0.0-10.0-1.21","5e42f74f5b772a18434cabf7","640759fa512f630a2bdc333d","64077ce44ddf22f50a6ff9d7","null","","null","","","","","","","","","","","","","","","","","","","fixation","",""
"","","","","","color-precision2","63","437244","0.0-10.0-0.22-0.22","5e42f74f5b772a18434cabf7","640759fa512f630a2bdc333d","64077ce44ddf22f50a6ff9d7","[1685]","","","[8]","[194]","194","109","318.88751480087575","[318.88751480087575]","[209.88751480087575]","[210]","0","0","1","0","148.90000000002328","996.2399999999907","1000","[[[""img/mask75.png""]]]","","","main","109","color-precision2"
"","","","","","html-keyboard-response","64","437754","0.0-10.0-1.22","5e42f74f5b772a18434cabf7","640759fa512f630a2bdc333d","64077ce44ddf22f50a6ff9d7","null","","null","","","","","","","","","","","","","","","","","","","fixation","",""
"","","","","","color-precision2","65","442785","0.0-10.0-0.23-0.23","5e42f74f5b772a18434cabf7","640759fa512f630a2bdc333d","64077ce44ddf22f50a6ff9d7","[2143]","","","[35]","[256]","256","130","29.2791097705569","[29.2791097705569]","[259.2791097705569]","[258]","0","0","1","0","148.35999999998603","1000.7000000000116","1000","[[[""img/mask67.png""]]]","","","main","130","color-precision2"
"","","","","","html-keyboard-response","66","443300","0.0-10.0-1.23","5e42f74f5b772a18434cabf7","640759fa512f630a2bdc333d","64077ce44ddf22f50a6ff9d7","null","","null","","","","","","","","","","","","","","","","","","","fixation","",""
"","","","","","many-guess-6","67","447554","0.0-10.0-0.24-0.24","5e42f74f5b772a18434cabf7","640759fa512f630a2bdc333d","64077ce44ddf22f50a6ff9d7","[2279]","","","[15,14,10,7,19,20,16,32,11,6,27,1,4,25,29,22,33,23,17,30,34,24,31,3,21,0,18,13,35,26,5,12,9,28,2,8]","[311,112,62,162,102,351,261,72,122,182,22,211,331,231,42,301,82,191,132,321,341,201,12,152,241,221,291,251,172,52,142,92,2,281,271,32]","311","359","224.9358587128528","[224.9358587128528]","[225.9358587128528]","[226]","[300,300,30,30,120,210,210,30,210]","0","36","0","148.85999999998603","25.21999999997206","16","[[[""img/mask37.png""],[""img/mask62.png""],[""img/mask7.png""],[""img/mask87.png""],[""img/mask33.png""],[""img/mask44.png""],[""img/mask33.png""],[""img/mask27.png""],[""img/mask29.png""],[""img/mask80.png""],[""img/mask44.png""],[""img/mask45.png""],[""img/mask21.png""],[""img/mask25.png""],[""img/mask54.png""],[""img/mask83.png""],[""img/mask8.png""],[""img/mask49.png""],[""img/mask86.png""],[""img/mask91.png""],[""img/mask57.png""],[""img/mask78.png""],[""img/mask22.png""],[""img/mask8.png""],[""img/mask27.png""],[""img/mask30.png""],[""img/mask59.png""],[""img/mask21.png""],[""img/mask63.png""],[""img/mask90.png""],[""img/mask28.png""],[""img/mask55.png""],[""img/mask62.png""],[""img/mask48.png""],[""img/mask75.png""],[""img/mask27.png""]]]","","[15,14,10,7,19,20,16,32,11,6,27,1,4,25,29,22,33,23,17,30,34,24,31,3,21,0,18,13,35,26,5,12,9,28,2,8]","main","359","many-guess-6"
"","","","","","html-keyboard-response","68","448067","0.0-10.0-1.24","5e42f74f5b772a18434cabf7","640759fa512f630a2bdc333d","64077ce44ddf22f50a6ff9d7","null","","null","","","","","","","","","","","","","","","","","","","fixation","",""
"","","","","","color-precision2","69","452477","0.0-10.0-0.25-0.25","5e42f74f5b772a18434cabf7","640759fa512f630a2bdc333d","64077ce44ddf22f50a6ff9d7","[1435]","","","[14]","[123]","123","109","235.6538997870708","[235.6538997870708]","[126.6538997870708]","[127]","0","0","1","0","148.6599999999744","994.9799999999814","1000","[[[""img/mask30.png""]]]","","","main","109","color-precision2"
"","","","","","html-keyboard-response","70","452980","0.0-10.0-1.25","5e42f74f5b772a18434cabf7","640759fa512f630a2bdc333d","64077ce44ddf22f50a6ff9d7","null","","null","","","","","","","","","","","","","","","","","","","fixation","",""
"","","","","","color-precision2","71","459192","0.0-10.0-0.26-0.26","5e42f74f5b772a18434cabf7","640759fa512f630a2bdc333d","64077ce44ddf22f50a6ff9d7","[3332]","","","[14]","[268]","268","328","235.08177444532163","[235.08177444532163]","[267.0817744453216]","[268]","0","0","1","0","149.46000000002095","998.7999999999884","1000","[[[""img/mask87.png""]]]","","","main","328","color-precision2"
"","","","","","html-keyboard-response","72","459696","0.0-10.0-1.26","5e42f74f5b772a18434cabf7","640759fa512f630a2bdc333d","64077ce44ddf22f50a6ff9d7","null","","null","","","","","","","","","","","","","","","","","","","fixation","",""
"","","","","","color-precision2","73","463953","0.0-10.0-0.27-0.27","5e42f74f5b772a18434cabf7","640759fa512f630a2bdc333d","64077ce44ddf22f50a6ff9d7","[1425]","","","[11]","[197]","197","327","157.3405878325967","[157.3405878325967]","[190.3405878325967]","[189]","0","0","1","0","148.17999999999302","996.5","1000","[[[""img/mask75.png""]]]","","","main","327","color-precision2"
"","","","","","html-keyboard-response","74","464455","0.0-10.0-1.27","5e42f74f5b772a18434cabf7","640759fa512f630a2bdc333d","64077ce44ddf22f50a6ff9d7","null","","null","","","","","","","","","","","","","","","","","","","fixation","",""
"","","","","","many-guess-6","75","470386","0.0-10.0-0.28-0.28","5e42f74f5b772a18434cabf7","640759fa512f630a2bdc333d","64077ce44ddf22f50a6ff9d7","[3143]","","","[18,20,0,27,22,3,26,11,19,7,9,15,35,31,12,34,17,13,1,29,14,33,23,6,2,16,32,10,24,30,8,25,4,28,5,21]","[269,30,50,60,200,289,279,180,259,190,239,309,160,80,219,299,120,110,90,210,130,229,249,339,319,20,40,349,10,150,359,170,329,100,140,70]","269","148","203.05401110621753","[203.05401110621753]","[55.05401110621753]","[55]","[300,300,210,120,210,30,300,300,120]","0","36","0","149.14000000001397","16.5","16","[[[""img/mask86.png""],[""img/mask14.png""],[""img/mask79.png""],[""img/mask31.png""],[""img/mask29.png""],[""img/mask8.png""],[""img/mask34.png""],[""img/mask38.png""],[""img/mask3.png""],[""img/mask67.png""],[""img/mask16.png""],[""img/mask46.png""],[""img/mask73.png""],[""img/mask34.png""],[""img/mask15.png""],[""img/mask11.png""],[""img/mask45.png""],[""img/mask81.png""],[""img/mask94.png""],[""img/mask69.png""],[""img/mask12.png""],[""img/mask9.png""],[""img/mask64.png""],[""img/mask55.png""],[""img/mask21.png""],[""img/mask8.png""],[""img/mask25.png""],[""img/mask48.png""],[""img/mask52.png""],[""img/mask53.png""],[""img/mask78.png""],[""img/mask25.png""],[""img/mask21.png""],[""img/mask39.png""],[""img/mask21.png""],[""img/mask40.png""]]]","","[18,20,0,27,22,3,26,11,19,7,9,15,35,31,12,34,17,13,1,29,14,33,23,6,2,16,32,10,24,30,8,25,4,28,5,21]","main","148","many-guess-6"
"","","","","","html-keyboard-response","76","470889","0.0-10.0-1.28","5e42f74f5b772a18434cabf7","640759fa512f630a2bdc333d","64077ce44ddf22f50a6ff9d7","null","","null","","","","","","","","","","","","","","","","","","","fixation","",""
"","","","","","color-precision2","77","476632","0.0-10.0-0.29-0.29","5e42f74f5b772a18434cabf7","640759fa512f630a2bdc333d","64077ce44ddf22f50a6ff9d7","[2221]","","","[12]","[181]","181","216","45.36666634184152","[45.36666634184152]","[189.36666634184152]","[188]","0","0","1","0","147.97999999998137","992.2999999999884","1000","[[[""img/mask53.png""]]]","","","main","216","color-precision2"
"","","","","","html-keyboard-response","78","477136","0.0-10.0-1.29","5e42f74f5b772a18434cabf7","640759fa512f630a2bdc333d","64077ce44ddf22f50a6ff9d7","null","","null","","","","","","","","","","","","","","","","","","","fixation","",""
"","","","","","color-precision2","79","481563","0.0-10.0-0.30-0.30","5e42f74f5b772a18434cabf7","640759fa512f630a2bdc333d","64077ce44ddf22f50a6ff9d7","[1170]","","","[14]","[66]","66","244","319.8044594753234","[319.8044594753234]","[75.80445947532343]","[76]","0","0","1","0","148.38000000000466","1001.7199999999721","1000","[[[""img/mask14.png""]]]","","","main","244","color-precision2"
"","","","","","html-keyboard-response","80","482066","0.0-10.0-1.30","5e42f74f5b772a18434cabf7","640759fa512f630a2bdc333d","64077ce44ddf22f50a6ff9d7","null","","null","","","","","","","","","","","","","","","","","","","fixation","",""
"","","","","","many-guess-6","81","487652","0.0-10.0-0.31-0.31","5e42f74f5b772a18434cabf7","640759fa512f630a2bdc333d","64077ce44ddf22f50a6ff9d7","[3658]","","","[19,4,25,7,13,3,32,33,22,6,9,21,24,27,18,14,34,28,30,11,35,0,12,2,1,10,26,5,31,17,20,8,15,16,29,23]","[69,219,289,209,269,329,259,169,189,239,229,19,249,49,339,159,179,129,99,149,279,119,319,299,9,199,139,109,359,79,39,349,59,89,29,309]","69","168","8.404089593226361","[8.404089593226361]","[200.40408959322636]","[199]","[210,300,300,210,210,30,210,120,30]","0","36","0","149.59999999997672","17.960000000020955","16","[[[""img/mask99.png""],[""img/mask48.png""],[""img/mask2.png""],[""img/mask87.png""],[""img/mask6.png""],[""img/mask68.png""],[""img/mask71.png""],[""img/mask33.png""],[""img/mask82.png""],[""img/mask72.png""],[""img/mask72.png""],[""img/mask79.png""],[""img/mask90.png""],[""img/mask60.png""],[""img/mask67.png""],[""img/mask43.png""],[""img/mask80.png""],[""img/mask76.png""],[""img/mask94.png""],[""img/mask26.png""],[""img/mask54.png""],[""img/mask6.png""],[""img/mask83.png""],[""img/mask8.png""],[""img/mask32.png""],[""img/mask46.png""],[""img/mask59.png""],[""img/mask85.png""],[""img/mask8.png""],[""img/mask75.png""],[""img/mask71.png""],[""img/mask14.png""],[""img/mask86.png""],[""img/mask15.png""],[""img/mask84.png""],[""img/mask54.png""]]]","","[19,4,25,7,13,3,32,33,22,6,9,21,24,27,18,14,34,28,30,11,35,0,12,2,1,10,26,5,31,17,20,8,15,16,29,23]","main","168","many-guess-6"
"","","","","","html-keyboard-response","82","488165","0.0-10.0-1.31","5e42f74f5b772a18434cabf7","640759fa512f630a2bdc333d","64077ce44ddf22f50a6ff9d7","null","","null","","","","","","","","","","","","","","","","","","","fixation","",""
"","","","","","many-guess-6","83","493476","0.0-10.0-0.32-0.32","5e42f74f5b772a18434cabf7","640759fa512f630a2bdc333d","64077ce44ddf22f50a6ff9d7","[3282]","","","[12,0,23,31,28,9,33,1,18,30,24,26,25,8,27,34,6,20,5,7,17,16,35,10,14,11,22,2,4,19,15,29,21,32,3,13]","[82,182,43,142,102,72,322,13,53,252,242,33,312,212,232,202,92,3,352,342,282,332,172,23,302,112,152,222,62,132,292,162,192,272,262,122]","82","292","240.6088209250724","[240.6088209250724]","[308.6088209250724]","[309]","[210,210,210,120,120,300,210,120,300]","0","36","0","149.8400000000256","17.179999999993015","16","[[[""img/mask70.png""],[""img/mask56.png""],[""img/mask73.png""],[""img/mask2.png""],[""img/mask41.png""],[""img/mask15.png""],[""img/mask52.png""],[""img/mask69.png""],[""img/mask66.png""],[""img/mask51.png""],[""img/mask13.png""],[""img/mask19.png""],[""img/mask26.png""],[""img/mask76.png""],[""img/mask70.png""],[""img/mask2.png""],[""img/mask57.png""],[""img/mask75.png""],[""img/mask39.png""],[""img/mask72.png""],[""img/mask49.png""],[""img/mask1.png""],[""img/mask44.png""],[""img/mask64.png""],[""img/mask75.png""],[""img/mask42.png""],[""img/mask52.png""],[""img/mask4.png""],[""img/mask55.png""],[""img/mask4.png""],[""img/mask55.png""],[""img/mask89.png""],[""img/mask73.png""],[""img/mask66.png""],[""img/mask4.png""],[""img/mask30.png""]]]","","[12,0,23,31,28,9,33,1,18,30,24,26,25,8,27,34,6,20,5,7,17,16,35,10,14,11,22,2,4,19,15,29,21,32,3,13]","main","292","many-guess-6"
"","","","","","html-keyboard-response","84","493991","0.0-10.0-1.32","5e42f74f5b772a18434cabf7","640759fa512f630a2bdc333d","64077ce44ddf22f50a6ff9d7","null","","null","","","","","","","","","","","","","","","","","","","fixation","",""
"","","","","","many-guess-6","85","500894","0.0-10.0-0.33-0.33","5e42f74f5b772a18434cabf7","640759fa512f630a2bdc333d","64077ce44ddf22f50a6ff9d7","[4851]","","","[18,21,35,8,0,15,26,10,7,9,4,28,13,1,20,11,23,5,14,3,25,34,17,27,30,29,32,12,16,33,24,2,22,6,19,31]","[340,240,270,60,160,21,140,290,210,300,100,90,70,330,11,1,180,200,40,50,350,170,80,120,310,250,230,190,320,150,110,130,280,260,220,30]","340","32","245.4847159871963","[245.4847159871963]","[213.4847159871963]","[214]","[120,30,300,300,120,120,300,30,300]","0","36","0","148.88000000000466","23.20000000001164","16","[[[""img/mask72.png""],[""img/mask6.png""],[""img/mask20.png""],[""img/mask88.png""],[""img/mask28.png""],[""img/mask19.png""],[""img/mask28.png""],[""img/mask61.png""],[""img/mask59.png""],[""img/mask84.png""],[""img/mask61.png""],[""img/mask8.png""],[""img/mask86.png""],[""img/mask7.png""],[""img/mask88.png""],[""img/mask50.png""],[""img/mask99.png""],[""img/mask79.png""],[""img/mask68.png""],[""img/mask33.png""],[""img/mask86.png""],[""img/mask71.png""],[""img/mask13.png""],[""img/mask77.png""],[""img/mask13.png""],[""img/mask1.png""],[""img/mask65.png""],[""img/mask48.png""],[""img/mask53.png""],[""img/mask47.png""],[""img/mask42.png""],[""img/mask26.png""],[""img/mask10.png""],[""img/mask66.png""],[""img/mask13.png""],[""img/mask13.png""]]]","","[18,21,35,8,0,15,26,10,7,9,4,28,13,1,20,11,23,5,14,3,25,34,17,27,30,29,32,12,16,33,24,2,22,6,19,31]","main","32","many-guess-6"
"","","","","","html-keyboard-response","86","501399","0.0-10.0-1.33","5e42f74f5b772a18434cabf7","640759fa512f630a2bdc333d","64077ce44ddf22f50a6ff9d7","null","","null","","","","","","","","","","","","","","","","","","","fixation","",""
"","","","","","many-guess-6","87","505170","0.0-10.0-0.34-0.34","5e42f74f5b772a18434cabf7","640759fa512f630a2bdc333d","64077ce44ddf22f50a6ff9d7","[2061]","","","[1,9,3,18,29,6,27,21,7,2,15,30,4,17,26,12,20,24,19,34,31,28,32,23,11,14,10,5,22,8,25,33,35,13,16,0]","[115,105,5,55,165,155,255,354,215,334,175,294,274,324,25,85,245,45,15,205,135,314,284,235,75,65,95,264,185,35,225,125,145,195,304,344]","115","221","163.192499398601","[163.192499398601]","[302.192499398601]","[302]","[300,120,210,120,120,210,300,30,210]","0","36","0","149.79999999998836","27.14000000001397","16","[[[""img/mask40.png""],[""img/mask88.png""],[""img/mask17.png""],[""img/mask22.png""],[""img/mask65.png""],[""img/mask40.png""],[""img/mask59.png""],[""img/mask83.png""],[""img/mask37.png""],[""img/mask60.png""],[""img/mask67.png""],[""img/mask63.png""],[""img/mask64.png""],[""img/mask10.png""],[""img/mask10.png""],[""img/mask9.png""],[""img/mask44.png""],[""img/mask32.png""],[""img/mask99.png""],[""img/mask81.png""],[""img/mask77.png""],[""img/mask42.png""],[""img/mask92.png""],[""img/mask8.png""],[""img/mask68.png""],[""img/mask99.png""],[""img/mask24.png""],[""img/mask20.png""],[""img/mask69.png""],[""img/mask30.png""],[""img/mask50.png""],[""img/mask97.png""],[""img/mask51.png""],[""img/mask93.png""],[""img/mask33.png""],[""img/mask10.png""]]]","","[1,9,3,18,29,6,27,21,7,2,15,30,4,17,26,12,20,24,19,34,31,28,32,23,11,14,10,5,22,8,25,33,35,13,16,0]","main","221","many-guess-6"
"","","","","","html-keyboard-response","88","505681","0.0-10.0-1.34","5e42f74f5b772a18434cabf7","640759fa512f630a2bdc333d","64077ce44ddf22f50a6ff9d7","null","","null","","","","","","","","","","","","","","","","","","","fixation","",""
"","","","","","color-precision2","89","511478","0.0-10.0-0.35-0.35","5e42f74f5b772a18434cabf7","640759fa512f630a2bdc333d","64077ce44ddf22f50a6ff9d7","[2867]","","","[33]","[235]","235","51","276.0649190552332","[276.0649190552332]","[225.0649190552332]","[225]","0","0","1","0","148.94000000000233","997.2600000000093","1000","[[[""img/mask94.png""]]]","","","main","51","color-precision2"
"","","","","","html-keyboard-response","90","511983","0.0-10.0-1.35","5e42f74f5b772a18434cabf7","640759fa512f630a2bdc333d","64077ce44ddf22f50a6ff9d7","null","","null","","","","","","","","","","","","","","","","","","","fixation","",""
"","","","","","many-guess-6","91","518771","0.0-10.0-0.36-0.36","5e42f74f5b772a18434cabf7","640759fa512f630a2bdc333d","64077ce44ddf22f50a6ff9d7","[4760]","","","[31,3,17,15,22,18,34,33,13,12,16,9,30,1,29,20,24,32,2,8,4,23,27,28,7,14,35,10,19,26,6,5,21,11,25,0]","[32,2,341,141,42,241,111,271,121,221,101,231,131,22,301,291,62,211,171,321,161,201,191,281,351,181,12,72,251,331,91,261,151,82,52,311]","32","275","329.58201713557327","[329.58201713557327]","[54.58201713557327]","[55]","[120,300,210,30,210,210,120,120,120]","0","36","0","149.14000000001397","16.520000000018626","16","[[[""img/mask65.png""],[""img/mask61.png""],[""img/mask47.png""],[""img/mask4.png""],[""img/mask36.png""],[""img/mask34.png""],[""img/mask12.png""],[""img/mask62.png""],[""img/mask63.png""],[""img/mask34.png""],[""img/mask45.png""],[""img/mask84.png""],[""img/mask28.png""],[""img/mask5.png""],[""img/mask8.png""],[""img/mask4.png""],[""img/mask13.png""],[""img/mask50.png""],[""img/mask91.png""],[""img/mask29.png""],[""img/mask47.png""],[""img/mask52.png""],[""img/mask84.png""],[""img/mask30.png""],[""img/mask46.png""],[""img/mask89.png""],[""img/mask21.png""],[""img/mask67.png""],[""img/mask38.png""],[""img/mask56.png""],[""img/mask96.png""],[""img/mask43.png""],[""img/mask67.png""],[""img/mask32.png""],[""img/mask42.png""],[""img/mask40.png""]]]","","[31,3,17,15,22,18,34,33,13,12,16,9,30,1,29,20,24,32,2,8,4,23,27,28,7,14,35,10,19,26,6,5,21,11,25,0]","main","275","many-guess-6"
"","","","","","html-keyboard-response","92","519280","0.0-10.0-1.36","5e42f74f5b772a18434cabf7","640759fa512f630a2bdc333d","64077ce44ddf22f50a6ff9d7","null","","null","","","","","","","","","","","","","","","","","","","fixation","",""
"","","","","","color-precision2","93","525188","0.0-10.0-0.37-0.37","5e42f74f5b772a18434cabf7","640759fa512f630a2bdc333d","64077ce44ddf22f50a6ff9d7","[1626]","","","[26]","[271]","271","211","138.86002029789182","[138.86002029789182]","[287.8600202978918]","[286]","0","0","1","0","147.40000000002328","1001.7199999999721","1000","[[[""img/mask96.png""]]]","","","main","211","color-precision2"
"","","","","","html-keyboard-response","94","525702","0.0-10.0-1.37","5e42f74f5b772a18434cabf7","640759fa512f630a2bdc333d","64077ce44ddf22f50a6ff9d7","null","","null","","","","","","","","","","","","","","","","","","","fixation","",""
"","","","","","color-precision2","95","535707","0.0-10.0-0.38-0.38","5e42f74f5b772a18434cabf7","640759fa512f630a2bdc333d","64077ce44ddf22f50a6ff9d7","[1429]","","","[20]","[219]","219","206","58.6289171486025","[58.6289171486025]","[212.6289171486025]","[211]","0","0","1","0","149.38000000000466","1002.7199999999721","1000","[[[""img/mask39.png""]]]","","","main","206","color-precision2"
"","","","","","html-keyboard-response","96","536217","0.0-10.0-1.38","5e42f74f5b772a18434cabf7","640759fa512f630a2bdc333d","64077ce44ddf22f50a6ff9d7","null","","null","","","","","","","","","","","","","","","","","","","fixation","",""
"","","","","","color-precision2","97","540492","0.0-10.0-0.39-0.39","5e42f74f5b772a18434cabf7","640759fa512f630a2bdc333d","64077ce44ddf22f50a6ff9d7","[1296]","","","[1]","[128]","128","50","180.97184531360432","[180.97184531360432]","[130.97184531360432]","[130]","0","0","1","0","148.1600000000326","997.5","1000","[[[""img/mask61.png""]]]","","","main","50","color-precision2"
"","","","","","html-keyboard-response","98","552560","0.0-10.0-1.39","5e42f74f5b772a18434cabf7","640759fa512f630a2bdc333d","64077ce44ddf22f50a6ff9d7","12068","Wow! You've completed 40 out of 180 trials! </p> <p>  </p><p> Take a quick break, then press any key when you're ready to continue."," ","","","","","","","","","","","","","","","","","","","fixation","",""
"","","","","","color-precision2","99","556852","0.0-10.0-0.40-0.40","5e42f74f5b772a18434cabf7","640759fa512f630a2bdc333d","64077ce44ddf22f50a6ff9d7","[1006]","","","[15]","[277]","277","253","169.83328519219745","[169.83328519219745]","[276.8332851921974]","[277]","0","0","1","0","148.68000000005122","1004","1000","[[[""img/mask35.png""]]]","","","main","253","color-precision2"
"","","","","","html-keyboard-response","100","557357","0.0-10.0-1.40","5e42f74f5b772a18434cabf7","640759fa512f630a2bdc333d","64077ce44ddf22f50a6ff9d7","null","","null","","","","","","","","","","","","","","","","","","","fixation","",""
"","","","","","many-guess-6","101","561549","0.0-10.0-0.41-0.41","5e42f74f5b772a18434cabf7","640759fa512f630a2bdc333d","64077ce44ddf22f50a6ff9d7","[2253]","","","[3,10,22,26,14,15,9,7,1,6,33,25,28,18,4,32,5,30,23,34,27,12,20,29,13,21,19,31,8,17,16,35,11,24,2,0]","[71,1,311,111,61,21,151,271,261,291,181,91,231,221,350,251,201,281,301,81,211,101,51,11,31,121,191,321,331,241,141,131,341,161,41,171]","71","153","356.6955151336074","[356.6955151336074]","[203.6955151336074]","[203]","[30,210,30,300,210,210,30,30,300]","0","36","0","149.7399999999907","17.099999999976717","16","[[[""img/mask74.png""],[""img/mask73.png""],[""img/mask48.png""],[""img/mask100.png""],[""img/mask43.png""],[""img/mask41.png""],[""img/mask45.png""],[""img/mask34.png""],[""img/mask68.png""],[""img/mask88.png""],[""img/mask95.png""],[""img/mask21.png""],[""img/mask100.png""],[""img/mask97.png""],[""img/mask10.png""],[""img/mask20.png""],[""img/mask81.png""],[""img/mask90.png""],[""img/mask61.png""],[""img/mask27.png""],[""img/mask36.png""],[""img/mask78.png""],[""img/mask87.png""],[""img/mask8.png""],[""img/mask90.png""],[""img/mask100.png""],[""img/mask24.png""],[""img/mask22.png""],[""img/mask47.png""],[""img/mask76.png""],[""img/mask73.png""],[""img/mask23.png""],[""img/mask78.png""],[""img/mask23.png""],[""img/mask94.png""],[""img/mask98.png""]]]","","[3,10,22,26,14,15,9,7,1,6,33,25,28,18,4,32,5,30,23,34,27,12,20,29,13,21,19,31,8,17,16,35,11,24,2,0]","main","153","many-guess-6"
"","","","","","html-keyboard-response","102","562062","0.0-10.0-1.41","5e42f74f5b772a18434cabf7","640759fa512f630a2bdc333d","64077ce44ddf22f50a6ff9d7","null","","null","","","","","","","","","","","","","","","","","","","fixation","",""
"","","","","","color-precision2","103","567395","0.0-10.0-0.42-0.42","5e42f74f5b772a18434cabf7","640759fa512f630a2bdc333d","64077ce44ddf22f50a6ff9d7","[2463]","","","[20]","[8]","8","126","120.44473610864092","[120.44473610864092]","[354.44473610864094]","[353]","0","0","1","0","147.2399999999907","996.5799999999581","1000","[[[""img/mask95.png""]]]","","","main","126","color-precision2"
"","","","","","html-keyboard-response","104","567906","0.0-10.0-1.42","5e42f74f5b772a18434cabf7","640759fa512f630a2bdc333d","64077ce44ddf22f50a6ff9d7","null","","null","","","","","","","","","","","","","","","","","","","fixation","",""
"","","","","","color-precision2","105","571340","0.0-10.0-0.43-0.43","5e42f74f5b772a18434cabf7","640759fa512f630a2bdc333d","64077ce44ddf22f50a6ff9d7","[693]","","","[18]","[70]","70","340","54.42198458325911","[54.42198458325911]","[74.42198458325913]","[73]","0","0","1","0","148.06000000005588","1007.4000000000233","1000","[[[""img/mask23.png""]]]","","","main","340","color-precision2"
"","","","","","html-keyboard-response","106","571842","0.0-10.0-1.43","5e42f74f5b772a18434cabf7","640759fa512f630a2bdc333d","64077ce44ddf22f50a6ff9d7","null","","null","","","","","","","","","","","","","","","","","","","fixation","",""
"","","","","","many-guess-6","107","579164","0.0-10.0-0.44-0.44","5e42f74f5b772a18434cabf7","640759fa512f630a2bdc333d","64077ce44ddf22f50a6ff9d7","[4918]","","","[21,34,6,2,33,32,30,29,26,31,10,1,20,9,18,19,22,5,25,35,15,23,16,12,0,28,17,13,7,11,24,4,8,3,14,27]","[188,68,218,198,108,158,287,8,128,347,78,247,58,28,48,257,297,327,178,138,38,88,98,238,18,208,357,267,148,277,228,317,307,168,118,337]","188","57","307.7644232770365","[307.7644232770365]","[250.76442327703649]","[251]","[120,210,120,30,120,120,210,120,120]","0","36","0","149.21999999997206","16.56000000005588","16","[[[""img/mask99.png""],[""img/mask70.png""],[""img/mask49.png""],[""img/mask76.png""],[""img/mask53.png""],[""img/mask79.png""],[""img/mask30.png""],[""img/mask71.png""],[""img/mask91.png""],[""img/mask65.png""],[""img/mask19.png""],[""img/mask33.png""],[""img/mask71.png""],[""img/mask59.png""],[""img/mask49.png""],[""img/mask41.png""],[""img/mask84.png""],[""img/mask31.png""],[""img/mask55.png""],[""img/mask4.png""],[""img/mask9.png""],[""img/mask2.png""],[""img/mask79.png""],[""img/mask2.png""],[""img/mask1.png""],[""img/mask69.png""],[""img/mask68.png""],[""img/mask65.png""],[""img/mask77.png""],[""img/mask36.png""],[""img/mask95.png""],[""img/mask62.png""],[""img/mask68.png""],[""img/mask1.png""],[""img/mask37.png""],[""img/mask2.png""]]]","","[21,34,6,2,33,32,30,29,26,31,10,1,20,9,18,19,22,5,25,35,15,23,16,12,0,28,17,13,7,11,24,4,8,3,14,27]","main","57","many-guess-6"
"","","","","","html-keyboard-response","108","579667","0.0-10.0-1.44","5e42f74f5b772a18434cabf7","640759fa512f630a2bdc333d","64077ce44ddf22f50a6ff9d7","null","","null","","","","","","","","","","","","","","","","","","","fixation","",""
"","","","","","many-guess-6","109","583628","0.0-10.0-0.45-0.45","5e42f74f5b772a18434cabf7","640759fa512f630a2bdc333d","64077ce44ddf22f50a6ff9d7","[1515]","","","[24,8,10,12,11,5,17,1,20,32,25,22,26,28,23,9,13,0,6,30,33,29,3,19,14,35,16,27,15,7,4,34,31,21,18,2]","[164,114,54,154,253,14,263,293,94,323,24,233,144,84,174,343,203,353,74,313,104,303,213,283,243,4,124,273,184,64,333,134,193,223,34,44]","164","259","220.36427260811212","[220.36427260811212]","[321.3642726081121]","[321]","[300,210,210,120,120,300,300,120,210]","0","36","0","150.11999999999534","13.479999999981374","16","[[[""img/mask43.png""],[""img/mask100.png""],[""img/mask68.png""],[""img/mask63.png""],[""img/mask33.png""],[""img/mask70.png""],[""img/mask45.png""],[""img/mask41.png""],[""img/mask44.png""],[""img/mask88.png""],[""img/mask96.png""],[""img/mask70.png""],[""img/mask60.png""],[""img/mask44.png""],[""img/mask92.png""],[""img/mask12.png""],[""img/mask48.png""],[""img/mask51.png""],[""img/mask36.png""],[""img/mask73.png""],[""img/mask64.png""],[""img/mask16.png""],[""img/mask70.png""],[""img/mask3.png""],[""img/mask14.png""],[""img/mask32.png""],[""img/mask98.png""],[""img/mask92.png""],[""img/mask84.png""],[""img/mask31.png""],[""img/mask60.png""],[""img/mask54.png""],[""img/mask78.png""],[""img/mask25.png""],[""img/mask2.png""],[""img/mask52.png""]]]","","[24,8,10,12,11,5,17,1,20,32,25,22,26,28,23,9,13,0,6,30,33,29,3,19,14,35,16,27,15,7,4,34,31,21,18,2]","main","259","many-guess-6"
"","","","","","html-keyboard-response","110","584130","0.0-10.0-1.45","5e42f74f5b772a18434cabf7","640759fa512f630a2bdc333d","64077ce44ddf22f50a6ff9d7","null","","null","","","","","","","","","","","","","","","","","","","fixation","",""
"","","","","","many-guess-6","111","588404","0.0-10.0-0.46-0.46","5e42f74f5b772a18434cabf7","640759fa512f630a2bdc333d","64077ce44ddf22f50a6ff9d7","[1940]","","","[24,33,2,14,4,1,32,25,34,7,27,9,28,18,31,3,19,10,22,30,13,8,21,26,16,17,35,0,11,5,29,12,20,15,23,6]","[107,196,67,146,156,356,256,186,176,336,117,296,226,306,27,57,166,126,286,276,326,346,136,7,266,246,206,316,37,97,87,216,236,77,47,17]","107","15","295.4045129644503","[295.4045129644503]","[280.4045129644503]","[280]","[300,300,120,30,120,300,210,30,210]","0","36","0","149.11999999999534","14.43999999994412","16","[[[""img/mask72.png""],[""img/mask14.png""],[""img/mask32.png""],[""img/mask3.png""],[""img/mask59.png""],[""img/mask96.png""],[""img/mask4.png""],[""img/mask47.png""],[""img/mask44.png""],[""img/mask82.png""],[""img/mask52.png""],[""img/mask39.png""],[""img/mask21.png""],[""img/mask47.png""],[""img/mask49.png""],[""img/mask47.png""],[""img/mask82.png""],[""img/mask50.png""],[""img/mask56.png""],[""img/mask31.png""],[""img/mask13.png""],[""img/mask66.png""],[""img/mask72.png""],[""img/mask44.png""],[""img/mask80.png""],[""img/mask89.png""],[""img/mask33.png""],[""img/mask71.png""],[""img/mask15.png""],[""img/mask52.png""],[""img/mask29.png""],[""img/mask22.png""],[""img/mask8.png""],[""img/mask44.png""],[""img/mask87.png""],[""img/mask19.png""]]]","","[24,33,2,14,4,1,32,25,34,7,27,9,28,18,31,3,19,10,22,30,13,8,21,26,16,17,35,0,11,5,29,12,20,15,23,6]","main","15","many-guess-6"
"","","","","","html-keyboard-response","112","588908","0.0-10.0-1.46","5e42f74f5b772a18434cabf7","640759fa512f630a2bdc333d","64077ce44ddf22f50a6ff9d7","null","","null","","","","","","","","","","","","","","","","","","","fixation","",""
"","","","","","many-guess-6","113","594266","0.0-10.0-0.47-0.47","5e42f74f5b772a18434cabf7","640759fa512f630a2bdc333d","64077ce44ddf22f50a6ff9d7","[2919]","","","[8,15,29,0,24,12,1,20,31,16,19,3,35,27,28,21,14,2,22,7,26,5,17,23,9,30,6,4,34,33,18,25,10,13,32,11]","[357,238,218,68,178,118,168,88,188,307,347,138,287,8,48,148,108,128,337,198,98,258,327,78,228,38,248,28,18,317,278,158,58,208,297,268]","357","208","5.876451108967083","[5.876451108967083]","[157.87645110896707]","[157]","[210,210,300,300,30,30,300,30,120]","0","36","0","148.59999999997672","11.07999999995809","16","[[[""img/mask76.png""],[""img/mask18.png""],[""img/mask52.png""],[""img/mask55.png""],[""img/mask92.png""],[""img/mask87.png""],[""img/mask12.png""],[""img/mask61.png""],[""img/mask93.png""],[""img/mask14.png""],[""img/mask37.png""],[""img/mask73.png""],[""img/mask20.png""],[""img/mask79.png""],[""img/mask11.png""],[""img/mask26.png""],[""img/mask41.png""],[""img/mask21.png""],[""img/mask55.png""],[""img/mask52.png""],[""img/mask52.png""],[""img/mask31.png""],[""img/mask74.png""],[""img/mask80.png""],[""img/mask30.png""],[""img/mask69.png""],[""img/mask30.png""],[""img/mask64.png""],[""img/mask33.png""],[""img/mask20.png""],[""img/mask77.png""],[""img/mask46.png""],[""img/mask13.png""],[""img/mask23.png""],[""img/mask100.png""],[""img/mask20.png""]]]","","[8,15,29,0,24,12,1,20,31,16,19,3,35,27,28,21,14,2,22,7,26,5,17,23,9,30,6,4,34,33,18,25,10,13,32,11]","main","208","many-guess-6"
"","","","","","html-keyboard-response","114","594769","0.0-10.0-1.47","5e42f74f5b772a18434cabf7","640759fa512f630a2bdc333d","64077ce44ddf22f50a6ff9d7","null","","null","","","","","","","","","","","","","","","","","","","fixation","",""
"","","","","","many-guess-6","115","598480","0.0-10.0-0.48-0.48","5e42f74f5b772a18434cabf7","640759fa512f630a2bdc333d","64077ce44ddf22f50a6ff9d7","[1683]","","","[30,5,28,16,12,19,29,23,0,14,3,11,17,7,1,20,25,31,2,27,35,22,26,33,6,18,21,15,24,8,4,13,34,10,32,9]","[148,18,38,138,158,78,118,228,178,198,98,58,68,258,358,238,48,88,308,108,298,28,288,9,348,268,328,278,188,218,338,248,128,318,168,208]","148","356","185.46487192566596","[185.46487192566596]","[189.46487192566596]","[189]","[300,120,300,300,120,300,120,210,120]","0","36","0","148.88000000000466","13.199999999953434","16","[[[""img/mask47.png""],[""img/mask2.png""],[""img/mask1.png""],[""img/mask33.png""],[""img/mask78.png""],[""img/mask13.png""],[""img/mask70.png""],[""img/mask30.png""],[""img/mask37.png""],[""img/mask92.png""],[""img/mask6.png""],[""img/mask61.png""],[""img/mask61.png""],[""img/mask8.png""],[""img/mask79.png""],[""img/mask10.png""],[""img/mask63.png""],[""img/mask64.png""],[""img/mask19.png""],[""img/mask51.png""],[""img/mask49.png""],[""img/mask15.png""],[""img/mask70.png""],[""img/mask85.png""],[""img/mask77.png""],[""img/mask66.png""],[""img/mask79.png""],[""img/mask62.png""],[""img/mask51.png""],[""img/mask91.png""],[""img/mask14.png""],[""img/mask95.png""],[""img/mask23.png""],[""img/mask11.png""],[""img/mask96.png""],[""img/mask66.png""]]]","","[30,5,28,16,12,19,29,23,0,14,3,11,17,7,1,20,25,31,2,27,35,22,26,33,6,18,21,15,24,8,4,13,34,10,32,9]","main","356","many-guess-6"
"","","","","","html-keyboard-response","116","598982","0.0-10.0-1.48","5e42f74f5b772a18434cabf7","640759fa512f630a2bdc333d","64077ce44ddf22f50a6ff9d7","null","","null","","","","","","","","","","","","","","","","","","","fixation","",""
"","","","","","many-guess-6","117","604584","0.0-10.0-0.49-0.49","5e42f74f5b772a18434cabf7","640759fa512f630a2bdc333d","64077ce44ddf22f50a6ff9d7","[3421]","","","[30,28,34,29,11,9,4,15,8,7,23,33,1,2,16,22,31,0,13,24,6,35,19,17,21,25,5,32,10,27,26,20,12,18,14,3]","[55,185,325,45,175,105,235,335,65,285,205,195,75,36,155,295,215,305,245,265,95,145,6,165,315,345,255,125,85,135,16,26,225,275,355,115]","55","229","173.97166757724497","[173.97166757724497]","[304.97166757724494]","[304]","[30,210,210,300,30,300,210,300,210]","0","36","0","149.64000000001397","27.020000000018626","16","[[[""img/mask98.png""],[""img/mask29.png""],[""img/mask73.png""],[""img/mask50.png""],[""img/mask80.png""],[""img/mask29.png""],[""img/mask45.png""],[""img/mask50.png""],[""img/mask75.png""],[""img/mask84.png""],[""img/mask67.png""],[""img/mask87.png""],[""img/mask48.png""],[""img/mask5.png""],[""img/mask88.png""],[""img/mask83.png""],[""img/mask26.png""],[""img/mask60.png""],[""img/mask27.png""],[""img/mask100.png""],[""img/mask63.png""],[""img/mask26.png""],[""img/mask67.png""],[""img/mask75.png""],[""img/mask44.png""],[""img/mask2.png""],[""img/mask17.png""],[""img/mask60.png""],[""img/mask53.png""],[""img/mask98.png""],[""img/mask32.png""],[""img/mask95.png""],[""img/mask40.png""],[""img/mask78.png""],[""img/mask2.png""],[""img/mask65.png""]]]","","[30,28,34,29,11,9,4,15,8,7,23,33,1,2,16,22,31,0,13,24,6,35,19,17,21,25,5,32,10,27,26,20,12,18,14,3]","main","229","many-guess-6"
"","","","","","html-keyboard-response","118","605095","0.0-10.0-1.49","5e42f74f5b772a18434cabf7","640759fa512f630a2bdc333d","64077ce44ddf22f50a6ff9d7","null","","null","","","","","","","","","","","","","","","","","","","fixation","",""
"","","","","","many-guess-6","119","609204","0.0-10.0-0.50-0.50","5e42f74f5b772a18434cabf7","640759fa512f630a2bdc333d","64077ce44ddf22f50a6ff9d7","[1756]","","","[35,3,22,14,6,29,15,16,19,21,25,23,4,11,13,17,24,34,33,26,18,9,8,32,27,12,5,0,28,20,31,7,10,2,1,30]","[346,47,37,176,266,77,166,96,356,296,306,236,67,27,116,86,126,136,336,226,276,286,326,316,206,17,156,57,186,216,146,256,246,7,196,106]","346","24","125.49814118442762","[125.49814118442762]","[101.49814118442762]","[100]","[210,210,30,120,300,120,300,300,120]","0","36","0","148.1600000000326","13.5","16","[[[""img/mask66.png""],[""img/mask17.png""],[""img/mask50.png""],[""img/mask87.png""],[""img/mask98.png""],[""img/mask18.png""],[""img/mask2.png""],[""img/mask28.png""],[""img/mask13.png""],[""img/mask88.png""],[""img/mask39.png""],[""img/mask90.png""],[""img/mask57.png""],[""img/mask5.png""],[""img/mask57.png""],[""img/mask60.png""],[""img/mask78.png""],[""img/mask55.png""],[""img/mask72.png""],[""img/mask90.png""],[""img/mask30.png""],[""img/mask62.png""],[""img/mask71.png""],[""img/mask60.png""],[""img/mask39.png""],[""img/mask41.png""],[""img/mask72.png""],[""img/mask99.png""],[""img/mask71.png""],[""img/mask91.png""],[""img/mask84.png""],[""img/mask69.png""],[""img/mask69.png""],[""img/mask12.png""],[""img/mask23.png""],[""img/mask16.png""]]]","","[35,3,22,14,6,29,15,16,19,21,25,23,4,11,13,17,24,34,33,26,18,9,8,32,27,12,5,0,28,20,31,7,10,2,1,30]","main","24","many-guess-6"
"","","","","","html-keyboard-response","120","609719","0.0-10.0-1.50","5e42f74f5b772a18434cabf7","640759fa512f630a2bdc333d","64077ce44ddf22f50a6ff9d7","null","","null","","","","","","","","","","","","","","","","","","","fixation","",""
"","","","","","color-precision2","121","614723","0.0-10.0-0.51-0.51","5e42f74f5b772a18434cabf7","640759fa512f630a2bdc333d","64077ce44ddf22f50a6ff9d7","[1976]","","","[13]","[179]","179","128","317.5673908717867","[317.5673908717867]","[189.5673908717867]","[189]","0","0","1","0","149.30000000004657","1000.6199999999953","1000","[[[""img/mask19.png""]]]","","","main","128","color-precision2"
"","","","","","html-keyboard-response","122","615234","0.0-10.0-1.51","5e42f74f5b772a18434cabf7","640759fa512f630a2bdc333d","64077ce44ddf22f50a6ff9d7","null","","null","","","","","","","","","","","","","","","","","","","fixation","",""
"","","","","","color-precision2","123","620124","0.0-10.0-0.52-0.52","5e42f74f5b772a18434cabf7","640759fa512f630a2bdc333d","64077ce44ddf22f50a6ff9d7","[1743]","","","[13]","[352]","352","316","309.4465442401242","[309.4465442401242]","[353.4465442401242]","[353]","0","0","1","0","148.7600000000093","993.0999999999767","1000","[[[""img/mask58.png""]]]","","","main","316","color-precision2"
"","","","","","html-keyboard-response","124","620639","0.0-10.0-1.52","5e42f74f5b772a18434cabf7","640759fa512f630a2bdc333d","64077ce44ddf22f50a6ff9d7","null","","null","","","","","","","","","","","","","","","","","","","fixation","",""
"","","","","","many-guess-6","125","625353","0.0-10.0-0.53-0.53","5e42f74f5b772a18434cabf7","640759fa512f630a2bdc333d","64077ce44ddf22f50a6ff9d7","[2706]","","","[20,21,12,1,6,22,4,27,9,26,19,14,15,33,5,8,18,16,32,10,24,23,31,34,2,13,3,29,11,35,30,0,7,17,25,28]","[345,255,16,265,166,215,225,285,235,6,66,335,76,305,126,295,146,116,106,56,315,245,46,275,325,36,156,206,186,355,86,196,26,136,96,176]","345","12","300.20769300637915","[300.20769300637915]","[288.20769300637915]","[288]","[210,120,210,210,30,300,30,210,210]","0","36","0","148.64000000001397","25.979999999981374","16","[[[""img/mask90.png""],[""img/mask68.png""],[""img/mask38.png""],[""img/mask6.png""],[""img/mask11.png""],[""img/mask100.png""],[""img/mask81.png""],[""img/mask98.png""],[""img/mask68.png""],[""img/mask78.png""],[""img/mask10.png""],[""img/mask36.png""],[""img/mask29.png""],[""img/mask75.png""],[""img/mask5.png""],[""img/mask44.png""],[""img/mask5.png""],[""img/mask81.png""],[""img/mask49.png""],[""img/mask49.png""],[""img/mask62.png""],[""img/mask3.png""],[""img/mask71.png""],[""img/mask98.png""],[""img/mask29.png""],[""img/mask80.png""],[""img/mask58.png""],[""img/mask94.png""],[""img/mask88.png""],[""img/mask48.png""],[""img/mask89.png""],[""img/mask86.png""],[""img/mask83.png""],[""img/mask46.png""],[""img/mask33.png""],[""img/mask81.png""]]]","","[20,21,12,1,6,22,4,27,9,26,19,14,15,33,5,8,18,16,32,10,24,23,31,34,2,13,3,29,11,35,30,0,7,17,25,28]","main","12","many-guess-6"
"","","","","","html-keyboard-response","126","625860","0.0-10.0-1.53","5e42f74f5b772a18434cabf7","640759fa512f630a2bdc333d","64077ce44ddf22f50a6ff9d7","null","","null","","","","","","","","","","","","","","","","","","","fixation","",""
"","","","","","many-guess-6","127","629324","0.0-10.0-0.54-0.54","5e42f74f5b772a18434cabf7","640759fa512f630a2bdc333d","64077ce44ddf22f50a6ff9d7","[1410]","","","[17,19,33,11,23,13,34,14,21,24,8,30,28,1,12,3,32,29,22,35,9,31,7,5,6,26,15,25,16,2,18,27,10,20,0,4]","[212,3,242,13,103,113,342,133,252,232,282,93,192,23,312,292,302,33,222,262,63,43,53,73,163,202,272,143,352,123,183,322,153,83,332,173]","212","328","172.8520263036873","[172.8520263036873]","[204.8520263036873]","[204]","[210,120,210,30,120,300,30,30,300]","0","36","0","149.43999999994412","10.800000000046566","16","[[[""img/mask23.png""],[""img/mask28.png""],[""img/mask52.png""],[""img/mask90.png""],[""img/mask64.png""],[""img/mask87.png""],[""img/mask4.png""],[""img/mask23.png""],[""img/mask8.png""],[""img/mask61.png""],[""img/mask48.png""],[""img/mask86.png""],[""img/mask91.png""],[""img/mask88.png""],[""img/mask79.png""],[""img/mask49.png""],[""img/mask80.png""],[""img/mask4.png""],[""img/mask96.png""],[""img/mask14.png""],[""img/mask47.png""],[""img/mask79.png""],[""img/mask45.png""],[""img/mask82.png""],[""img/mask6.png""],[""img/mask47.png""],[""img/mask94.png""],[""img/mask60.png""],[""img/mask3.png""],[""img/mask12.png""],[""img/mask43.png""],[""img/mask20.png""],[""img/mask59.png""],[""img/mask26.png""],[""img/mask5.png""],[""img/mask19.png""]]]","","[17,19,33,11,23,13,34,14,21,24,8,30,28,1,12,3,32,29,22,35,9,31,7,5,6,26,15,25,16,2,18,27,10,20,0,4]","main","328","many-guess-6"
"","","","","","html-keyboard-response","128","629829","0.0-10.0-1.54","5e42f74f5b772a18434cabf7","640759fa512f630a2bdc333d","64077ce44ddf22f50a6ff9d7","null","","null","","","","","","","","","","","","","","","","","","","fixation","",""
"","","","","","color-precision2","129","637484","0.0-10.0-0.55-0.55","5e42f74f5b772a18434cabf7","640759fa512f630a2bdc333d","64077ce44ddf22f50a6ff9d7","[4619]","","","[4]","[16]","16","146","167.84732657543668","[167.84732657543668]","[21.847326575436682]","[21]","0","0","1","0","148.54000000003725","1006.8800000000047","1000","[[[""img/mask23.png""]]]","","","main","146","color-precision2"
"","","","","","html-keyboard-response","130","637999","0.0-10.0-1.55","5e42f74f5b772a18434cabf7","640759fa512f630a2bdc333d","64077ce44ddf22f50a6ff9d7","null","","null","","","","","","","","","","","","","","","","","","","fixation","",""
"","","","","","many-guess-6","131","642682","0.0-10.0-0.56-0.56","5e42f74f5b772a18434cabf7","640759fa512f630a2bdc333d","64077ce44ddf22f50a6ff9d7","[2568]","","","[12,5,1,15,16,27,30,7,18,14,0,22,10,28,24,6,3,35,19,25,33,17,9,8,32,34,23,31,4,21,11,13,20,26,2,29]","[86,66,266,336,136,296,316,356,106,196,116,146,46,17,246,256,56,306,326,216,186,76,156,286,206,176,37,226,236,7,27,346,96,126,276,166]","86","300","291.11395276667326","[291.11395276667326]","[351.11395276667326]","[351]","[300,300,300,300,120,210,30,210,210]","0","36","0","149.71999999997206","22.040000000037253","16","[[[""img/mask45.png""],[""img/mask19.png""],[""img/mask66.png""],[""img/mask28.png""],[""img/mask95.png""],[""img/mask43.png""],[""img/mask31.png""],[""img/mask41.png""],[""img/mask44.png""],[""img/mask43.png""],[""img/mask13.png""],[""img/mask37.png""],[""img/mask42.png""],[""img/mask39.png""],[""img/mask50.png""],[""img/mask31.png""],[""img/mask65.png""],[""img/mask84.png""],[""img/mask29.png""],[""img/mask29.png""],[""img/mask89.png""],[""img/mask29.png""],[""img/mask98.png""],[""img/mask71.png""],[""img/mask95.png""],[""img/mask64.png""],[""img/mask36.png""],[""img/mask64.png""],[""img/mask44.png""],[""img/mask85.png""],[""img/mask70.png""],[""img/mask73.png""],[""img/mask6.png""],[""img/mask3.png""],[""img/mask65.png""],[""img/mask27.png""]]]","","[12,5,1,15,16,27,30,7,18,14,0,22,10,28,24,6,3,35,19,25,33,17,9,8,32,34,23,31,4,21,11,13,20,26,2,29]","main","300","many-guess-6"
"","","","","","html-keyboard-response","132","643187","0.0-10.0-1.56","5e42f74f5b772a18434cabf7","640759fa512f630a2bdc333d","64077ce44ddf22f50a6ff9d7","null","","null","","","","","","","","","","","","","","","","","","","fixation","",""
"","","","","","color-precision2","133","646584","0.0-10.0-0.57-0.57","5e42f74f5b772a18434cabf7","640759fa512f630a2bdc333d","64077ce44ddf22f50a6ff9d7","[336]","","","[15]","[332]","332","130","","[null]","[null]","[357]","0","0","1","0","149.1600000000326","999.5","1000","[[[""img/mask72.png""]]]","","","main","130","color-precision2"
"","","","","","html-keyboard-response","134","647095","0.0-10.0-1.57","5e42f74f5b772a18434cabf7","640759fa512f630a2bdc333d","64077ce44ddf22f50a6ff9d7","null","","null","","","","","","","","","","","","","","","","","","","fixation","",""
"","","","","","color-precision2","135","651766","0.0-10.0-0.58-0.58","5e42f74f5b772a18434cabf7","640759fa512f630a2bdc333d","64077ce44ddf22f50a6ff9d7","[1250]","","","[26]","[264]","264","193","120.32463082437538","[120.32463082437538]","[287.3246308243754]","[286]","0","0","1","0","149.02000000001863","1000.359999999986","1000","[[[""img/mask92.png""]]]","","","main","193","color-precision2"
"","","","","","html-keyboard-response","136","652280","0.0-10.0-1.58","5e42f74f5b772a18434cabf7","640759fa512f630a2bdc333d","64077ce44ddf22f50a6ff9d7","null","","null","","","","","","","","","","","","","","","","","","","fixation","",""
"","","","","","color-precision2","137","657245","0.0-10.0-0.59-0.59","5e42f74f5b772a18434cabf7","640759fa512f630a2bdc333d","64077ce44ddf22f50a6ff9d7","[896]","","","[7]","[324]","324","133","120.87441912447649","[120.87441912447649]","[347.8744191244765]","[346]","0","0","1","0","148.52000000001863","1001.8399999999674","1000","[[[""img/mask81.png""]]]","","","main","133","color-precision2"
"","","","","","html-keyboard-response","138","665564","0.0-10.0-1.59","5e42f74f5b772a18434cabf7","640759fa512f630a2bdc333d","64077ce44ddf22f50a6ff9d7","8317","Wow! You've completed 60 out of 180 trials! </p> <p>  </p><p> Take a quick break, then press any key when you're ready to continue."," ","","","","","","","","","","","","","","","","","","","fixation","",""
"","","","","","color-precision2","139","671431","0.0-10.0-0.60-0.60","5e42f74f5b772a18434cabf7","640759fa512f630a2bdc333d","64077ce44ddf22f50a6ff9d7","[1966]","","","[16]","[231]","231","21","236.19734570056914","[236.19734570056914]","[215.19734570056914]","[215]","0","0","1","0","149.5799999999581","999.9200000000419","1000","[[[""img/mask17.png""]]]","","","main","21","color-precision2"
"","","","","","html-keyboard-response","140","671941","0.0-10.0-1.60","5e42f74f5b772a18434cabf7","640759fa512f630a2bdc333d","64077ce44ddf22f50a6ff9d7","null","","null","","","","","","","","","","","","","","","","","","","fixation","",""
"","","","","","color-precision2","141","675933","0.0-10.0-0.61-0.61","5e42f74f5b772a18434cabf7","640759fa512f630a2bdc333d","64077ce44ddf22f50a6ff9d7","[1201]","","","[9]","[234]","234","144","24.564949020785622","[24.564949020785622]","[240.5649490207856]","[239]","0","0","1","0","148.38000000000466","993.7199999999721","1000","[[[""img/mask1.png""]]]","","","main","144","color-precision2"
"","","","","","html-keyboard-response","142","676442","0.0-10.0-1.61","5e42f74f5b772a18434cabf7","640759fa512f630a2bdc333d","64077ce44ddf22f50a6ff9d7","null","","null","","","","","","","","","","","","","","","","","","","fixation","",""
"","","","","","many-guess-6","143","682319","0.0-10.0-0.62-0.62","5e42f74f5b772a18434cabf7","640759fa512f630a2bdc333d","64077ce44ddf22f50a6ff9d7","[3854]","","","[32,21,8,16,9,5,13,19,33,35,6,12,28,34,20,27,22,1,10,24,3,30,23,15,2,25,7,31,0,18,11,26,14,17,4,29]","[357,68,8,48,247,197,38,267,277,207,108,177,237,287,128,137,98,317,307,167,337,347,157,28,227,88,118,257,58,217,18,297,327,187,147,78]","357","79","3.5821404513928807","[3.5821404513928807]","[284.5821404513929]","[284]","[300,210,210,210,300,210,300,30,300]","0","36","0","149.9200000000419","11.239999999990687","16","[[[""img/mask2.png""],[""img/mask4.png""],[""img/mask48.png""],[""img/mask53.png""],[""img/mask68.png""],[""img/mask20.png""],[""img/mask100.png""],[""img/mask93.png""],[""img/mask37.png""],[""img/mask79.png""],[""img/mask58.png""],[""img/mask93.png""],[""img/mask12.png""],[""img/mask64.png""],[""img/mask76.png""],[""img/mask41.png""],[""img/mask55.png""],[""img/mask55.png""],[""img/mask64.png""],[""img/mask83.png""],[""img/mask91.png""],[""img/mask4.png""],[""img/mask62.png""],[""img/mask84.png""],[""img/mask46.png""],[""img/mask5.png""],[""img/mask35.png""],[""img/mask47.png""],[""img/mask31.png""],[""img/mask88.png""],[""img/mask66.png""],[""img/mask19.png""],[""img/mask66.png""],[""img/mask99.png""],[""img/mask38.png""],[""img/mask83.png""]]]","","[32,21,8,16,9,5,13,19,33,35,6,12,28,34,20,27,22,1,10,24,3,30,23,15,2,25,7,31,0,18,11,26,14,17,4,29]","main","79","many-guess-6"
"","","","","","html-keyboard-response","144","682833","0.0-10.0-1.62","5e42f74f5b772a18434cabf7","640759fa512f630a2bdc333d","64077ce44ddf22f50a6ff9d7","null","","null","","","","","","","","","","","","","","","","","","","fixation","",""
"","","","","","color-precision2","145","686714","0.0-10.0-0.63-0.63","5e42f74f5b772a18434cabf7","640759fa512f630a2bdc333d","64077ce44ddf22f50a6ff9d7","[647]","","","[3]","[70]","70","137","200.9862871341744","[200.9862871341744]","[63.986287134174404]","[64]","0","0","1","0","148.95999999996275","1000.3000000000466","1000","[[[""img/mask30.png""]]]","","","main","137","color-precision2"
"","","","","","html-keyboard-response","146","687224","0.0-10.0-1.63","5e42f74f5b772a18434cabf7","640759fa512f630a2bdc333d","64077ce44ddf22f50a6ff9d7","null","","null","","","","","","","","","","","","","","","","","","","fixation","",""
"","","","","","many-guess-6","147","691288","0.0-10.0-0.64-0.64","5e42f74f5b772a18434cabf7","640759fa512f630a2bdc333d","64077ce44ddf22f50a6ff9d7","[2055]","","","[16,4,7,31,9,35,5,12,2,22,33,3,24,10,15,19,8,28,26,29,18,32,13,20,11,34,0,17,23,6,21,27,25,14,1,30]","[205,175,235,16,26,305,265,295,155,225,255,56,46,185,115,325,165,95,125,36,275,75,135,195,6,345,215,245,285,85,66,145,335,315,105,355]","205","231","200.896239770756","[200.896239770756]","[329.896239770756]","[329]","[300,30,30,210,120,30,210,210,300]","0","36","0","149.7600000000093","13.21999999997206","16","[[[""img/mask22.png""],[""img/mask36.png""],[""img/mask44.png""],[""img/mask81.png""],[""img/mask80.png""],[""img/mask24.png""],[""img/mask1.png""],[""img/mask95.png""],[""img/mask90.png""],[""img/mask58.png""],[""img/mask53.png""],[""img/mask36.png""],[""img/mask30.png""],[""img/mask37.png""],[""img/mask95.png""],[""img/mask6.png""],[""img/mask90.png""],[""img/mask3.png""],[""img/mask100.png""],[""img/mask79.png""],[""img/mask47.png""],[""img/mask25.png""],[""img/mask34.png""],[""img/mask50.png""],[""img/mask71.png""],[""img/mask28.png""],[""img/mask59.png""],[""img/mask82.png""],[""img/mask44.png""],[""img/mask6.png""],[""img/mask90.png""],[""img/mask38.png""],[""img/mask84.png""],[""img/mask86.png""],[""img/mask43.png""],[""img/mask46.png""]]]","","[16,4,7,31,9,35,5,12,2,22,33,3,24,10,15,19,8,28,26,29,18,32,13,20,11,34,0,17,23,6,21,27,25,14,1,30]","main","231","many-guess-6"
"","","","","","html-keyboard-response","148","691802","0.0-10.0-1.64","5e42f74f5b772a18434cabf7","640759fa512f630a2bdc333d","64077ce44ddf22f50a6ff9d7","null","","null","","","","","","","","","","","","","","","","","","","fixation","",""
"","","","","","many-guess-6","149","696531","0.0-10.0-0.65-0.65","5e42f74f5b772a18434cabf7","640759fa512f630a2bdc333d","64077ce44ddf22f50a6ff9d7","[2349]","","","[7,6,2,1,28,18,19,25,29,16,32,13,31,9,24,4,33,14,21,34,8,3,17,26,35,15,30,12,20,22,23,0,10,5,27,11]","[3,53,252,272,222,113,332,242,212,202,342,73,192,33,352,123,262,292,103,282,302,143,83,13,43,322,232,163,133,312,153,93,63,173,23,182]","3","232","34.3769268516973","[34.3769268516973]","[162.3769268516973]","[161]","[300,300,30,300,300,30,300,30,120]","0","36","0","148.88000000000466","25.35999999998603","16","[[[""img/mask74.png""],[""img/mask83.png""],[""img/mask69.png""],[""img/mask99.png""],[""img/mask8.png""],[""img/mask22.png""],[""img/mask85.png""],[""img/mask58.png""],[""img/mask64.png""],[""img/mask7.png""],[""img/mask55.png""],[""img/mask66.png""],[""img/mask79.png""],[""img/mask73.png""],[""img/mask69.png""],[""img/mask55.png""],[""img/mask47.png""],[""img/mask35.png""],[""img/mask92.png""],[""img/mask76.png""],[""img/mask65.png""],[""img/mask87.png""],[""img/mask18.png""],[""img/mask68.png""],[""img/mask74.png""],[""img/mask32.png""],[""img/mask68.png""],[""img/mask63.png""],[""img/mask3.png""],[""img/mask54.png""],[""img/mask95.png""],[""img/mask59.png""],[""img/mask9.png""],[""img/mask70.png""],[""img/mask41.png""],[""img/mask84.png""]]]","","[7,6,2,1,28,18,19,25,29,16,32,13,31,9,24,4,33,14,21,34,8,3,17,26,35,15,30,12,20,22,23,0,10,5,27,11]","main","232","many-guess-6"
"","","","","","html-keyboard-response","150","697040","0.0-10.0-1.65","5e42f74f5b772a18434cabf7","640759fa512f630a2bdc333d","64077ce44ddf22f50a6ff9d7","null","","null","","","","","","","","","","","","","","","","","","","fixation","",""
"","","","","","many-guess-6","151","703528","0.0-10.0-0.66-0.66","5e42f74f5b772a18434cabf7","640759fa512f630a2bdc333d","64077ce44ddf22f50a6ff9d7","[3978]","","","[10,18,14,32,25,6,9,33,5,35,11,30,28,24,19,1,16,15,4,8,2,27,31,20,13,0,22,21,29,23,7,3,17,12,34,26]","[260,11,100,170,350,31,140,240,190,41,180,320,60,70,160,340,1,250,90,21,80,130,120,110,300,220,330,230,210,280,150,270,200,310,50,290]","260","19","113.20868109429976","[113.20868109429976]","[94.20868109429976]","[92]","[210,120,120,120,120,210,300,120,120]","0","36","0","149.69999999995343","16.020000000018626","16","[[[""img/mask78.png""],[""img/mask54.png""],[""img/mask85.png""],[""img/mask23.png""],[""img/mask62.png""],[""img/mask73.png""],[""img/mask53.png""],[""img/mask86.png""],[""img/mask56.png""],[""img/mask49.png""],[""img/mask69.png""],[""img/mask11.png""],[""img/mask76.png""],[""img/mask19.png""],[""img/mask84.png""],[""img/mask59.png""],[""img/mask59.png""],[""img/mask65.png""],[""img/mask53.png""],[""img/mask13.png""],[""img/mask5.png""],[""img/mask71.png""],[""img/mask49.png""],[""img/mask78.png""],[""img/mask7.png""],[""img/mask3.png""],[""img/mask70.png""],[""img/mask2.png""],[""img/mask72.png""],[""img/mask85.png""],[""img/mask80.png""],[""img/mask50.png""],[""img/mask34.png""],[""img/mask34.png""],[""img/mask98.png""],[""img/mask80.png""]]]","","[10,18,14,32,25,6,9,33,5,35,11,30,28,24,19,1,16,15,4,8,2,27,31,20,13,0,22,21,29,23,7,3,17,12,34,26]","main","19","many-guess-6"
"","","","","","html-keyboard-response","152","704036","0.0-10.0-1.66","5e42f74f5b772a18434cabf7","640759fa512f630a2bdc333d","64077ce44ddf22f50a6ff9d7","null","","null","","","","","","","","","","","","","","","","","","","fixation","",""
"","","","","","color-precision2","153","709954","0.0-10.0-0.67-0.67","5e42f74f5b772a18434cabf7","640759fa512f630a2bdc333d","64077ce44ddf22f50a6ff9d7","[2919]","","","[12]","[328]","328","171","163.55032530756924","[163.55032530756924]","[352.5503253075692]","[351]","0","0","1","0","149.31999999994878","998.6600000000326","1000","[[[""img/mask36.png""]]]","","","main","171","color-precision2"
"","","","","","html-keyboard-response","154","710458","0.0-10.0-1.67","5e42f74f5b772a18434cabf7","640759fa512f630a2bdc333d","64077ce44ddf22f50a6ff9d7","null","","null","","","","","","","","","","","","","","","","","","","fixation","",""
"","","","","","color-precision2","155","714724","0.0-10.0-0.68-0.68","5e42f74f5b772a18434cabf7","640759fa512f630a2bdc333d","64077ce44ddf22f50a6ff9d7","[1474]","","","[30]","[143]","143","249","33.54437415440318","[33.54437415440318]","[144.5443741544032]","[143]","0","0","1","0","150.06000000005588","998.4000000000233","1000","[[[""img/mask19.png""]]]","","","main","249","color-precision2"
"","","","","","html-keyboard-response","156","715238","0.0-10.0-1.68","5e42f74f5b772a18434cabf7","640759fa512f630a2bdc333d","64077ce44ddf22f50a6ff9d7","null","","null","","","","","","","","","","","","","","","","","","","fixation","",""
"","","","","","color-precision2","157","724815","0.0-10.0-0.69-0.69","5e42f74f5b772a18434cabf7","640759fa512f630a2bdc333d","64077ce44ddf22f50a6ff9d7","[6683]","","","[19]","[75]","75","32","104.27800688252309","[104.27800688252309]","[72.27800688252309]","[70]","0","0","1","0","148.6600000000326","1006.9799999999814","1000","[[[""img/mask28.png""]]]","","","main","32","color-precision2"
"","","","","","html-keyboard-response","158","725329","0.0-10.0-1.69","5e42f74f5b772a18434cabf7","640759fa512f630a2bdc333d","64077ce44ddf22f50a6ff9d7","null","","null","","","","","","","","","","","","","","","","","","","fixation","",""
"","","","","","color-precision2","159","728966","0.0-10.0-0.70-0.70","5e42f74f5b772a18434cabf7","640759fa512f630a2bdc333d","64077ce44ddf22f50a6ff9d7","[765]","","","[5]","[131]","131","80","209.30620120703895","[209.30620120703895]","[129.30620120703895]","[131]","0","0","1","0","148.52000000001863","998.859999999986","1000","[[[""img/mask80.png""]]]","","","main","80","color-precision2"
"","","","","","html-keyboard-response","160","729468","0.0-10.0-1.70","5e42f74f5b772a18434cabf7","640759fa512f630a2bdc333d","64077ce44ddf22f50a6ff9d7","null","","null","","","","","","","","","","","","","","","","","","","fixation","",""
"","","","","","color-precision2","161","733056","0.0-10.0-0.71-0.71","5e42f74f5b772a18434cabf7","640759fa512f630a2bdc333d","64077ce44ddf22f50a6ff9d7","[839]","","","[33]","[323]","323","261","220.01082597967093","[220.01082597967093]","[319.0108259796709]","[319]","0","0","1","0","148.40000000002328","992.7199999999721","1000","[[[""img/mask80.png""]]]","","","main","261","color-precision2"
"","","","","","html-keyboard-response","162","733572","0.0-10.0-1.71","5e42f74f5b772a18434cabf7","640759fa512f630a2bdc333d","64077ce44ddf22f50a6ff9d7","null","","null","","","","","","","","","","","","","","","","","","","fixation","",""
"","","","","","many-guess-6","163","739011","0.0-10.0-0.72-0.72","5e42f74f5b772a18434cabf7","640759fa512f630a2bdc333d","64077ce44ddf22f50a6ff9d7","[3028]","","","[31,26,22,13,2,10,11,20,6,35,8,5,27,15,32,24,9,23,21,34,0,17,28,3,30,25,14,1,29,33,18,7,4,12,19,16]","[348,318,268,228,288,78,118,68,338,248,357,158,238,148,28,18,328,138,218,258,48,198,8,38,298,98,88,208,278,178,128,188,108,168,308,58]","348","147","342.3831553466495","[342.3831553466495]","[195.38315534664952]","[195]","[210,30,300,300,120,30,120,300,120]","0","36","0","149.21999999997206","25.56000000005588","16","[[[""img/mask81.png""],[""img/mask36.png""],[""img/mask15.png""],[""img/mask92.png""],[""img/mask38.png""],[""img/mask6.png""],[""img/mask78.png""],[""img/mask85.png""],[""img/mask7.png""],[""img/mask8.png""],[""img/mask71.png""],[""img/mask15.png""],[""img/mask86.png""],[""img/mask58.png""],[""img/mask10.png""],[""img/mask71.png""],[""img/mask85.png""],[""img/mask78.png""],[""img/mask62.png""],[""img/mask19.png""],[""img/mask42.png""],[""img/mask12.png""],[""img/mask39.png""],[""img/mask14.png""],[""img/mask16.png""],[""img/mask28.png""],[""img/mask97.png""],[""img/mask13.png""],[""img/mask50.png""],[""img/mask6.png""],[""img/mask33.png""],[""img/mask47.png""],[""img/mask26.png""],[""img/mask1.png""],[""img/mask44.png""],[""img/mask51.png""]]]","","[31,26,22,13,2,10,11,20,6,35,8,5,27,15,32,24,9,23,21,34,0,17,28,3,30,25,14,1,29,33,18,7,4,12,19,16]","main","147","many-guess-6"
"","","","","","html-keyboard-response","164","739524","0.0-10.0-1.72","5e42f74f5b772a18434cabf7","640759fa512f630a2bdc333d","64077ce44ddf22f50a6ff9d7","null","","null","","","","","","","","","","","","","","","","","","","fixation","",""
"","","","","","many-guess-6","165","743145","0.0-10.0-0.73-0.73","5e42f74f5b772a18434cabf7","640759fa512f630a2bdc333d","64077ce44ddf22f50a6ff9d7","[1495]","","","[16,32,18,8,1,21,9,34,15,19,10,27,35,0,7,22,3,12,11,20,28,29,5,2,14,4,17,26,23,25,33,30,24,31,13,6]","[43,352,332,163,73,342,302,232,252,93,212,173,153,282,3,203,242,83,322,312,53,23,292,133,143,183,222,103,262,113,13,123,193,272,63,33]","43","343","316.4067388648707","[316.4067388648707]","[333.4067388648707]","[334]","[300,30,300,30,210,210,120,120,300]","0","36","0","149.04000000003725","19.380000000004657","16","[[[""img/mask23.png""],[""img/mask69.png""],[""img/mask79.png""],[""img/mask48.png""],[""img/mask17.png""],[""img/mask98.png""],[""img/mask64.png""],[""img/mask82.png""],[""img/mask29.png""],[""img/mask38.png""],[""img/mask83.png""],[""img/mask67.png""],[""img/mask78.png""],[""img/mask38.png""],[""img/mask97.png""],[""img/mask86.png""],[""img/mask35.png""],[""img/mask62.png""],[""img/mask17.png""],[""img/mask8.png""],[""img/mask63.png""],[""img/mask26.png""],[""img/mask12.png""],[""img/mask45.png""],[""img/mask27.png""],[""img/mask26.png""],[""img/mask58.png""],[""img/mask45.png""],[""img/mask42.png""],[""img/mask22.png""],[""img/mask11.png""],[""img/mask94.png""],[""img/mask13.png""],[""img/mask45.png""],[""img/mask16.png""],[""img/mask1.png""]]]","","[16,32,18,8,1,21,9,34,15,19,10,27,35,0,7,22,3,12,11,20,28,29,5,2,14,4,17,26,23,25,33,30,24,31,13,6]","main","343","many-guess-6"
"","","","","","html-keyboard-response","166","743648","0.0-10.0-1.73","5e42f74f5b772a18434cabf7","640759fa512f630a2bdc333d","64077ce44ddf22f50a6ff9d7","null","","null","","","","","","","","","","","","","","","","","","","fixation","",""
"","","","","","color-precision2","167","747969","0.0-10.0-0.74-0.74","5e42f74f5b772a18434cabf7","640759fa512f630a2bdc333d","64077ce44ddf22f50a6ff9d7","[1486]","","","[18]","[261]","261","219","123.95870878141042","[123.95870878141042]","[264.95870878141045]","[263]","0","0","1","0","148.47999999998137","992.8000000000466","1000","[[[""img/mask10.png""]]]","","","main","219","color-precision2"
"","","","","","html-keyboard-response","168","748477","0.0-10.0-1.74","5e42f74f5b772a18434cabf7","640759fa512f630a2bdc333d","64077ce44ddf22f50a6ff9d7","null","","null","","","","","","","","","","","","","","","","","","","fixation","",""
"","","","","","many-guess-6","169","753536","0.0-10.0-0.75-0.75","5e42f74f5b772a18434cabf7","640759fa512f630a2bdc333d","64077ce44ddf22f50a6ff9d7","[2834]","","","[25,18,0,23,10,22,14,30,15,24,3,9,7,27,13,2,34,21,8,29,32,5,16,35,31,33,11,6,28,4,17,26,12,1,20,19]","[169,9,119,79,149,89,258,209,19,189,308,268,69,348,159,179,338,109,129,248,199,49,218,278,39,318,99,59,228,139,29,288,238,298,328,358]","169","47","147.80879271859303","[147.80879271859303]","[100.80879271859303]","[99]","[30,120,300,300,210,120,30,30,120]","0","36","0","149.28000000002794","23.619999999995343","16","[[[""img/mask21.png""],[""img/mask63.png""],[""img/mask64.png""],[""img/mask96.png""],[""img/mask15.png""],[""img/mask45.png""],[""img/mask94.png""],[""img/mask47.png""],[""img/mask79.png""],[""img/mask18.png""],[""img/mask5.png""],[""img/mask36.png""],[""img/mask5.png""],[""img/mask100.png""],[""img/mask21.png""],[""img/mask41.png""],[""img/mask65.png""],[""img/mask93.png""],[""img/mask67.png""],[""img/mask68.png""],[""img/mask76.png""],[""img/mask19.png""],[""img/mask82.png""],[""img/mask11.png""],[""img/mask28.png""],[""img/mask46.png""],[""img/mask2.png""],[""img/mask84.png""],[""img/mask60.png""],[""img/mask72.png""],[""img/mask73.png""],[""img/mask13.png""],[""img/mask2.png""],[""img/mask88.png""],[""img/mask67.png""],[""img/mask98.png""]]]","","[25,18,0,23,10,22,14,30,15,24,3,9,7,27,13,2,34,21,8,29,32,5,16,35,31,33,11,6,28,4,17,26,12,1,20,19]","main","47","many-guess-6"
"","","","","","html-keyboard-response","170","754041","0.0-10.0-1.75","5e42f74f5b772a18434cabf7","640759fa512f630a2bdc333d","64077ce44ddf22f50a6ff9d7","null","","null","","","","","","","","","","","","","","","","","","","fixation","",""
"","","","","","many-guess-6","171","757577","0.0-10.0-0.76-0.76","5e42f74f5b772a18434cabf7","640759fa512f630a2bdc333d","64077ce44ddf22f50a6ff9d7","[1660]","","","[1,17,6,25,16,5,21,20,35,2,13,3,19,22,26,30,34,29,18,10,27,31,7,9,24,32,14,15,4,8,33,28,23,11,12,0]","[88,117,257,68,137,197,108,78,147,347,297,307,48,237,227,167,317,177,337,28,18,207,127,8,58,267,277,217,327,38,287,157,357,187,247,98]","88","10","46.98014469318795","[46.98014469318795]","[36.98014469318795]","[35]","[210,300,120,30,30,210,210,300,30]","0","36","0","149.06000000005588","22.400000000023283","16","[[[""img/mask7.png""],[""img/mask80.png""],[""img/mask3.png""],[""img/mask85.png""],[""img/mask85.png""],[""img/mask42.png""],[""img/mask56.png""],[""img/mask25.png""],[""img/mask7.png""],[""img/mask83.png""],[""img/mask2.png""],[""img/mask75.png""],[""img/mask70.png""],[""img/mask88.png""],[""img/mask40.png""],[""img/mask77.png""],[""img/mask40.png""],[""img/mask64.png""],[""img/mask98.png""],[""img/mask80.png""],[""img/mask99.png""],[""img/mask90.png""],[""img/mask5.png""],[""img/mask38.png""],[""img/mask90.png""],[""img/mask81.png""],[""img/mask18.png""],[""img/mask56.png""],[""img/mask30.png""],[""img/mask98.png""],[""img/mask85.png""],[""img/mask40.png""],[""img/mask50.png""],[""img/mask26.png""],[""img/mask43.png""],[""img/mask42.png""]]]","","[1,17,6,25,16,5,21,20,35,2,13,3,19,22,26,30,34,29,18,10,27,31,7,9,24,32,14,15,4,8,33,28,23,11,12,0]","main","10","many-guess-6"
"","","","","","html-keyboard-response","172","758088","0.0-10.0-1.76","5e42f74f5b772a18434cabf7","640759fa512f630a2bdc333d","64077ce44ddf22f50a6ff9d7","null","","null","","","","","","","","","","","","","","","","","","","fixation","",""
"","","","","","many-guess-6","173","762322","0.0-10.0-0.77-0.77","5e42f74f5b772a18434cabf7","640759fa512f630a2bdc333d","64077ce44ddf22f50a6ff9d7","[1503]","","","[29,16,0,21,32,5,34,3,2,15,13,8,35,9,17,7,25,18,19,12,20,4,1,28,11,6,22,27,26,30,23,31,14,10,33,24]","[234,225,195,85,354,314,25,185,105,175,165,334,145,75,284,274,115,155,254,344,304,244,95,55,324,215,45,15,264,294,65,5,125,35,135,205]","234","359","187.3048683252126","[187.3048683252126]","[188.3048683252126]","[188]","[120,300,120,30,120,120,120,30,120]","0","36","0","149.21999999997206","15.56000000005588","16","[[[""img/mask98.png""],[""img/mask41.png""],[""img/mask80.png""],[""img/mask23.png""],[""img/mask63.png""],[""img/mask25.png""],[""img/mask46.png""],[""img/mask98.png""],[""img/mask46.png""],[""img/mask29.png""],[""img/mask92.png""],[""img/mask54.png""],[""img/mask84.png""],[""img/mask71.png""],[""img/mask61.png""],[""img/mask49.png""],[""img/mask48.png""],[""img/mask66.png""],[""img/mask19.png""],[""img/mask75.png""],[""img/mask79.png""],[""img/mask63.png""],[""img/mask70.png""],[""img/mask4.png""],[""img/mask46.png""],[""img/mask95.png""],[""img/mask66.png""],[""img/mask53.png""],[""img/mask34.png""],[""img/mask15.png""],[""img/mask22.png""],[""img/mask98.png""],[""img/mask74.png""],[""img/mask67.png""],[""img/mask84.png""],[""img/mask57.png""]]]","","[29,16,0,21,32,5,34,3,2,15,13,8,35,9,17,7,25,18,19,12,20,4,1,28,11,6,22,27,26,30,23,31,14,10,33,24]","main","359","many-guess-6"
"","","","","","html-keyboard-response","174","762837","0.0-10.0-1.77","5e42f74f5b772a18434cabf7","640759fa512f630a2bdc333d","64077ce44ddf22f50a6ff9d7","null","","null","","","","","","","","","","","","","","","","","","","fixation","",""
"","","","","","color-precision2","175","767199","0.0-10.0-0.78-0.78","5e42f74f5b772a18434cabf7","640759fa512f630a2bdc333d","64077ce44ddf22f50a6ff9d7","[1580]","","","[19]","[273]","273","228","142.31090908415212","[142.31090908415212]","[274.3109090841521]","[273]","0","0","1","0","149.3399999999674","1003.6600000000326","1000","[[[""img/mask28.png""]]]","","","main","228","color-precision2"
"","","","","","html-keyboard-response","176","767713","0.0-10.0-1.78","5e42f74f5b772a18434cabf7","640759fa512f630a2bdc333d","64077ce44ddf22f50a6ff9d7","null","","null","","","","","","","","","","","","","","","","","","","fixation","",""
