"success","timeout","failed_images","failed_audio","failed_video","trial_type","trial_index","time_elapsed","internal_node_id","subject_id","study_id","session_id","rt","stimulus","response","position_of_items","colors_of_items","color_of_target","wheel_spin","response_angle","physical_response_angle","reported_color_angle","reported_color_discrete","locs","which_test","set_size","wheel_num_options","actual_mask_duration","actual_stim_duration","CMDispTime","maskArray","maskRotation","item_positions","task","randomSpinAmount","mainTask"
"true","false","[]","[]","[]","preload","0","5330","0.0-0.0","5ec403bb09d0e02a060bd5e6","640759fa512f630a2bdc333d","6407b70c0d2d64613f0a7c1c","","","","","","","","","","","","","","","","","","","","","","","",""
"true","","","","","fullscreen","1","7514","0.0-1.0","5ec403bb09d0e02a060bd5e6","640759fa512f630a2bdc333d","6407b70c0d2d64613f0a7c1c","","","","","","","","","","","","","","","","","","","","","","","",""
"","","","","","html-keyboard-response","2","11431","0.0-2.0","5ec403bb09d0e02a060bd5e6","640759fa512f630a2bdc333d","6407b70c0d2d64613f0a7c1c","3914","What a beautiful Tuesday to do some awesome science! </p> <p>  </p><p> </p>
    By completing this survey or questionnaire, you are consenting to be in this research study. </p>
    Your participation is voluntary and you can stop at any time.<p> [Press any key to continue] </p>"," ","","","","","","","","","","","","","","","","","","","","",""
"","","","","","html-keyboard-response","3","21435","0.0-3.0","5ec403bb09d0e02a060bd5e6","640759fa512f630a2bdc333d","6407b70c0d2d64613f0a7c1c","3158","
    <div style='width: 1000px;'>
    <div style='float: center;'><img src='img/TaskInstructions1.png'></img>
    </div>
    "," ","","","","","","","","","","","","","","","","","","","","",""
"","","","","","html-keyboard-response","4","21981","0.0-4.0","5ec403bb09d0e02a060bd5e6","640759fa512f630a2bdc333d","6407b70c0d2d64613f0a7c1c","544","
    <div style='width: 1000px;'>
    <div style='float: center;'><img src='img/TaskInstructions1.png'></img>
    </div>
    ","enter","","","","","","","","","","","","","","","","","","","","",""
"","","","","","html-keyboard-response","5","31988","0.0-5.0","5ec403bb09d0e02a060bd5e6","640759fa512f630a2bdc333d","6407b70c0d2d64613f0a7c1c","null","
    <div style='width: 1000px;'>
    <div style='float: center;'><img src='img/TaskInstructions2.png'></img>
    </div>
    ","null","","","","","","","","","","","","","","","","","","","","",""
"","","","","","html-keyboard-response","6","33279","0.0-6.0","5ec403bb09d0e02a060bd5e6","640759fa512f630a2bdc333d","6407b70c0d2d64613f0a7c1c","1290","
    <div style='width: 1000px;'>
    <div style='float: center;'><img src='img/TaskInstructions2.png'></img>
    </div>
    "," ","","","","","","","","","","","","","","","","","","","","",""
"","","","","","video-keyboard-response","7","41374","0.0-7.0","5ec403bb09d0e02a060bd5e6","640759fa512f630a2bdc333d","6407b70c0d2d64613f0a7c1c","8081","[""video/TaskInstructions3.mp4""]"," ","","","","","","","","","","","","","","","","","","","","",""
"","","","","","image-keyboard-response","8","44558","0.0-8.0-0.0","5ec403bb09d0e02a060bd5e6","640759fa512f630a2bdc333d","6407b70c0d2d64613f0a7c1c","3181","img/training1.png"," ","","","","","","","","","","","","","","","","","","","","",""
"","","","","","color-precision2","9","55125","0.0-8.0-1.0-0.0","5ec403bb09d0e02a060bd5e6","640759fa512f630a2bdc333d","6407b70c0d2d64613f0a7c1c","[3327]","","","[30]","[1]","1","321","319.62722219472494","[319.62722219472494]","[358.62722219472494]","[359]","0","0","1","0","499.5","1003.3600000000006","1000","","","0","training","",""
"","","","","","image-keyboard-response","10","59996","0.0-8.0-0.1","5ec403bb09d0e02a060bd5e6","640759fa512f630a2bdc333d","6407b70c0d2d64613f0a7c1c","4870","img/training2.png","enter","","","","","","","","","","","","","","","","","","","","",""
"","","","","","many-guess-6","11","68485","0.0-8.0-1.1-0.1","5ec403bb09d0e02a060bd5e6","640759fa512f630a2bdc333d","6407b70c0d2d64613f0a7c1c","[2423]","","","[29,12,26]","[196,275,231]","196","299","134.62238440601124","[134.62238440601124]","[195.62238440601124]","[196]","[30,30,210,210,30,120,30,30,30,300,120,300,30,210,210,120,120,30,210,120,120,300,120,210,30,210,30,210,120,30,300,300,30,30,120,30]","0","3","0","1000.6600000000035","1000.0800000000017","1000","[[[""img/mask70.png""],[""img/mask63.png""],[""img/mask67.png""]]]","","[29,12,26]","training","",""
"","","","","","image-keyboard-response","12","72269","0.0-8.0-0.2","5ec403bb09d0e02a060bd5e6","640759fa512f630a2bdc333d","6407b70c0d2d64613f0a7c1c","3782","img/training3.png","enter","","","","","","","","","","","","","","","","","","","","",""
"","","","","","[""many-guess-6""]","13","77878","0.0-8.0-1.2-0.2","5ec403bb09d0e02a060bd5e6","640759fa512f630a2bdc333d","6407b70c0d2d64613f0a7c1c","[1805]","","","[0,28,18,20,3]","[82,303,254,325,32]","82","231","151.24689216671493","[151.24689216671493]","[280.24689216671493]","[279]","[210,30,120,210,120,120,30,120,210,30,30,300,300,30,300,210,210,30,120,300,120,300,120,210,210,210,120,300,210,120,210,300,120,210,120,210]","0","5","0","499.75999999999476","492.6399999999994","500","[[[""img/mask24.png""],[""img/mask83.png""],[""img/mask41.png""],[""img/mask88.png""],[""img/mask87.png""]]]","","[0,28,18,20,3]","training","",""
"","","","","","image-keyboard-response","14","80500","0.0-8.0-0.3","5ec403bb09d0e02a060bd5e6","640759fa512f630a2bdc333d","6407b70c0d2d64613f0a7c1c","2620","img/training4.png","enter","","","","","","","","","","","","","","","","","","","","",""
"","","","","","[""many-guess-6""]","15","86182","0.0-8.0-1.3-0.3","5ec403bb09d0e02a060bd5e6","640759fa512f630a2bdc333d","6407b70c0d2d64613f0a7c1c","[2068]","","","[1,32,15,12,22,5,16,2,33,10]","[7,350,319,39,187,198,265,293,237,223]","7","77","302.36885577304463","[302.36885577304463]","[225.36885577304463]","[226]","[210,300,300,30,300,30,120,210,210,210,120,210,30,120,210,30,120,300,30,30,30,30,30,210,210,210,300,300,30,30,300,300,120,300,120,30]","0","10","0","132.22000000000116","137.08000000000175","132","[[[""img/mask23.png""],[""img/mask35.png""],[""img/mask69.png""],[""img/mask34.png""],[""img/mask88.png""],[""img/mask100.png""],[""img/mask58.png""],[""img/mask53.png""],[""img/mask26.png""],[""img/mask24.png""]]]","","[1,32,15,12,22,5,16,2,33,10]","training","",""
"","","","","","image-keyboard-response","16","89668","0.0-8.0-0.4","5ec403bb09d0e02a060bd5e6","640759fa512f630a2bdc333d","6407b70c0d2d64613f0a7c1c","3486","img/training5.png","enter","","","","","","","","","","","","","","","","","","","","",""
"","","","","","[""many-guess-6""]","17","94734","0.0-8.0-1.4-0.4","5ec403bb09d0e02a060bd5e6","640759fa512f630a2bdc333d","6407b70c0d2d64613f0a7c1c","[2010]","","","[25,0,9,14,8,7,6,10,2,34,35,18,16,21,32,22,30,15,17,5,23,3,4,11,29,27,26,13,31,24,20,28,33,12,19,1]","[165,95,354,245,295,325,285,265,215,344,275,25,225,235,115,315,5,255,195,85,175,155,75,65,125,45,15,35,335,205,135,55,105,145,185,305]","165","195","229.7721476104177","[229.7721476104177]","[34.772147610417704]","[35]","[300,210,30,210,120,120,120,30,30,210,120,210,120,120,300,30,30,120,210,210,210,120,210,30,120,120,300,30,30,210,300,120,30,300,300,300]","0","36","0","132.8000000000029","18.660000000003492","16","[[[""img/mask42.png""],[""img/mask79.png""],[""img/mask57.png""],[""img/mask9.png""],[""img/mask69.png""],[""img/mask93.png""],[""img/mask33.png""],[""img/mask43.png""],[""img/mask91.png""],[""img/mask69.png""],[""img/mask7.png""],[""img/mask77.png""],[""img/mask95.png""],[""img/mask14.png""],[""img/mask21.png""],[""img/mask96.png""],[""img/mask85.png""],[""img/mask75.png""],[""img/mask96.png""],[""img/mask75.png""],[""img/mask62.png""],[""img/mask69.png""],[""img/mask77.png""],[""img/mask23.png""],[""img/mask20.png""],[""img/mask45.png""],[""img/mask31.png""],[""img/mask75.png""],[""img/mask63.png""],[""img/mask69.png""],[""img/mask45.png""],[""img/mask72.png""],[""img/mask38.png""],[""img/mask58.png""],[""img/mask21.png""],[""img/mask50.png""]]]","","[25,0,9,14,8,7,6,10,2,34,35,18,16,21,32,22,30,15,17,5,23,3,4,11,29,27,26,13,31,24,20,28,33,12,19,1]","training","",""
"","","","","","image-keyboard-response","18","96932","0.0-9.0","5ec403bb09d0e02a060bd5e6","640759fa512f630a2bdc333d","6407b70c0d2d64613f0a7c1c","2187","[""img/endTraining.png""]","enter","","","","","","","","","","","","","","","","","","","","",""
"","","","","","color-precision2","19","103269","0.0-10.0-0.0-0.0","5ec403bb09d0e02a060bd5e6","640759fa512f630a2bdc333d","6407b70c0d2d64613f0a7c1c","[2891]","","","[27]","[330]","330","154","130.43421238154744","[130.43421238154744]","[336.43421238154747]","[335]","0","0","1","0","148.9600000000064","994.1399999999994","1000","[[[""img/mask72.png""]]]","","","main","154","color-precision2"
"","","","","","html-keyboard-response","20","103770","0.0-10.0-1.0","5ec403bb09d0e02a060bd5e6","640759fa512f630a2bdc333d","6407b70c0d2d64613f0a7c1c","null","","null","","","","","","","","","","","","","","","","","","","fixation","",""
"","","","","","color-precision2","21","107630","0.0-10.0-0.1-0.1","5ec403bb09d0e02a060bd5e6","640759fa512f630a2bdc333d","6407b70c0d2d64613f0a7c1c","[893]","","","[32]","[127]","127","57","187.87401022849903","[187.87401022849903]","[130.87401022849903]","[130]","0","0","1","0","148.13999999999942","1000.320000000007","1000","[[[""img/mask75.png""]]]","","","main","57","color-precision2"
"","","","","","html-keyboard-response","22","108142","0.0-10.0-1.1","5ec403bb09d0e02a060bd5e6","640759fa512f630a2bdc333d","6407b70c0d2d64613f0a7c1c","null","","null","","","","","","","","","","","","","","","","","","","fixation","",""
"","","","","","color-precision2","23","112469","0.0-10.0-0.2-0.2","5ec403bb09d0e02a060bd5e6","640759fa512f630a2bdc333d","6407b70c0d2d64613f0a7c1c","[1479]","","","[18]","[307]","307","281","233.33253325206573","[233.33253325206573]","[312.33253325206573]","[312]","0","0","1","0","147.55999999999767","1005.7400000000052","1000","[[[""img/mask52.png""]]]","","","main","281","color-precision2"
"","","","","","html-keyboard-response","24","112980","0.0-10.0-1.2","5ec403bb09d0e02a060bd5e6","640759fa512f630a2bdc333d","6407b70c0d2d64613f0a7c1c","null","","null","","","","","","","","","","","","","","","","","","","fixation","",""
"","","","","","many-guess-6","25","116957","0.0-10.0-0.3-0.3","5ec403bb09d0e02a060bd5e6","640759fa512f630a2bdc333d","6407b70c0d2d64613f0a7c1c","[1963]","","","[16,5,14,25,28,31,8,19,4,1,23,24,21,32,17,0,2,10,6,3,9,13,7,22,18,33,11,34,15,30,29,35,20,12,27,26]","[50,309,329,10,20,279,180,80,210,299,130,319,170,339,30,120,160,40,70,220,349,60,140,269,359,90,289,239,229,150,249,190,110,259,100,200]","50","227","178.7550867201331","[178.7550867201331]","[311.75508672013314]","[311]","[210,120,120,30,120,210,30,120,210]","0","36","0","149.39999999999418","24.60000000000582","16","[[[""img/mask38.png""],[""img/mask97.png""],[""img/mask68.png""],[""img/mask79.png""],[""img/mask6.png""],[""img/mask10.png""],[""img/mask18.png""],[""img/mask93.png""],[""img/mask93.png""],[""img/mask81.png""],[""img/mask28.png""],[""img/mask47.png""],[""img/mask57.png""],[""img/mask90.png""],[""img/mask17.png""],[""img/mask41.png""],[""img/mask59.png""],[""img/mask72.png""],[""img/mask12.png""],[""img/mask97.png""],[""img/mask72.png""],[""img/mask59.png""],[""img/mask12.png""],[""img/mask34.png""],[""img/mask83.png""],[""img/mask88.png""],[""img/mask11.png""],[""img/mask62.png""],[""img/mask30.png""],[""img/mask34.png""],[""img/mask96.png""],[""img/mask50.png""],[""img/mask85.png""],[""img/mask31.png""],[""img/mask53.png""],[""img/mask7.png""]]]","","[16,5,14,25,28,31,8,19,4,1,23,24,21,32,17,0,2,10,6,3,9,13,7,22,18,33,11,34,15,30,29,35,20,12,27,26]","main","227","many-guess-6"
"","","","","","html-keyboard-response","26","117466","0.0-10.0-1.3","5ec403bb09d0e02a060bd5e6","640759fa512f630a2bdc333d","6407b70c0d2d64613f0a7c1c","null","","null","","","","","","","","","","","","","","","","","","","fixation","",""
"","","","","","color-precision2","27","121589","0.0-10.0-0.4-0.4","5ec403bb09d0e02a060bd5e6","640759fa512f630a2bdc333d","6407b70c0d2d64613f0a7c1c","[1390]","","","[20]","[268]","268","38","311.9713784194279","[311.9713784194279]","[273.9713784194279]","[274]","0","0","1","0","149.91999999999825","996.1000000000058","1000","[[[""img/mask9.png""]]]","","","main","38","color-precision2"
"","","","","","html-keyboard-response","28","122090","0.0-10.0-1.4","5ec403bb09d0e02a060bd5e6","640759fa512f630a2bdc333d","6407b70c0d2d64613f0a7c1c","null","","null","","","","","","","","","","","","","","","","","","","fixation","",""
"","","","","","color-precision2","29","125741","0.0-10.0-0.5-0.5","5ec403bb09d0e02a060bd5e6","640759fa512f630a2bdc333d","6407b70c0d2d64613f0a7c1c","[1237]","","","[23]","[105]","105","198","301.0172777279035","[301.0172777279035]","[103.01727772790349]","[103]","0","0","1","0","149.41999999999825","998.6000000000058","1000","[[[""img/mask44.png""]]]","","","main","198","color-precision2"
"","","","","","html-keyboard-response","30","126251","0.0-10.0-1.5","5ec403bb09d0e02a060bd5e6","640759fa512f630a2bdc333d","6407b70c0d2d64613f0a7c1c","null","","null","","","","","","","","","","","","","","","","","","","fixation","",""
"","","","","","color-precision2","31","129565","0.0-10.0-0.6-0.6","5ec403bb09d0e02a060bd5e6","640759fa512f630a2bdc333d","6407b70c0d2d64613f0a7c1c","[706]","","","[7]","[300]","300","61","354.99234882903227","[354.99234882903227]","[293.99234882903227]","[294]","0","0","1","0","148.29999999998836","996.4800000000105","1000","[[[""img/mask98.png""]]]","","","main","61","color-precision2"
"","","","","","html-keyboard-response","32","130072","0.0-10.0-1.6","5ec403bb09d0e02a060bd5e6","640759fa512f630a2bdc333d","6407b70c0d2d64613f0a7c1c","null","","null","","","","","","","","","","","","","","","","","","","fixation","",""
"","","","","","many-guess-6","33","134766","0.0-10.0-0.7-0.7","5ec403bb09d0e02a060bd5e6","640759fa512f630a2bdc333d","6407b70c0d2d64613f0a7c1c","[3055]","","","[8,12,22,1,18,11,2,26,7,21,16,6,35,23,5,10,28,17,19,3,33,27,9,31,30,32,13,34,15,14,29,4,25,24,20,0]","[268,338,228,178,298,148,358,28,308,108,198,258,78,118,128,38,238,68,168,328,218,208,288,278,248,88,158,48,58,98,19,318,138,9,188,348]","268","47","122.93647561033815","[122.93647561033815]","[75.93647561033815]","[74]","[120,210,210,120,30,30,210,300,210]","0","36","0","149.7600000000093","16","16","[[[""img/mask17.png""],[""img/mask1.png""],[""img/mask68.png""],[""img/mask83.png""],[""img/mask63.png""],[""img/mask62.png""],[""img/mask43.png""],[""img/mask12.png""],[""img/mask9.png""],[""img/mask61.png""],[""img/mask7.png""],[""img/mask43.png""],[""img/mask73.png""],[""img/mask91.png""],[""img/mask98.png""],[""img/mask77.png""],[""img/mask42.png""],[""img/mask26.png""],[""img/mask50.png""],[""img/mask75.png""],[""img/mask17.png""],[""img/mask81.png""],[""img/mask98.png""],[""img/mask38.png""],[""img/mask6.png""],[""img/mask72.png""],[""img/mask84.png""],[""img/mask68.png""],[""img/mask15.png""],[""img/mask89.png""],[""img/mask38.png""],[""img/mask89.png""],[""img/mask73.png""],[""img/mask23.png""],[""img/mask82.png""],[""img/mask77.png""]]]","","[8,12,22,1,18,11,2,26,7,21,16,6,35,23,5,10,28,17,19,3,33,27,9,31,30,32,13,34,15,14,29,4,25,24,20,0]","main","47","many-guess-6"
"","","","","","html-keyboard-response","34","135265","0.0-10.0-1.7","5ec403bb09d0e02a060bd5e6","640759fa512f630a2bdc333d","6407b70c0d2d64613f0a7c1c","null","","null","","","","","","","","","","","","","","","","","","","fixation","",""
"","","","","","many-guess-6","35","138645","0.0-10.0-0.8-0.8","5ec403bb09d0e02a060bd5e6","640759fa512f630a2bdc333d","6407b70c0d2d64613f0a7c1c","[1979]","","","[5,27,33,20,21,6,7,8,11,12,26,10,15,31,9,17,22,3,18,13,24,0,2,28,14,30,1,35,16,4,19,34,23,29,32,25]","[206,346,7,57,156,296,117,266,146,37,216,336,97,276,316,47,77,176,107,356,226,196,186,27,236,67,166,17,127,306,256,136,246,326,87,286]","206","325","153.38220323922164","[153.38220323922164]","[188.38220323922164]","[187]","[300,120,300,300,300,210,210,120,300]","0","36","0","148.14000000001397","15.320000000006985","16","[[[""img/mask61.png""],[""img/mask3.png""],[""img/mask26.png""],[""img/mask18.png""],[""img/mask84.png""],[""img/mask63.png""],[""img/mask12.png""],[""img/mask13.png""],[""img/mask86.png""],[""img/mask37.png""],[""img/mask14.png""],[""img/mask20.png""],[""img/mask30.png""],[""img/mask70.png""],[""img/mask42.png""],[""img/mask25.png""],[""img/mask54.png""],[""img/mask72.png""],[""img/mask44.png""],[""img/mask4.png""],[""img/mask98.png""],[""img/mask84.png""],[""img/mask22.png""],[""img/mask16.png""],[""img/mask39.png""],[""img/mask30.png""],[""img/mask66.png""],[""img/mask40.png""],[""img/mask92.png""],[""img/mask33.png""],[""img/mask100.png""],[""img/mask35.png""],[""img/mask100.png""],[""img/mask92.png""],[""img/mask71.png""],[""img/mask42.png""]]]","","[5,27,33,20,21,6,7,8,11,12,26,10,15,31,9,17,22,3,18,13,24,0,2,28,14,30,1,35,16,4,19,34,23,29,32,25]","main","325","many-guess-6"
"","","","","","html-keyboard-response","36","139153","0.0-10.0-1.8","5ec403bb09d0e02a060bd5e6","640759fa512f630a2bdc333d","6407b70c0d2d64613f0a7c1c","null","","null","","","","","","","","","","","","","","","","","","","fixation","",""
"","","","","","many-guess-6","37","143109","0.0-10.0-0.9-0.9","5ec403bb09d0e02a060bd5e6","640759fa512f630a2bdc333d","6407b70c0d2d64613f0a7c1c","[2256]","","","[1,14,12,7,35,28,16,34,18,22,3,19,0,23,11,21,5,13,9,24,27,2,10,30,15,29,33,25,17,31,32,8,20,26,4,6]","[47,326,356,107,57,296,346,216,286,236,27,127,336,17,276,186,256,226,306,176,67,166,146,266,87,137,77,7,156,316,97,117,206,37,196,246]","47","114","73.80492685420721","[73.80492685420721]","[319.8049268542072]","[318]","[30,300,120,120,210,120,120,210,210]","0","36","0","149.98000000001048","22.179999999993015","16","[[[""img/mask72.png""],[""img/mask34.png""],[""img/mask98.png""],[""img/mask23.png""],[""img/mask1.png""],[""img/mask4.png""],[""img/mask88.png""],[""img/mask3.png""],[""img/mask45.png""],[""img/mask11.png""],[""img/mask54.png""],[""img/mask16.png""],[""img/mask35.png""],[""img/mask1.png""],[""img/mask45.png""],[""img/mask97.png""],[""img/mask64.png""],[""img/mask36.png""],[""img/mask90.png""],[""img/mask57.png""],[""img/mask11.png""],[""img/mask27.png""],[""img/mask32.png""],[""img/mask51.png""],[""img/mask58.png""],[""img/mask35.png""],[""img/mask28.png""],[""img/mask91.png""],[""img/mask3.png""],[""img/mask43.png""],[""img/mask59.png""],[""img/mask19.png""],[""img/mask12.png""],[""img/mask6.png""],[""img/mask31.png""],[""img/mask4.png""]]]","","[1,14,12,7,35,28,16,34,18,22,3,19,0,23,11,21,5,13,9,24,27,2,10,30,15,29,33,25,17,31,32,8,20,26,4,6]","main","114","many-guess-6"
"","","","","","html-keyboard-response","38","143618","0.0-10.0-1.9","5ec403bb09d0e02a060bd5e6","640759fa512f630a2bdc333d","6407b70c0d2d64613f0a7c1c","null","","null","","","","","","","","","","","","","","","","","","","fixation","",""
"","","","","","many-guess-6","39","147541","0.0-10.0-0.10-0.10","5ec403bb09d0e02a060bd5e6","640759fa512f630a2bdc333d","6407b70c0d2d64613f0a7c1c","[2350]","","","[19,20,30,21,2,7,31,17,1,27,32,24,0,10,23,29,4,14,3,28,12,22,26,5,16,34,15,11,13,35,8,6,18,33,9,25]","[126,106,96,345,76,216,16,355,146,176,286,296,86,66,116,276,46,226,26,236,335,156,166,196,326,6,186,316,36,306,256,266,206,56,246,136]","126","21","268.29007755892246","[268.29007755892246]","[247.29007755892246]","[247]","[30,120,300,300,30,30,300,30,30]","0","36","0","149.32000000000698","13.5","16","[[[""img/mask33.png""],[""img/mask97.png""],[""img/mask41.png""],[""img/mask71.png""],[""img/mask28.png""],[""img/mask3.png""],[""img/mask82.png""],[""img/mask10.png""],[""img/mask73.png""],[""img/mask70.png""],[""img/mask32.png""],[""img/mask17.png""],[""img/mask59.png""],[""img/mask75.png""],[""img/mask82.png""],[""img/mask91.png""],[""img/mask5.png""],[""img/mask78.png""],[""img/mask34.png""],[""img/mask9.png""],[""img/mask24.png""],[""img/mask62.png""],[""img/mask96.png""],[""img/mask30.png""],[""img/mask37.png""],[""img/mask61.png""],[""img/mask8.png""],[""img/mask35.png""],[""img/mask68.png""],[""img/mask75.png""],[""img/mask18.png""],[""img/mask70.png""],[""img/mask8.png""],[""img/mask95.png""],[""img/mask48.png""],[""img/mask63.png""]]]","","[19,20,30,21,2,7,31,17,1,27,32,24,0,10,23,29,4,14,3,28,12,22,26,5,16,34,15,11,13,35,8,6,18,33,9,25]","main","21","many-guess-6"
"","","","","","html-keyboard-response","40","148042","0.0-10.0-1.10","5ec403bb09d0e02a060bd5e6","640759fa512f630a2bdc333d","6407b70c0d2d64613f0a7c1c","null","","null","","","","","","","","","","","","","","","","","","","fixation","",""
"","","","","","color-precision2","41","152237","0.0-10.0-0.11-0.11","5ec403bb09d0e02a060bd5e6","640759fa512f630a2bdc333d","6407b70c0d2d64613f0a7c1c","[1541]","","","[23]","[49]","49","236","292.9227015887708","[292.9227015887708]","[56.92270158877079]","[57]","0","0","1","0","150.01999999998952","997.2000000000116","1000","[[[""img/mask28.png""]]]","","","main","236","color-precision2"
"","","","","","html-keyboard-response","42","152748","0.0-10.0-1.11","5ec403bb09d0e02a060bd5e6","640759fa512f630a2bdc333d","6407b70c0d2d64613f0a7c1c","null","","null","","","","","","","","","","","","","","","","","","","fixation","",""
"","","","","","many-guess-6","43","156141","0.0-10.0-0.12-0.12","5ec403bb09d0e02a060bd5e6","640759fa512f630a2bdc333d","6407b70c0d2d64613f0a7c1c","[1775]","","","[16,6,34,32,21,0,10,15,14,28,25,13,24,5,4,1,12,33,30,17,19,2,7,35,31,18,27,22,8,9,29,26,20,23,3,11]","[22,281,101,42,91,231,351,181,241,32,151,171,61,331,271,131,71,221,12,191,121,321,291,251,51,301,2,81,201,261,161,341,311,111,141,211]","22","85","48.49063315875448","[48.49063315875448]","[323.49063315875446]","[323]","[30,210,210,300,300,30,300,210,210]","0","36","0","150","27.179999999993015","16","[[[""img/mask55.png""],[""img/mask64.png""],[""img/mask7.png""],[""img/mask12.png""],[""img/mask67.png""],[""img/mask30.png""],[""img/mask61.png""],[""img/mask78.png""],[""img/mask44.png""],[""img/mask79.png""],[""img/mask56.png""],[""img/mask38.png""],[""img/mask50.png""],[""img/mask5.png""],[""img/mask34.png""],[""img/mask33.png""],[""img/mask9.png""],[""img/mask22.png""],[""img/mask9.png""],[""img/mask7.png""],[""img/mask69.png""],[""img/mask56.png""],[""img/mask23.png""],[""img/mask22.png""],[""img/mask99.png""],[""img/mask87.png""],[""img/mask86.png""],[""img/mask22.png""],[""img/mask44.png""],[""img/mask21.png""],[""img/mask23.png""],[""img/mask81.png""],[""img/mask22.png""],[""img/mask95.png""],[""img/mask97.png""],[""img/mask59.png""]]]","","[16,6,34,32,21,0,10,15,14,28,25,13,24,5,4,1,12,33,30,17,19,2,7,35,31,18,27,22,8,9,29,26,20,23,3,11]","main","85","many-guess-6"
"","","","","","html-keyboard-response","44","156651","0.0-10.0-1.12","5ec403bb09d0e02a060bd5e6","640759fa512f630a2bdc333d","6407b70c0d2d64613f0a7c1c","null","","null","","","","","","","","","","","","","","","","","","","fixation","",""
"","","","","","color-precision2","45","160157","0.0-10.0-0.13-0.13","5ec403bb09d0e02a060bd5e6","640759fa512f630a2bdc333d","6407b70c0d2d64613f0a7c1c","[785]","","","[33]","[303]","303","260","193.26718457834372","[193.26718457834372]","[293.26718457834374]","[293]","0","0","1","0","149.45999999999185","1001.640000000014","1000","[[[""img/mask2.png""]]]","","","main","260","color-precision2"
"","","","","","html-keyboard-response","46","160659","0.0-10.0-1.13","5ec403bb09d0e02a060bd5e6","640759fa512f630a2bdc333d","6407b70c0d2d64613f0a7c1c","null","","null","","","","","","","","","","","","","","","","","","","fixation","",""
"","","","","","color-precision2","47","163533","0.0-10.0-0.14-0.14","5ec403bb09d0e02a060bd5e6","640759fa512f630a2bdc333d","6407b70c0d2d64613f0a7c1c","[642]","","","[22]","[93]","93","142","225.56793682914466","[225.56793682914466]","[83.56793682914466]","[83]","0","0","1","0","149.67999999999302","1006.859999999986","1000","[[[""img/mask88.png""]]]","","","main","142","color-precision2"
"","","","","","html-keyboard-response","48","164039","0.0-10.0-1.14","5ec403bb09d0e02a060bd5e6","640759fa512f630a2bdc333d","6407b70c0d2d64613f0a7c1c","null","","null","","","","","","","","","","","","","","","","","","","fixation","",""
"","","","","","many-guess-6","49","167309","0.0-10.0-0.15-0.15","5ec403bb09d0e02a060bd5e6","640759fa512f630a2bdc333d","6407b70c0d2d64613f0a7c1c","[1765]","","","[20,33,27,31,2,13,9,23,35,4,18,34,11,0,1,32,12,24,5,10,17,21,26,3,30,7,6,29,22,16,15,14,19,28,8,25]","[164,15,105,45,204,65,25,194,115,294,184,304,234,75,224,55,174,334,125,85,324,95,274,5,354,344,264,254,214,35,154,244,284,135,314,144]","164","182","153.87577322555782","[153.87577322555782]","[331.87577322555785]","[331]","[300,210,120,210,120,210,30,300,30]","0","36","0","148.79999999998836","25.980000000010477","16","[[[""img/mask92.png""],[""img/mask71.png""],[""img/mask97.png""],[""img/mask13.png""],[""img/mask6.png""],[""img/mask55.png""],[""img/mask48.png""],[""img/mask86.png""],[""img/mask21.png""],[""img/mask88.png""],[""img/mask42.png""],[""img/mask33.png""],[""img/mask32.png""],[""img/mask86.png""],[""img/mask40.png""],[""img/mask11.png""],[""img/mask64.png""],[""img/mask49.png""],[""img/mask10.png""],[""img/mask83.png""],[""img/mask40.png""],[""img/mask82.png""],[""img/mask96.png""],[""img/mask78.png""],[""img/mask49.png""],[""img/mask94.png""],[""img/mask28.png""],[""img/mask2.png""],[""img/mask17.png""],[""img/mask17.png""],[""img/mask79.png""],[""img/mask65.png""],[""img/mask75.png""],[""img/mask65.png""],[""img/mask34.png""],[""img/mask52.png""]]]","","[20,33,27,31,2,13,9,23,35,4,18,34,11,0,1,32,12,24,5,10,17,21,26,3,30,7,6,29,22,16,15,14,19,28,8,25]","main","182","many-guess-6"
"","","","","","html-keyboard-response","50","167810","0.0-10.0-1.15","5ec403bb09d0e02a060bd5e6","640759fa512f630a2bdc333d","6407b70c0d2d64613f0a7c1c","null","","null","","","","","","","","","","","","","","","","","","","fixation","",""
"","","","","","many-guess-6","51","171117","0.0-10.0-0.16-0.16","5ec403bb09d0e02a060bd5e6","640759fa512f630a2bdc333d","6407b70c0d2d64613f0a7c1c","[1735]","","","[26,8,17,6,34,0,27,24,30,29,16,32,7,35,11,14,19,15,10,1,31,21,4,9,13,5,28,23,33,2,18,22,20,12,3,25]","[311,12,202,172,182,281,341,261,142,72,291,22,242,82,102,222,42,232,62,192,301,321,252,212,32,162,122,351,52,2,331,132,271,92,112,152]","311","232","282.3736758741112","[282.3736758741112]","[50.3736758741112]","[51]","[210,210,210,120,30,210,120,210,30]","0","36","0","149.35999999998603","26.54000000000815","16","[[[""img/mask32.png""],[""img/mask37.png""],[""img/mask73.png""],[""img/mask11.png""],[""img/mask77.png""],[""img/mask65.png""],[""img/mask73.png""],[""img/mask32.png""],[""img/mask49.png""],[""img/mask2.png""],[""img/mask9.png""],[""img/mask74.png""],[""img/mask93.png""],[""img/mask80.png""],[""img/mask95.png""],[""img/mask48.png""],[""img/mask41.png""],[""img/mask22.png""],[""img/mask27.png""],[""img/mask83.png""],[""img/mask16.png""],[""img/mask65.png""],[""img/mask54.png""],[""img/mask46.png""],[""img/mask22.png""],[""img/mask74.png""],[""img/mask13.png""],[""img/mask11.png""],[""img/mask37.png""],[""img/mask9.png""],[""img/mask50.png""],[""img/mask67.png""],[""img/mask80.png""],[""img/mask44.png""],[""img/mask34.png""],[""img/mask70.png""]]]","","[26,8,17,6,34,0,27,24,30,29,16,32,7,35,11,14,19,15,10,1,31,21,4,9,13,5,28,23,33,2,18,22,20,12,3,25]","main","232","many-guess-6"
"","","","","","html-keyboard-response","52","171633","0.0-10.0-1.16","5ec403bb09d0e02a060bd5e6","640759fa512f630a2bdc333d","6407b70c0d2d64613f0a7c1c","null","","null","","","","","","","","","","","","","","","","","","","fixation","",""
"","","","","","many-guess-6","53","174525","0.0-10.0-0.17-0.17","5ec403bb09d0e02a060bd5e6","640759fa512f630a2bdc333d","6407b70c0d2d64613f0a7c1c","[1389]","","","[10,27,17,12,33,5,24,1,29,22,30,23,7,8,4,19,0,2,3,35,21,9,15,20,26,6,28,25,11,16,13,18,14,31,32,34]","[338,328,318,278,49,238,9,59,149,129,139,159,248,199,298,79,189,179,89,109,229,288,258,308,29,99,19,209,348,69,169,358,119,219,268,39]","338","106","5.879539416731114","[5.879539416731114]","[259.8795394167311]","[259]","[30,120,120,210,210,30,120,120,210]","0","36","0","148.2600000000093","22.44000000000233","16","[[[""img/mask31.png""],[""img/mask46.png""],[""img/mask66.png""],[""img/mask21.png""],[""img/mask70.png""],[""img/mask49.png""],[""img/mask37.png""],[""img/mask3.png""],[""img/mask96.png""],[""img/mask30.png""],[""img/mask37.png""],[""img/mask58.png""],[""img/mask94.png""],[""img/mask96.png""],[""img/mask13.png""],[""img/mask97.png""],[""img/mask22.png""],[""img/mask46.png""],[""img/mask42.png""],[""img/mask24.png""],[""img/mask56.png""],[""img/mask14.png""],[""img/mask64.png""],[""img/mask50.png""],[""img/mask94.png""],[""img/mask53.png""],[""img/mask27.png""],[""img/mask38.png""],[""img/mask84.png""],[""img/mask26.png""],[""img/mask42.png""],[""img/mask10.png""],[""img/mask71.png""],[""img/mask2.png""],[""img/mask17.png""],[""img/mask28.png""]]]","","[10,27,17,12,33,5,24,1,29,22,30,23,7,8,4,19,0,2,3,35,21,9,15,20,26,6,28,25,11,16,13,18,14,31,32,34]","main","106","many-guess-6"
"","","","","","html-keyboard-response","54","175039","0.0-10.0-1.17","5ec403bb09d0e02a060bd5e6","640759fa512f630a2bdc333d","6407b70c0d2d64613f0a7c1c","null","","null","","","","","","","","","","","","","","","","","","","fixation","",""
"","","","","","color-precision2","55","179061","0.0-10.0-0.18-0.18","5ec403bb09d0e02a060bd5e6","640759fa512f630a2bdc333d","6407b70c0d2d64613f0a7c1c","[904]","","","[31]","[84]","84","273","354.06263968648483","[354.06263968648483]","[81.06263968648483]","[80]","0","0","1","0","147.79999999998836","1003.9800000000105","1000","[[[""img/mask4.png""]]]","","","main","273","color-precision2"
"","","","","","html-keyboard-response","56","179573","0.0-10.0-1.18","5ec403bb09d0e02a060bd5e6","640759fa512f630a2bdc333d","6407b70c0d2d64613f0a7c1c","null","","null","","","","","","","","","","","","","","","","","","","fixation","",""
"","","","","","color-precision2","57","183116","0.0-10.0-0.19-0.19","5ec403bb09d0e02a060bd5e6","640759fa512f630a2bdc333d","6407b70c0d2d64613f0a7c1c","[1172]","","","[2]","[345]","345","22","15.100127998728869","[15.100127998728869]","[353.10012799872885]","[352]","0","0","1","0","148.64000000001397","996.8399999999965","1000","[[[""img/mask68.png""]]]","","","main","22","color-precision2"
"","","","","","html-keyboard-response","58","207796","0.0-10.0-1.19","5ec403bb09d0e02a060bd5e6","640759fa512f630a2bdc333d","6407b70c0d2d64613f0a7c1c","24679","Wow! You've completed 20 out of 180 trials! </p> <p>  </p><p> Take a quick break, then press any key when you're ready to continue."," ","","","","","","","","","","","","","","","","","","","fixation","",""
"","","","","","many-guess-6","59","211581","0.0-10.0-0.20-0.20","5ec403bb09d0e02a060bd5e6","640759fa512f630a2bdc333d","6407b70c0d2d64613f0a7c1c","[1791]","","","[17,21,15,2,9,13,1,20,27,35,18,0,19,26,32,31,29,23,24,16,4,30,8,33,12,14,25,3,28,11,7,5,34,22,6,10]","[101,51,151,281,21,251,320,71,61,211,291,311,81,241,301,201,41,91,191,330,221,31,261,141,340,350,11,1,231,181,111,171,131,161,271,121]","101","245","112.12083469267533","[112.12083469267533]","[227.12083469267532]","[225]","[300,120,120,300,120,120,30,210,210]","0","36","0","149.35999999998603","16.54000000000815","16","[[[""img/mask9.png""],[""img/mask87.png""],[""img/mask68.png""],[""img/mask83.png""],[""img/mask99.png""],[""img/mask25.png""],[""img/mask19.png""],[""img/mask66.png""],[""img/mask31.png""],[""img/mask80.png""],[""img/mask91.png""],[""img/mask73.png""],[""img/mask41.png""],[""img/mask18.png""],[""img/mask63.png""],[""img/mask73.png""],[""img/mask2.png""],[""img/mask27.png""],[""img/mask28.png""],[""img/mask36.png""],[""img/mask69.png""],[""img/mask3.png""],[""img/mask18.png""],[""img/mask13.png""],[""img/mask27.png""],[""img/mask24.png""],[""img/mask67.png""],[""img/mask34.png""],[""img/mask9.png""],[""img/mask56.png""],[""img/mask90.png""],[""img/mask70.png""],[""img/mask42.png""],[""img/mask1.png""],[""img/mask73.png""],[""img/mask54.png""]]]","","[17,21,15,2,9,13,1,20,27,35,18,0,19,26,32,31,29,23,24,16,4,30,8,33,12,14,25,3,28,11,7,5,34,22,6,10]","main","245","many-guess-6"
"","","","","","html-keyboard-response","60","212085","0.0-10.0-1.20","5ec403bb09d0e02a060bd5e6","640759fa512f630a2bdc333d","6407b70c0d2d64613f0a7c1c","null","","null","","","","","","","","","","","","","","","","","","","fixation","",""
"","","","","","many-guess-6","61","215973","0.0-10.0-0.21-0.21","5ec403bb09d0e02a060bd5e6","640759fa512f630a2bdc333d","6407b70c0d2d64613f0a7c1c","[2014]","","","[34,22,25,8,10,32,29,24,0,27,26,5,7,3,2,4,30,18,9,1,12,19,35,33,23,15,11,31,28,14,13,20,21,6,16,17]","[9,338,39,219,269,159,358,279,199,348,299,29,189,89,129,308,49,209,328,119,249,259,229,79,139,109,149,289,59,169,99,179,19,69,318,239]","9","342","163.92654009215832","[163.92654009215832]","[181.92654009215832]","[181]","[300,30,300,120,300,120,300,300,210]","0","36","0","148.82000000000698","22","16","[[[""img/mask90.png""],[""img/mask30.png""],[""img/mask79.png""],[""img/mask37.png""],[""img/mask8.png""],[""img/mask58.png""],[""img/mask74.png""],[""img/mask13.png""],[""img/mask95.png""],[""img/mask6.png""],[""img/mask2.png""],[""img/mask67.png""],[""img/mask97.png""],[""img/mask44.png""],[""img/mask33.png""],[""img/mask4.png""],[""img/mask92.png""],[""img/mask68.png""],[""img/mask93.png""],[""img/mask3.png""],[""img/mask12.png""],[""img/mask95.png""],[""img/mask21.png""],[""img/mask35.png""],[""img/mask16.png""],[""img/mask70.png""],[""img/mask64.png""],[""img/mask20.png""],[""img/mask99.png""],[""img/mask65.png""],[""img/mask51.png""],[""img/mask41.png""],[""img/mask27.png""],[""img/mask72.png""],[""img/mask71.png""],[""img/mask88.png""]]]","","[34,22,25,8,10,32,29,24,0,27,26,5,7,3,2,4,30,18,9,1,12,19,35,33,23,15,11,31,28,14,13,20,21,6,16,17]","main","342","many-guess-6"
"","","","","","html-keyboard-response","62","216482","0.0-10.0-1.21","5ec403bb09d0e02a060bd5e6","640759fa512f630a2bdc333d","6407b70c0d2d64613f0a7c1c","null","","null","","","","","","","","","","","","","","","","","","","fixation","",""
"","","","","","many-guess-6","63","220149","0.0-10.0-0.22-0.22","5ec403bb09d0e02a060bd5e6","640759fa512f630a2bdc333d","6407b70c0d2d64613f0a7c1c","[2203]","","","[21,27,17,26,29,31,20,18,19,8,7,13,23,2,6,34,24,11,10,14,32,12,4,9,28,25,30,1,5,16,0,3,15,35,33,22]","[293,163,73,283,223,83,63,123,203,243,183,253,33,323,342,303,153,53,233,173,263,213,93,23,143,13,103,43,352,3,193,133,313,273,113,332]","293","175","238.19301523174914","[238.19301523174914]","[63.19301523174914]","[64]","[210,300,300,120,30,210,120,300,120]","0","36","0","148.6600000000035","17.839999999996508","16","[[[""img/mask16.png""],[""img/mask78.png""],[""img/mask79.png""],[""img/mask60.png""],[""img/mask68.png""],[""img/mask19.png""],[""img/mask32.png""],[""img/mask99.png""],[""img/mask7.png""],[""img/mask80.png""],[""img/mask60.png""],[""img/mask21.png""],[""img/mask7.png""],[""img/mask13.png""],[""img/mask29.png""],[""img/mask22.png""],[""img/mask30.png""],[""img/mask27.png""],[""img/mask38.png""],[""img/mask78.png""],[""img/mask40.png""],[""img/mask9.png""],[""img/mask2.png""],[""img/mask80.png""],[""img/mask72.png""],[""img/mask18.png""],[""img/mask26.png""],[""img/mask89.png""],[""img/mask74.png""],[""img/mask86.png""],[""img/mask80.png""],[""img/mask95.png""],[""img/mask92.png""],[""img/mask43.png""],[""img/mask31.png""],[""img/mask29.png""]]]","","[21,27,17,26,29,31,20,18,19,8,7,13,23,2,6,34,24,11,10,14,32,12,4,9,28,25,30,1,5,16,0,3,15,35,33,22]","main","175","many-guess-6"
"","","","","","html-keyboard-response","64","220658","0.0-10.0-1.22","5ec403bb09d0e02a060bd5e6","640759fa512f630a2bdc333d","6407b70c0d2d64613f0a7c1c","null","","null","","","","","","","","","","","","","","","","","","","fixation","",""
"","","","","","color-precision2","65","223837","0.0-10.0-0.23-0.23","5ec403bb09d0e02a060bd5e6","640759fa512f630a2bdc333d","6407b70c0d2d64613f0a7c1c","[752]","","","[1]","[128]","128","244","17.39800524838137","[17.39800524838137]","[133.39800524838137]","[132]","0","0","1","0","147.77999999999884","1006.9599999999919","1000","[[[""img/mask65.png""]]]","","","main","244","color-precision2"
"","","","","","html-keyboard-response","66","224340","0.0-10.0-1.23","5ec403bb09d0e02a060bd5e6","640759fa512f630a2bdc333d","6407b70c0d2d64613f0a7c1c","null","","null","","","","","","","","","","","","","","","","","","","fixation","",""
"","","","","","many-guess-6","67","227525","0.0-10.0-0.24-0.24","5ec403bb09d0e02a060bd5e6","640759fa512f630a2bdc333d","6407b70c0d2d64613f0a7c1c","[1787]","","","[4,2,1,17,5,29,25,19,24,13,3,16,9,6,28,7,10,33,35,18,26,8,14,32,23,21,15,31,0,20,22,34,27,30,11,12]","[333,44,233,313,223,94,293,243,263,134,164,34,253,124,54,14,213,174,353,283,273,114,323,144,104,303,154,203,193,74,24,343,84,184,64,4]","333","216","187.0803747003399","[187.0803747003399]","[331.0803747003399]","[330]","[300,300,210,30,300,120,300,210,30]","0","36","0","149.5799999999872","14.760000000009313","16","[[[""img/mask93.png""],[""img/mask25.png""],[""img/mask85.png""],[""img/mask18.png""],[""img/mask2.png""],[""img/mask30.png""],[""img/mask93.png""],[""img/mask74.png""],[""img/mask27.png""],[""img/mask36.png""],[""img/mask12.png""],[""img/mask86.png""],[""img/mask44.png""],[""img/mask48.png""],[""img/mask32.png""],[""img/mask94.png""],[""img/mask37.png""],[""img/mask3.png""],[""img/mask51.png""],[""img/mask64.png""],[""img/mask23.png""],[""img/mask16.png""],[""img/mask25.png""],[""img/mask80.png""],[""img/mask44.png""],[""img/mask6.png""],[""img/mask15.png""],[""img/mask82.png""],[""img/mask62.png""],[""img/mask35.png""],[""img/mask55.png""],[""img/mask92.png""],[""img/mask82.png""],[""img/mask81.png""],[""img/mask62.png""],[""img/mask99.png""]]]","","[4,2,1,17,5,29,25,19,24,13,3,16,9,6,28,7,10,33,35,18,26,8,14,32,23,21,15,31,0,20,22,34,27,30,11,12]","main","216","many-guess-6"
"","","","","","html-keyboard-response","68","228030","0.0-10.0-1.24","5ec403bb09d0e02a060bd5e6","640759fa512f630a2bdc333d","6407b70c0d2d64613f0a7c1c","null","","null","","","","","","","","","","","","","","","","","","","fixation","",""
"","","","","","many-guess-6","69","231437","0.0-10.0-0.25-0.25","5ec403bb09d0e02a060bd5e6","640759fa512f630a2bdc333d","6407b70c0d2d64613f0a7c1c","[2162]","","","[21,31,7,27,33,34,18,3,19,4,10,30,23,5,29,14,1,13,0,26,32,35,20,17,6,24,28,25,8,2,11,9,22,16,15,12]","[200,230,170,31,151,21,240,101,220,270,41,310,320,340,350,141,180,260,300,11,121,71,330,190,81,160,91,250,61,210,1,51,290,111,280,131]","200","162","111.70411656066139","[111.70411656066139]","[309.7041165606614]","[308]","[120,300,210,120,300,120,210,300,30]","0","36","0","148.5","24.679999999993015","16","[[[""img/mask56.png""],[""img/mask80.png""],[""img/mask31.png""],[""img/mask7.png""],[""img/mask4.png""],[""img/mask88.png""],[""img/mask29.png""],[""img/mask96.png""],[""img/mask73.png""],[""img/mask82.png""],[""img/mask15.png""],[""img/mask25.png""],[""img/mask75.png""],[""img/mask52.png""],[""img/mask2.png""],[""img/mask70.png""],[""img/mask99.png""],[""img/mask76.png""],[""img/mask91.png""],[""img/mask37.png""],[""img/mask55.png""],[""img/mask41.png""],[""img/mask42.png""],[""img/mask96.png""],[""img/mask62.png""],[""img/mask89.png""],[""img/mask78.png""],[""img/mask99.png""],[""img/mask26.png""],[""img/mask76.png""],[""img/mask56.png""],[""img/mask18.png""],[""img/mask48.png""],[""img/mask25.png""],[""img/mask92.png""],[""img/mask48.png""]]]","","[21,31,7,27,33,34,18,3,19,4,10,30,23,5,29,14,1,13,0,26,32,35,20,17,6,24,28,25,8,2,11,9,22,16,15,12]","main","162","many-guess-6"
"","","","","","html-keyboard-response","70","231939","0.0-10.0-1.25","5ec403bb09d0e02a060bd5e6","640759fa512f630a2bdc333d","6407b70c0d2d64613f0a7c1c","null","","null","","","","","","","","","","","","","","","","","","","fixation","",""
"","","","","","color-precision2","71","235421","0.0-10.0-0.26-0.26","5ec403bb09d0e02a060bd5e6","640759fa512f630a2bdc333d","6407b70c0d2d64613f0a7c1c","[1041]","","","[10]","[341]","341","278","274.650281097354","[274.650281097354]","[356.650281097354]","[357]","0","0","1","0","149.10000000000582","1008.2999999999884","1000","[[[""img/mask92.png""]]]","","","main","278","color-precision2"
"","","","","","html-keyboard-response","72","235928","0.0-10.0-1.26","5ec403bb09d0e02a060bd5e6","640759fa512f630a2bdc333d","6407b70c0d2d64613f0a7c1c","null","","null","","","","","","","","","","","","","","","","","","","fixation","",""
"","","","","","color-precision2","73","239261","0.0-10.0-0.27-0.27","5ec403bb09d0e02a060bd5e6","640759fa512f630a2bdc333d","6407b70c0d2d64613f0a7c1c","[860]","","","[23]","[145]","145","62","214.85175484131685","[214.85175484131685]","[152.85175484131685]","[153]","0","0","1","0","148.64000000001397","1006.820000000007","1000","[[[""img/mask52.png""]]]","","","main","62","color-precision2"
"","","","","","html-keyboard-response","74","239762","0.0-10.0-1.27","5ec403bb09d0e02a060bd5e6","640759fa512f630a2bdc333d","6407b70c0d2d64613f0a7c1c","null","","null","","","","","","","","","","","","","","","","","","","fixation","",""
"","","","","","color-precision2","75","243053","0.0-10.0-0.28-0.28","5ec403bb09d0e02a060bd5e6","640759fa512f630a2bdc333d","6407b70c0d2d64613f0a7c1c","[748]","","","[15]","[108]","108","302","33.30360122547697","[33.30360122547697]","[91.303601225477]","[90]","0","0","1","0","149.7399999999907","995.9400000000023","1000","[[[""img/mask51.png""]]]","","","main","302","color-precision2"
"","","","","","html-keyboard-response","76","243562","0.0-10.0-1.28","5ec403bb09d0e02a060bd5e6","640759fa512f630a2bdc333d","6407b70c0d2d64613f0a7c1c","null","","null","","","","","","","","","","","","","","","","","","","fixation","",""
"","","","","","color-precision2","77","246636","0.0-10.0-0.29-0.29","5ec403bb09d0e02a060bd5e6","640759fa512f630a2bdc333d","6407b70c0d2d64613f0a7c1c","[895]","","","[2]","[307]","307","319","268.38421242034866","[268.38421242034866]","[309.38421242034866]","[310]","0","0","1","0","148.38000000000466","1000.5599999999977","1000","[[[""img/mask17.png""]]]","","","main","319","color-precision2"
"","","","","","html-keyboard-response","78","247139","0.0-10.0-1.29","5ec403bb09d0e02a060bd5e6","640759fa512f630a2bdc333d","6407b70c0d2d64613f0a7c1c","null","","null","","","","","","","","","","","","","","","","","","","fixation","",""
"","","","","","color-precision2","79","250661","0.0-10.0-0.30-0.30","5ec403bb09d0e02a060bd5e6","640759fa512f630a2bdc333d","6407b70c0d2d64613f0a7c1c","[1265]","","","[34]","[137]","137","110","262.85444204055057","[262.85444204055057]","[152.85444204055057]","[153]","0","0","1","0","148.14000000001397","1000.320000000007","1000","[[[""img/mask79.png""]]]","","","main","110","color-precision2"
"","","","","","html-keyboard-response","80","251169","0.0-10.0-1.30","5ec403bb09d0e02a060bd5e6","640759fa512f630a2bdc333d","6407b70c0d2d64613f0a7c1c","null","","null","","","","","","","","","","","","","","","","","","","fixation","",""
"","","","","","many-guess-6","81","255693","0.0-10.0-0.31-0.31","5ec403bb09d0e02a060bd5e6","640759fa512f630a2bdc333d","6407b70c0d2d64613f0a7c1c","[2361]","","","[32,29,33,6,25,8,20,16,11,13,12,1,0,18,9,3,15,31,10,7,21,23,17,5,27,24,26,35,22,30,28,14,34,19,2,4]","[103,93,203,113,43,3,223,352,53,133,143,63,263,13,243,342,163,213,283,153,332,123,312,302,33,253,273,233,193,173,83,322,183,73,292,23]","103","130","184.8132624530918","[184.8132624530918]","[54.813262453091795]","[54]","[210,300,120,210,300,210,210,300,30]","0","36","0","148.11999999999534","24.320000000006985","16","[[[""img/mask69.png""],[""img/mask4.png""],[""img/mask84.png""],[""img/mask27.png""],[""img/mask87.png""],[""img/mask59.png""],[""img/mask17.png""],[""img/mask94.png""],[""img/mask12.png""],[""img/mask37.png""],[""img/mask6.png""],[""img/mask21.png""],[""img/mask93.png""],[""img/mask18.png""],[""img/mask1.png""],[""img/mask44.png""],[""img/mask57.png""],[""img/mask47.png""],[""img/mask36.png""],[""img/mask15.png""],[""img/mask48.png""],[""img/mask84.png""],[""img/mask4.png""],[""img/mask34.png""],[""img/mask7.png""],[""img/mask7.png""],[""img/mask38.png""],[""img/mask78.png""],[""img/mask55.png""],[""img/mask45.png""],[""img/mask80.png""],[""img/mask62.png""],[""img/mask76.png""],[""img/mask60.png""],[""img/mask3.png""],[""img/mask39.png""]]]","","[32,29,33,6,25,8,20,16,11,13,12,1,0,18,9,3,15,31,10,7,21,23,17,5,27,24,26,35,22,30,28,14,34,19,2,4]","main","130","many-guess-6"
"","","","","","html-keyboard-response","82","256202","0.0-10.0-1.31","5ec403bb09d0e02a060bd5e6","640759fa512f630a2bdc333d","6407b70c0d2d64613f0a7c1c","null","","null","","","","","","","","","","","","","","","","","","","fixation","",""
"","","","","","color-precision2","83","259502","0.0-10.0-0.32-0.32","5ec403bb09d0e02a060bd5e6","640759fa512f630a2bdc333d","6407b70c0d2d64613f0a7c1c","[1014]","","","[21]","[184]","184","352","181.0921260466792","[181.0921260466792]","[189.0921260466792]","[188]","0","0","1","0","150","996.179999999993","1000","[[[""img/mask18.png""]]]","","","main","352","color-precision2"
"","","","","","html-keyboard-response","84","260004","0.0-10.0-1.32","5ec403bb09d0e02a060bd5e6","640759fa512f630a2bdc333d","6407b70c0d2d64613f0a7c1c","null","","null","","","","","","","","","","","","","","","","","","","fixation","",""
"","","","","","color-precision2","85","263605","0.0-10.0-0.33-0.33","5ec403bb09d0e02a060bd5e6","640759fa512f630a2bdc333d","6407b70c0d2d64613f0a7c1c","[1112]","","","[31]","[186]","186","75","282.13318707432745","[282.13318707432745]","[207.13318707432745]","[207]","0","0","1","0","149.47999999998137","1007.6599999999744","1000","[[[""img/mask14.png""]]]","","","main","75","color-precision2"
"","","","","","html-keyboard-response","86","264114","0.0-10.0-1.33","5ec403bb09d0e02a060bd5e6","640759fa512f630a2bdc333d","6407b70c0d2d64613f0a7c1c","null","","null","","","","","","","","","","","","","","","","","","","fixation","",""
"","","","","","many-guess-6","87","268453","0.0-10.0-0.34-0.34","5ec403bb09d0e02a060bd5e6","640759fa512f630a2bdc333d","6407b70c0d2d64613f0a7c1c","[2842]","","","[29,34,35,21,30,28,1,8,19,9,22,4,16,17,3,18,12,33,27,24,26,20,15,6,32,13,14,0,23,25,2,11,10,31,5,7]","[261,22,141,111,271,321,72,201,231,82,351,121,101,181,311,42,62,151,92,12,211,331,251,291,52,281,241,341,301,2,32,161,171,131,221,191]","261","38","75.57435882485703","[75.57435882485703]","[37.57435882485703]","[36]","[120,120,300,300,120,210,300,30,300]","0","36","0","149.44000000000233","15.619999999995343","16","[[[""img/mask18.png""],[""img/mask16.png""],[""img/mask8.png""],[""img/mask94.png""],[""img/mask62.png""],[""img/mask80.png""],[""img/mask2.png""],[""img/mask44.png""],[""img/mask79.png""],[""img/mask11.png""],[""img/mask36.png""],[""img/mask26.png""],[""img/mask64.png""],[""img/mask91.png""],[""img/mask77.png""],[""img/mask1.png""],[""img/mask77.png""],[""img/mask70.png""],[""img/mask88.png""],[""img/mask37.png""],[""img/mask42.png""],[""img/mask86.png""],[""img/mask34.png""],[""img/mask78.png""],[""img/mask10.png""],[""img/mask94.png""],[""img/mask53.png""],[""img/mask77.png""],[""img/mask9.png""],[""img/mask17.png""],[""img/mask58.png""],[""img/mask25.png""],[""img/mask43.png""],[""img/mask34.png""],[""img/mask67.png""],[""img/mask25.png""]]]","","[29,34,35,21,30,28,1,8,19,9,22,4,16,17,3,18,12,33,27,24,26,20,15,6,32,13,14,0,23,25,2,11,10,31,5,7]","main","38","many-guess-6"
"","","","","","html-keyboard-response","88","268957","0.0-10.0-1.34","5ec403bb09d0e02a060bd5e6","640759fa512f630a2bdc333d","6407b70c0d2d64613f0a7c1c","null","","null","","","","","","","","","","","","","","","","","","","fixation","",""
"","","","","","many-guess-6","89","272629","0.0-10.0-0.35-0.35","5ec403bb09d0e02a060bd5e6","640759fa512f630a2bdc333d","6407b70c0d2d64613f0a7c1c","[2180]","","","[3,31,24,16,22,0,32,13,23,34,18,10,19,15,8,7,14,1,33,2,28,12,29,26,6,5,35,25,9,4,20,21,11,30,17,27]","[214,334,244,154,5,134,224,184,194,44,94,164,114,294,104,144,74,34,264,84,174,64,204,234,15,324,124,344,254,274,284,54,314,304,354,24]","214","197","336.58220141246204","[336.58220141246204]","[139.58220141246204]","[139]","[120,120,30,30,120,120,210,210,30]","0","36","0","148.71999999997206","10.919999999983702","16","[[[""img/mask89.png""],[""img/mask24.png""],[""img/mask42.png""],[""img/mask13.png""],[""img/mask10.png""],[""img/mask84.png""],[""img/mask45.png""],[""img/mask38.png""],[""img/mask100.png""],[""img/mask30.png""],[""img/mask88.png""],[""img/mask56.png""],[""img/mask47.png""],[""img/mask68.png""],[""img/mask75.png""],[""img/mask74.png""],[""img/mask19.png""],[""img/mask54.png""],[""img/mask62.png""],[""img/mask91.png""],[""img/mask1.png""],[""img/mask99.png""],[""img/mask46.png""],[""img/mask38.png""],[""img/mask68.png""],[""img/mask78.png""],[""img/mask8.png""],[""img/mask36.png""],[""img/mask84.png""],[""img/mask80.png""],[""img/mask89.png""],[""img/mask87.png""],[""img/mask90.png""],[""img/mask98.png""],[""img/mask48.png""],[""img/mask42.png""]]]","","[3,31,24,16,22,0,32,13,23,34,18,10,19,15,8,7,14,1,33,2,28,12,29,26,6,5,35,25,9,4,20,21,11,30,17,27]","main","197","many-guess-6"
"","","","","","html-keyboard-response","90","273145","0.0-10.0-1.35","5ec403bb09d0e02a060bd5e6","640759fa512f630a2bdc333d","6407b70c0d2d64613f0a7c1c","null","","null","","","","","","","","","","","","","","","","","","","fixation","",""
"","","","","","many-guess-6","91","276309","0.0-10.0-0.36-0.36","5ec403bb09d0e02a060bd5e6","640759fa512f630a2bdc333d","6407b70c0d2d64613f0a7c1c","[1589]","","","[4,1,24,32,7,22,33,0,25,9,17,11,21,30,29,20,27,16,18,34,31,15,26,10,2,13,19,14,23,8,28,3,5,35,12,6]","[98,38,58,178,88,9,48,168,328,308,188,358,248,218,268,128,318,228,258,18,68,78,288,338,138,298,108,198,148,28,158,278,118,238,208,348]","98","290","193.9813935022832","[193.9813935022832]","[263.9813935022832]","[263]","[120,30,120,210,30,30,120,210,30]","0","36","0","149.4199999999837","12.619999999995343","16","[[[""img/mask57.png""],[""img/mask53.png""],[""img/mask79.png""],[""img/mask49.png""],[""img/mask79.png""],[""img/mask30.png""],[""img/mask74.png""],[""img/mask65.png""],[""img/mask14.png""],[""img/mask36.png""],[""img/mask25.png""],[""img/mask76.png""],[""img/mask57.png""],[""img/mask46.png""],[""img/mask73.png""],[""img/mask12.png""],[""img/mask33.png""],[""img/mask13.png""],[""img/mask7.png""],[""img/mask15.png""],[""img/mask63.png""],[""img/mask52.png""],[""img/mask89.png""],[""img/mask65.png""],[""img/mask13.png""],[""img/mask96.png""],[""img/mask1.png""],[""img/mask3.png""],[""img/mask51.png""],[""img/mask37.png""],[""img/mask59.png""],[""img/mask15.png""],[""img/mask18.png""],[""img/mask3.png""],[""img/mask30.png""],[""img/mask90.png""]]]","","[4,1,24,32,7,22,33,0,25,9,17,11,21,30,29,20,27,16,18,34,31,15,26,10,2,13,19,14,23,8,28,3,5,35,12,6]","main","290","many-guess-6"
"","","","","","html-keyboard-response","92","276814","0.0-10.0-1.36","5ec403bb09d0e02a060bd5e6","640759fa512f630a2bdc333d","6407b70c0d2d64613f0a7c1c","null","","null","","","","","","","","","","","","","","","","","","","fixation","",""
"","","","","","many-guess-6","93","280093","0.0-10.0-0.37-0.37","5ec403bb09d0e02a060bd5e6","640759fa512f630a2bdc333d","6407b70c0d2d64613f0a7c1c","[1987]","","","[1,25,7,20,16,0,29,14,34,12,5,35,17,15,32,11,18,27,9,31,3,19,8,2,26,22,33,6,28,13,24,21,4,30,10,23]","[257,357,327,138,228,248,98,28,297,267,347,38,238,188,287,148,88,208,198,158,277,118,168,337,218,307,18,178,78,317,68,108,58,128,48,8]","257","215","305.20382232282503","[305.20382232282503]","[90.20382232282503]","[90]","[300,30,300,30,30,210,120,300,300]","0","36","0","148.2600000000093","20.460000000020955","16","[[[""img/mask51.png""],[""img/mask80.png""],[""img/mask1.png""],[""img/mask96.png""],[""img/mask29.png""],[""img/mask63.png""],[""img/mask52.png""],[""img/mask19.png""],[""img/mask19.png""],[""img/mask52.png""],[""img/mask45.png""],[""img/mask71.png""],[""img/mask79.png""],[""img/mask51.png""],[""img/mask9.png""],[""img/mask12.png""],[""img/mask94.png""],[""img/mask67.png""],[""img/mask73.png""],[""img/mask22.png""],[""img/mask41.png""],[""img/mask67.png""],[""img/mask84.png""],[""img/mask41.png""],[""img/mask11.png""],[""img/mask13.png""],[""img/mask38.png""],[""img/mask72.png""],[""img/mask39.png""],[""img/mask61.png""],[""img/mask40.png""],[""img/mask53.png""],[""img/mask5.png""],[""img/mask47.png""],[""img/mask76.png""],[""img/mask4.png""]]]","","[1,25,7,20,16,0,29,14,34,12,5,35,17,15,32,11,18,27,9,31,3,19,8,2,26,22,33,6,28,13,24,21,4,30,10,23]","main","215","many-guess-6"
"","","","","","html-keyboard-response","94","280594","0.0-10.0-1.37","5ec403bb09d0e02a060bd5e6","640759fa512f630a2bdc333d","6407b70c0d2d64613f0a7c1c","null","","null","","","","","","","","","","","","","","","","","","","fixation","",""
"","","","","","color-precision2","95","283500","0.0-10.0-0.38-0.38","5ec403bb09d0e02a060bd5e6","640759fa512f630a2bdc333d","6407b70c0d2d64613f0a7c1c","[523]","","","[7]","[297]","297","0","293.1701509290136","[293.1701509290136]","[293.1701509290136]","[293]","0","0","1","0","147.94000000000233","999.1199999999953","1000","[[[""img/mask71.png""]]]","","","main","0","color-precision2"
"","","","","","html-keyboard-response","96","284002","0.0-10.0-1.38","5ec403bb09d0e02a060bd5e6","640759fa512f630a2bdc333d","6407b70c0d2d64613f0a7c1c","null","","null","","","","","","","","","","","","","","","","","","","fixation","",""
"","","","","","many-guess-6","97","286933","0.0-10.0-0.39-0.39","5ec403bb09d0e02a060bd5e6","640759fa512f630a2bdc333d","6407b70c0d2d64613f0a7c1c","[1669]","","","[12,16,14,2,28,9,5,8,4,17,7,0,20,25,31,23,1,33,35,29,26,15,34,24,3,11,32,21,30,22,6,18,10,19,27,13]","[34,173,64,163,14,94,243,54,223,193,84,273,114,253,263,74,143,183,203,44,323,24,233,123,353,303,283,104,213,343,153,133,313,333,293,4]","34","113","196.25721328059504","[196.25721328059504]","[83.25721328059504]","[83]","[210,300,30,30,120,30,30,30,300]","0","36","0","147.64000000001397","11.059999999997672","16","[[[""img/mask36.png""],[""img/mask90.png""],[""img/mask1.png""],[""img/mask93.png""],[""img/mask45.png""],[""img/mask88.png""],[""img/mask33.png""],[""img/mask28.png""],[""img/mask30.png""],[""img/mask89.png""],[""img/mask74.png""],[""img/mask51.png""],[""img/mask42.png""],[""img/mask78.png""],[""img/mask78.png""],[""img/mask48.png""],[""img/mask24.png""],[""img/mask62.png""],[""img/mask79.png""],[""img/mask17.png""],[""img/mask55.png""],[""img/mask75.png""],[""img/mask19.png""],[""img/mask27.png""],[""img/mask45.png""],[""img/mask15.png""],[""img/mask88.png""],[""img/mask98.png""],[""img/mask71.png""],[""img/mask31.png""],[""img/mask11.png""],[""img/mask11.png""],[""img/mask51.png""],[""img/mask31.png""],[""img/mask31.png""],[""img/mask17.png""]]]","","[12,16,14,2,28,9,5,8,4,17,7,0,20,25,31,23,1,33,35,29,26,15,34,24,3,11,32,21,30,22,6,18,10,19,27,13]","main","113","many-guess-6"
"","","","","","html-keyboard-response","98","293340","0.0-10.0-1.39","5ec403bb09d0e02a060bd5e6","640759fa512f630a2bdc333d","6407b70c0d2d64613f0a7c1c","6407","Wow! You've completed 40 out of 180 trials! </p> <p>  </p><p> Take a quick break, then press any key when you're ready to continue.","enter","","","","","","","","","","","","","","","","","","","fixation","",""
"","","","","","color-precision2","99","297861","0.0-10.0-0.40-0.40","5ec403bb09d0e02a060bd5e6","640759fa512f630a2bdc333d","6407b70c0d2d64613f0a7c1c","[618]","","","[1]","[287]","287","177","109.01116092431113","[109.01116092431113]","[292.0111609243111]","[290]","0","0","1","0","147.4199999999837","993.5999999999767","1000","[[[""img/mask65.png""]]]","","","main","177","color-precision2"
"","","","","","html-keyboard-response","100","298365","0.0-10.0-1.40","5ec403bb09d0e02a060bd5e6","640759fa512f630a2bdc333d","6407b70c0d2d64613f0a7c1c","null","","null","","","","","","","","","","","","","","","","","","","fixation","",""
"","","","","","color-precision2","101","301293","0.0-10.0-0.41-0.41","5ec403bb09d0e02a060bd5e6","640759fa512f630a2bdc333d","6407b70c0d2d64613f0a7c1c","[613]","","","[11]","[135]","135","90","225.9954675136657","[225.9954675136657]","[135.9954675136657]","[136]","0","0","1","0","149.0800000000163","994.2800000000279","1000","[[[""img/mask80.png""]]]","","","main","90","color-precision2"
"","","","","","html-keyboard-response","102","301793","0.0-10.0-1.41","5ec403bb09d0e02a060bd5e6","640759fa512f630a2bdc333d","6407b70c0d2d64613f0a7c1c","null","","null","","","","","","","","","","","","","","","","","","","fixation","",""
"","","","","","many-guess-6","103","304773","0.0-10.0-0.42-0.42","5ec403bb09d0e02a060bd5e6","640759fa512f630a2bdc333d","6407b70c0d2d64613f0a7c1c","[1557]","","","[3,8,19,26,32,21,29,33,10,1,34,14,17,31,22,5,2,12,18,24,0,16,30,28,35,6,4,27,15,13,9,25,11,23,7,20]","[151,250,51,111,61,41,340,230,170,141,200,31,210,350,180,21,91,290,1,300,131,270,71,330,320,81,121,310,190,260,11,280,161,101,220,240]","151","191","332.45901143855","[332.45901143855]","[141.45901143855002]","[141]","[30,120,300,300,210,210,120,300,30]","0","36","0","149.53999999997905","16.71999999997206","16","[[[""img/mask96.png""],[""img/mask78.png""],[""img/mask89.png""],[""img/mask92.png""],[""img/mask23.png""],[""img/mask33.png""],[""img/mask83.png""],[""img/mask81.png""],[""img/mask36.png""],[""img/mask9.png""],[""img/mask77.png""],[""img/mask7.png""],[""img/mask83.png""],[""img/mask43.png""],[""img/mask3.png""],[""img/mask22.png""],[""img/mask68.png""],[""img/mask21.png""],[""img/mask38.png""],[""img/mask10.png""],[""img/mask11.png""],[""img/mask13.png""],[""img/mask50.png""],[""img/mask64.png""],[""img/mask54.png""],[""img/mask16.png""],[""img/mask37.png""],[""img/mask28.png""],[""img/mask83.png""],[""img/mask64.png""],[""img/mask45.png""],[""img/mask51.png""],[""img/mask31.png""],[""img/mask57.png""],[""img/mask27.png""],[""img/mask10.png""]]]","","[3,8,19,26,32,21,29,33,10,1,34,14,17,31,22,5,2,12,18,24,0,16,30,28,35,6,4,27,15,13,9,25,11,23,7,20]","main","191","many-guess-6"
"","","","","","html-keyboard-response","104","305281","0.0-10.0-1.42","5ec403bb09d0e02a060bd5e6","640759fa512f630a2bdc333d","6407b70c0d2d64613f0a7c1c","null","","null","","","","","","","","","","","","","","","","","","","fixation","",""
"","","","","","color-precision2","105","308525","0.0-10.0-0.43-0.43","5ec403bb09d0e02a060bd5e6","640759fa512f630a2bdc333d","6407b70c0d2d64613f0a7c1c","[721]","","","[29]","[353]","353","29","28.518357887559144","[28.518357887559144]","[359.51835788755915]","[358]","0","0","1","0","149.8400000000256","1002.0200000000186","1000","[[[""img/mask66.png""]]]","","","main","29","color-precision2"
"","","","","","html-keyboard-response","106","309030","0.0-10.0-1.43","5ec403bb09d0e02a060bd5e6","640759fa512f630a2bdc333d","6407b70c0d2d64613f0a7c1c","null","","null","","","","","","","","","","","","","","","","","","","fixation","",""
"","","","","","many-guess-6","107","311989","0.0-10.0-0.44-0.44","5ec403bb09d0e02a060bd5e6","640759fa512f630a2bdc333d","6407b70c0d2d64613f0a7c1c","[1517]","","","[30,7,2,15,16,23,8,33,4,0,11,12,27,18,32,6,14,1,24,19,3,34,5,17,13,28,25,22,9,21,20,29,10,35,26,31]","[20,149,90,110,219,229,199,80,70,179,129,10,309,339,359,279,169,30,209,329,269,189,100,50,159,319,239,299,40,349,60,139,289,120,249,259]","20","313","230.3225016187801","[230.3225016187801]","[277.3225016187801]","[278]","[210,300,210,300,300,120,300,120,300]","0","36","0","148.32000000000698","25.5","16","[[[""img/mask27.png""],[""img/mask39.png""],[""img/mask85.png""],[""img/mask10.png""],[""img/mask8.png""],[""img/mask75.png""],[""img/mask40.png""],[""img/mask66.png""],[""img/mask34.png""],[""img/mask2.png""],[""img/mask17.png""],[""img/mask45.png""],[""img/mask29.png""],[""img/mask7.png""],[""img/mask48.png""],[""img/mask36.png""],[""img/mask43.png""],[""img/mask74.png""],[""img/mask8.png""],[""img/mask30.png""],[""img/mask95.png""],[""img/mask4.png""],[""img/mask50.png""],[""img/mask81.png""],[""img/mask71.png""],[""img/mask50.png""],[""img/mask17.png""],[""img/mask78.png""],[""img/mask61.png""],[""img/mask36.png""],[""img/mask50.png""],[""img/mask15.png""],[""img/mask65.png""],[""img/mask100.png""],[""img/mask66.png""],[""img/mask85.png""]]]","","[30,7,2,15,16,23,8,33,4,0,11,12,27,18,32,6,14,1,24,19,3,34,5,17,13,28,25,22,9,21,20,29,10,35,26,31]","main","313","many-guess-6"
"","","","","","html-keyboard-response","108","312498","0.0-10.0-1.44","5ec403bb09d0e02a060bd5e6","640759fa512f630a2bdc333d","6407b70c0d2d64613f0a7c1c","null","","null","","","","","","","","","","","","","","","","","","","fixation","",""
"","","","","","color-precision2","109","315556","0.0-10.0-0.45-0.45","5ec403bb09d0e02a060bd5e6","640759fa512f630a2bdc333d","6407b70c0d2d64613f0a7c1c","[596]","","","[13]","[148]","148","128","284.77735370634133","[284.77735370634133]","[156.77735370634133]","[157]","0","0","1","0","147.90000000002328","995.0800000000163","1000","[[[""img/mask55.png""]]]","","","main","128","color-precision2"
"","","","","","html-keyboard-response","110","316059","0.0-10.0-1.45","5ec403bb09d0e02a060bd5e6","640759fa512f630a2bdc333d","6407b70c0d2d64613f0a7c1c","null","","null","","","","","","","","","","","","","","","","","","","fixation","",""
"","","","","","color-precision2","111","319566","0.0-10.0-0.46-0.46","5ec403bb09d0e02a060bd5e6","640759fa512f630a2bdc333d","6407b70c0d2d64613f0a7c1c","[1251]","","","[6]","[13]","13","253","258.38204740967217","[258.38204740967217]","[5.382047409672168]","[5]","0","0","1","0","150.05999999999767","996.2399999999907","1000","[[[""img/mask5.png""]]]","","","main","253","color-precision2"
"","","","","","html-keyboard-response","112","320073","0.0-10.0-1.46","5ec403bb09d0e02a060bd5e6","640759fa512f630a2bdc333d","6407b70c0d2d64613f0a7c1c","null","","null","","","","","","","","","","","","","","","","","","","fixation","",""
"","","","","","many-guess-6","113","323861","0.0-10.0-0.47-0.47","5ec403bb09d0e02a060bd5e6","640759fa512f630a2bdc333d","6407b70c0d2d64613f0a7c1c","[2144]","","","[16,18,15,30,22,29,0,20,25,27,24,8,12,23,11,21,35,10,5,19,3,26,6,33,14,34,32,2,4,1,28,31,9,17,13,7]","[197,157,147,257,107,207,187,277,27,87,267,57,346,137,356,287,217,7,17,117,296,326,47,336,247,127,316,237,227,167,177,97,77,37,67,306]","197","36","208.4705578191191","[208.4705578191191]","[172.4705578191191]","[172]","[210,300,210,30,120,30,300,30,30]","0","36","0","149.02000000001863","19.20000000001164","16","[[[""img/mask7.png""],[""img/mask63.png""],[""img/mask90.png""],[""img/mask52.png""],[""img/mask3.png""],[""img/mask30.png""],[""img/mask79.png""],[""img/mask2.png""],[""img/mask43.png""],[""img/mask84.png""],[""img/mask2.png""],[""img/mask20.png""],[""img/mask12.png""],[""img/mask44.png""],[""img/mask12.png""],[""img/mask90.png""],[""img/mask28.png""],[""img/mask74.png""],[""img/mask77.png""],[""img/mask71.png""],[""img/mask80.png""],[""img/mask78.png""],[""img/mask94.png""],[""img/mask8.png""],[""img/mask14.png""],[""img/mask95.png""],[""img/mask1.png""],[""img/mask24.png""],[""img/mask45.png""],[""img/mask53.png""],[""img/mask79.png""],[""img/mask51.png""],[""img/mask26.png""],[""img/mask61.png""],[""img/mask45.png""],[""img/mask96.png""]]]","","[16,18,15,30,22,29,0,20,25,27,24,8,12,23,11,21,35,10,5,19,3,26,6,33,14,34,32,2,4,1,28,31,9,17,13,7]","main","36","many-guess-6"
"","","","","","html-keyboard-response","114","324370","0.0-10.0-1.47","5ec403bb09d0e02a060bd5e6","640759fa512f630a2bdc333d","6407b70c0d2d64613f0a7c1c","null","","null","","","","","","","","","","","","","","","","","","","fixation","",""
"","","","","","color-precision2","115","327636","0.0-10.0-0.48-0.48","5ec403bb09d0e02a060bd5e6","640759fa512f630a2bdc333d","6407b70c0d2d64613f0a7c1c","[897]","","","[27]","[160]","160","92","263.54001445166983","[263.54001445166983]","[171.54001445166983]","[172]","0","0","1","0","148.3400000000256","997.5200000000186","1000","[[[""img/mask29.png""]]]","","","main","92","color-precision2"
"","","","","","html-keyboard-response","116","328143","0.0-10.0-1.48","5ec403bb09d0e02a060bd5e6","640759fa512f630a2bdc333d","6407b70c0d2d64613f0a7c1c","null","","null","","","","","","","","","","","","","","","","","","","fixation","",""
"","","","","","color-precision2","117","330885","0.0-10.0-0.49-0.49","5ec403bb09d0e02a060bd5e6","640759fa512f630a2bdc333d","6407b70c0d2d64613f0a7c1c","[476]","","","[0]","[250]","250","58","298.8231805352892","[298.8231805352892]","[240.82318053528923]","[241]","0","0","1","0","148.7399999999907","993.9199999999837","1000","[[[""img/mask28.png""]]]","","","main","58","color-precision2"
"","","","","","html-keyboard-response","118","331385","0.0-10.0-1.49","5ec403bb09d0e02a060bd5e6","640759fa512f630a2bdc333d","6407b70c0d2d64613f0a7c1c","null","","null","","","","","","","","","","","","","","","","","","","fixation","",""
"","","","","","many-guess-6","119","334189","0.0-10.0-0.50-0.50","5ec403bb09d0e02a060bd5e6","640759fa512f630a2bdc333d","6407b70c0d2d64613f0a7c1c","[1627]","","","[32,5,15,18,11,33,27,9,17,4,22,29,12,23,28,19,13,0,16,7,34,31,8,3,24,6,20,35,25,30,21,2,14,1,26,10]","[173,352,93,63,43,342,312,282,223,213,322,13,23,113,183,163,292,332,83,3,123,272,193,243,143,53,252,302,203,33,133,262,103,153,233,73]","173","157","20.145721409274138","[20.145721409274138]","[223.14572140927413]","[222]","[30,300,30,210,120,120,120,300,300]","0","36","0","148.7600000000093","14.940000000002328","16","[[[""img/mask31.png""],[""img/mask19.png""],[""img/mask23.png""],[""img/mask72.png""],[""img/mask34.png""],[""img/mask97.png""],[""img/mask18.png""],[""img/mask22.png""],[""img/mask16.png""],[""img/mask62.png""],[""img/mask41.png""],[""img/mask41.png""],[""img/mask69.png""],[""img/mask2.png""],[""img/mask14.png""],[""img/mask69.png""],[""img/mask83.png""],[""img/mask1.png""],[""img/mask85.png""],[""img/mask75.png""],[""img/mask15.png""],[""img/mask23.png""],[""img/mask100.png""],[""img/mask3.png""],[""img/mask87.png""],[""img/mask94.png""],[""img/mask95.png""],[""img/mask63.png""],[""img/mask25.png""],[""img/mask79.png""],[""img/mask37.png""],[""img/mask39.png""],[""img/mask37.png""],[""img/mask8.png""],[""img/mask33.png""],[""img/mask99.png""]]]","","[32,5,15,18,11,33,27,9,17,4,22,29,12,23,28,19,13,0,16,7,34,31,8,3,24,6,20,35,25,30,21,2,14,1,26,10]","main","157","many-guess-6"
"","","","","","html-keyboard-response","120","334711","0.0-10.0-1.50","5ec403bb09d0e02a060bd5e6","640759fa512f630a2bdc333d","6407b70c0d2d64613f0a7c1c","null","","null","","","","","","","","","","","","","","","","","","","fixation","",""
"","","","","","many-guess-6","121","338068","0.0-10.0-0.51-0.51","5ec403bb09d0e02a060bd5e6","640759fa512f630a2bdc333d","6407b70c0d2d64613f0a7c1c","[1870]","","","[15,34,27,7,26,35,31,5,17,30,32,21,3,8,6,13,12,1,25,11,18,4,9,0,22,19,14,2,28,24,29,33,20,23,10,16]","[275,245,136,186,146,265,176,335,225,6,355,315,76,215,46,285,106,156,56,66,305,235,36,126,86,96,116,166,345,26,255,16,206,295,196,325]","275","220","160.20034773380507","[160.20034773380507]","[300.2003477338051]","[299]","[30,300,300,300,30,210,300,300,300]","0","36","0","148.9199999999837","22.099999999976717","16","[[[""img/mask69.png""],[""img/mask26.png""],[""img/mask25.png""],[""img/mask89.png""],[""img/mask7.png""],[""img/mask70.png""],[""img/mask45.png""],[""img/mask15.png""],[""img/mask70.png""],[""img/mask6.png""],[""img/mask94.png""],[""img/mask41.png""],[""img/mask39.png""],[""img/mask72.png""],[""img/mask61.png""],[""img/mask87.png""],[""img/mask19.png""],[""img/mask18.png""],[""img/mask63.png""],[""img/mask32.png""],[""img/mask47.png""],[""img/mask33.png""],[""img/mask16.png""],[""img/mask11.png""],[""img/mask18.png""],[""img/mask20.png""],[""img/mask87.png""],[""img/mask31.png""],[""img/mask95.png""],[""img/mask55.png""],[""img/mask15.png""],[""img/mask54.png""],[""img/mask99.png""],[""img/mask73.png""],[""img/mask14.png""],[""img/mask78.png""]]]","","[15,34,27,7,26,35,31,5,17,30,32,21,3,8,6,13,12,1,25,11,18,4,9,0,22,19,14,2,28,24,29,33,20,23,10,16]","main","220","many-guess-6"
"","","","","","html-keyboard-response","122","338581","0.0-10.0-1.51","5ec403bb09d0e02a060bd5e6","640759fa512f630a2bdc333d","6407b70c0d2d64613f0a7c1c","null","","null","","","","","","","","","","","","","","","","","","","fixation","",""
"","","","","","many-guess-6","123","341645","0.0-10.0-0.52-0.52","5ec403bb09d0e02a060bd5e6","640759fa512f630a2bdc333d","6407b70c0d2d64613f0a7c1c","[1693]","","","[3,21,20,30,17,16,4,6,31,18,19,5,27,26,33,35,8,14,25,22,7,34,29,32,2,11,1,28,15,12,13,23,0,24,10,9]","[270,200,160,280,80,350,120,40,290,60,21,50,70,180,150,260,100,170,1,210,130,320,240,140,11,230,110,310,31,250,220,300,340,330,90,190]","270","240","292.9427916092845","[292.9427916092845]","[52.942791609284484]","[54]","[210,210,210,120,120,120,300,30,300]","0","36","0","149.32000000000698","20.520000000018626","16","[[[""img/mask79.png""],[""img/mask5.png""],[""img/mask52.png""],[""img/mask13.png""],[""img/mask62.png""],[""img/mask85.png""],[""img/mask50.png""],[""img/mask90.png""],[""img/mask53.png""],[""img/mask91.png""],[""img/mask97.png""],[""img/mask12.png""],[""img/mask43.png""],[""img/mask78.png""],[""img/mask55.png""],[""img/mask91.png""],[""img/mask88.png""],[""img/mask60.png""],[""img/mask4.png""],[""img/mask90.png""],[""img/mask99.png""],[""img/mask6.png""],[""img/mask42.png""],[""img/mask35.png""],[""img/mask46.png""],[""img/mask48.png""],[""img/mask41.png""],[""img/mask81.png""],[""img/mask55.png""],[""img/mask73.png""],[""img/mask98.png""],[""img/mask70.png""],[""img/mask2.png""],[""img/mask67.png""],[""img/mask17.png""],[""img/mask52.png""]]]","","[3,21,20,30,17,16,4,6,31,18,19,5,27,26,33,35,8,14,25,22,7,34,29,32,2,11,1,28,15,12,13,23,0,24,10,9]","main","240","many-guess-6"
"","","","","","html-keyboard-response","124","342146","0.0-10.0-1.52","5ec403bb09d0e02a060bd5e6","640759fa512f630a2bdc333d","6407b70c0d2d64613f0a7c1c","null","","null","","","","","","","","","","","","","","","","","","","fixation","",""
"","","","","","many-guess-6","125","345517","0.0-10.0-0.53-0.53","5ec403bb09d0e02a060bd5e6","640759fa512f630a2bdc333d","6407b70c0d2d64613f0a7c1c","[2060]","","","[2,27,12,15,20,9,7,13,14,29,35,33,30,16,32,10,24,0,18,11,8,22,1,31,4,26,5,6,34,19,3,23,25,28,17,21]","[272,132,202,162,192,302,342,312,172,72,262,62,52,82,182,252,92,22,112,322,242,351,2,282,222,122,232,332,142,212,292,152,42,32,102,12]","272","9","219.1174355592202","[219.1174355592202]","[210.1174355592202]","[210]","[30,210,30,300,120,120,120,30,300]","0","36","0","147.64000000001397","13.820000000006985","16","[[[""img/mask58.png""],[""img/mask69.png""],[""img/mask30.png""],[""img/mask94.png""],[""img/mask92.png""],[""img/mask95.png""],[""img/mask26.png""],[""img/mask95.png""],[""img/mask55.png""],[""img/mask21.png""],[""img/mask52.png""],[""img/mask86.png""],[""img/mask40.png""],[""img/mask71.png""],[""img/mask35.png""],[""img/mask30.png""],[""img/mask8.png""],[""img/mask83.png""],[""img/mask33.png""],[""img/mask48.png""],[""img/mask33.png""],[""img/mask49.png""],[""img/mask8.png""],[""img/mask2.png""],[""img/mask94.png""],[""img/mask11.png""],[""img/mask22.png""],[""img/mask97.png""],[""img/mask82.png""],[""img/mask19.png""],[""img/mask53.png""],[""img/mask21.png""],[""img/mask12.png""],[""img/mask12.png""],[""img/mask6.png""],[""img/mask41.png""]]]","","[2,27,12,15,20,9,7,13,14,29,35,33,30,16,32,10,24,0,18,11,8,22,1,31,4,26,5,6,34,19,3,23,25,28,17,21]","main","9","many-guess-6"
"","","","","","html-keyboard-response","126","346026","0.0-10.0-1.53","5ec403bb09d0e02a060bd5e6","640759fa512f630a2bdc333d","6407b70c0d2d64613f0a7c1c","null","","null","","","","","","","","","","","","","","","","","","","fixation","",""
"","","","","","many-guess-6","127","349597","0.0-10.0-0.54-0.54","5ec403bb09d0e02a060bd5e6","640759fa512f630a2bdc333d","6407b70c0d2d64613f0a7c1c","[2036]","","","[4,15,0,27,14,10,5,35,20,18,32,1,11,34,6,17,30,31,24,25,23,21,29,8,9,22,26,2,12,19,7,3,13,16,33,28]","[109,99,119,149,269,219,39,249,159,239,358,179,59,49,229,89,199,289,339,189,299,329,129,309,139,279,9,349,259,319,169,209,69,19,29,79]","109","182","264.19948225586694","[264.19948225586694]","[82.19948225586694]","[82]","[30,300,300,300,120,210,30,300,300]","0","36","0","149.05999999999767","21.239999999990687","16","[[[""img/mask8.png""],[""img/mask63.png""],[""img/mask18.png""],[""img/mask75.png""],[""img/mask49.png""],[""img/mask13.png""],[""img/mask71.png""],[""img/mask48.png""],[""img/mask97.png""],[""img/mask23.png""],[""img/mask67.png""],[""img/mask13.png""],[""img/mask44.png""],[""img/mask52.png""],[""img/mask56.png""],[""img/mask3.png""],[""img/mask32.png""],[""img/mask11.png""],[""img/mask9.png""],[""img/mask78.png""],[""img/mask11.png""],[""img/mask68.png""],[""img/mask31.png""],[""img/mask40.png""],[""img/mask90.png""],[""img/mask41.png""],[""img/mask46.png""],[""img/mask23.png""],[""img/mask20.png""],[""img/mask82.png""],[""img/mask25.png""],[""img/mask91.png""],[""img/mask87.png""],[""img/mask85.png""],[""img/mask28.png""],[""img/mask94.png""]]]","","[4,15,0,27,14,10,5,35,20,18,32,1,11,34,6,17,30,31,24,25,23,21,29,8,9,22,26,2,12,19,7,3,13,16,33,28]","main","182","many-guess-6"
"","","","","","html-keyboard-response","128","350103","0.0-10.0-1.54","5ec403bb09d0e02a060bd5e6","640759fa512f630a2bdc333d","6407b70c0d2d64613f0a7c1c","null","","null","","","","","","","","","","","","","","","","","","","fixation","",""
"","","","","","color-precision2","129","353157","0.0-10.0-0.55-0.55","5ec403bb09d0e02a060bd5e6","640759fa512f630a2bdc333d","6407b70c0d2d64613f0a7c1c","[610]","","","[11]","[211]","211","175","16.779130322607976","[16.779130322607976]","[201.77913032260798]","[201]","0","0","1","0","148.35999999998603","996.5599999999977","1000","[[[""img/mask30.png""]]]","","","main","175","color-precision2"
"","","","","","html-keyboard-response","130","353668","0.0-10.0-1.55","5ec403bb09d0e02a060bd5e6","640759fa512f630a2bdc333d","6407b70c0d2d64613f0a7c1c","null","","null","","","","","","","","","","","","","","","","","","","fixation","",""
"","","","","","color-precision2","131","357525","0.0-10.0-0.56-0.56","5ec403bb09d0e02a060bd5e6","640759fa512f630a2bdc333d","6407b70c0d2d64613f0a7c1c","[1507]","","","[30]","[219]","219","346","217.1722993743842","[217.1722993743842]","[231.1722993743842]","[231]","0","0","1","0","148.97999999998137","997.1599999999744","1000","[[[""img/mask71.png""]]]","","","main","346","color-precision2"
"","","","","","html-keyboard-response","132","358033","0.0-10.0-1.56","5ec403bb09d0e02a060bd5e6","640759fa512f630a2bdc333d","6407b70c0d2d64613f0a7c1c","null","","null","","","","","","","","","","","","","","","","","","","fixation","",""
"","","","","","many-guess-6","133","361708","0.0-10.0-0.57-0.57","5ec403bb09d0e02a060bd5e6","640759fa512f630a2bdc333d","6407b70c0d2d64613f0a7c1c","[2071]","","","[33,20,14,9,28,25,10,29,16,32,35,19,22,27,6,12,0,23,5,3,30,2,26,34,4,24,1,7,21,8,17,15,31,18,11,13]","[41,240,110,51,130,270,210,330,200,140,220,230,90,280,11,21,250,180,31,80,190,290,120,320,310,61,150,340,100,300,170,70,1,260,350,160]","41","230","278.04018379423565","[278.04018379423565]","[48.040183794235645]","[48]","[300,210,120,30,120,30,300,30,120]","0","36","0","149.5800000000163","23.78000000002794","16","[[[""img/mask5.png""],[""img/mask59.png""],[""img/mask65.png""],[""img/mask74.png""],[""img/mask83.png""],[""img/mask71.png""],[""img/mask37.png""],[""img/mask14.png""],[""img/mask39.png""],[""img/mask3.png""],[""img/mask70.png""],[""img/mask18.png""],[""img/mask83.png""],[""img/mask74.png""],[""img/mask66.png""],[""img/mask49.png""],[""img/mask11.png""],[""img/mask16.png""],[""img/mask73.png""],[""img/mask37.png""],[""img/mask96.png""],[""img/mask53.png""],[""img/mask97.png""],[""img/mask48.png""],[""img/mask61.png""],[""img/mask23.png""],[""img/mask30.png""],[""img/mask46.png""],[""img/mask2.png""],[""img/mask36.png""],[""img/mask67.png""],[""img/mask62.png""],[""img/mask51.png""],[""img/mask47.png""],[""img/mask16.png""],[""img/mask69.png""]]]","","[33,20,14,9,28,25,10,29,16,32,35,19,22,27,6,12,0,23,5,3,30,2,26,34,4,24,1,7,21,8,17,15,31,18,11,13]","main","230","many-guess-6"
"","","","","","html-keyboard-response","134","362210","0.0-10.0-1.57","5ec403bb09d0e02a060bd5e6","640759fa512f630a2bdc333d","6407b70c0d2d64613f0a7c1c","null","","null","","","","","","","","","","","","","","","","","","","fixation","",""
"","","","","","color-precision2","135","365341","0.0-10.0-0.58-0.58","5ec403bb09d0e02a060bd5e6","640759fa512f630a2bdc333d","6407b70c0d2d64613f0a7c1c","[831]","","","[23]","[248]","248","160","43.85796153057229","[43.85796153057229]","[243.85796153057228]","[242]","0","0","1","0","148.7399999999907","993.9199999999837","1000","[[[""img/mask17.png""]]]","","","main","160","color-precision2"
"","","","","","html-keyboard-response","136","365850","0.0-10.0-1.58","5ec403bb09d0e02a060bd5e6","640759fa512f630a2bdc333d","6407b70c0d2d64613f0a7c1c","null","","null","","","","","","","","","","","","","","","","","","","fixation","",""
"","","","","","many-guess-6","137","368397","0.0-10.0-0.59-0.59","5ec403bb09d0e02a060bd5e6","640759fa512f630a2bdc333d","6407b70c0d2d64613f0a7c1c","[1300]","","","[23,17,14,28,24,21,11,1,4,30,2,20,22,9,7,18,32,16,25,6,33,0,15,12,10,3,26,8,13,29,34,31,5,27,19,35]","[259,40,99,30,139,269,89,79,359,349,229,109,189,20,339,279,179,309,70,10,50,239,159,319,209,329,129,289,149,249,199,219,60,119,169,299]","259","238","328.8437837852838","[328.8437837852838]","[90.84378378528379]","[90]","[300,120,300,210,300,120,30,300,300]","0","36","0","148.4199999999837","19.619999999995343","16","[[[""img/mask75.png""],[""img/mask18.png""],[""img/mask9.png""],[""img/mask39.png""],[""img/mask80.png""],[""img/mask64.png""],[""img/mask2.png""],[""img/mask80.png""],[""img/mask7.png""],[""img/mask99.png""],[""img/mask43.png""],[""img/mask41.png""],[""img/mask8.png""],[""img/mask21.png""],[""img/mask63.png""],[""img/mask69.png""],[""img/mask86.png""],[""img/mask44.png""],[""img/mask83.png""],[""img/mask14.png""],[""img/mask14.png""],[""img/mask65.png""],[""img/mask27.png""],[""img/mask37.png""],[""img/mask92.png""],[""img/mask9.png""],[""img/mask95.png""],[""img/mask93.png""],[""img/mask74.png""],[""img/mask79.png""],[""img/mask80.png""],[""img/mask42.png""],[""img/mask73.png""],[""img/mask83.png""],[""img/mask29.png""],[""img/mask91.png""]]]","","[23,17,14,28,24,21,11,1,4,30,2,20,22,9,7,18,32,16,25,6,33,0,15,12,10,3,26,8,13,29,34,31,5,27,19,35]","main","238","many-guess-6"
"","","","","","html-keyboard-response","138","370012","0.0-10.0-1.59","5ec403bb09d0e02a060bd5e6","640759fa512f630a2bdc333d","6407b70c0d2d64613f0a7c1c","1614","Wow! You've completed 60 out of 180 trials! </p> <p>  </p><p> Take a quick break, then press any key when you're ready to continue.","enter","","","","","","","","","","","","","","","","","","","fixation","",""
"","","","","","color-precision2","139","374685","0.0-10.0-0.60-0.60","5ec403bb09d0e02a060bd5e6","640759fa512f630a2bdc333d","6407b70c0d2d64613f0a7c1c","[414]","","","[27]","[238]","238","341","221.9171064913365","[221.9171064913365]","[240.9171064913365]","[241]","0","0","1","0","148.78000000002794","999.960000000021","1000","[[[""img/mask74.png""]]]","","","main","341","color-precision2"
"","","","","","html-keyboard-response","140","375193","0.0-10.0-1.60","5ec403bb09d0e02a060bd5e6","640759fa512f630a2bdc333d","6407b70c0d2d64613f0a7c1c","null","","null","","","","","","","","","","","","","","","","","","","fixation","",""
"","","","","","color-precision2","141","378453","0.0-10.0-0.61-0.61","5ec403bb09d0e02a060bd5e6","640759fa512f630a2bdc333d","6407b70c0d2d64613f0a7c1c","[930]","","","[33]","[351]","351","181","179.72823267397334","[179.72823267397334]","[358.72823267397337]","[358]","0","0","1","0","148.7600000000093","991.9400000000023","1000","[[[""img/mask50.png""]]]","","","main","181","color-precision2"
"","","","","","html-keyboard-response","142","378953","0.0-10.0-1.61","5ec403bb09d0e02a060bd5e6","640759fa512f630a2bdc333d","6407b70c0d2d64613f0a7c1c","null","","null","","","","","","","","","","","","","","","","","","","fixation","",""
"","","","","","color-precision2","143","382140","0.0-10.0-0.62-0.62","5ec403bb09d0e02a060bd5e6","640759fa512f630a2bdc333d","6407b70c0d2d64613f0a7c1c","[1098]","","","[34]","[259]","259","208","118.33340161932175","[118.33340161932175]","[270.33340161932176]","[269]","0","0","1","0","148.85999999998603","995.039999999979","1000","[[[""img/mask44.png""]]]","","","main","208","color-precision2"
"","","","","","html-keyboard-response","144","382641","0.0-10.0-1.62","5ec403bb09d0e02a060bd5e6","640759fa512f630a2bdc333d","6407b70c0d2d64613f0a7c1c","null","","null","","","","","","","","","","","","","","","","","","","fixation","",""
"","","","","","color-precision2","145","385620","0.0-10.0-0.63-0.63","5ec403bb09d0e02a060bd5e6","640759fa512f630a2bdc333d","6407b70c0d2d64613f0a7c1c","[640]","","","[33]","[341]","341","34","36.781969799184594","[36.781969799184594]","[2.781969799184594]","[2]","0","0","1","0","147.97999999998137","1004.1599999999744","1000","[[[""img/mask80.png""]]]","","","main","34","color-precision2"
"","","","","","html-keyboard-response","146","386122","0.0-10.0-1.63","5ec403bb09d0e02a060bd5e6","640759fa512f630a2bdc333d","6407b70c0d2d64613f0a7c1c","null","","null","","","","","","","","","","","","","","","","","","","fixation","",""
"","","","","","many-guess-6","147","390893","0.0-10.0-0.64-0.64","5ec403bb09d0e02a060bd5e6","640759fa512f630a2bdc333d","6407b70c0d2d64613f0a7c1c","[3393]","","","[15,4,1,25,3,12,27,31,18,7,19,5,16,35,28,30,26,6,32,23,0,22,2,13,17,29,21,20,8,10,33,34,14,24,11,9]","[297,227,207,157,357,28,78,147,287,177,197,327,167,347,117,108,237,277,137,337,307,257,68,58,317,267,98,18,187,247,48,88,217,38,8,127]","297","71","137.57471680084478","[137.57471680084478]","[66.57471680084478]","[65]","[210,120,30,120,300,210,120,30,210]","0","36","0","148.9199999999837","21.099999999976717","16","[[[""img/mask17.png""],[""img/mask15.png""],[""img/mask47.png""],[""img/mask36.png""],[""img/mask85.png""],[""img/mask50.png""],[""img/mask92.png""],[""img/mask30.png""],[""img/mask63.png""],[""img/mask54.png""],[""img/mask89.png""],[""img/mask99.png""],[""img/mask67.png""],[""img/mask1.png""],[""img/mask22.png""],[""img/mask7.png""],[""img/mask43.png""],[""img/mask16.png""],[""img/mask4.png""],[""img/mask100.png""],[""img/mask2.png""],[""img/mask5.png""],[""img/mask63.png""],[""img/mask20.png""],[""img/mask58.png""],[""img/mask9.png""],[""img/mask66.png""],[""img/mask70.png""],[""img/mask81.png""],[""img/mask40.png""],[""img/mask80.png""],[""img/mask75.png""],[""img/mask6.png""],[""img/mask71.png""],[""img/mask90.png""],[""img/mask80.png""]]]","","[15,4,1,25,3,12,27,31,18,7,19,5,16,35,28,30,26,6,32,23,0,22,2,13,17,29,21,20,8,10,33,34,14,24,11,9]","main","71","many-guess-6"
"","","","","","html-keyboard-response","148","391402","0.0-10.0-1.64","5ec403bb09d0e02a060bd5e6","640759fa512f630a2bdc333d","6407b70c0d2d64613f0a7c1c","null","","null","","","","","","","","","","","","","","","","","","","fixation","",""
"","","","","","many-guess-6","149","394964","0.0-10.0-0.65-0.65","5ec403bb09d0e02a060bd5e6","640759fa512f630a2bdc333d","6407b70c0d2d64613f0a7c1c","[2042]","","","[30,16,17,33,22,19,1,9,26,0,12,3,10,14,7,34,6,8,11,29,27,20,32,28,25,18,31,35,4,24,15,23,13,5,2,21]","[213,263,64,84,293,353,44,4,233,184,154,54,333,164,223,243,134,193,303,74,313,114,283,14,24,343,104,34,253,124,144,94,323,273,203,174]","213","310","220.51435909890623","[220.51435909890623]","[270.5143590989062]","[271]","[30,210,210,30,30,30,30,120,300]","0","36","0","148.40000000002328","23.400000000023283","16","[[[""img/mask17.png""],[""img/mask3.png""],[""img/mask74.png""],[""img/mask2.png""],[""img/mask85.png""],[""img/mask66.png""],[""img/mask62.png""],[""img/mask25.png""],[""img/mask92.png""],[""img/mask3.png""],[""img/mask13.png""],[""img/mask5.png""],[""img/mask29.png""],[""img/mask40.png""],[""img/mask13.png""],[""img/mask36.png""],[""img/mask30.png""],[""img/mask86.png""],[""img/mask66.png""],[""img/mask86.png""],[""img/mask53.png""],[""img/mask95.png""],[""img/mask42.png""],[""img/mask29.png""],[""img/mask23.png""],[""img/mask6.png""],[""img/mask66.png""],[""img/mask92.png""],[""img/mask43.png""],[""img/mask90.png""],[""img/mask81.png""],[""img/mask2.png""],[""img/mask87.png""],[""img/mask46.png""],[""img/mask46.png""],[""img/mask35.png""]]]","","[30,16,17,33,22,19,1,9,26,0,12,3,10,14,7,34,6,8,11,29,27,20,32,28,25,18,31,35,4,24,15,23,13,5,2,21]","main","310","many-guess-6"
"","","","","","html-keyboard-response","150","395468","0.0-10.0-1.65","5ec403bb09d0e02a060bd5e6","640759fa512f630a2bdc333d","6407b70c0d2d64613f0a7c1c","null","","null","","","","","","","","","","","","","","","","","","","fixation","",""
"","","","","","color-precision2","151","398725","0.0-10.0-0.66-0.66","5ec403bb09d0e02a060bd5e6","640759fa512f630a2bdc333d","6407b70c0d2d64613f0a7c1c","[698]","","","[35]","[185]","185","156","346.32176319505413","[346.32176319505413]","[190.32176319505413]","[190]","0","0","1","0","147.9199999999837","1007.0999999999767","1000","[[[""img/mask62.png""]]]","","","main","156","color-precision2"
"","","","","","html-keyboard-response","152","399229","0.0-10.0-1.66","5ec403bb09d0e02a060bd5e6","640759fa512f630a2bdc333d","6407b70c0d2d64613f0a7c1c","null","","null","","","","","","","","","","","","","","","","","","","fixation","",""
"","","","","","many-guess-6","153","402221","0.0-10.0-0.67-0.67","5ec403bb09d0e02a060bd5e6","640759fa512f630a2bdc333d","6407b70c0d2d64613f0a7c1c","[1858]","","","[14,7,35,22,9,0,2,6,26,5,11,23,15,34,20,13,28,27,33,29,12,21,30,16,1,8,19,3,17,10,4,24,18,32,25,31]","[17,116,296,156,47,346,326,126,37,67,96,87,146,336,176,206,196,106,7,27,236,226,266,136,306,276,356,186,57,216,286,77,246,256,166,316]","17","24","300.670459616464","[300.670459616464]","[276.670459616464]","[277]","[30,210,300,210,300,120,300,30,210]","0","36","0","149.64000000001397","12.119999999995343","16","[[[""img/mask76.png""],[""img/mask9.png""],[""img/mask36.png""],[""img/mask88.png""],[""img/mask39.png""],[""img/mask82.png""],[""img/mask33.png""],[""img/mask6.png""],[""img/mask83.png""],[""img/mask49.png""],[""img/mask56.png""],[""img/mask61.png""],[""img/mask81.png""],[""img/mask9.png""],[""img/mask54.png""],[""img/mask28.png""],[""img/mask98.png""],[""img/mask96.png""],[""img/mask23.png""],[""img/mask38.png""],[""img/mask29.png""],[""img/mask43.png""],[""img/mask14.png""],[""img/mask56.png""],[""img/mask89.png""],[""img/mask40.png""],[""img/mask43.png""],[""img/mask69.png""],[""img/mask33.png""],[""img/mask37.png""],[""img/mask50.png""],[""img/mask31.png""],[""img/mask35.png""],[""img/mask43.png""],[""img/mask64.png""],[""img/mask39.png""]]]","","[14,7,35,22,9,0,2,6,26,5,11,23,15,34,20,13,28,27,33,29,12,21,30,16,1,8,19,3,17,10,4,24,18,32,25,31]","main","24","many-guess-6"
"","","","","","html-keyboard-response","154","402721","0.0-10.0-1.67","5ec403bb09d0e02a060bd5e6","640759fa512f630a2bdc333d","6407b70c0d2d64613f0a7c1c","null","","null","","","","","","","","","","","","","","","","","","","fixation","",""
"","","","","","many-guess-6","155","406621","0.0-10.0-0.68-0.68","5ec403bb09d0e02a060bd5e6","640759fa512f630a2bdc333d","6407b70c0d2d64613f0a7c1c","[2305]","","","[20,14,23,25,7,2,11,15,12,4,3,17,29,10,22,19,26,24,16,33,21,5,31,18,0,8,28,32,34,27,35,6,1,30,13,9]","[248,198,308,18,357,338,98,238,188,88,58,148,228,258,38,168,178,158,8,118,78,328,298,128,318,108,278,208,268,48,218,138,68,288,348,28]","248","15","88.12592044570275","[88.12592044570275]","[73.12592044570275]","[71]","[300,210,30,300,30,120,30,120,120]","0","36","0","148.38000000000466","16.55999999999767","16","[[[""img/mask56.png""],[""img/mask10.png""],[""img/mask27.png""],[""img/mask51.png""],[""img/mask35.png""],[""img/mask50.png""],[""img/mask44.png""],[""img/mask11.png""],[""img/mask65.png""],[""img/mask1.png""],[""img/mask68.png""],[""img/mask21.png""],[""img/mask97.png""],[""img/mask9.png""],[""img/mask51.png""],[""img/mask98.png""],[""img/mask74.png""],[""img/mask21.png""],[""img/mask20.png""],[""img/mask38.png""],[""img/mask24.png""],[""img/mask26.png""],[""img/mask4.png""],[""img/mask48.png""],[""img/mask28.png""],[""img/mask86.png""],[""img/mask23.png""],[""img/mask41.png""],[""img/mask51.png""],[""img/mask95.png""],[""img/mask84.png""],[""img/mask86.png""],[""img/mask19.png""],[""img/mask65.png""],[""img/mask29.png""],[""img/mask58.png""]]]","","[20,14,23,25,7,2,11,15,12,4,3,17,29,10,22,19,26,24,16,33,21,5,31,18,0,8,28,32,34,27,35,6,1,30,13,9]","main","15","many-guess-6"
"","","","","","html-keyboard-response","156","407130","0.0-10.0-1.68","5ec403bb09d0e02a060bd5e6","640759fa512f630a2bdc333d","6407b70c0d2d64613f0a7c1c","null","","null","","","","","","","","","","","","","","","","","","","fixation","",""
"","","","","","color-precision2","157","409972","0.0-10.0-0.69-0.69","5ec403bb09d0e02a060bd5e6","640759fa512f630a2bdc333d","6407b70c0d2d64613f0a7c1c","[552]","","","[14]","[196]","196","324","158.69596305603204","[158.69596305603204]","[194.69596305603204]","[194]","0","0","1","0","147.55999999999767","1000.7399999999907","1000","[[[""img/mask31.png""]]]","","","main","324","color-precision2"
"","","","","","html-keyboard-response","158","410482","0.0-10.0-1.69","5ec403bb09d0e02a060bd5e6","640759fa512f630a2bdc333d","6407b70c0d2d64613f0a7c1c","null","","null","","","","","","","","","","","","","","","","","","","fixation","",""
"","","","","","many-guess-6","159","413853","0.0-10.0-0.70-0.70","5ec403bb09d0e02a060bd5e6","640759fa512f630a2bdc333d","6407b70c0d2d64613f0a7c1c","[1778]","","","[11,0,30,8,14,17,4,2,10,12,9,34,26,27,35,33,1,31,20,13,24,7,5,18,25,16,22,21,6,19,29,15,23,28,3,32]","[215,285,175,324,15,245,155,225,195,115,25,265,125,105,55,305,95,255,344,85,354,35,75,235,145,334,314,185,5,45,65,205,165,275,135,295]","215","352","328.1983528769421","[328.1983528769421]","[336.1983528769421]","[336]","[210,300,300,30,30,30,30,30,210]","0","36","0","148.38000000000466","12.559999999997672","16","[[[""img/mask78.png""],[""img/mask8.png""],[""img/mask15.png""],[""img/mask22.png""],[""img/mask83.png""],[""img/mask88.png""],[""img/mask11.png""],[""img/mask12.png""],[""img/mask23.png""],[""img/mask21.png""],[""img/mask83.png""],[""img/mask18.png""],[""img/mask5.png""],[""img/mask13.png""],[""img/mask63.png""],[""img/mask85.png""],[""img/mask81.png""],[""img/mask50.png""],[""img/mask7.png""],[""img/mask23.png""],[""img/mask49.png""],[""img/mask24.png""],[""img/mask18.png""],[""img/mask10.png""],[""img/mask89.png""],[""img/mask5.png""],[""img/mask29.png""],[""img/mask11.png""],[""img/mask48.png""],[""img/mask91.png""],[""img/mask43.png""],[""img/mask4.png""],[""img/mask79.png""],[""img/mask7.png""],[""img/mask100.png""],[""img/mask41.png""]]]","","[11,0,30,8,14,17,4,2,10,12,9,34,26,27,35,33,1,31,20,13,24,7,5,18,25,16,22,21,6,19,29,15,23,28,3,32]","main","352","many-guess-6"
"","","","","","html-keyboard-response","160","414369","0.0-10.0-1.70","5ec403bb09d0e02a060bd5e6","640759fa512f630a2bdc333d","6407b70c0d2d64613f0a7c1c","null","","null","","","","","","","","","","","","","","","","","","","fixation","",""
"","","","","","color-precision2","161","417500","0.0-10.0-0.71-0.71","5ec403bb09d0e02a060bd5e6","640759fa512f630a2bdc333d","6407b70c0d2d64613f0a7c1c","[571]","","","[11]","[80]","80","320","32.173822292850886","[32.173822292850886]","[72.1738222928509]","[71]","0","0","1","0","149.21999999997206","992.4000000000233","1000","[[[""img/mask12.png""]]]","","","main","320","color-precision2"
"","","","","","html-keyboard-response","162","418001","0.0-10.0-1.71","5ec403bb09d0e02a060bd5e6","640759fa512f630a2bdc333d","6407b70c0d2d64613f0a7c1c","null","","null","","","","","","","","","","","","","","","","","","","fixation","",""
"","","","","","color-precision2","163","420941","0.0-10.0-0.72-0.72","5ec403bb09d0e02a060bd5e6","640759fa512f630a2bdc333d","6407b70c0d2d64613f0a7c1c","[709]","","","[32]","[63]","63","220","287.24214749305986","[287.24214749305986]","[67.24214749305986]","[67]","0","0","1","0","149.14000000001397","1005.3400000000256","1000","[[[""img/mask45.png""]]]","","","main","220","color-precision2"
"","","","","","html-keyboard-response","164","421444","0.0-10.0-1.72","5ec403bb09d0e02a060bd5e6","640759fa512f630a2bdc333d","6407b70c0d2d64613f0a7c1c","null","","null","","","","","","","","","","","","","","","","","","","fixation","",""
"","","","","","color-precision2","165","424540","0.0-10.0-0.73-0.73","5ec403bb09d0e02a060bd5e6","640759fa512f630a2bdc333d","6407b70c0d2d64613f0a7c1c","[372]","","","[32]","[235]","235","143","25.386148140132562","[25.386148140132562]","[242.38614814013255]","[241]","0","0","1","0","147.20000000001164","1003.2199999999721","1000","[[[""img/mask37.png""]]]","","","main","143","color-precision2"
"","","","","","html-keyboard-response","166","425051","0.0-10.0-1.73","5ec403bb09d0e02a060bd5e6","640759fa512f630a2bdc333d","6407b70c0d2d64613f0a7c1c","null","","null","","","","","","","","","","","","","","","","","","","fixation","",""
"","","","","","color-precision2","167","428173","0.0-10.0-0.74-0.74","5ec403bb09d0e02a060bd5e6","640759fa512f630a2bdc333d","6407b70c0d2d64613f0a7c1c","[465]","","","[0]","[283]","283","75","354.73285471619874","[354.73285471619874]","[279.73285471619874]","[279]","0","0","1","0","148.70000000001164","995.8800000000047","1000","[[[""img/mask85.png""]]]","","","main","75","color-precision2"
"","","","","","html-keyboard-response","168","428682","0.0-10.0-1.74","5ec403bb09d0e02a060bd5e6","640759fa512f630a2bdc333d","6407b70c0d2d64613f0a7c1c","null","","null","","","","","","","","","","","","","","","","","","","fixation","",""
"","","","","","many-guess-6","169","431733","0.0-10.0-0.75-0.75","5ec403bb09d0e02a060bd5e6","640759fa512f630a2bdc333d","6407b70c0d2d64613f0a7c1c","[1541]","","","[5,13,34,28,33,32,35,21,26,15,11,0,24,12,6,19,27,20,25,7,18,9,4,22,30,17,31,14,29,23,16,2,8,3,1,10]","[67,167,137,356,57,17,246,157,296,286,196,97,226,117,346,276,77,256,27,336,147,47,7,87,306,186,326,236,176,316,206,107,216,37,127,266]","67","11","228.5760251974159","[228.5760251974159]","[217.5760251974159]","[217]","[120,300,300,120,30,210,210,30,210]","0","36","0","148.20000000001164","17.380000000004657","16","[[[""img/mask52.png""],[""img/mask25.png""],[""img/mask13.png""],[""img/mask48.png""],[""img/mask30.png""],[""img/mask25.png""],[""img/mask4.png""],[""img/mask94.png""],[""img/mask56.png""],[""img/mask74.png""],[""img/mask84.png""],[""img/mask41.png""],[""img/mask54.png""],[""img/mask100.png""],[""img/mask40.png""],[""img/mask94.png""],[""img/mask71.png""],[""img/mask30.png""],[""img/mask35.png""],[""img/mask98.png""],[""img/mask59.png""],[""img/mask34.png""],[""img/mask1.png""],[""img/mask29.png""],[""img/mask22.png""],[""img/mask24.png""],[""img/mask60.png""],[""img/mask63.png""],[""img/mask100.png""],[""img/mask34.png""],[""img/mask70.png""],[""img/mask52.png""],[""img/mask29.png""],[""img/mask55.png""],[""img/mask39.png""],[""img/mask63.png""]]]","","[5,13,34,28,33,32,35,21,26,15,11,0,24,12,6,19,27,20,25,7,18,9,4,22,30,17,31,14,29,23,16,2,8,3,1,10]","main","11","many-guess-6"
"","","","","","html-keyboard-response","170","432237","0.0-10.0-1.75","5ec403bb09d0e02a060bd5e6","640759fa512f630a2bdc333d","6407b70c0d2d64613f0a7c1c","null","","null","","","","","","","","","","","","","","","","","","","fixation","",""
"","","","","","color-precision2","171","435436","0.0-10.0-0.76-0.76","5ec403bb09d0e02a060bd5e6","640759fa512f630a2bdc333d","6407b70c0d2d64613f0a7c1c","[739]","","","[3]","[304]","304","105","47.5840444234035","[47.5840444234035]","[302.5840444234035]","[301]","0","0","1","0","148.6599999999744","995.8400000000256","1000","[[[""img/mask15.png""]]]","","","main","105","color-precision2"
"","","","","","html-keyboard-response","172","435945","0.0-10.0-1.76","5ec403bb09d0e02a060bd5e6","640759fa512f630a2bdc333d","6407b70c0d2d64613f0a7c1c","null","","null","","","","","","","","","","","","","","","","","","","fixation","",""
"","","","","","color-precision2","173","438781","0.0-10.0-0.77-0.77","5ec403bb09d0e02a060bd5e6","640759fa512f630a2bdc333d","6407b70c0d2d64613f0a7c1c","[280]","","","[22]","[58]","58","82","154.59338102616488","[154.59338102616488]","[72.59338102616488]","[71]","0","0","1","0","147.03999999997905","1005.2199999999721","1000","[[[""img/mask93.png""]]]","","","main","82","color-precision2"
"","","","","","html-keyboard-response","174","439295","0.0-10.0-1.77","5ec403bb09d0e02a060bd5e6","640759fa512f630a2bdc333d","6407b70c0d2d64613f0a7c1c","null","","null","","","","","","","","","","","","","","","","","","","fixation","",""
"","","","","","many-guess-6","175","441965","0.0-10.0-0.78-0.78","5ec403bb09d0e02a060bd5e6","640759fa512f630a2bdc333d","6407b70c0d2d64613f0a7c1c","[1246]","","","[18,24,3,2,6,19,23,17,10,21,35,16,0,34,14,27,31,13,1,5,15,33,32,12,4,11,9,29,22,30,7,20,25,8,28,26]","[250,71,270,350,21,330,240,260,121,290,171,280,211,101,81,231,151,91,300,1,161,41,191,201,51,181,310,11,31,131,340,111,320,221,141,61]","250","97","337.84279412592946","[337.84279412592946]","[240.84279412592946]","[241]","[30,210,300,30,30,300,120,120,300]","0","36","0","148.47999999998137","25.05999999999767","16","[[[""img/mask70.png""],[""img/mask45.png""],[""img/mask65.png""],[""img/mask2.png""],[""img/mask56.png""],[""img/mask66.png""],[""img/mask63.png""],[""img/mask48.png""],[""img/mask20.png""],[""img/mask49.png""],[""img/mask53.png""],[""img/mask80.png""],[""img/mask52.png""],[""img/mask34.png""],[""img/mask48.png""],[""img/mask17.png""],[""img/mask13.png""],[""img/mask71.png""],[""img/mask75.png""],[""img/mask63.png""],[""img/mask63.png""],[""img/mask85.png""],[""img/mask77.png""],[""img/mask22.png""],[""img/mask1.png""],[""img/mask72.png""],[""img/mask63.png""],[""img/mask92.png""],[""img/mask69.png""],[""img/mask49.png""],[""img/mask17.png""],[""img/mask1.png""],[""img/mask96.png""],[""img/mask39.png""],[""img/mask23.png""],[""img/mask21.png""]]]","","[18,24,3,2,6,19,23,17,10,21,35,16,0,34,14,27,31,13,1,5,15,33,32,12,4,11,9,29,22,30,7,20,25,8,28,26]","main","97","many-guess-6"
"","","","","","html-keyboard-response","176","442473","0.0-10.0-1.78","5ec403bb09d0e02a060bd5e6","640759fa512f630a2bdc333d","6407b70c0d2d64613f0a7c1c","null","","null","","","","","","","","","","","","","","","","","","","fixation","",""
"","","","","","color-precision2","177","445221","0.0-10.0-0.79-0.79","5ec403bb09d0e02a060bd5e6","640759fa512f630a2bdc333d","6407b70c0d2d64613f0a7c1c","[164]","","","[2]","[261]","261","212","126.47380534539388","[126.47380534539388]","[274.4738053453939]","[273]","0","0","1","0","148.35999999998603","1004.539999999979","1000","[[[""img/mask67.png""]]]","","","main","212","color-precision2"
"","","","","","html-keyboard-response","178","456027","0.0-10.0-1.79","5ec403bb09d0e02a060bd5e6","640759fa512f630a2bdc333d","6407b70c0d2d64613f0a7c1c","10806","Wow! You've completed 80 out of 180 trials! </p> <p>  </p><p> Take a quick break, then press any key when you're ready to continue.","enter","","","","","","","","","","","","","","","","","","","fixation","",""
"","","","","","color-precision2","179","460405","0.0-10.0-0.80-0.80","5ec403bb09d0e02a060bd5e6","640759fa512f630a2bdc333d","6407b70c0d2d64613f0a7c1c","[717]","","","[17]","[355]","355","206","192.22856469265312","[192.22856469265312]","[346.2285646926531]","[346]","0","0","1","0","148","1003.179999999993","1000","[[[""img/mask89.png""]]]","","","main","206","color-precision2"
