"success","timeout","failed_images","failed_audio","failed_video","trial_type","trial_index","time_elapsed","internal_node_id","subject_id","study_id","session_id","rt","stimulus","response","position_of_items","colors_of_items","color_of_target","wheel_spin","response_angle","physical_response_angle","reported_color_angle","reported_color_discrete","locs","which_test","set_size","wheel_num_options","actual_mask_duration","actual_stim_duration","CMDispTime","maskArray","maskRotation","item_positions","task","randomSpinAmount","mainTask"
"true","false","[]","[]","[]","preload","0","14677","0.0-0.0","5ed543442db0060a955d12e1","640759fa512f630a2bdc333d","6408c17a67015beb52318783","","","","","","","","","","","","","","","","","","","","","","","",""
"true","","","","","fullscreen","1","18539","0.0-1.0","5ed543442db0060a955d12e1","640759fa512f630a2bdc333d","6408c17a67015beb52318783","","","","","","","","","","","","","","","","","","","","","","","",""
"","","","","","html-keyboard-response","2","32309","0.0-2.0","5ed543442db0060a955d12e1","640759fa512f630a2bdc333d","6408c17a67015beb52318783","13768.90000000596","What a beautiful Wednesday to do some awesome science! </p> <p>  </p><p> </p>
    By completing this survey or questionnaire, you are consenting to be in this research study. </p>
    Your participation is voluntary and you can stop at any time.<p> [Press any key to continue] </p>"," ","","","","","","","","","","","","","","","","","","","","",""
"","","","","","html-keyboard-response","3","42315","0.0-3.0","5ed543442db0060a955d12e1","640759fa512f630a2bdc333d","6408c17a67015beb52318783","null","
    <div style='width: 1000px;'>
    <div style='float: center;'><img src='img/TaskInstructions1.png'></img>
    </div>
    ","null","","","","","","","","","","","","","","","","","","","","",""
"","","","","","html-keyboard-response","4","65626","0.0-4.0","5ed543442db0060a955d12e1","640759fa512f630a2bdc333d","6408c17a67015beb52318783","23310.19999998808","
    <div style='width: 1000px;'>
    <div style='float: center;'><img src='img/TaskInstructions1.png'></img>
    </div>
    "," ","","","","","","","","","","","","","","","","","","","","",""
"","","","","","html-keyboard-response","5","75643","0.0-5.0","5ed543442db0060a955d12e1","640759fa512f630a2bdc333d","6408c17a67015beb52318783","null","
    <div style='width: 1000px;'>
    <div style='float: center;'><img src='img/TaskInstructions2.png'></img>
    </div>
    ","null","","","","","","","","","","","","","","","","","","","","",""
"","","","","","html-keyboard-response","6","96015","0.0-6.0","5ed543442db0060a955d12e1","640759fa512f630a2bdc333d","6408c17a67015beb52318783","20372.100000023842","
    <div style='width: 1000px;'>
    <div style='float: center;'><img src='img/TaskInstructions2.png'></img>
    </div>
    "," ","","","","","","","","","","","","","","","","","","","","",""
"","","","","","video-keyboard-response","7","108739","0.0-7.0","5ed543442db0060a955d12e1","640759fa512f630a2bdc333d","6408c17a67015beb52318783","12716.299999982119","[""video/TaskInstructions3.mp4""]"," ","","","","","","","","","","","","","","","","","","","","",""
"","","","","","image-keyboard-response","8","117701","0.0-8.0-0.0","5ed543442db0060a955d12e1","640759fa512f630a2bdc333d","6408c17a67015beb52318783","8960.300000011921","img/training1.png"," ","","","","","","","","","","","","","","","","","","","","",""
"","","","","","color-precision2","9","136631","0.0-8.0-1.0-0.0","5ed543442db0060a955d12e1","640759fa512f630a2bdc333d","6408c17a67015beb52318783","[9411.199999988079]","","","[26]","[298]","298","10","256.31589736334666","[256.31589736334666]","[246.31589736334666]","[247]","0","0","1","0","498.29299998210627","991.7470000059693","1000","","","0","training","",""
"","","","","","image-keyboard-response","10","155866","0.0-8.0-0.1","5ed543442db0060a955d12e1","640759fa512f630a2bdc333d","6408c17a67015beb52318783","19232","img/training2.png"," ","","","","","","","","","","","","","","","","","","","","",""
"","","","","","many-guess-6","11","164228","0.0-8.0-1.1-0.1","5ed543442db0060a955d12e1","640759fa512f630a2bdc333d","6408c17a67015beb52318783","[3076.300000011921]","","","[33,19,15]","[215,345,229]","215","185","33.89686545101487","[33.89686545101487]","[208.89686545101486]","[207]","[300,120,30,30,30,300,120,120,120,120,30,210,120,120,300,30,300,210,300,120,300,30,210,210,30,120,210,120,300,30,300,30,120,300,300,120]","0","3","0","996.9679999999935","1003.0419999880833","1000","[[[""img/mask20.png""],[""img/mask66.png""],[""img/mask35.png""]]]","","[33,19,15]","training","",""
"","","","","","image-keyboard-response","12","171866","0.0-8.0-0.2","5ed543442db0060a955d12e1","640759fa512f630a2bdc333d","6408c17a67015beb52318783","7636.9000000059605","img/training3.png"," ","","","","","","","","","","","","","","","","","","","","",""
"","","","","","[""many-guess-6""]","13","178821","0.0-8.0-1.2-0.2","5ed543442db0060a955d12e1","640759fa512f630a2bdc333d","6408c17a67015beb52318783","[2802]","","","[12,28,24,0,20]","[115,64,22,184,99]","115","114","120.0609914132855","[120.0609914132855]","[6.060991413285507]","[5]","[30,120,300,300,30,300,210,120,120,210,30,300,120,210,30,300,210,210,210,300,300,30,300,30,120,120,120,300,210,300,210,120,210,30,210,30]","0","5","0","498.65799998809234","496.61199998212396","500","[[[""img/mask44.png""],[""img/mask100.png""],[""img/mask88.png""],[""img/mask71.png""],[""img/mask59.png""]]]","","[12,28,24,0,20]","training","",""
"","","","","","image-keyboard-response","14","180851","0.0-8.0-0.3","5ed543442db0060a955d12e1","640759fa512f630a2bdc333d","6408c17a67015beb52318783","2028.5999999940395","img/training4.png"," ","","","","","","","","","","","","","","","","","","","","",""
"","","","","","[""many-guess-6""]","15","186370","0.0-8.0-1.3-0.3","5ed543442db0060a955d12e1","640759fa512f630a2bdc333d","6408c17a67015beb52318783","[2651.0999999940395]","","","[7,9,26,24,16,15,29,35,19,31]","[119,91,61,324,17,146,34,314,130,346]","119","162","65.25325178737384","[65.25325178737384]","[263.25325178737387]","[262]","[300,300,210,210,300,210,300,300,300,30,30,300,120,210,30,30,210,120,30,300,120,210,120,210,30,120,30,300,120,210,300,120,120,210,300,210]","0","10","0","131.0259999940463","131.33200000596116","132","[[[""img/mask47.png""],[""img/mask5.png""],[""img/mask14.png""],[""img/mask12.png""],[""img/mask42.png""],[""img/mask58.png""],[""img/mask20.png""],[""img/mask25.png""],[""img/mask16.png""],[""img/mask86.png""]]]","","[7,9,26,24,16,15,29,35,19,31]","training","",""
"","","","","","image-keyboard-response","16","209303","0.0-8.0-0.4","5ed543442db0060a955d12e1","640759fa512f630a2bdc333d","6408c17a67015beb52318783","22931.5","img/training5.png"," ","","","","","","","","","","","","","","","","","","","","",""
"","","","","","[""many-guess-6""]","17","217233","0.0-8.0-1.4-0.4","5ed543442db0060a955d12e1","640759fa512f630a2bdc333d","6408c17a67015beb52318783","[4482.5]","","","[29,33,25,6,21,20,7,2,9,17,1,28,27,16,10,5,4,11,8,22,30,12,34,31,14,32,18,26,24,0,3,35,23,15,19,13]","[221,201,291,122,132,52,171,92,241,72,211,331,231,102,62,261,281,161,42,12,191,181,2,321,82,341,112,351,251,311,22,151,141,32,301,271]","221","185","12.935284975224612","[12.935284975224612]","[187.93528497522462]","[187]","[120,30,120,300,120,300,210,30,300,120,30,120,30,30,300,300,120,210,300,300,210,210,120,120,210,210,210,210,120,210,120,120,300,210,300,30]","0","36","0","131.04699999999139","11.4530000059749","16","[[[""img/mask50.png""],[""img/mask78.png""],[""img/mask81.png""],[""img/mask96.png""],[""img/mask29.png""],[""img/mask58.png""],[""img/mask55.png""],[""img/mask19.png""],[""img/mask78.png""],[""img/mask26.png""],[""img/mask1.png""],[""img/mask31.png""],[""img/mask14.png""],[""img/mask80.png""],[""img/mask50.png""],[""img/mask91.png""],[""img/mask13.png""],[""img/mask65.png""],[""img/mask3.png""],[""img/mask82.png""],[""img/mask19.png""],[""img/mask60.png""],[""img/mask34.png""],[""img/mask21.png""],[""img/mask98.png""],[""img/mask79.png""],[""img/mask46.png""],[""img/mask1.png""],[""img/mask3.png""],[""img/mask21.png""],[""img/mask27.png""],[""img/mask23.png""],[""img/mask88.png""],[""img/mask64.png""],[""img/mask100.png""],[""img/mask77.png""]]]","","[29,33,25,6,21,20,7,2,9,17,1,28,27,16,10,5,4,11,8,22,30,12,34,31,14,32,18,26,24,0,3,35,23,15,19,13]","training","",""
"","","","","","image-keyboard-response","18","218594","0.0-9.0","5ed543442db0060a955d12e1","640759fa512f630a2bdc333d","6408c17a67015beb52318783","1360.2999999821186","[""img/endTraining.png""]"," ","","","","","","","","","","","","","","","","","","","","",""
"","","","","","color-precision2","19","231345","0.0-10.0-0.0-0.0","5ed543442db0060a955d12e1","640759fa512f630a2bdc333d","6408c17a67015beb52318783","[9277.300000011921]","","","[20]","[117]","117","75","176.57032571614806","[176.57032571614806]","[101.57032571614806]","[100]","0","0","1","0","147.58599998807767","991.9259999880742","1000","[[[""img/mask69.png""]]]","","","main","75","color-precision2"
"","","","","","html-keyboard-response","20","231849","0.0-10.0-1.0","5ed543442db0060a955d12e1","640759fa512f630a2bdc333d","6408c17a67015beb52318783","null","","null","","","","","","","","","","","","","","","","","","","fixation","",""
"","","","","","many-guess-6","21","239525","0.0-10.0-0.1-0.1","5ed543442db0060a955d12e1","640759fa512f630a2bdc333d","6408c17a67015beb52318783","[3040.7999999821186]","","","[28,1,21,10,19,30,7,20,0,32,33,9,3,2,29,22,35,31,11,27,14,24,4,13,16,8,23,15,6,12,18,34,17,26,25,5]","[176,226,345,196,276,186,315,56,96,46,146,216,166,6,66,136,76,26,236,106,325,116,355,16,206,36,266,256,126,286,86,156,335,295,305,246]","176","173","175.74992947959782","[175.74992947959782]","[2.7499294795978244]","[2]","[300,300,300,120,300,210,120,30,120]","0","36","0","147.46199998806696","16.40199998213211","16","[[[""img/mask74.png""],[""img/mask79.png""],[""img/mask87.png""],[""img/mask35.png""],[""img/mask83.png""],[""img/mask29.png""],[""img/mask3.png""],[""img/mask10.png""],[""img/mask44.png""],[""img/mask61.png""],[""img/mask54.png""],[""img/mask77.png""],[""img/mask82.png""],[""img/mask13.png""],[""img/mask80.png""],[""img/mask24.png""],[""img/mask97.png""],[""img/mask100.png""],[""img/mask66.png""],[""img/mask96.png""],[""img/mask41.png""],[""img/mask53.png""],[""img/mask33.png""],[""img/mask39.png""],[""img/mask14.png""],[""img/mask72.png""],[""img/mask73.png""],[""img/mask76.png""],[""img/mask72.png""],[""img/mask17.png""],[""img/mask34.png""],[""img/mask46.png""],[""img/mask92.png""],[""img/mask53.png""],[""img/mask30.png""],[""img/mask46.png""]]]","","[28,1,21,10,19,30,7,20,0,32,33,9,3,2,29,22,35,31,11,27,14,24,4,13,16,8,23,15,6,12,18,34,17,26,25,5]","main","173","many-guess-6"
"","","","","","html-keyboard-response","22","240027","0.0-10.0-1.1","5ed543442db0060a955d12e1","640759fa512f630a2bdc333d","6408c17a67015beb52318783","null","","null","","","","","","","","","","","","","","","","","","","fixation","",""
"","","","","","many-guess-6","23","244690","0.0-10.0-0.2-0.2","5ed543442db0060a955d12e1","640759fa512f630a2bdc333d","6408c17a67015beb52318783","[2840.300000011921]","","","[16,28,34,11,24,6,10,30,12,18,31,7,33,17,23,5,15,13,4,14,9,27,32,2,29,26,8,22,35,20,19,21,3,1,0,25]","[40,290,230,270,190,349,359,280,10,339,260,240,170,50,160,329,140,90,220,120,30,319,200,210,60,180,130,150,70,110,100,250,309,20,300,80]","40","289","94.72668472100047","[94.72668472100047]","[165.72668472100048]","[164]","[30,30,300,210,30,300,300,120,120]","0","36","0","149.1839999880758","20.054000000003725","16","[[[""img/mask53.png""],[""img/mask49.png""],[""img/mask87.png""],[""img/mask69.png""],[""img/mask23.png""],[""img/mask76.png""],[""img/mask54.png""],[""img/mask25.png""],[""img/mask81.png""],[""img/mask32.png""],[""img/mask78.png""],[""img/mask91.png""],[""img/mask49.png""],[""img/mask67.png""],[""img/mask16.png""],[""img/mask15.png""],[""img/mask50.png""],[""img/mask5.png""],[""img/mask52.png""],[""img/mask52.png""],[""img/mask83.png""],[""img/mask15.png""],[""img/mask47.png""],[""img/mask84.png""],[""img/mask1.png""],[""img/mask72.png""],[""img/mask66.png""],[""img/mask3.png""],[""img/mask60.png""],[""img/mask15.png""],[""img/mask19.png""],[""img/mask63.png""],[""img/mask43.png""],[""img/mask3.png""],[""img/mask46.png""],[""img/mask88.png""]]]","","[16,28,34,11,24,6,10,30,12,18,31,7,33,17,23,5,15,13,4,14,9,27,32,2,29,26,8,22,35,20,19,21,3,1,0,25]","main","289","many-guess-6"
"","","","","","html-keyboard-response","24","245193","0.0-10.0-1.2","5ed543442db0060a955d12e1","640759fa512f630a2bdc333d","6408c17a67015beb52318783","null","","null","","","","","","","","","","","","","","","","","","","fixation","",""
"","","","","","many-guess-6","25","250358","0.0-10.0-0.3-0.3","5ed543442db0060a955d12e1","640759fa512f630a2bdc333d","6408c17a67015beb52318783","[3272.5999999940395]","","","[8,34,15,24,10,18,6,35,25,2,16,23,26,1,21,0,11,30,29,28,17,19,5,4,27,32,20,33,3,13,12,22,9,7,31,14]","[216,335,156,285,146,275,26,245,196,116,6,126,16,226,106,176,236,186,76,56,36,166,66,136,305,96,345,46,295,315,265,255,355,86,206,325]","216","244","324.3847128978715","[324.3847128978715]","[80.38471289787151]","[80]","[300,210,120,210,120,120,210,300,30]","0","36","0","147.80799998808652","11.448000000003958","16","[[[""img/mask2.png""],[""img/mask47.png""],[""img/mask91.png""],[""img/mask51.png""],[""img/mask42.png""],[""img/mask46.png""],[""img/mask96.png""],[""img/mask46.png""],[""img/mask34.png""],[""img/mask42.png""],[""img/mask71.png""],[""img/mask42.png""],[""img/mask27.png""],[""img/mask57.png""],[""img/mask38.png""],[""img/mask5.png""],[""img/mask51.png""],[""img/mask61.png""],[""img/mask13.png""],[""img/mask16.png""],[""img/mask79.png""],[""img/mask100.png""],[""img/mask49.png""],[""img/mask82.png""],[""img/mask28.png""],[""img/mask40.png""],[""img/mask98.png""],[""img/mask29.png""],[""img/mask62.png""],[""img/mask59.png""],[""img/mask42.png""],[""img/mask93.png""],[""img/mask30.png""],[""img/mask60.png""],[""img/mask99.png""],[""img/mask83.png""]]]","","[8,34,15,24,10,18,6,35,25,2,16,23,26,1,21,0,11,30,29,28,17,19,5,4,27,32,20,33,3,13,12,22,9,7,31,14]","main","244","many-guess-6"
"","","","","","html-keyboard-response","26","250865","0.0-10.0-1.3","5ed543442db0060a955d12e1","640759fa512f630a2bdc333d","6408c17a67015beb52318783","null","","null","","","","","","","","","","","","","","","","","","","fixation","",""
"","","","","","color-precision2","27","255754","0.0-10.0-0.4-0.4","5ed543442db0060a955d12e1","640759fa512f630a2bdc333d","6408c17a67015beb52318783","[2353.4000000059605]","","","[0]","[199]","199","177","35.35227102744287","[35.35227102744287]","[218.35227102744287]","[217]","0","0","1","0","147.38599999406142","995.8259999880684","1000","[[[""img/mask77.png""]]]","","","main","177","color-precision2"
"","","","","","html-keyboard-response","28","256268","0.0-10.0-1.4","5ed543442db0060a955d12e1","640759fa512f630a2bdc333d","6408c17a67015beb52318783","null","","null","","","","","","","","","","","","","","","","","","","fixation","",""
"","","","","","color-precision2","29","261430","0.0-10.0-0.5-0.5","5ed543442db0060a955d12e1","640759fa512f630a2bdc333d","6408c17a67015beb52318783","[2462.5999999940395]","","","[6]","[193]","193","201","46.314856715444584","[46.314856715444584]","[205.3148567154446]","[204]","0","0","1","0","149.22999999998137","992.769999988086","1000","[[[""img/mask72.png""]]]","","","main","201","color-precision2"
"","","","","","html-keyboard-response","30","261932","0.0-10.0-1.5","5ed543442db0060a955d12e1","640759fa512f630a2bdc333d","6408c17a67015beb52318783","null","","null","","","","","","","","","","","","","","","","","","","fixation","",""
"","","","","","color-precision2","31","265984","0.0-10.0-0.6-0.6","5ed543442db0060a955d12e1","640759fa512f630a2bdc333d","6408c17a67015beb52318783","[1551.5999999940395]","","","[9]","[55]","55","74","131.29253982223227","[131.29253982223227]","[57.29253982223227]","[55]","0","0","1","0","147.94500000000698","1005.8849999940139","1000","[[[""img/mask46.png""]]]","","","main","74","color-precision2"
"","","","","","html-keyboard-response","32","266489","0.0-10.0-1.6","5ed543442db0060a955d12e1","640759fa512f630a2bdc333d","6408c17a67015beb52318783","null","","null","","","","","","","","","","","","","","","","","","","fixation","",""
"","","","","","many-guess-6","33","271424","0.0-10.0-0.7-0.7","5ed543442db0060a955d12e1","640759fa512f630a2bdc333d","6408c17a67015beb52318783","[3058.5]","","","[15,21,34,8,19,20,5,22,7,16,33,3,6,23,14,18,10,9,32,28,31,35,24,2,11,29,0,12,4,17,27,25,26,13,30,1]","[210,51,250,180,300,120,200,160,91,310,150,290,170,101,280,270,190,240,21,130,71,81,111,61,340,320,1,260,220,140,41,31,350,330,11,230]","210","189","155.849814118796","[155.849814118796]","[326.84981411879596]","[325]","[210,30,30,300,120,300,210,300,210]","0","36","0","148.22099999402417","10.461000000010245","16","[[[""img/mask5.png""],[""img/mask52.png""],[""img/mask63.png""],[""img/mask59.png""],[""img/mask21.png""],[""img/mask62.png""],[""img/mask76.png""],[""img/mask28.png""],[""img/mask96.png""],[""img/mask1.png""],[""img/mask46.png""],[""img/mask81.png""],[""img/mask12.png""],[""img/mask38.png""],[""img/mask5.png""],[""img/mask78.png""],[""img/mask31.png""],[""img/mask9.png""],[""img/mask39.png""],[""img/mask53.png""],[""img/mask34.png""],[""img/mask1.png""],[""img/mask28.png""],[""img/mask12.png""],[""img/mask59.png""],[""img/mask55.png""],[""img/mask21.png""],[""img/mask1.png""],[""img/mask2.png""],[""img/mask56.png""],[""img/mask12.png""],[""img/mask92.png""],[""img/mask60.png""],[""img/mask2.png""],[""img/mask23.png""],[""img/mask46.png""]]]","","[15,21,34,8,19,20,5,22,7,16,33,3,6,23,14,18,10,9,32,28,31,35,24,2,11,29,0,12,4,17,27,25,26,13,30,1]","main","189","many-guess-6"
"","","","","","html-keyboard-response","34","271929","0.0-10.0-1.7","5ed543442db0060a955d12e1","640759fa512f630a2bdc333d","6408c17a67015beb52318783","null","","null","","","","","","","","","","","","","","","","","","","fixation","",""
"","","","","","many-guess-6","35","276114","0.0-10.0-0.8-0.8","5ed543442db0060a955d12e1","640759fa512f630a2bdc333d","6408c17a67015beb52318783","[2530.4000000059605]","","","[30,34,32,14,19,9,24,4,23,11,26,3,5,0,12,10,17,16,35,21,2,31,29,28,8,25,33,22,18,7,27,1,15,20,13,6]","[291,321,281,152,351,261,122,92,221,271,301,42,172,331,102,182,112,72,202,251,22,2,52,341,142,311,62,162,12,132,231,211,192,32,241,82]","291","209","262.6449136510201","[262.6449136510201]","[53.64491365102009]","[54]","[30,210,30,210,300,300,120,300,210]","0","36","0","145.6649999821093","11.504999982134905","16","[[[""img/mask24.png""],[""img/mask40.png""],[""img/mask28.png""],[""img/mask60.png""],[""img/mask56.png""],[""img/mask71.png""],[""img/mask31.png""],[""img/mask41.png""],[""img/mask21.png""],[""img/mask20.png""],[""img/mask39.png""],[""img/mask94.png""],[""img/mask22.png""],[""img/mask98.png""],[""img/mask95.png""],[""img/mask87.png""],[""img/mask53.png""],[""img/mask61.png""],[""img/mask57.png""],[""img/mask31.png""],[""img/mask44.png""],[""img/mask74.png""],[""img/mask3.png""],[""img/mask44.png""],[""img/mask61.png""],[""img/mask82.png""],[""img/mask94.png""],[""img/mask93.png""],[""img/mask39.png""],[""img/mask35.png""],[""img/mask35.png""],[""img/mask91.png""],[""img/mask96.png""],[""img/mask43.png""],[""img/mask63.png""],[""img/mask45.png""]]]","","[30,34,32,14,19,9,24,4,23,11,26,3,5,0,12,10,17,16,35,21,2,31,29,28,8,25,33,22,18,7,27,1,15,20,13,6]","main","209","many-guess-6"
"","","","","","html-keyboard-response","36","276615","0.0-10.0-1.8","5ed543442db0060a955d12e1","640759fa512f630a2bdc333d","6408c17a67015beb52318783","null","","null","","","","","","","","","","","","","","","","","","","fixation","",""
"","","","","","color-precision2","37","280352","0.0-10.0-0.9-0.9","5ed543442db0060a955d12e1","640759fa512f630a2bdc333d","6408c17a67015beb52318783","[1270.0999999940395]","","","[13]","[121]","121","249","15.08467061066686","[15.08467061066686]","[126.08467061066685]","[125]","0","0","1","0","148.5450000059791","999.3850000059465","1000","[[[""img/mask59.png""]]]","","","main","249","color-precision2"
"","","","","","html-keyboard-response","38","280857","0.0-10.0-1.9","5ed543442db0060a955d12e1","640759fa512f630a2bdc333d","6408c17a67015beb52318783","null","","null","","","","","","","","","","","","","","","","","","","fixation","",""
"","","","","","many-guess-6","39","284656","0.0-10.0-0.10-0.10","5ed543442db0060a955d12e1","640759fa512f630a2bdc333d","6408c17a67015beb52318783","[2305.7999999821186]","","","[6,25,16,32,20,13,26,4,22,14,9,24,30,33,10,5,27,29,12,2,3,8,15,35,1,11,7,28,34,31,19,23,18,21,17,0]","[103,132,202,302,282,3,262,322,113,63,13,33,53,142,292,252,122,192,272,43,222,312,83,232,352,162,332,152,212,73,182,172,342,242,23,93]","103","310","253.70249350172475","[253.70249350172475]","[303.70249350172475]","[305]","[30,30,30,210,30,210,210,210,30]","0","36","0","149.38099998806138","10.320999982126523","16","[[[""img/mask19.png""],[""img/mask15.png""],[""img/mask90.png""],[""img/mask12.png""],[""img/mask70.png""],[""img/mask59.png""],[""img/mask65.png""],[""img/mask100.png""],[""img/mask55.png""],[""img/mask52.png""],[""img/mask43.png""],[""img/mask92.png""],[""img/mask69.png""],[""img/mask95.png""],[""img/mask45.png""],[""img/mask31.png""],[""img/mask26.png""],[""img/mask73.png""],[""img/mask16.png""],[""img/mask74.png""],[""img/mask29.png""],[""img/mask23.png""],[""img/mask21.png""],[""img/mask100.png""],[""img/mask17.png""],[""img/mask20.png""],[""img/mask5.png""],[""img/mask39.png""],[""img/mask56.png""],[""img/mask78.png""],[""img/mask31.png""],[""img/mask74.png""],[""img/mask29.png""],[""img/mask46.png""],[""img/mask81.png""],[""img/mask67.png""]]]","","[6,25,16,32,20,13,26,4,22,14,9,24,30,33,10,5,27,29,12,2,3,8,15,35,1,11,7,28,34,31,19,23,18,21,17,0]","main","310","many-guess-6"
"","","","","","html-keyboard-response","40","285161","0.0-10.0-1.10","5ed543442db0060a955d12e1","640759fa512f630a2bdc333d","6408c17a67015beb52318783","null","","null","","","","","","","","","","","","","","","","","","","fixation","",""
"","","","","","color-precision2","41","288399","0.0-10.0-0.11-0.11","5ed543442db0060a955d12e1","640759fa512f630a2bdc333d","6408c17a67015beb52318783","[798.9000000059605]","","","[10]","[10]","10","165","164.53293803109645","[164.53293803109645]","[359.5329380310965]","[358]","0","0","1","0","148.27899999998044","1004.119000000006","1000","[[[""img/mask34.png""]]]","","","main","165","color-precision2"
"","","","","","html-keyboard-response","42","288900","0.0-10.0-1.11","5ed543442db0060a955d12e1","640759fa512f630a2bdc333d","6408c17a67015beb52318783","null","","null","","","","","","","","","","","","","","","","","","","fixation","",""
"","","","","","many-guess-6","43","292746","0.0-10.0-0.12-0.12","5ed543442db0060a955d12e1","640759fa512f630a2bdc333d","6408c17a67015beb52318783","[2431.5]","","","[5,3,22,12,19,24,14,32,33,16,35,29,20,8,18,21,31,15,6,27,25,7,4,2,28,30,13,10,23,9,26,34,17,0,11,1]","[50,119,99,70,60,349,259,209,129,159,199,219,359,40,249,30,149,289,279,309,319,79,169,179,329,239,139,20,299,339,109,229,10,269,89,189]","50","315","312.39103351614835","[312.39103351614835]","[357.39103351614835]","[357]","[120,30,300,300,210,120,210,30,300]","0","36","0","148.63699998211814","8.07700000598561","16","[[[""img/mask49.png""],[""img/mask26.png""],[""img/mask6.png""],[""img/mask8.png""],[""img/mask37.png""],[""img/mask10.png""],[""img/mask13.png""],[""img/mask76.png""],[""img/mask68.png""],[""img/mask95.png""],[""img/mask90.png""],[""img/mask94.png""],[""img/mask10.png""],[""img/mask76.png""],[""img/mask56.png""],[""img/mask93.png""],[""img/mask46.png""],[""img/mask74.png""],[""img/mask35.png""],[""img/mask35.png""],[""img/mask23.png""],[""img/mask3.png""],[""img/mask16.png""],[""img/mask16.png""],[""img/mask70.png""],[""img/mask15.png""],[""img/mask48.png""],[""img/mask90.png""],[""img/mask9.png""],[""img/mask84.png""],[""img/mask55.png""],[""img/mask20.png""],[""img/mask29.png""],[""img/mask2.png""],[""img/mask100.png""],[""img/mask89.png""]]]","","[5,3,22,12,19,24,14,32,33,16,35,29,20,8,18,21,31,15,6,27,25,7,4,2,28,30,13,10,23,9,26,34,17,0,11,1]","main","315","many-guess-6"
"","","","","","html-keyboard-response","44","293247","0.0-10.0-1.12","5ed543442db0060a955d12e1","640759fa512f630a2bdc333d","6408c17a67015beb52318783","null","","null","","","","","","","","","","","","","","","","","","","fixation","",""
"","","","","","color-precision2","45","296026","0.0-10.0-0.13-0.13","5ed543442db0060a955d12e1","640759fa512f630a2bdc333d","6408c17a67015beb52318783","[310.5]","","","[20]","[128]","128","244","9.020405180439592","[9.020405180439592]","[125.02040518043958]","[124]","0","0","1","0","149.00599999405676","1006.7609999821289","1000","[[[""img/mask21.png""]]]","","","main","244","color-precision2"
"","","","","","html-keyboard-response","46","296530","0.0-10.0-1.13","5ed543442db0060a955d12e1","640759fa512f630a2bdc333d","6408c17a67015beb52318783","null","","null","","","","","","","","","","","","","","","","","","","fixation","",""
"","","","","","color-precision2","47","299792","0.0-10.0-0.14-0.14","5ed543442db0060a955d12e1","640759fa512f630a2bdc333d","6408c17a67015beb52318783","[892.0999999940395]","","","[29]","[338]","338","134","100.50177526997054","[100.50177526997054]","[326.50177526997055]","[325]","0","0","1","0","147.71199999406235","991.9519999999902","1000","[[[""img/mask28.png""]]]","","","main","134","color-precision2"
"","","","","","html-keyboard-response","48","300297","0.0-10.0-1.14","5ed543442db0060a955d12e1","640759fa512f630a2bdc333d","6408c17a67015beb52318783","null","","null","","","","","","","","","","","","","","","","","","","fixation","",""
"","","","","","color-precision2","49","303101","0.0-10.0-0.15-0.15","5ed543442db0060a955d12e1","640759fa512f630a2bdc333d","6408c17a67015beb52318783","[417.69999998807907]","","","[15]","[130]","130","169","297.17605967406837","[297.17605967406837]","[128.17605967406837]","[130]","0","0","1","0","147.2939999999944","999.2339999940596","1000","[[[""img/mask77.png""]]]","","","main","169","color-precision2"
"","","","","","html-keyboard-response","50","303608","0.0-10.0-1.15","5ed543442db0060a955d12e1","640759fa512f630a2bdc333d","6408c17a67015beb52318783","null","","null","","","","","","","","","","","","","","","","","","","fixation","",""
"","","","","","many-guess-6","51","307206","0.0-10.0-0.16-0.16","5ed543442db0060a955d12e1","640759fa512f630a2bdc333d","6408c17a67015beb52318783","[2140.4000000059605]","","","[0,23,34,5,2,32,25,27,8,6,10,3,7,15,22,31,28,20,30,13,4,11,18,1,19,33,35,9,16,14,24,17,29,12,26,21]","[306,296,97,316,167,257,57,147,267,37,276,17,326,237,47,336,217,157,107,127,247,207,77,27,117,197,346,87,137,356,187,67,7,286,227,177]","306","164","101.4401757762348","[101.4401757762348]","[297.4401757762348]","[295]","[30,30,30,300,300,210,300,120,120]","0","36","0","147.7319999880856","22.97199999401346","16","[[[""img/mask33.png""],[""img/mask87.png""],[""img/mask46.png""],[""img/mask50.png""],[""img/mask87.png""],[""img/mask25.png""],[""img/mask39.png""],[""img/mask21.png""],[""img/mask50.png""],[""img/mask63.png""],[""img/mask87.png""],[""img/mask95.png""],[""img/mask43.png""],[""img/mask30.png""],[""img/mask84.png""],[""img/mask46.png""],[""img/mask14.png""],[""img/mask43.png""],[""img/mask50.png""],[""img/mask82.png""],[""img/mask9.png""],[""img/mask71.png""],[""img/mask15.png""],[""img/mask46.png""],[""img/mask12.png""],[""img/mask14.png""],[""img/mask91.png""],[""img/mask27.png""],[""img/mask98.png""],[""img/mask29.png""],[""img/mask69.png""],[""img/mask88.png""],[""img/mask99.png""],[""img/mask28.png""],[""img/mask94.png""],[""img/mask69.png""]]]","","[0,23,34,5,2,32,25,27,8,6,10,3,7,15,22,31,28,20,30,13,4,11,18,1,19,33,35,9,16,14,24,17,29,12,26,21]","main","164","many-guess-6"
"","","","","","html-keyboard-response","52","307715","0.0-10.0-1.16","5ed543442db0060a955d12e1","640759fa512f630a2bdc333d","6408c17a67015beb52318783","null","","null","","","","","","","","","","","","","","","","","","","fixation","",""
"","","","","","many-guess-6","53","311315","0.0-10.0-0.17-0.17","5ed543442db0060a955d12e1","640759fa512f630a2bdc333d","6408c17a67015beb52318783","[2182.2000000178814]","","","[21,24,7,0,34,29,5,12,19,8,32,35,33,9,17,14,6,11,30,4,26,15,31,27,2,22,3,28,25,10,20,16,18,23,1,13]","[239,318,348,288,119,199,169,89,308,338,79,59,139,249,189,9,328,49,149,298,109,269,358,159,219,69,209,229,179,29,129,39,99,259,19,279]","239","93","287.92378235427674","[287.92378235427674]","[194.92378235427674]","[195]","[300,210,120,300,120,210,300,30,300]","0","36","0","147.8410000000149","7.680999999982305","16","[[[""img/mask9.png""],[""img/mask52.png""],[""img/mask32.png""],[""img/mask79.png""],[""img/mask88.png""],[""img/mask89.png""],[""img/mask51.png""],[""img/mask91.png""],[""img/mask84.png""],[""img/mask95.png""],[""img/mask31.png""],[""img/mask4.png""],[""img/mask3.png""],[""img/mask64.png""],[""img/mask97.png""],[""img/mask13.png""],[""img/mask50.png""],[""img/mask76.png""],[""img/mask72.png""],[""img/mask15.png""],[""img/mask80.png""],[""img/mask89.png""],[""img/mask43.png""],[""img/mask81.png""],[""img/mask48.png""],[""img/mask59.png""],[""img/mask38.png""],[""img/mask81.png""],[""img/mask100.png""],[""img/mask100.png""],[""img/mask68.png""],[""img/mask80.png""],[""img/mask70.png""],[""img/mask48.png""],[""img/mask72.png""],[""img/mask38.png""]]]","","[21,24,7,0,34,29,5,12,19,8,32,35,33,9,17,14,6,11,30,4,26,15,31,27,2,22,3,28,25,10,20,16,18,23,1,13]","main","93","many-guess-6"
"","","","","","html-keyboard-response","54","311816","0.0-10.0-1.17","5ed543442db0060a955d12e1","640759fa512f630a2bdc333d","6408c17a67015beb52318783","null","","null","","","","","","","","","","","","","","","","","","","fixation","",""
"","","","","","color-precision2","55","315030","0.0-10.0-0.18-0.18","5ed543442db0060a955d12e1","640759fa512f630a2bdc333d","6408c17a67015beb52318783","[715.7000000178814]","","","[26]","[61]","61","135","189.36877715465306","[189.36877715465306]","[54.36877715465306]","[54]","0","0","1","0","148.66699998808326","998.0069999880507","1000","[[[""img/mask75.png""]]]","","","main","135","color-precision2"
"","","","","","html-keyboard-response","56","315531","0.0-10.0-1.18","5ed543442db0060a955d12e1","640759fa512f630a2bdc333d","6408c17a67015beb52318783","null","","null","","","","","","","","","","","","","","","","","","","fixation","",""
"","","","","","many-guess-6","57","320712","0.0-10.0-0.19-0.19","5ed543442db0060a955d12e1","640759fa512f630a2bdc333d","6408c17a67015beb52318783","[3680.7999999821186]","","","[17,20,19,13,31,15,24,2,32,3,28,5,21,29,10,30,0,18,14,26,11,33,12,9,1,25,7,16,34,27,23,4,35,8,6,22]","[192,202,62,122,332,342,282,212,32,42,162,352,92,3,102,272,142,232,52,82,72,222,132,252,172,292,13,312,22,302,242,182,152,112,322,262]","192","216","63.58054901409062","[63.58054901409062]","[207.58054901409062]","[206]","[120,120,300,120,300,210,210,30,30]","0","36","0","147.92500000598375","21.164999982109293","16","[[[""img/mask97.png""],[""img/mask9.png""],[""img/mask90.png""],[""img/mask26.png""],[""img/mask85.png""],[""img/mask48.png""],[""img/mask76.png""],[""img/mask54.png""],[""img/mask63.png""],[""img/mask74.png""],[""img/mask38.png""],[""img/mask51.png""],[""img/mask51.png""],[""img/mask46.png""],[""img/mask63.png""],[""img/mask68.png""],[""img/mask12.png""],[""img/mask74.png""],[""img/mask72.png""],[""img/mask35.png""],[""img/mask81.png""],[""img/mask64.png""],[""img/mask68.png""],[""img/mask5.png""],[""img/mask36.png""],[""img/mask73.png""],[""img/mask24.png""],[""img/mask8.png""],[""img/mask27.png""],[""img/mask70.png""],[""img/mask55.png""],[""img/mask62.png""],[""img/mask28.png""],[""img/mask3.png""],[""img/mask70.png""],[""img/mask12.png""]]]","","[17,20,19,13,31,15,24,2,32,3,28,5,21,29,10,30,0,18,14,26,11,33,12,9,1,25,7,16,34,27,23,4,35,8,6,22]","main","216","many-guess-6"
"","","","","","html-keyboard-response","58","324432","0.0-10.0-1.19","5ed543442db0060a955d12e1","640759fa512f630a2bdc333d","6408c17a67015beb52318783","3719.2000000178814","Wow! You've completed 20 out of 180 trials! </p> <p>  </p><p> Take a quick break, then press any key when you're ready to continue."," ","","","","","","","","","","","","","","","","","","","fixation","",""
"","","","","","color-precision2","59","328446","0.0-10.0-0.20-0.20","5ed543442db0060a955d12e1","640759fa512f630a2bdc333d","6408c17a67015beb52318783","[1297.300000011921]","","","[33]","[299]","299","18","306.2671438658248","[306.2671438658248]","[288.2671438658248]","[288]","0","0","1","0","146.93999998213258","1000.8800000059418","1000","[[[""img/mask51.png""]]]","","","main","18","color-precision2"
"","","","","","html-keyboard-response","60","328947","0.0-10.0-1.20","5ed543442db0060a955d12e1","640759fa512f630a2bdc333d","6408c17a67015beb52318783","null","","null","","","","","","","","","","","","","","","","","","","fixation","",""
"","","","","","many-guess-6","61","332144","0.0-10.0-0.21-0.21","5ed543442db0060a955d12e1","640759fa512f630a2bdc333d","6408c17a67015beb52318783","[1778.300000011921]","","","[4,19,21,6,3,14,11,5,33,12,16,20,10,7,27,9,24,13,29,30,15,25,2,32,23,17,26,35,31,1,22,34,18,28,8,0]","[235,195,15,245,105,175,155,304,354,255,225,314,294,35,215,265,165,324,274,45,344,75,55,145,185,284,115,65,125,205,334,135,5,25,85,95]","235","324","249.96184103370064","[249.96184103370064]","[285.96184103370064]","[286]","[210,30,210,210,300,120,30,120,300]","0","36","0","147.67800000001444","8.117999994021375","16","[[[""img/mask57.png""],[""img/mask98.png""],[""img/mask74.png""],[""img/mask95.png""],[""img/mask70.png""],[""img/mask89.png""],[""img/mask3.png""],[""img/mask67.png""],[""img/mask67.png""],[""img/mask25.png""],[""img/mask57.png""],[""img/mask97.png""],[""img/mask61.png""],[""img/mask27.png""],[""img/mask47.png""],[""img/mask64.png""],[""img/mask21.png""],[""img/mask62.png""],[""img/mask49.png""],[""img/mask37.png""],[""img/mask73.png""],[""img/mask62.png""],[""img/mask94.png""],[""img/mask50.png""],[""img/mask29.png""],[""img/mask87.png""],[""img/mask60.png""],[""img/mask55.png""],[""img/mask83.png""],[""img/mask55.png""],[""img/mask3.png""],[""img/mask80.png""],[""img/mask53.png""],[""img/mask45.png""],[""img/mask39.png""],[""img/mask51.png""]]]","","[4,19,21,6,3,14,11,5,33,12,16,20,10,7,27,9,24,13,29,30,15,25,2,32,23,17,26,35,31,1,22,34,18,28,8,0]","main","324","many-guess-6"
"","","","","","html-keyboard-response","62","332647","0.0-10.0-1.21","5ed543442db0060a955d12e1","640759fa512f630a2bdc333d","6408c17a67015beb52318783","null","","null","","","","","","","","","","","","","","","","","","","fixation","",""
"","","","","","color-precision2","63","337079","0.0-10.0-0.22-0.22","5ed543442db0060a955d12e1","640759fa512f630a2bdc333d","6408c17a67015beb52318783","[1948.4000000059605]","","","[17]","[175]","175","117","280.76372733966","[280.76372733966]","[163.76372733966002]","[164]","0","0","1","0","147.9529999999795","999.8929999940447","1000","[[[""img/mask60.png""]]]","","","main","117","color-precision2"
"","","","","","html-keyboard-response","64","337580","0.0-10.0-1.22","5ed543442db0060a955d12e1","640759fa512f630a2bdc333d","6408c17a67015beb52318783","null","","null","","","","","","","","","","","","","","","","","","","fixation","",""
"","","","","","many-guess-6","65","341245","0.0-10.0-0.23-0.23","5ed543442db0060a955d12e1","640759fa512f630a2bdc333d","6408c17a67015beb52318783","[2280.2999999821186]","","","[35,9,15,7,34,10,33,11,29,6,0,13,19,18,17,1,24,26,12,23,2,28,21,31,16,22,32,27,14,4,20,3,30,5,8,25]","[215,325,335,175,275,354,105,205,245,285,295,65,125,85,235,155,315,115,145,305,345,195,5,225,165,135,255,15,55,35,95,185,25,45,265,75]","215","113","49.072809925701364","[49.072809925701364]","[296.07280992570134]","[294]","[30,120,210,210,30,120,120,120,120]","0","36","0","147.63299999997253","15.272999982116744","16","[[[""img/mask88.png""],[""img/mask18.png""],[""img/mask29.png""],[""img/mask71.png""],[""img/mask23.png""],[""img/mask4.png""],[""img/mask86.png""],[""img/mask10.png""],[""img/mask67.png""],[""img/mask68.png""],[""img/mask63.png""],[""img/mask8.png""],[""img/mask61.png""],[""img/mask24.png""],[""img/mask86.png""],[""img/mask34.png""],[""img/mask78.png""],[""img/mask80.png""],[""img/mask67.png""],[""img/mask79.png""],[""img/mask1.png""],[""img/mask22.png""],[""img/mask41.png""],[""img/mask97.png""],[""img/mask84.png""],[""img/mask87.png""],[""img/mask26.png""],[""img/mask9.png""],[""img/mask6.png""],[""img/mask94.png""],[""img/mask29.png""],[""img/mask51.png""],[""img/mask41.png""],[""img/mask85.png""],[""img/mask50.png""],[""img/mask58.png""]]]","","[35,9,15,7,34,10,33,11,29,6,0,13,19,18,17,1,24,26,12,23,2,28,21,31,16,22,32,27,14,4,20,3,30,5,8,25]","main","113","many-guess-6"
"","","","","","html-keyboard-response","66","341746","0.0-10.0-1.23","5ed543442db0060a955d12e1","640759fa512f630a2bdc333d","6408c17a67015beb52318783","null","","null","","","","","","","","","","","","","","","","","","","fixation","",""
"","","","","","color-precision2","67","344715","0.0-10.0-0.24-0.24","5ed543442db0060a955d12e1","640759fa512f630a2bdc333d","6408c17a67015beb52318783","[635.0999999940395]","","","[12]","[291]","291","31","313.35952485771367","[313.35952485771367]","[282.35952485771367]","[283]","0","0","1","0","147.06299998809118","1006.9029999880586","1000","[[[""img/mask86.png""]]]","","","main","31","color-precision2"
"","","","","","html-keyboard-response","68","345217","0.0-10.0-1.24","5ed543442db0060a955d12e1","640759fa512f630a2bdc333d","6408c17a67015beb52318783","null","","null","","","","","","","","","","","","","","","","","","","fixation","",""
"","","","","","many-guess-6","69","349781","0.0-10.0-0.25-0.25","5ed543442db0060a955d12e1","640759fa512f630a2bdc333d","6408c17a67015beb52318783","[3233]","","","[35,26,12,31,6,17,1,33,18,3,20,22,7,13,30,21,9,29,27,2,24,4,28,16,15,8,34,0,14,25,10,23,5,11,19,32]","[204,314,164,344,334,114,194,144,94,184,104,254,15,354,5,74,274,294,124,304,174,284,35,224,244,134,214,84,25,45,234,55,264,324,154,64]","204","106","355.00992499473006","[355.00992499473006]","[249.00992499473006]","[248]","[300,120,120,210,300,300,120,30,30]","0","36","0","148.33100000594277","15.370999994047452","16","[[[""img/mask15.png""],[""img/mask3.png""],[""img/mask45.png""],[""img/mask78.png""],[""img/mask65.png""],[""img/mask98.png""],[""img/mask25.png""],[""img/mask74.png""],[""img/mask11.png""],[""img/mask43.png""],[""img/mask77.png""],[""img/mask73.png""],[""img/mask6.png""],[""img/mask46.png""],[""img/mask1.png""],[""img/mask2.png""],[""img/mask18.png""],[""img/mask93.png""],[""img/mask69.png""],[""img/mask4.png""],[""img/mask76.png""],[""img/mask26.png""],[""img/mask19.png""],[""img/mask34.png""],[""img/mask84.png""],[""img/mask48.png""],[""img/mask19.png""],[""img/mask88.png""],[""img/mask32.png""],[""img/mask64.png""],[""img/mask22.png""],[""img/mask5.png""],[""img/mask40.png""],[""img/mask66.png""],[""img/mask80.png""],[""img/mask97.png""]]]","","[35,26,12,31,6,17,1,33,18,3,20,22,7,13,30,21,9,29,27,2,24,4,28,16,15,8,34,0,14,25,10,23,5,11,19,32]","main","106","many-guess-6"
"","","","","","html-keyboard-response","70","350287","0.0-10.0-1.25","5ed543442db0060a955d12e1","640759fa512f630a2bdc333d","6408c17a67015beb52318783","null","","null","","","","","","","","","","","","","","","","","","","fixation","",""
"","","","","","many-guess-6","71","353938","0.0-10.0-0.26-0.26","5ed543442db0060a955d12e1","640759fa512f630a2bdc333d","6408c17a67015beb52318783","[2241.300000011921]","","","[5,21,15,26,25,33,35,31,29,28,2,8,10,6,30,32,9,1,20,27,7,4,13,14,3,11,24,18,34,0,16,19,12,17,23,22]","[9,208,188,228,288,109,79,308,248,29,89,39,158,258,59,358,138,148,118,338,198,69,318,178,298,128,328,168,19,268,218,348,238,49,99,278]","9","108","256.8021451007414","[256.8021451007414]","[148.80214510074143]","[149]","[300,120,210,300,120,30,120,120,30]","0","36","0","148.4249999880558","15.465000005962793","16","[[[""img/mask23.png""],[""img/mask5.png""],[""img/mask76.png""],[""img/mask61.png""],[""img/mask71.png""],[""img/mask42.png""],[""img/mask14.png""],[""img/mask7.png""],[""img/mask4.png""],[""img/mask42.png""],[""img/mask65.png""],[""img/mask36.png""],[""img/mask45.png""],[""img/mask57.png""],[""img/mask16.png""],[""img/mask68.png""],[""img/mask52.png""],[""img/mask59.png""],[""img/mask34.png""],[""img/mask46.png""],[""img/mask46.png""],[""img/mask44.png""],[""img/mask79.png""],[""img/mask74.png""],[""img/mask67.png""],[""img/mask25.png""],[""img/mask24.png""],[""img/mask100.png""],[""img/mask99.png""],[""img/mask44.png""],[""img/mask53.png""],[""img/mask69.png""],[""img/mask6.png""],[""img/mask90.png""],[""img/mask88.png""],[""img/mask89.png""]]]","","[5,21,15,26,25,33,35,31,29,28,2,8,10,6,30,32,9,1,20,27,7,4,13,14,3,11,24,18,34,0,16,19,12,17,23,22]","main","108","many-guess-6"
"","","","","","html-keyboard-response","72","354442","0.0-10.0-1.26","5ed543442db0060a955d12e1","640759fa512f630a2bdc333d","6408c17a67015beb52318783","null","","null","","","","","","","","","","","","","","","","","","","fixation","",""
"","","","","","many-guess-6","73","358037","0.0-10.0-0.27-0.27","5ed543442db0060a955d12e1","640759fa512f630a2bdc333d","6408c17a67015beb52318783","[2121.800000011921]","","","[3,28,29,16,7,32,13,20,11,22,10,5,4,26,9,31,2,14,34,6,25,35,8,30,19,18,33,21,24,0,12,23,27,15,17,1]","[355,345,96,325,295,315,285,265,155,46,275,185,245,225,16,56,165,146,335,215,205,126,66,26,36,175,255,86,76,6,305,136,116,235,106,195]","355","228","140.278008199698","[140.278008199698]","[272.278008199698]","[271]","[300,210,300,30,120,210,120,300,300]","0","36","0","148.02600000001257","7.766000005940441","16","[[[""img/mask81.png""],[""img/mask75.png""],[""img/mask4.png""],[""img/mask52.png""],[""img/mask17.png""],[""img/mask61.png""],[""img/mask63.png""],[""img/mask87.png""],[""img/mask52.png""],[""img/mask54.png""],[""img/mask45.png""],[""img/mask53.png""],[""img/mask40.png""],[""img/mask43.png""],[""img/mask89.png""],[""img/mask73.png""],[""img/mask88.png""],[""img/mask51.png""],[""img/mask22.png""],[""img/mask77.png""],[""img/mask63.png""],[""img/mask49.png""],[""img/mask2.png""],[""img/mask85.png""],[""img/mask61.png""],[""img/mask98.png""],[""img/mask57.png""],[""img/mask60.png""],[""img/mask89.png""],[""img/mask36.png""],[""img/mask83.png""],[""img/mask49.png""],[""img/mask52.png""],[""img/mask85.png""],[""img/mask14.png""],[""img/mask72.png""]]]","","[3,28,29,16,7,32,13,20,11,22,10,5,4,26,9,31,2,14,34,6,25,35,8,30,19,18,33,21,24,0,12,23,27,15,17,1]","main","228","many-guess-6"
"","","","","","html-keyboard-response","74","358547","0.0-10.0-1.27","5ed543442db0060a955d12e1","640759fa512f630a2bdc333d","6408c17a67015beb52318783","null","","null","","","","","","","","","","","","","","","","","","","fixation","",""
"","","","","","many-guess-6","75","361975","0.0-10.0-0.28-0.28","5ed543442db0060a955d12e1","640759fa512f630a2bdc333d","6408c17a67015beb52318783","[1911.0999999940395]","","","[5,32,2,28,26,31,14,0,21,35,3,10,13,24,1,16,22,20,33,9,17,34,18,7,4,30,12,11,15,19,25,23,27,8,6,29]","[192,172,262,212,32,252,132,62,12,242,332,282,292,102,232,162,302,152,322,142,72,122,312,52,2,112,92,42,222,22,342,182,202,352,272,82]","192","318","225.86369770485027","[225.86369770485027]","[267.86369770485027]","[268]","[210,30,210,300,210,210,300,300,30]","0","36","0","148.45999999402557","14.499999982130248","16","[[[""img/mask24.png""],[""img/mask24.png""],[""img/mask87.png""],[""img/mask3.png""],[""img/mask95.png""],[""img/mask59.png""],[""img/mask44.png""],[""img/mask6.png""],[""img/mask15.png""],[""img/mask12.png""],[""img/mask44.png""],[""img/mask95.png""],[""img/mask56.png""],[""img/mask70.png""],[""img/mask28.png""],[""img/mask28.png""],[""img/mask31.png""],[""img/mask50.png""],[""img/mask27.png""],[""img/mask44.png""],[""img/mask44.png""],[""img/mask35.png""],[""img/mask15.png""],[""img/mask15.png""],[""img/mask16.png""],[""img/mask10.png""],[""img/mask83.png""],[""img/mask81.png""],[""img/mask58.png""],[""img/mask11.png""],[""img/mask23.png""],[""img/mask60.png""],[""img/mask20.png""],[""img/mask22.png""],[""img/mask6.png""],[""img/mask7.png""]]]","","[5,32,2,28,26,31,14,0,21,35,3,10,13,24,1,16,22,20,33,9,17,34,18,7,4,30,12,11,15,19,25,23,27,8,6,29]","main","318","many-guess-6"
"","","","","","html-keyboard-response","76","362480","0.0-10.0-1.28","5ed543442db0060a955d12e1","640759fa512f630a2bdc333d","6408c17a67015beb52318783","null","","null","","","","","","","","","","","","","","","","","","","fixation","",""
"","","","","","color-precision2","77","365954","0.0-10.0-0.29-0.29","5ed543442db0060a955d12e1","640759fa512f630a2bdc333d","6408c17a67015beb52318783","[915.4000000059605]","","","[17]","[249]","249","342","239.30495211560498","[239.30495211560498]","[257.304952115605]","[257]","0","0","1","0","148.01400000596186","996.3679999880842","1000","[[[""img/mask66.png""]]]","","","main","342","color-precision2"
"","","","","","html-keyboard-response","78","366455","0.0-10.0-1.29","5ed543442db0060a955d12e1","640759fa512f630a2bdc333d","6408c17a67015beb52318783","null","","null","","","","","","","","","","","","","","","","","","","fixation","",""
"","","","","","color-precision2","79","370080","0.0-10.0-0.30-0.30","5ed543442db0060a955d12e1","640759fa512f630a2bdc333d","6408c17a67015beb52318783","[1097.5]","","","[9]","[146]","146","241","23.637867261390976","[23.637867261390976]","[142.63786726139097]","[141]","0","0","1","0","146.9560000000056","995.3959999940125","1000","[[[""img/mask70.png""]]]","","","main","241","color-precision2"
"","","","","","html-keyboard-response","80","370582","0.0-10.0-1.30","5ed543442db0060a955d12e1","640759fa512f630a2bdc333d","6408c17a67015beb52318783","null","","null","","","","","","","","","","","","","","","","","","","fixation","",""
"","","","","","color-precision2","81","373614","0.0-10.0-0.31-0.31","5ed543442db0060a955d12e1","640759fa512f630a2bdc333d","6408c17a67015beb52318783","[665.2000000178814]","","","[6]","[154]","154","155","319.7501964021523","[319.7501964021523]","[164.7501964021523]","[165]","0","0","1","0","149.06399999401765","993.4039999940433","1000","[[[""img/mask47.png""]]]","","","main","155","color-precision2"
"","","","","","html-keyboard-response","82","374118","0.0-10.0-1.31","5ed543442db0060a955d12e1","640759fa512f630a2bdc333d","6408c17a67015beb52318783","null","","null","","","","","","","","","","","","","","","","","","","fixation","",""
"","","","","","color-precision2","83","376937","0.0-10.0-0.32-0.32","5ed543442db0060a955d12e1","640759fa512f630a2bdc333d","6408c17a67015beb52318783","[455]","","","[25]","[279]","279","357","266.0629644658364","[266.0629644658364]","[269.0629644658364]","[269]","0","0","1","0","148.52799999405397","1006.3679999940214","1000","[[[""img/mask62.png""]]]","","","main","357","color-precision2"
"","","","","","html-keyboard-response","84","377443","0.0-10.0-1.32","5ed543442db0060a955d12e1","640759fa512f630a2bdc333d","6408c17a67015beb52318783","null","","null","","","","","","","","","","","","","","","","","","","fixation","",""
"","","","","","many-guess-6","85","381608","0.0-10.0-0.33-0.33","5ed543442db0060a955d12e1","640759fa512f630a2bdc333d","6408c17a67015beb52318783","[2844.2999999821186]","","","[35,19,15,11,22,18,21,31,4,29,16,9,25,1,12,26,17,24,7,14,32,33,10,0,34,8,13,23,6,28,2,20,30,27,3,5]","[63,193,333,213,303,133,253,173,123,24,83,44,223,183,153,34,263,283,113,143,323,4,343,273,243,293,93,163,203,353,313,103,73,14,54,233]","63","185","225.46863118740563","[225.46863118740563]","[40.468631187405634]","[40]","[300,30,210,300,30,30,300,30,30]","0","36","0","147.86999998806277","23.410000005969778","16","[[[""img/mask11.png""],[""img/mask40.png""],[""img/mask64.png""],[""img/mask42.png""],[""img/mask40.png""],[""img/mask50.png""],[""img/mask16.png""],[""img/mask16.png""],[""img/mask20.png""],[""img/mask95.png""],[""img/mask45.png""],[""img/mask3.png""],[""img/mask87.png""],[""img/mask94.png""],[""img/mask61.png""],[""img/mask7.png""],[""img/mask94.png""],[""img/mask27.png""],[""img/mask13.png""],[""img/mask81.png""],[""img/mask26.png""],[""img/mask12.png""],[""img/mask4.png""],[""img/mask78.png""],[""img/mask67.png""],[""img/mask59.png""],[""img/mask6.png""],[""img/mask20.png""],[""img/mask99.png""],[""img/mask88.png""],[""img/mask76.png""],[""img/mask93.png""],[""img/mask12.png""],[""img/mask71.png""],[""img/mask90.png""],[""img/mask2.png""]]]","","[35,19,15,11,22,18,21,31,4,29,16,9,25,1,12,26,17,24,7,14,32,33,10,0,34,8,13,23,6,28,2,20,30,27,3,5]","main","185","many-guess-6"
"","","","","","html-keyboard-response","86","382112","0.0-10.0-1.33","5ed543442db0060a955d12e1","640759fa512f630a2bdc333d","6408c17a67015beb52318783","null","","null","","","","","","","","","","","","","","","","","","","fixation","",""
"","","","","","many-guess-6","87","386038","0.0-10.0-0.34-0.34","5ed543442db0060a955d12e1","640759fa512f630a2bdc333d","6408c17a67015beb52318783","[2457.5999999940395]","","","[20,4,30,33,28,29,23,16,5,25,14,21,18,34,1,17,26,2,0,12,15,3,24,10,8,22,19,35,31,32,11,13,9,7,27,6]","[91,81,340,300,31,350,280,71,61,210,121,290,240,131,51,270,180,41,250,151,230,11,260,161,200,330,1,170,220,320,190,101,141,310,111,21]","91","14","68.13849719272307","[68.13849719272307]","[54.138497192723065]","[53]","[120,30,30,120,300,30,300,30,210]","0","36","0","147.5440000059316","8.583999994036276","16","[[[""img/mask16.png""],[""img/mask88.png""],[""img/mask38.png""],[""img/mask83.png""],[""img/mask8.png""],[""img/mask48.png""],[""img/mask24.png""],[""img/mask52.png""],[""img/mask84.png""],[""img/mask15.png""],[""img/mask82.png""],[""img/mask86.png""],[""img/mask42.png""],[""img/mask59.png""],[""img/mask53.png""],[""img/mask93.png""],[""img/mask64.png""],[""img/mask63.png""],[""img/mask51.png""],[""img/mask90.png""],[""img/mask23.png""],[""img/mask45.png""],[""img/mask73.png""],[""img/mask15.png""],[""img/mask61.png""],[""img/mask69.png""],[""img/mask57.png""],[""img/mask89.png""],[""img/mask5.png""],[""img/mask42.png""],[""img/mask77.png""],[""img/mask52.png""],[""img/mask71.png""],[""img/mask3.png""],[""img/mask36.png""],[""img/mask12.png""]]]","","[20,4,30,33,28,29,23,16,5,25,14,21,18,34,1,17,26,2,0,12,15,3,24,10,8,22,19,35,31,32,11,13,9,7,27,6]","main","14","many-guess-6"
"","","","","","html-keyboard-response","88","386545","0.0-10.0-1.34","5ed543442db0060a955d12e1","640759fa512f630a2bdc333d","6408c17a67015beb52318783","null","","null","","","","","","","","","","","","","","","","","","","fixation","",""
"","","","","","many-guess-6","89","390124","0.0-10.0-0.35-0.35","5ed543442db0060a955d12e1","640759fa512f630a2bdc333d","6408c17a67015beb52318783","[2092.5]","","","[1,16,2,30,31,26,18,7,27,10,35,0,6,13,32,21,22,23,15,14,5,12,11,34,4,19,20,8,9,3,17,24,29,28,25,33]","[7,176,126,306,216,226,166,27,156,116,76,136,37,356,57,296,336,276,246,86,266,196,96,146,66,236,186,256,17,316,106,286,206,326,346,47]","7","189","151.08989746421085","[151.08989746421085]","[322.0898974642108]","[321]","[210,120,300,300,300,210,30,300,120]","0","36","0","148.446999988053","11.286999988078605","16","[[[""img/mask16.png""],[""img/mask67.png""],[""img/mask63.png""],[""img/mask29.png""],[""img/mask35.png""],[""img/mask62.png""],[""img/mask74.png""],[""img/mask60.png""],[""img/mask95.png""],[""img/mask1.png""],[""img/mask3.png""],[""img/mask10.png""],[""img/mask73.png""],[""img/mask9.png""],[""img/mask43.png""],[""img/mask75.png""],[""img/mask23.png""],[""img/mask95.png""],[""img/mask1.png""],[""img/mask77.png""],[""img/mask53.png""],[""img/mask58.png""],[""img/mask78.png""],[""img/mask78.png""],[""img/mask100.png""],[""img/mask95.png""],[""img/mask9.png""],[""img/mask21.png""],[""img/mask15.png""],[""img/mask16.png""],[""img/mask24.png""],[""img/mask39.png""],[""img/mask29.png""],[""img/mask72.png""],[""img/mask59.png""],[""img/mask68.png""]]]","","[1,16,2,30,31,26,18,7,27,10,35,0,6,13,32,21,22,23,15,14,5,12,11,34,4,19,20,8,9,3,17,24,29,28,25,33]","main","189","many-guess-6"
"","","","","","html-keyboard-response","90","390629","0.0-10.0-1.35","5ed543442db0060a955d12e1","640759fa512f630a2bdc333d","6408c17a67015beb52318783","null","","null","","","","","","","","","","","","","","","","","","","fixation","",""
"","","","","","color-precision2","91","393362","0.0-10.0-0.36-0.36","5ed543442db0060a955d12e1","640759fa512f630a2bdc333d","6408c17a67015beb52318783","[382.90000000596046]","","","[11]","[30]","30","135","145.0308361110072","[145.0308361110072]","[10.030836111007204]","[8]","0","0","1","0","145.6489999940386","1007.1889999821433","1000","[[[""img/mask36.png""]]]","","","main","135","color-precision2"
"","","","","","html-keyboard-response","92","393865","0.0-10.0-1.36","5ed543442db0060a955d12e1","640759fa512f630a2bdc333d","6408c17a67015beb52318783","null","","null","","","","","","","","","","","","","","","","","","","fixation","",""
"","","","","","color-precision2","93","397263","0.0-10.0-0.37-0.37","5ed543442db0060a955d12e1","640759fa512f630a2bdc333d","6408c17a67015beb52318783","[1033.7000000178814]","","","[35]","[11]","11","200","209.64895366449304","[209.64895366449304]","[9.648953664493035]","[11]","0","0","1","0","147.08200000593206","995.75900000002","1000","[[[""img/mask57.png""]]]","","","main","200","color-precision2"
"","","","","","html-keyboard-response","94","397767","0.0-10.0-1.37","5ed543442db0060a955d12e1","640759fa512f630a2bdc333d","6408c17a67015beb52318783","null","","null","","","","","","","","","","","","","","","","","","","fixation","",""
"","","","","","color-precision2","95","400869","0.0-10.0-0.38-0.38","5ed543442db0060a955d12e1","640759fa512f630a2bdc333d","6408c17a67015beb52318783","[671.6000000238419]","","","[21]","[339]","339","196","160.69716013009693","[160.69716013009693]","[324.6971601300969]","[323]","0","0","1","0","146.5900000059628","992.6299999940675","1000","[[[""img/mask35.png""]]]","","","main","196","color-precision2"
"","","","","","html-keyboard-response","96","401378","0.0-10.0-1.38","5ed543442db0060a955d12e1","640759fa512f630a2bdc333d","6408c17a67015beb52318783","null","","null","","","","","","","","","","","","","","","","","","","fixation","",""
"","","","","","color-precision2","97","405176","0.0-10.0-0.39-0.39","5ed543442db0060a955d12e1","640759fa512f630a2bdc333d","6408c17a67015beb52318783","[1513.2000000178814]","","","[19]","[312]","312","326","270.9644435800085","[270.9644435800085]","[304.9644435800085]","[305]","0","0","1","0","148.11800000595395","1004.6579999940586","1000","[[[""img/mask30.png""]]]","","","main","326","color-precision2"
"","","","","","html-keyboard-response","98","407630","0.0-10.0-1.39","5ed543442db0060a955d12e1","640759fa512f630a2bdc333d","6408c17a67015beb52318783","2454.0999999940395","Wow! You've completed 40 out of 180 trials! </p> <p>  </p><p> Take a quick break, then press any key when you're ready to continue."," ","","","","","","","","","","","","","","","","","","","fixation","",""
"","","","","","many-guess-6","99","411623","0.0-10.0-0.40-0.40","5ed543442db0060a955d12e1","640759fa512f630a2bdc333d","6408c17a67015beb52318783","[1621.199999988079]","","","[16,21,12,24,11,19,33,0,35,32,3,18,29,27,9,31,4,5,2,28,14,23,30,13,17,25,10,1,8,22,34,15,20,7,6,26]","[66,166,226,16,355,76,306,336,345,96,156,266,256,146,126,26,276,36,56,86,136,296,196,216,106,176,206,116,286,186,6,326,46,236,246,316]","66","127","145.63124125853787","[145.63124125853787]","[18.63124125853787]","[17]","[300,30,120,30,120,30,30,120,120]","0","36","0","148.09999999997672","10.739999982120935","16","[[[""img/mask89.png""],[""img/mask41.png""],[""img/mask15.png""],[""img/mask55.png""],[""img/mask10.png""],[""img/mask73.png""],[""img/mask92.png""],[""img/mask6.png""],[""img/mask94.png""],[""img/mask8.png""],[""img/mask65.png""],[""img/mask10.png""],[""img/mask8.png""],[""img/mask5.png""],[""img/mask59.png""],[""img/mask44.png""],[""img/mask99.png""],[""img/mask78.png""],[""img/mask98.png""],[""img/mask44.png""],[""img/mask85.png""],[""img/mask95.png""],[""img/mask71.png""],[""img/mask2.png""],[""img/mask44.png""],[""img/mask32.png""],[""img/mask93.png""],[""img/mask22.png""],[""img/mask59.png""],[""img/mask7.png""],[""img/mask79.png""],[""img/mask31.png""],[""img/mask21.png""],[""img/mask42.png""],[""img/mask80.png""],[""img/mask27.png""]]]","","[16,21,12,24,11,19,33,0,35,32,3,18,29,27,9,31,4,5,2,28,14,23,30,13,17,25,10,1,8,22,34,15,20,7,6,26]","main","127","many-guess-6"
"","","","","","html-keyboard-response","100","412129","0.0-10.0-1.40","5ed543442db0060a955d12e1","640759fa512f630a2bdc333d","6408c17a67015beb52318783","null","","null","","","","","","","","","","","","","","","","","","","fixation","",""
"","","","","","many-guess-6","101","415996","0.0-10.0-0.41-0.41","5ed543442db0060a955d12e1","640759fa512f630a2bdc333d","6408c17a67015beb52318783","[2408.300000011921]","","","[29,11,35,24,30,19,3,23,1,14,26,33,4,12,9,18,7,34,2,17,16,6,31,27,25,10,0,8,32,20,13,22,28,21,15,5]","[144,44,204,134,94,323,343,14,353,164,303,174,194,293,34,273,114,54,64,244,24,104,234,84,254,283,74,333,184,4,124,313,214,154,224,263]","144","29","180.82404952833815","[180.82404952833815]","[151.82404952833815]","[151]","[300,300,300,210,120,300,210,210,30]","0","36","0","148.38999999401858","9.030000005965121","16","[[[""img/mask37.png""],[""img/mask59.png""],[""img/mask4.png""],[""img/mask82.png""],[""img/mask86.png""],[""img/mask38.png""],[""img/mask81.png""],[""img/mask71.png""],[""img/mask63.png""],[""img/mask7.png""],[""img/mask57.png""],[""img/mask56.png""],[""img/mask73.png""],[""img/mask77.png""],[""img/mask20.png""],[""img/mask86.png""],[""img/mask92.png""],[""img/mask8.png""],[""img/mask97.png""],[""img/mask8.png""],[""img/mask77.png""],[""img/mask34.png""],[""img/mask13.png""],[""img/mask82.png""],[""img/mask14.png""],[""img/mask52.png""],[""img/mask75.png""],[""img/mask76.png""],[""img/mask54.png""],[""img/mask27.png""],[""img/mask85.png""],[""img/mask59.png""],[""img/mask27.png""],[""img/mask75.png""],[""img/mask97.png""],[""img/mask86.png""]]]","","[29,11,35,24,30,19,3,23,1,14,26,33,4,12,9,18,7,34,2,17,16,6,31,27,25,10,0,8,32,20,13,22,28,21,15,5]","main","29","many-guess-6"
"","","","","","html-keyboard-response","102","416498","0.0-10.0-1.41","5ed543442db0060a955d12e1","640759fa512f630a2bdc333d","6408c17a67015beb52318783","null","","null","","","","","","","","","","","","","","","","","","","fixation","",""
"","","","","","color-precision2","103","419922","0.0-10.0-0.42-0.42","5ed543442db0060a955d12e1","640759fa512f630a2bdc333d","6408c17a67015beb52318783","[877.2999999821186]","","","[11]","[275]","275","65","336.943190149338","[336.943190149338]","[271.943190149338]","[272]","0","0","1","0","147.70599998807302","996.3460000000196","1000","[[[""img/mask20.png""]]]","","","main","65","color-precision2"
"","","","","","html-keyboard-response","104","420424","0.0-10.0-1.42","5ed543442db0060a955d12e1","640759fa512f630a2bdc333d","6408c17a67015beb52318783","null","","null","","","","","","","","","","","","","","","","","","","fixation","",""
"","","","","","color-precision2","105","423917","0.0-10.0-0.43-0.43","5ed543442db0060a955d12e1","640759fa512f630a2bdc333d","6408c17a67015beb52318783","[972.9000000059605]","","","[2]","[197]","197","206","41.76683943166088","[41.76683943166088]","[195.76683943166088]","[194]","0","0","1","0","148.34999999997672","992.8899999880814","1000","[[[""img/mask89.png""]]]","","","main","206","color-precision2"
"","","","","","html-keyboard-response","106","424423","0.0-10.0-1.43","5ed543442db0060a955d12e1","640759fa512f630a2bdc333d","6408c17a67015beb52318783","null","","null","","","","","","","","","","","","","","","","","","","fixation","",""
"","","","","","many-guess-6","107","427523","0.0-10.0-0.44-0.44","5ed543442db0060a955d12e1","640759fa512f630a2bdc333d","6408c17a67015beb52318783","[1660.5999999940395]","","","[34,22,33,11,25,17,5,18,30,2,27,12,0,3,14,23,31,19,8,13,28,15,26,35,32,6,29,1,4,21,9,24,16,7,10,20]","[116,86,315,196,305,66,176,285,225,345,295,76,126,26,156,206,136,325,56,166,275,186,96,335,106,36,6,216,16,46,245,265,255,355,146,235]","116","331","322.11229179887505","[322.11229179887505]","[351.11229179887505]","[351]","[120,210,300,210,210,210,210,300,210]","0","36","0","148.49999999406282","18.839999994030222","16","[[[""img/mask10.png""],[""img/mask55.png""],[""img/mask39.png""],[""img/mask29.png""],[""img/mask19.png""],[""img/mask2.png""],[""img/mask76.png""],[""img/mask80.png""],[""img/mask9.png""],[""img/mask4.png""],[""img/mask90.png""],[""img/mask51.png""],[""img/mask78.png""],[""img/mask18.png""],[""img/mask60.png""],[""img/mask89.png""],[""img/mask34.png""],[""img/mask65.png""],[""img/mask89.png""],[""img/mask89.png""],[""img/mask14.png""],[""img/mask7.png""],[""img/mask5.png""],[""img/mask26.png""],[""img/mask21.png""],[""img/mask26.png""],[""img/mask31.png""],[""img/mask58.png""],[""img/mask27.png""],[""img/mask31.png""],[""img/mask56.png""],[""img/mask94.png""],[""img/mask26.png""],[""img/mask100.png""],[""img/mask68.png""],[""img/mask68.png""]]]","","[34,22,33,11,25,17,5,18,30,2,27,12,0,3,14,23,31,19,8,13,28,15,26,35,32,6,29,1,4,21,9,24,16,7,10,20]","main","331","many-guess-6"
"","","","","","html-keyboard-response","108","428025","0.0-10.0-1.44","5ed543442db0060a955d12e1","640759fa512f630a2bdc333d","6408c17a67015beb52318783","null","","null","","","","","","","","","","","","","","","","","","","fixation","",""
"","","","","","color-precision2","109","431101","0.0-10.0-0.45-0.45","5ed543442db0060a955d12e1","640759fa512f630a2bdc333d","6408c17a67015beb52318783","[704.5]","","","[18]","[132]","132","339","118.18795644061993","[118.18795644061993]","[139.18795644061993]","[137]","0","0","1","0","148.21800000598887","1001.6579999999958","1000","[[[""img/mask69.png""]]]","","","main","339","color-precision2"
"","","","","","html-keyboard-response","110","431607","0.0-10.0-1.45","5ed543442db0060a955d12e1","640759fa512f630a2bdc333d","6408c17a67015beb52318783","null","","null","","","","","","","","","","","","","","","","","","","fixation","",""
"","","","","","color-precision2","111","434908","0.0-10.0-0.46-0.46","5ed543442db0060a955d12e1","640759fa512f630a2bdc333d","6408c17a67015beb52318783","[245.40000000596046]","","","[19]","[10]","10","271","280.6250739892902","[280.6250739892902]","[9.625073989290172]","[10]","0","0","1","0","148.41399999405257","994.5540000059409","1000","[[[""img/mask89.png""]]]","","","main","271","color-precision2"
"","","","","","html-keyboard-response","112","435415","0.0-10.0-1.46","5ed543442db0060a955d12e1","640759fa512f630a2bdc333d","6408c17a67015beb52318783","null","","null","","","","","","","","","","","","","","","","","","","fixation","",""
"","","","","","many-guess-6","113","439143","0.0-10.0-0.47-0.47","5ed543442db0060a955d12e1","640759fa512f630a2bdc333d","6408c17a67015beb52318783","[2297.100000023842]","","","[8,4,5,22,19,26,20,28,16,21,11,33,30,12,14,25,13,32,35,31,24,17,1,34,2,15,6,7,10,18,3,9,23,0,29,27]","[151,32,141,101,2,12,321,231,91,121,251,211,221,261,311,71,281,201,131,181,81,51,191,41,301,341,241,291,111,271,331,61,22,351,171,161]","151","72","76.98334122030126","[76.98334122030126]","[4.983341220301256]","[3]","[120,210,210,300,120,30,210,120,210]","0","36","0","147.6599999940372","12.19999998214189","16","[[[""img/mask88.png""],[""img/mask77.png""],[""img/mask79.png""],[""img/mask85.png""],[""img/mask59.png""],[""img/mask13.png""],[""img/mask96.png""],[""img/mask70.png""],[""img/mask40.png""],[""img/mask15.png""],[""img/mask61.png""],[""img/mask31.png""],[""img/mask89.png""],[""img/mask60.png""],[""img/mask58.png""],[""img/mask59.png""],[""img/mask47.png""],[""img/mask44.png""],[""img/mask63.png""],[""img/mask63.png""],[""img/mask44.png""],[""img/mask24.png""],[""img/mask23.png""],[""img/mask19.png""],[""img/mask96.png""],[""img/mask18.png""],[""img/mask2.png""],[""img/mask57.png""],[""img/mask34.png""],[""img/mask15.png""],[""img/mask60.png""],[""img/mask79.png""],[""img/mask36.png""],[""img/mask90.png""],[""img/mask1.png""],[""img/mask65.png""]]]","","[8,4,5,22,19,26,20,28,16,21,11,33,30,12,14,25,13,32,35,31,24,17,1,34,2,15,6,7,10,18,3,9,23,0,29,27]","main","72","many-guess-6"
"","","","","","html-keyboard-response","114","439644","0.0-10.0-1.47","5ed543442db0060a955d12e1","640759fa512f630a2bdc333d","6408c17a67015beb52318783","null","","null","","","","","","","","","","","","","","","","","","","fixation","",""
"","","","","","color-precision2","115","442423","0.0-10.0-0.48-0.48","5ed543442db0060a955d12e1","640759fa512f630a2bdc333d","6408c17a67015beb52318783","[327.90000000596046]","","","[15]","[142]","142","31","181.49973098507158","[181.49973098507158]","[150.49973098507158]","[150]","0","0","1","0","148.64000000001397","1003.3800000059418","1000","[[[""img/mask23.png""]]]","","","main","31","color-precision2"
"","","","","","html-keyboard-response","116","442927","0.0-10.0-1.48","5ed543442db0060a955d12e1","640759fa512f630a2bdc333d","6408c17a67015beb52318783","null","","null","","","","","","","","","","","","","","","","","","","fixation","",""
"","","","","","color-precision2","117","446814","0.0-10.0-0.49-0.49","5ed543442db0060a955d12e1","640759fa512f630a2bdc333d","6408c17a67015beb52318783","[1402.0999999940395]","","","[20]","[37]","37","132","162.8135643591567","[162.8135643591567]","[30.813564359156686]","[30]","0","0","1","0","147.87399998807814","1007.9140000059851","1000","[[[""img/mask100.png""]]]","","","main","132","color-precision2"
"","","","","","html-keyboard-response","118","447318","0.0-10.0-1.49","5ed543442db0060a955d12e1","640759fa512f630a2bdc333d","6408c17a67015beb52318783","null","","null","","","","","","","","","","","","","","","","","","","fixation","",""
"","","","","","color-precision2","119","451903","0.0-10.0-0.50-0.50","5ed543442db0060a955d12e1","640759fa512f630a2bdc333d","6408c17a67015beb52318783","[175]","","","[0]","[6]","6","296","305.19378439661784","[305.19378439661784]","[9.193784396617843]","[9]","0","0","1","0","147.3740000000107","1005.6140000059386","1000","[[[""img/mask91.png""]]]","","","main","296","color-precision2"
"","","","","","html-keyboard-response","120","452405","0.0-10.0-1.50","5ed543442db0060a955d12e1","640759fa512f630a2bdc333d","6408c17a67015beb52318783","null","","null","","","","","","","","","","","","","","","","","","","fixation","",""
"","","","","","color-precision2","121","455144","0.0-10.0-0.51-0.51","5ed543442db0060a955d12e1","640759fa512f630a2bdc333d","6408c17a67015beb52318783","[448.2999999821186]","","","[12]","[111]","111","120","242.9233370426304","[242.9233370426304]","[122.92333704263041]","[123]","0","0","1","0","148.12199998809956","996.7619999999879","1000","[[[""img/mask84.png""]]]","","","main","120","color-precision2"
"","","","","","html-keyboard-response","122","455657","0.0-10.0-1.51","5ed543442db0060a955d12e1","640759fa512f630a2bdc333d","6408c17a67015beb52318783","null","","null","","","","","","","","","","","","","","","","","","","fixation","",""
"","","","","","color-precision2","123","458193","0.0-10.0-0.52-0.52","5ed543442db0060a955d12e1","640759fa512f630a2bdc333d","6408c17a67015beb52318783","[132.19999998807907]","","","[34]","[281]","281","2","262.14057672097","[262.14057672097]","[260.14057672097]","[261]","0","0","1","0","147.954000000027","1001.893999994034","1000","[[[""img/mask30.png""]]]","","","main","2","color-precision2"
"","","","","","html-keyboard-response","124","458694","0.0-10.0-1.52","5ed543442db0060a955d12e1","640759fa512f630a2bdc333d","6408c17a67015beb52318783","null","","null","","","","","","","","","","","","","","","","","","","fixation","",""
"","","","","","many-guess-6","125","464449","0.0-10.0-0.53-0.53","5ed543442db0060a955d12e1","640759fa512f630a2bdc333d","6408c17a67015beb52318783","[4021.699999988079]","","","[18,16,28,8,20,17,19,32,2,23,29,15,35,6,12,34,24,7,9,0,13,3,33,5,26,21,14,11,22,4,30,10,25,27,1,31]","[183,223,24,104,343,353,14,44,313,163,94,133,253,243,263,193,143,54,64,233,84,283,213,153,333,273,74,173,114,323,203,123,303,34,4,293]","183","112","5.313196752072387","[5.313196752072387]","[253.31319675207237]","[252]","[300,210,30,210,120,120,210,120,300]","0","36","0","147.6920000059763","8.766000005940441","16","[[[""img/mask65.png""],[""img/mask57.png""],[""img/mask13.png""],[""img/mask65.png""],[""img/mask41.png""],[""img/mask25.png""],[""img/mask25.png""],[""img/mask37.png""],[""img/mask56.png""],[""img/mask61.png""],[""img/mask20.png""],[""img/mask96.png""],[""img/mask16.png""],[""img/mask6.png""],[""img/mask22.png""],[""img/mask53.png""],[""img/mask35.png""],[""img/mask89.png""],[""img/mask27.png""],[""img/mask36.png""],[""img/mask74.png""],[""img/mask25.png""],[""img/mask33.png""],[""img/mask68.png""],[""img/mask77.png""],[""img/mask6.png""],[""img/mask47.png""],[""img/mask22.png""],[""img/mask47.png""],[""img/mask51.png""],[""img/mask56.png""],[""img/mask61.png""],[""img/mask34.png""],[""img/mask91.png""],[""img/mask47.png""],[""img/mask61.png""]]]","","[18,16,28,8,20,17,19,32,2,23,29,15,35,6,12,34,24,7,9,0,13,3,33,5,26,21,14,11,22,4,30,10,25,27,1,31]","main","112","many-guess-6"
"","","","","","html-keyboard-response","126","464960","0.0-10.0-1.53","5ed543442db0060a955d12e1","640759fa512f630a2bdc333d","6408c17a67015beb52318783","null","","null","","","","","","","","","","","","","","","","","","","fixation","",""
"","","","","","color-precision2","127","467855","0.0-10.0-0.54-0.54","5ed543442db0060a955d12e1","640759fa512f630a2bdc333d","6408c17a67015beb52318783","[593.5999999940395]","","","[18]","[183]","183","344","162.35010722318367","[162.35010722318367]","[178.35010722318367]","[177]","0","0","1","0","148.45199999405304","1005.0920000059414","1000","[[[""img/mask88.png""]]]","","","main","344","color-precision2"
"","","","","","html-keyboard-response","128","468359","0.0-10.0-1.54","5ed543442db0060a955d12e1","640759fa512f630a2bdc333d","6408c17a67015beb52318783","null","","null","","","","","","","","","","","","","","","","","","","fixation","",""
"","","","","","many-guess-6","129","471706","0.0-10.0-0.55-0.55","5ed543442db0060a955d12e1","640759fa512f630a2bdc333d","6408c17a67015beb52318783","[1862.2999999821186]","","","[8,22,33,11,2,20,30,0,4,28,5,12,29,9,6,10,23,26,35,7,34,14,17,3,13,1,19,15,21,32,18,25,27,31,24,16]","[335,186,6,86,325,236,216,66,156,96,286,305,76,266,196,136,256,126,296,36,116,26,146,206,166,276,345,56,226,16,46,315,246,176,355,106]","335","102","305.3714490515622","[305.3714490515622]","[203.3714490515622]","[204]","[300,300,210,210,300,30,30,210,300]","0","36","0","145.98200000595534","17.12199998809956","16","[[[""img/mask58.png""],[""img/mask46.png""],[""img/mask67.png""],[""img/mask61.png""],[""img/mask31.png""],[""img/mask40.png""],[""img/mask88.png""],[""img/mask77.png""],[""img/mask68.png""],[""img/mask63.png""],[""img/mask3.png""],[""img/mask23.png""],[""img/mask71.png""],[""img/mask15.png""],[""img/mask98.png""],[""img/mask82.png""],[""img/mask57.png""],[""img/mask86.png""],[""img/mask83.png""],[""img/mask72.png""],[""img/mask75.png""],[""img/mask50.png""],[""img/mask89.png""],[""img/mask79.png""],[""img/mask95.png""],[""img/mask59.png""],[""img/mask76.png""],[""img/mask20.png""],[""img/mask49.png""],[""img/mask92.png""],[""img/mask65.png""],[""img/mask71.png""],[""img/mask68.png""],[""img/mask93.png""],[""img/mask27.png""],[""img/mask49.png""]]]","","[8,22,33,11,2,20,30,0,4,28,5,12,29,9,6,10,23,26,35,7,34,14,17,3,13,1,19,15,21,32,18,25,27,31,24,16]","main","102","many-guess-6"
"","","","","","html-keyboard-response","130","472210","0.0-10.0-1.55","5ed543442db0060a955d12e1","640759fa512f630a2bdc333d","6408c17a67015beb52318783","null","","null","","","","","","","","","","","","","","","","","","","fixation","",""
"","","","","","color-precision2","131","475229","0.0-10.0-0.56-0.56","5ed543442db0060a955d12e1","640759fa512f630a2bdc333d","6408c17a67015beb52318783","[484.5]","","","[32]","[286]","286","5","281.7537396622889","[281.7537396622889]","[276.7537396622889]","[277]","0","0","1","0","148.18599999998696","997.8259999821312","1000","[[[""img/mask79.png""]]]","","","main","5","color-precision2"
"","","","","","html-keyboard-response","132","475737","0.0-10.0-1.56","5ed543442db0060a955d12e1","640759fa512f630a2bdc333d","6408c17a67015beb52318783","null","","null","","","","","","","","","","","","","","","","","","","fixation","",""
"","","","","","many-guess-6","133","479602","0.0-10.0-0.57-0.57","5ed543442db0060a955d12e1","640759fa512f630a2bdc333d","6408c17a67015beb52318783","[2358.5999999940395]","","","[6,29,24,14,26,15,12,13,10,22,3,7,9,30,17,28,0,11,2,5,8,34,21,4,35,20,25,33,31,19,18,16,27,32,1,23]","[126,315,36,295,176,335,136,6,345,275,26,166,106,245,305,76,225,255,325,56,265,66,96,86,195,215,156,146,16,285,186,355,116,205,235,46]","126","293","258.1486457997005","[258.1486457997005]","[325.1486457997005]","[325]","[300,120,210,30,120,210,30,210,30]","0","36","0","147.9860000059707","12.225999982096255","16","[[[""img/mask62.png""],[""img/mask43.png""],[""img/mask82.png""],[""img/mask61.png""],[""img/mask30.png""],[""img/mask29.png""],[""img/mask43.png""],[""img/mask83.png""],[""img/mask21.png""],[""img/mask66.png""],[""img/mask26.png""],[""img/mask31.png""],[""img/mask60.png""],[""img/mask66.png""],[""img/mask59.png""],[""img/mask13.png""],[""img/mask55.png""],[""img/mask40.png""],[""img/mask63.png""],[""img/mask35.png""],[""img/mask35.png""],[""img/mask70.png""],[""img/mask73.png""],[""img/mask55.png""],[""img/mask38.png""],[""img/mask18.png""],[""img/mask28.png""],[""img/mask52.png""],[""img/mask54.png""],[""img/mask83.png""],[""img/mask69.png""],[""img/mask96.png""],[""img/mask80.png""],[""img/mask96.png""],[""img/mask55.png""],[""img/mask58.png""]]]","","[6,29,24,14,26,15,12,13,10,22,3,7,9,30,17,28,0,11,2,5,8,34,21,4,35,20,25,33,31,19,18,16,27,32,1,23]","main","293","many-guess-6"
"","","","","","html-keyboard-response","134","480103","0.0-10.0-1.57","5ed543442db0060a955d12e1","640759fa512f630a2bdc333d","6408c17a67015beb52318783","null","","null","","","","","","","","","","","","","","","","","","","fixation","",""
"","","","","","color-precision2","135","483302","0.0-10.0-0.58-0.58","5ed543442db0060a955d12e1","640759fa512f630a2bdc333d","6408c17a67015beb52318783","[924.2000000178814]","","","[28]","[341]","341","80","65.69377497115774","[65.69377497115774]","[345.6937749711577]","[344]","0","0","1","0","147.89000000595115","1000.7539999880828","1000","[[[""img/mask23.png""]]]","","","main","80","color-precision2"
"","","","","","html-keyboard-response","136","483810","0.0-10.0-1.58","5ed543442db0060a955d12e1","640759fa512f630a2bdc333d","6408c17a67015beb52318783","null","","null","","","","","","","","","","","","","","","","","","","fixation","",""
"","","","","","many-guess-6","137","487109","0.0-10.0-0.59-0.59","5ed543442db0060a955d12e1","640759fa512f630a2bdc333d","6408c17a67015beb52318783","[1965]","","","[31,27,19,10,17,8,14,21,28,32,33,34,16,11,20,1,2,3,22,24,35,25,26,30,5,6,13,23,7,29,18,15,4,0,12,9]","[13,62,32,202,212,242,182,332,302,352,292,52,132,192,342,82,232,252,172,23,162,282,222,152,262,122,72,272,102,3,112,312,322,142,42,92]","13","266","280.8228216562053","[280.8228216562053]","[14.822821656205292]","[15]","[210,210,210,210,300,300,300,30,30]","0","36","0","148.045999999973","7.68599998211721","16","[[[""img/mask14.png""],[""img/mask85.png""],[""img/mask63.png""],[""img/mask22.png""],[""img/mask25.png""],[""img/mask40.png""],[""img/mask77.png""],[""img/mask6.png""],[""img/mask67.png""],[""img/mask75.png""],[""img/mask24.png""],[""img/mask41.png""],[""img/mask22.png""],[""img/mask6.png""],[""img/mask26.png""],[""img/mask79.png""],[""img/mask63.png""],[""img/mask78.png""],[""img/mask38.png""],[""img/mask10.png""],[""img/mask55.png""],[""img/mask66.png""],[""img/mask16.png""],[""img/mask95.png""],[""img/mask31.png""],[""img/mask71.png""],[""img/mask23.png""],[""img/mask97.png""],[""img/mask100.png""],[""img/mask31.png""],[""img/mask86.png""],[""img/mask86.png""],[""img/mask6.png""],[""img/mask67.png""],[""img/mask57.png""],[""img/mask10.png""]]]","","[31,27,19,10,17,8,14,21,28,32,33,34,16,11,20,1,2,3,22,24,35,25,26,30,5,6,13,23,7,29,18,15,4,0,12,9]","main","266","many-guess-6"
"","","","","","html-keyboard-response","138","489245","0.0-10.0-1.59","5ed543442db0060a955d12e1","640759fa512f630a2bdc333d","6408c17a67015beb52318783","2135.7999999821186","Wow! You've completed 60 out of 180 trials! </p> <p>  </p><p> Take a quick break, then press any key when you're ready to continue."," ","","","","","","","","","","","","","","","","","","","fixation","",""
"","","","","","many-guess-6","139","493360","0.0-10.0-0.60-0.60","5ed543442db0060a955d12e1","640759fa512f630a2bdc333d","6408c17a67015beb52318783","[2049.4000000059605]","","","[14,19,31,23,18,27,4,0,32,16,35,17,6,7,2,9,12,10,20,29,33,22,24,34,21,25,30,15,11,3,13,5,8,28,26,1]","[148,138,238,98,118,178,348,288,198,298,49,78,208,258,308,39,358,268,108,68,29,59,278,168,338,218,9,19,158,318,328,128,188,228,248,88]","148","12","5.3533316622390394","[5.3533316622390394]","[353.35333166223904]","[353]","[30,30,300,300,300,120,30,210,300]","0","36","0","147.06599999405444","13.90599999402184","16","[[[""img/mask55.png""],[""img/mask54.png""],[""img/mask49.png""],[""img/mask65.png""],[""img/mask47.png""],[""img/mask9.png""],[""img/mask2.png""],[""img/mask45.png""],[""img/mask90.png""],[""img/mask70.png""],[""img/mask28.png""],[""img/mask60.png""],[""img/mask71.png""],[""img/mask70.png""],[""img/mask66.png""],[""img/mask68.png""],[""img/mask25.png""],[""img/mask7.png""],[""img/mask53.png""],[""img/mask1.png""],[""img/mask62.png""],[""img/mask39.png""],[""img/mask57.png""],[""img/mask58.png""],[""img/mask12.png""],[""img/mask97.png""],[""img/mask92.png""],[""img/mask74.png""],[""img/mask88.png""],[""img/mask55.png""],[""img/mask97.png""],[""img/mask98.png""],[""img/mask45.png""],[""img/mask35.png""],[""img/mask35.png""],[""img/mask78.png""]]]","","[14,19,31,23,18,27,4,0,32,16,35,17,6,7,2,9,12,10,20,29,33,22,24,34,21,25,30,15,11,3,13,5,8,28,26,1]","main","12","many-guess-6"
"","","","","","html-keyboard-response","140","493863","0.0-10.0-1.60","5ed543442db0060a955d12e1","640759fa512f630a2bdc333d","6408c17a67015beb52318783","null","","null","","","","","","","","","","","","","","","","","","","fixation","",""
"","","","","","color-precision2","141","498937","0.0-10.0-0.61-0.61","5ed543442db0060a955d12e1","640759fa512f630a2bdc333d","6408c17a67015beb52318783","[1976.9000000059605]","","","[19]","[273]","273","27","299.37786427564254","[299.37786427564254]","[272.37786427564254]","[273]","0","0","1","0","148.33099998213584","1006.8709999999846","1000","[[[""img/mask45.png""]]]","","","main","27","color-precision2"
"","","","","","html-keyboard-response","142","499442","0.0-10.0-1.61","5ed543442db0060a955d12e1","640759fa512f630a2bdc333d","6408c17a67015beb52318783","null","","null","","","","","","","","","","","","","","","","","","","fixation","",""
"","","","","","many-guess-6","143","502958","0.0-10.0-0.62-0.62","5ed543442db0060a955d12e1","640759fa512f630a2bdc333d","6408c17a67015beb52318783","[2132.5]","","","[25,0,22,14,9,27,21,31,10,1,2,20,17,26,11,5,32,15,35,19,29,7,28,23,24,4,13,34,3,16,30,12,18,8,6,33]","[172,3,202,242,123,192,272,43,152,162,342,93,132,222,292,103,83,63,113,352,182,302,142,312,232,322,73,212,262,53,332,33,23,13,282,252]","172","5","165.93499836109456","[165.93499836109456]","[160.93499836109456]","[160]","[210,300,120,30,30,30,210,120,300]","0","36","0","148.64299999404466","9.982999994012062","16","[[[""img/mask94.png""],[""img/mask100.png""],[""img/mask99.png""],[""img/mask94.png""],[""img/mask75.png""],[""img/mask70.png""],[""img/mask53.png""],[""img/mask59.png""],[""img/mask81.png""],[""img/mask62.png""],[""img/mask66.png""],[""img/mask50.png""],[""img/mask1.png""],[""img/mask8.png""],[""img/mask21.png""],[""img/mask41.png""],[""img/mask73.png""],[""img/mask63.png""],[""img/mask92.png""],[""img/mask100.png""],[""img/mask14.png""],[""img/mask52.png""],[""img/mask12.png""],[""img/mask23.png""],[""img/mask16.png""],[""img/mask83.png""],[""img/mask93.png""],[""img/mask8.png""],[""img/mask72.png""],[""img/mask84.png""],[""img/mask60.png""],[""img/mask13.png""],[""img/mask28.png""],[""img/mask94.png""],[""img/mask97.png""],[""img/mask14.png""]]]","","[25,0,22,14,9,27,21,31,10,1,2,20,17,26,11,5,32,15,35,19,29,7,28,23,24,4,13,34,3,16,30,12,18,8,6,33]","main","5","many-guess-6"
"","","","","","html-keyboard-response","144","503459","0.0-10.0-1.62","5ed543442db0060a955d12e1","640759fa512f630a2bdc333d","6408c17a67015beb52318783","null","","null","","","","","","","","","","","","","","","","","","","fixation","",""
"","","","","","many-guess-6","145","508657","0.0-10.0-0.63-0.63","5ed543442db0060a955d12e1","640759fa512f630a2bdc333d","6408c17a67015beb52318783","[3746.7999999821186]","","","[12,9,6,10,31,13,32,3,5,7,33,27,25,8,0,22,18,1,16,26,29,28,19,24,20,15,2,17,11,34,35,14,30,23,4,21]","[160,100,120,249,259,60,319,40,199,289,80,209,339,20,229,30,150,130,279,269,169,299,10,329,70,359,239,309,140,50,90,179,349,110,189,219]","160","26","350.67302474700324","[350.67302474700324]","[324.67302474700324]","[324]","[30,300,30,300,210,210,30,300,210]","0","36","0","145.87700000597397","13.316999999980908","16","[[[""img/mask87.png""],[""img/mask5.png""],[""img/mask51.png""],[""img/mask43.png""],[""img/mask52.png""],[""img/mask11.png""],[""img/mask2.png""],[""img/mask55.png""],[""img/mask78.png""],[""img/mask73.png""],[""img/mask53.png""],[""img/mask29.png""],[""img/mask70.png""],[""img/mask87.png""],[""img/mask49.png""],[""img/mask99.png""],[""img/mask22.png""],[""img/mask21.png""],[""img/mask98.png""],[""img/mask74.png""],[""img/mask29.png""],[""img/mask45.png""],[""img/mask16.png""],[""img/mask32.png""],[""img/mask10.png""],[""img/mask29.png""],[""img/mask28.png""],[""img/mask75.png""],[""img/mask37.png""],[""img/mask68.png""],[""img/mask9.png""],[""img/mask2.png""],[""img/mask7.png""],[""img/mask48.png""],[""img/mask63.png""],[""img/mask6.png""]]]","","[12,9,6,10,31,13,32,3,5,7,33,27,25,8,0,22,18,1,16,26,29,28,19,24,20,15,2,17,11,34,35,14,30,23,4,21]","main","26","many-guess-6"
"","","","","","html-keyboard-response","146","509158","0.0-10.0-1.63","5ed543442db0060a955d12e1","640759fa512f630a2bdc333d","6408c17a67015beb52318783","null","","null","","","","","","","","","","","","","","","","","","","fixation","",""
"","","","","","color-precision2","147","512120","0.0-10.0-0.64-0.64","5ed543442db0060a955d12e1","640759fa512f630a2bdc333d","6408c17a67015beb52318783","[426.5]","","","[9]","[298]","298","163","95.8156671443948","[95.8156671443948]","[292.8156671443948]","[291]","0","0","1","0","145.43900000595022","1003.3790000000154","1000","[[[""img/mask88.png""]]]","","","main","163","color-precision2"
"","","","","","html-keyboard-response","148","512626","0.0-10.0-1.64","5ed543442db0060a955d12e1","640759fa512f630a2bdc333d","6408c17a67015beb52318783","null","","null","","","","","","","","","","","","","","","","","","","fixation","",""
"","","","","","many-guess-6","149","516240","0.0-10.0-0.65-0.65","5ed543442db0060a955d12e1","640759fa512f630a2bdc333d","6408c17a67015beb52318783","[2275.300000011921]","","","[0,22,21,8,27,15,23,28,2,6,29,18,35,25,30,1,26,20,10,9,14,34,19,4,17,33,32,5,16,31,3,24,7,11,13,12]","[225,55,314,195,105,25,275,344,295,205,145,285,125,45,304,354,245,75,85,235,95,35,165,334,185,15,255,5,215,324,135,115,265,175,65,155]","225","41","23.337273728095028","[23.337273728095028]","[342.33727372809506]","[341]","[30,30,30,300,120,30,210,30,30]","0","36","0","147.68399998208042","22.65499998803716","16","[[[""img/mask30.png""],[""img/mask35.png""],[""img/mask79.png""],[""img/mask16.png""],[""img/mask50.png""],[""img/mask69.png""],[""img/mask32.png""],[""img/mask19.png""],[""img/mask68.png""],[""img/mask19.png""],[""img/mask59.png""],[""img/mask72.png""],[""img/mask27.png""],[""img/mask23.png""],[""img/mask70.png""],[""img/mask10.png""],[""img/mask64.png""],[""img/mask63.png""],[""img/mask56.png""],[""img/mask14.png""],[""img/mask63.png""],[""img/mask65.png""],[""img/mask19.png""],[""img/mask89.png""],[""img/mask84.png""],[""img/mask6.png""],[""img/mask84.png""],[""img/mask5.png""],[""img/mask100.png""],[""img/mask53.png""],[""img/mask87.png""],[""img/mask24.png""],[""img/mask53.png""],[""img/mask100.png""],[""img/mask76.png""],[""img/mask99.png""]]]","","[0,22,21,8,27,15,23,28,2,6,29,18,35,25,30,1,26,20,10,9,14,34,19,4,17,33,32,5,16,31,3,24,7,11,13,12]","main","41","many-guess-6"
"","","","","","html-keyboard-response","150","516745","0.0-10.0-1.65","5ed543442db0060a955d12e1","640759fa512f630a2bdc333d","6408c17a67015beb52318783","null","","null","","","","","","","","","","","","","","","","","","","fixation","",""
"","","","","","many-guess-6","151","520512","0.0-10.0-0.66-0.66","5ed543442db0060a955d12e1","640759fa512f630a2bdc333d","6408c17a67015beb52318783","[1834.699999988079]","","","[30,13,1,15,33,5,16,21,23,25,26,2,31,10,14,18,7,11,27,20,8,17,9,12,35,29,6,32,4,3,0,22,34,24,28,19]","[318,238,218,328,258,268,69,139,308,348,248,49,39,109,228,79,99,129,208,9,189,149,338,298,59,119,29,288,179,198,169,159,358,89,278,19]","318","247","152.7723429559746","[152.7723429559746]","[265.77234295597464]","[264]","[210,300,120,30,120,30,210,300,30]","0","36","0","147.96199999400415","17.501999982167035","16","[[[""img/mask33.png""],[""img/mask39.png""],[""img/mask87.png""],[""img/mask56.png""],[""img/mask20.png""],[""img/mask30.png""],[""img/mask94.png""],[""img/mask78.png""],[""img/mask57.png""],[""img/mask14.png""],[""img/mask3.png""],[""img/mask82.png""],[""img/mask48.png""],[""img/mask99.png""],[""img/mask3.png""],[""img/mask31.png""],[""img/mask94.png""],[""img/mask28.png""],[""img/mask97.png""],[""img/mask62.png""],[""img/mask53.png""],[""img/mask4.png""],[""img/mask37.png""],[""img/mask90.png""],[""img/mask42.png""],[""img/mask26.png""],[""img/mask4.png""],[""img/mask99.png""],[""img/mask34.png""],[""img/mask82.png""],[""img/mask4.png""],[""img/mask41.png""],[""img/mask32.png""],[""img/mask76.png""],[""img/mask34.png""],[""img/mask61.png""]]]","","[30,13,1,15,33,5,16,21,23,25,26,2,31,10,14,18,7,11,27,20,8,17,9,12,35,29,6,32,4,3,0,22,34,24,28,19]","main","247","many-guess-6"
"","","","","","html-keyboard-response","152","521014","0.0-10.0-1.66","5ed543442db0060a955d12e1","640759fa512f630a2bdc333d","6408c17a67015beb52318783","null","","null","","","","","","","","","","","","","","","","","","","fixation","",""
"","","","","","many-guess-6","153","524000","0.0-10.0-0.67-0.67","5ed543442db0060a955d12e1","640759fa512f630a2bdc333d","6408c17a67015beb52318783","[1722.699999988079]","","","[30,17,6,5,4,19,18,7,27,28,20,33,10,2,14,35,32,1,13,23,22,21,0,34,12,16,11,26,9,24,8,15,3,29,31,25]","[104,154,34,334,284,264,94,144,204,294,24,324,44,244,354,344,5,54,124,134,184,84,304,114,314,274,214,254,14,194,74,164,64,234,224,174]","104","180","214.9691638889928","[214.9691638889928]","[34.969163888992796]","[35]","[300,210,210,120,30,120,120,210,120]","0","36","0","148.0179999821121","19.85799998207949","16","[[[""img/mask27.png""],[""img/mask20.png""],[""img/mask11.png""],[""img/mask31.png""],[""img/mask81.png""],[""img/mask29.png""],[""img/mask16.png""],[""img/mask51.png""],[""img/mask83.png""],[""img/mask81.png""],[""img/mask51.png""],[""img/mask25.png""],[""img/mask13.png""],[""img/mask42.png""],[""img/mask64.png""],[""img/mask6.png""],[""img/mask36.png""],[""img/mask49.png""],[""img/mask51.png""],[""img/mask56.png""],[""img/mask18.png""],[""img/mask80.png""],[""img/mask99.png""],[""img/mask17.png""],[""img/mask79.png""],[""img/mask38.png""],[""img/mask99.png""],[""img/mask5.png""],[""img/mask58.png""],[""img/mask98.png""],[""img/mask28.png""],[""img/mask11.png""],[""img/mask90.png""],[""img/mask87.png""],[""img/mask22.png""],[""img/mask23.png""]]]","","[30,17,6,5,4,19,18,7,27,28,20,33,10,2,14,35,32,1,13,23,22,21,0,34,12,16,11,26,9,24,8,15,3,29,31,25]","main","180","many-guess-6"
"","","","","","html-keyboard-response","154","524501","0.0-10.0-1.67","5ed543442db0060a955d12e1","640759fa512f630a2bdc333d","6408c17a67015beb52318783","null","","null","","","","","","","","","","","","","","","","","","","fixation","",""
"","","","","","color-precision2","155","527444","0.0-10.0-0.68-0.68","5ed543442db0060a955d12e1","640759fa512f630a2bdc333d","6408c17a67015beb52318783","[717.5999999940395]","","","[0]","[12]","12","135","139.8340714820611","[139.8340714820611]","[4.834071482061091]","[3]","0","0","1","0","148.00899998808745","997.9489999820944","1000","[[[""img/mask64.png""]]]","","","main","135","color-precision2"
"","","","","","html-keyboard-response","156","527946","0.0-10.0-1.68","5ed543442db0060a955d12e1","640759fa512f630a2bdc333d","6408c17a67015beb52318783","null","","null","","","","","","","","","","","","","","","","","","","fixation","",""
"","","","","","color-precision2","157","530668","0.0-10.0-0.69-0.69","5ed543442db0060a955d12e1","640759fa512f630a2bdc333d","6408c17a67015beb52318783","[475.40000000596046]","","","[34]","[77]","77","27","116.58353698138905","[116.58353698138905]","[89.58353698138905]","[88]","0","0","1","0","142.2370000060182","992.9769999821438","1000","[[[""img/mask17.png""]]]","","","main","27","color-precision2"
"","","","","","html-keyboard-response","158","531174","0.0-10.0-1.69","5ed543442db0060a955d12e1","640759fa512f630a2bdc333d","6408c17a67015beb52318783","null","","null","","","","","","","","","","","","","","","","","","","fixation","",""
"","","","","","many-guess-6","159","534067","0.0-10.0-0.70-0.70","5ed543442db0060a955d12e1","640759fa512f630a2bdc333d","6408c17a67015beb52318783","[1540.0999999940395]","","","[13,1,23,33,34,20,5,0,9,12,4,2,24,17,14,15,35,30,22,6,7,29,21,27,16,11,31,32,19,18,28,26,8,10,25,3]","[234,333,214,343,4,104,164,303,134,184,154,84,94,264,174,244,124,353,14,313,44,34,194,204,74,273,144,54,283,254,24,114,293,64,224,323]","234","284","296.67218362848786","[296.67218362848786]","[12.672183628487858]","[13]","[30,120,30,300,30,120,30,120,30]","0","36","0","147.2769999881275","11.417000000015832","16","[[[""img/mask41.png""],[""img/mask87.png""],[""img/mask58.png""],[""img/mask49.png""],[""img/mask68.png""],[""img/mask44.png""],[""img/mask38.png""],[""img/mask74.png""],[""img/mask76.png""],[""img/mask56.png""],[""img/mask85.png""],[""img/mask62.png""],[""img/mask33.png""],[""img/mask92.png""],[""img/mask72.png""],[""img/mask43.png""],[""img/mask82.png""],[""img/mask58.png""],[""img/mask55.png""],[""img/mask6.png""],[""img/mask7.png""],[""img/mask80.png""],[""img/mask71.png""],[""img/mask84.png""],[""img/mask43.png""],[""img/mask52.png""],[""img/mask92.png""],[""img/mask53.png""],[""img/mask45.png""],[""img/mask67.png""],[""img/mask1.png""],[""img/mask33.png""],[""img/mask69.png""],[""img/mask33.png""],[""img/mask59.png""],[""img/mask40.png""]]]","","[13,1,23,33,34,20,5,0,9,12,4,2,24,17,14,15,35,30,22,6,7,29,21,27,16,11,31,32,19,18,28,26,8,10,25,3]","main","284","many-guess-6"
"","","","","","html-keyboard-response","160","534576","0.0-10.0-1.70","5ed543442db0060a955d12e1","640759fa512f630a2bdc333d","6408c17a67015beb52318783","null","","null","","","","","","","","","","","","","","","","","","","fixation","",""
"","","","","","color-precision2","161","536952","0.0-10.0-0.71-0.71","5ed543442db0060a955d12e1","640759fa512f630a2bdc333d","6408c17a67015beb52318783","[110.59999999403954]","","","[11]","[30]","30","267","281.37180347396077","[281.37180347396077]","[14.371803473960767]","[15]","0","0","1","0","147.4329999940237","1003.073000005912","1000","[[[""img/mask27.png""]]]","","","main","267","color-precision2"
"","","","","","html-keyboard-response","162","537458","0.0-10.0-1.71","5ed543442db0060a955d12e1","640759fa512f630a2bdc333d","6408c17a67015beb52318783","null","","null","","","","","","","","","","","","","","","","","","","fixation","",""
"","","","","","color-precision2","163","540080","0.0-10.0-0.72-0.72","5ed543442db0060a955d12e1","640759fa512f630a2bdc333d","6408c17a67015beb52318783","[387.2999999821186]","","","[28]","[134]","134","93","246.07488974752277","[246.07488974752277]","[153.07488974752277]","[153]","0","0","1","0","148.01899998215958","1004.358999982127","1000","[[[""img/mask2.png""]]]","","","main","93","color-precision2"
"","","","","","html-keyboard-response","164","540582","0.0-10.0-1.72","5ed543442db0060a955d12e1","640759fa512f630a2bdc333d","6408c17a67015beb52318783","null","","null","","","","","","","","","","","","","","","","","","","fixation","",""
"","","","","","many-guess-6","165","544431","0.0-10.0-0.73-0.73","5ed543442db0060a955d12e1","640759fa512f630a2bdc333d","6408c17a67015beb52318783","[2188.800000011921]","","","[22,6,17,35,3,12,18,1,14,7,2,13,34,15,4,0,30,29,19,21,28,16,8,31,24,25,10,20,5,32,9,23,26,27,11,33]","[200,81,190,350,121,230,260,1,131,170,91,31,300,21,210,41,51,71,101,240,150,250,61,340,290,310,111,11,220,140,280,320,160,180,330,270]","200","171","168.8569654659843","[168.8569654659843]","[357.85696546598433]","[357]","[30,120,300,210,30,120,300,30,120]","0","36","0","149.41699998208787","19.756999982171692","16","[[[""img/mask18.png""],[""img/mask34.png""],[""img/mask66.png""],[""img/mask58.png""],[""img/mask22.png""],[""img/mask63.png""],[""img/mask37.png""],[""img/mask24.png""],[""img/mask8.png""],[""img/mask48.png""],[""img/mask25.png""],[""img/mask79.png""],[""img/mask10.png""],[""img/mask2.png""],[""img/mask61.png""],[""img/mask27.png""],[""img/mask17.png""],[""img/mask40.png""],[""img/mask47.png""],[""img/mask36.png""],[""img/mask83.png""],[""img/mask26.png""],[""img/mask43.png""],[""img/mask41.png""],[""img/mask67.png""],[""img/mask55.png""],[""img/mask85.png""],[""img/mask68.png""],[""img/mask4.png""],[""img/mask62.png""],[""img/mask70.png""],[""img/mask65.png""],[""img/mask10.png""],[""img/mask90.png""],[""img/mask97.png""],[""img/mask14.png""]]]","","[22,6,17,35,3,12,18,1,14,7,2,13,34,15,4,0,30,29,19,21,28,16,8,31,24,25,10,20,5,32,9,23,26,27,11,33]","main","171","many-guess-6"
"","","","","","html-keyboard-response","166","544933","0.0-10.0-1.73","5ed543442db0060a955d12e1","640759fa512f630a2bdc333d","6408c17a67015beb52318783","null","","null","","","","","","","","","","","","","","","","","","","fixation","",""
"","","","","","color-precision2","167","549654","0.0-10.0-0.74-0.74","5ed543442db0060a955d12e1","640759fa512f630a2bdc333d","6408c17a67015beb52318783","[2278]","","","[29]","[241]","241","250","141.37456284073232","[141.37456284073232]","[251.37456284073232]","[250]","0","0","1","0","147.51699999999255","1005.1569999820786","1000","[[[""img/mask55.png""]]]","","","main","250","color-precision2"
"","","","","","html-keyboard-response","168","550158","0.0-10.0-1.74","5ed543442db0060a955d12e1","640759fa512f630a2bdc333d","6408c17a67015beb52318783","null","","null","","","","","","","","","","","","","","","","","","","fixation","",""
"","","","","","many-guess-6","169","553778","0.0-10.0-0.75-0.75","5ed543442db0060a955d12e1","640759fa512f630a2bdc333d","6408c17a67015beb52318783","[2118.699999988079]","","","[23,18,31,26,8,1,7,22,32,19,12,16,11,3,34,28,29,25,4,2,27,14,10,24,0,33,9,20,5,13,15,6,30,21,35,17]","[176,296,146,316,57,136,67,186,236,336,27,356,87,346,256,266,326,306,216,47,166,286,77,196,106,116,7,246,96,156,226,126,276,206,17,37]","176","108","329.6399654620531","[329.6399654620531]","[221.6399654620531]","[221]","[120,120,300,120,120,300,120,120,210]","0","36","0","147.97899998212233","10.7189999880502","16","[[[""img/mask21.png""],[""img/mask87.png""],[""img/mask62.png""],[""img/mask13.png""],[""img/mask20.png""],[""img/mask82.png""],[""img/mask100.png""],[""img/mask94.png""],[""img/mask60.png""],[""img/mask57.png""],[""img/mask94.png""],[""img/mask13.png""],[""img/mask34.png""],[""img/mask39.png""],[""img/mask43.png""],[""img/mask91.png""],[""img/mask62.png""],[""img/mask97.png""],[""img/mask85.png""],[""img/mask66.png""],[""img/mask18.png""],[""img/mask38.png""],[""img/mask66.png""],[""img/mask10.png""],[""img/mask94.png""],[""img/mask83.png""],[""img/mask88.png""],[""img/mask36.png""],[""img/mask93.png""],[""img/mask51.png""],[""img/mask13.png""],[""img/mask94.png""],[""img/mask73.png""],[""img/mask99.png""],[""img/mask77.png""],[""img/mask19.png""]]]","","[23,18,31,26,8,1,7,22,32,19,12,16,11,3,34,28,29,25,4,2,27,14,10,24,0,33,9,20,5,13,15,6,30,21,35,17]","main","108","many-guess-6"
"","","","","","html-keyboard-response","170","554293","0.0-10.0-1.75","5ed543442db0060a955d12e1","640759fa512f630a2bdc333d","6408c17a67015beb52318783","null","","null","","","","","","","","","","","","","","","","","","","fixation","",""
"","","","","","many-guess-6","171","557742","0.0-10.0-0.76-0.76","5ed543442db0060a955d12e1","640759fa512f630a2bdc333d","6408c17a67015beb52318783","[1965.0999999940395]","","","[35,4,0,8,33,9,3,21,19,2,12,27,34,29,15,17,10,23,32,25,6,24,7,30,18,26,22,31,14,16,5,13,11,20,28,1]","[50,290,300,170,200,10,80,190,140,359,250,329,90,30,310,260,120,339,70,270,130,220,60,100,230,240,349,210,110,20,160,280,180,150,40,320]","50","124","298.0039155155371","[298.0039155155371]","[174.00391551553707]","[174]","[30,210,300,30,210,300,210,30,210]","0","36","0","148.95900000003166","15.99899998807814","16","[[[""img/mask44.png""],[""img/mask99.png""],[""img/mask99.png""],[""img/mask58.png""],[""img/mask15.png""],[""img/mask1.png""],[""img/mask96.png""],[""img/mask69.png""],[""img/mask15.png""],[""img/mask60.png""],[""img/mask43.png""],[""img/mask40.png""],[""img/mask29.png""],[""img/mask73.png""],[""img/mask76.png""],[""img/mask49.png""],[""img/mask14.png""],[""img/mask66.png""],[""img/mask96.png""],[""img/mask89.png""],[""img/mask1.png""],[""img/mask13.png""],[""img/mask87.png""],[""img/mask10.png""],[""img/mask86.png""],[""img/mask56.png""],[""img/mask2.png""],[""img/mask12.png""],[""img/mask32.png""],[""img/mask58.png""],[""img/mask81.png""],[""img/mask30.png""],[""img/mask64.png""],[""img/mask62.png""],[""img/mask88.png""],[""img/mask84.png""]]]","","[35,4,0,8,33,9,3,21,19,2,12,27,34,29,15,17,10,23,32,25,6,24,7,30,18,26,22,31,14,16,5,13,11,20,28,1]","main","124","many-guess-6"
"","","","","","html-keyboard-response","172","558245","0.0-10.0-1.76","5ed543442db0060a955d12e1","640759fa512f630a2bdc333d","6408c17a67015beb52318783","null","","null","","","","","","","","","","","","","","","","","","","fixation","",""
