"success","timeout","failed_images","failed_audio","failed_video","trial_type","trial_index","time_elapsed","internal_node_id","subject_id","study_id","session_id","rt","stimulus","response","position_of_items","colors_of_items","color_of_target","wheel_spin","response_angle","physical_response_angle","reported_color_angle","reported_color_discrete","locs","which_test","set_size","wheel_num_options","actual_mask_duration","actual_stim_duration","CMDispTime","maskArray","maskRotation","item_positions","task","randomSpinAmount","mainTask"
"true","false","[]","[]","[]","preload","0","8013","0.0-0.0","5febd16bbaa7c4d3e31147a0","640759fa512f630a2bdc333d","6408c1802c2d8070a8a4a61f","","","","","","","","","","","","","","","","","","","","","","","",""
"true","","","","","fullscreen","1","17199","0.0-1.0","5febd16bbaa7c4d3e31147a0","640759fa512f630a2bdc333d","6408c1802c2d8070a8a4a61f","","","","","","","","","","","","","","","","","","","","","","","",""
"","","","","","html-keyboard-response","2","24627","0.0-2.0","5febd16bbaa7c4d3e31147a0","640759fa512f630a2bdc333d","6408c1802c2d8070a8a4a61f","7424.700000000186","What a beautiful Wednesday to do some awesome science! </p> <p>  </p><p> </p>
    By completing this survey or questionnaire, you are consenting to be in this research study. </p>
    Your participation is voluntary and you can stop at any time.<p> [Press any key to continue] </p>"," ","","","","","","","","","","","","","","","","","","","","",""
"","","","","","html-keyboard-response","3","34632","0.0-3.0","5febd16bbaa7c4d3e31147a0","640759fa512f630a2bdc333d","6408c1802c2d8070a8a4a61f","7845","
    <div style='width: 1000px;'>
    <div style='float: center;'><img src='img/TaskInstructions1.png'></img>
    </div>
    "," ","","","","","","","","","","","","","","","","","","","","",""
"","","","","","html-keyboard-response","4","44664","0.0-4.0","5febd16bbaa7c4d3e31147a0","640759fa512f630a2bdc333d","6408c1802c2d8070a8a4a61f","10030.200000000186","
    <div style='width: 1000px;'>
    <div style='float: center;'><img src='img/TaskInstructions1.png'></img>
    </div>
    "," ","","","","","","","","","","","","","","","","","","","","",""
"","","","","","html-keyboard-response","5","54672","0.0-5.0","5febd16bbaa7c4d3e31147a0","640759fa512f630a2bdc333d","6408c1802c2d8070a8a4a61f","null","
    <div style='width: 1000px;'>
    <div style='float: center;'><img src='img/TaskInstructions2.png'></img>
    </div>
    ","null","","","","","","","","","","","","","","","","","","","","",""
"","","","","","html-keyboard-response","6","66821","0.0-6.0","5febd16bbaa7c4d3e31147a0","640759fa512f630a2bdc333d","6408c1802c2d8070a8a4a61f","12146.099999999627","
    <div style='width: 1000px;'>
    <div style='float: center;'><img src='img/TaskInstructions2.png'></img>
    </div>
    "," ","","","","","","","","","","","","","","","","","","","","",""
"","","","","","video-keyboard-response","7","87030","0.0-7.0","5febd16bbaa7c4d3e31147a0","640759fa512f630a2bdc333d","6408c1802c2d8070a8a4a61f","20201.299999999814","[""video/TaskInstructions3.mp4""]"," ","","","","","","","","","","","","","","","","","","","","",""
"","","","","","image-keyboard-response","8","91492","0.0-8.0-0.0","5febd16bbaa7c4d3e31147a0","640759fa512f630a2bdc333d","6408c1802c2d8070a8a4a61f","4441.700000000186","img/training1.png"," ","","","","","","","","","","","","","","","","","","","","",""
"","","","","","color-precision2","9","98177","0.0-8.0-1.0-0.0","5febd16bbaa7c4d3e31147a0","640759fa512f630a2bdc333d","6408c1802c2d8070a8a4a61f","[805.1000000005588]","","","[1]","[29]","29","172","190.95904845307092","[190.95904845307092]","[18.95904845307092]","[18]","0","0","1","0","498.4660000007425","993.2180000001827","1000","","","0","training","",""
"","","","","","image-keyboard-response","10","131202","0.0-8.0-0.1","5febd16bbaa7c4d3e31147a0","640759fa512f630a2bdc333d","6408c1802c2d8070a8a4a61f","33022.699999999255","img/training2.png"," ","","","","","","","","","","","","","","","","","","","","",""
"","","","","","many-guess-6","11","140150","0.0-8.0-1.1-0.1","5febd16bbaa7c4d3e31147a0","640759fa512f630a2bdc333d","6408c1802c2d8070a8a4a61f","[4013.399999999441]","","","[34,4,2]","[292,324,216]","292","212","224.5000707311591","[224.5000707311591]","[12.500070731159099]","[12]","[210,120,300,210,300,300,300,210,120,120,30,120,120,300,30,300,120,120,210,300,300,120,30,300,300,210,30,300,120,120,120,30,30,120,120,210]","0","3","0","997.5810000003839","993.3820000007399","1000","[[[""img/mask83.png""],[""img/mask71.png""],[""img/mask46.png""]]]","","[34,4,2]","training","",""
"","","","","","image-keyboard-response","12","144490","0.0-8.0-0.2","5febd16bbaa7c4d3e31147a0","640759fa512f630a2bdc333d","6408c1802c2d8070a8a4a61f","4337.600000000559","img/training3.png"," ","","","","","","","","","","","","","","","","","","","","",""
"","","","","","[""many-guess-6""]","13","149640","0.0-8.0-1.2-0.2","5febd16bbaa7c4d3e31147a0","640759fa512f630a2bdc333d","6408c1802c2d8070a8a4a61f","[1505.5]","","","[2,27,15,14,19]","[302,90,4,38,53]","302","210","124.97393793556803","[124.97393793556803]","[274.973937935568]","[273]","[120,300,30,120,210,210,30,300,120,210,210,120,30,300,30,120,120,210,300,30,300,300,210,300,30,210,120,210,30,300,30,120,30,210,300,120]","0","5","0","498.7810000003665","492.64900000038324","500","[[[""img/mask67.png""],[""img/mask58.png""],[""img/mask24.png""],[""img/mask79.png""],[""img/mask86.png""]]]","","[2,27,15,14,19]","training","",""
"","","","","","image-keyboard-response","14","151632","0.0-8.0-0.3","5febd16bbaa7c4d3e31147a0","640759fa512f630a2bdc333d","6408c1802c2d8070a8a4a61f","1988.3999999994412","img/training4.png"," ","","","","","","","","","","","","","","","","","","","","",""
"","","","","","[""many-guess-6""]","15","156346","0.0-8.0-1.3-0.3","5febd16bbaa7c4d3e31147a0","640759fa512f630a2bdc333d","6408c1802c2d8070a8a4a61f","[1911.699999999255]","","","[34,29,33,31,15,0,17,20,1,8]","[266,162,284,131,183,226,294,213,115,237]","266","68","354.4154384360513","[354.4154384360513]","[286.4154384360513]","[286]","[120,300,300,210,210,210,300,300,210,300,30,30,120,30,120,120,210,120,300,300,210,210,120,300,30,210,300,30,30,300,300,300,300,210,30,120]","0","10","0","132.0650000005553","126.87400000035996","132","[[[""img/mask92.png""],[""img/mask4.png""],[""img/mask77.png""],[""img/mask62.png""],[""img/mask12.png""],[""img/mask31.png""],[""img/mask36.png""],[""img/mask14.png""],[""img/mask84.png""],[""img/mask8.png""]]]","","[34,29,33,31,15,0,17,20,1,8]","training","",""
"","","","","","image-keyboard-response","16","159955","0.0-8.0-0.4","5febd16bbaa7c4d3e31147a0","640759fa512f630a2bdc333d","6408c1802c2d8070a8a4a61f","3606.5","img/training5.png"," ","","","","","","","","","","","","","","","","","","","","",""
"","","","","","[""many-guess-6""]","17","163832","0.0-8.0-1.4-0.4","5febd16bbaa7c4d3e31147a0","640759fa512f630a2bdc333d","6408c1802c2d8070a8a4a61f","[1295.9000000003725]","","","[15,20,30,3,24,1,9,19,12,5,14,23,6,2,16,33,17,22,8,32,29,27,18,21,34,31,26,28,7,13,25,11,4,35,0,10]","[97,316,256,186,67,77,127,356,107,206,136,236,276,326,296,346,216,156,47,57,196,117,286,27,166,266,146,7,306,246,226,176,37,17,336,87]","97","62","344.85215944011713","[344.85215944011713]","[282.85215944011713]","[282]","[120,210,30,120,300,30,30,30,210,30,120,210,120,210,300,300,30,30,210,30,300,30,30,210,300,300,120,210,210,30,30,120,210,210,210,300]","0","36","0","131.51400000054855","10.319000000366941","16","[[[""img/mask17.png""],[""img/mask1.png""],[""img/mask57.png""],[""img/mask30.png""],[""img/mask28.png""],[""img/mask39.png""],[""img/mask77.png""],[""img/mask57.png""],[""img/mask93.png""],[""img/mask57.png""],[""img/mask93.png""],[""img/mask51.png""],[""img/mask84.png""],[""img/mask82.png""],[""img/mask66.png""],[""img/mask76.png""],[""img/mask100.png""],[""img/mask21.png""],[""img/mask97.png""],[""img/mask92.png""],[""img/mask21.png""],[""img/mask63.png""],[""img/mask53.png""],[""img/mask88.png""],[""img/mask33.png""],[""img/mask31.png""],[""img/mask40.png""],[""img/mask98.png""],[""img/mask57.png""],[""img/mask68.png""],[""img/mask28.png""],[""img/mask88.png""],[""img/mask17.png""],[""img/mask71.png""],[""img/mask64.png""],[""img/mask42.png""]]]","","[15,20,30,3,24,1,9,19,12,5,14,23,6,2,16,33,17,22,8,32,29,27,18,21,34,31,26,28,7,13,25,11,4,35,0,10]","training","",""
"","","","","","image-keyboard-response","18","167669","0.0-9.0","5febd16bbaa7c4d3e31147a0","640759fa512f630a2bdc333d","6408c1802c2d8070a8a4a61f","3835.7999999998137","[""img/endTraining.png""]"," ","","","","","","","","","","","","","","","","","","","","",""
"","","","","","html-keyboard-response","19","168184","0.0-10.0-0.0","5febd16bbaa7c4d3e31147a0","640759fa512f630a2bdc333d","6408c1802c2d8070a8a4a61f","null","","null","","","","","","","","","","","","","","","","","","","fixation","",""
"","","","","","many-guess-6","20","171798","0.0-10.0-1.0-0.0","5febd16bbaa7c4d3e31147a0","640759fa512f630a2bdc333d","6408c1802c2d8070a8a4a61f","[1381]","","","[35,3,11,24,14,2,4,7,6,31,27,21,10,32,33,17,19,16,22,34,13,12,25,20,28,9,23,1,29,8,5,26,30,18,0,15]","[52,32,272,202,222,152,82,252,42,162,112,292,312,3,12,262,322,302,122,182,102,332,132,192,282,62,342,232,72,212,242,352,142,22,172,92]","52","50","197.32313271867682","[197.32313271867682]","[147.32313271867682]","[147]","[210,210,120,300,30,210,300,30,210]","0","36","0","148.814000000566","12.557999999989988","16","[[[""img/mask81.png""],[""img/mask80.png""],[""img/mask48.png""],[""img/mask39.png""],[""img/mask82.png""],[""img/mask72.png""],[""img/mask58.png""],[""img/mask87.png""],[""img/mask40.png""],[""img/mask92.png""],[""img/mask13.png""],[""img/mask39.png""],[""img/mask67.png""],[""img/mask60.png""],[""img/mask5.png""],[""img/mask26.png""],[""img/mask34.png""],[""img/mask87.png""],[""img/mask76.png""],[""img/mask76.png""],[""img/mask59.png""],[""img/mask19.png""],[""img/mask26.png""],[""img/mask60.png""],[""img/mask39.png""],[""img/mask79.png""],[""img/mask95.png""],[""img/mask52.png""],[""img/mask67.png""],[""img/mask44.png""],[""img/mask45.png""],[""img/mask49.png""],[""img/mask54.png""],[""img/mask26.png""],[""img/mask37.png""],[""img/mask91.png""]]]","","[35,3,11,24,14,2,4,7,6,31,27,21,10,32,33,17,19,16,22,34,13,12,25,20,28,9,23,1,29,8,5,26,30,18,0,15]","main","50","many-guess-6"
"","","","","","html-keyboard-response","21","172304","0.0-10.0-0.1","5febd16bbaa7c4d3e31147a0","640759fa512f630a2bdc333d","6408c1802c2d8070a8a4a61f","null","","null","","","","","","","","","","","","","","","","","","","fixation","",""
"","","","","","color-precision2","22","177294","0.0-10.0-1.1-0.1","5febd16bbaa7c4d3e31147a0","640759fa512f630a2bdc333d","6408c1802c2d8070a8a4a61f","[1395.7999999998137]","","","[16]","[316]","316","235","195.3093530915628","[195.3093530915628]","[320.3093530915628]","[320]","0","0","1","0","148.7710000005609","1007.4960000000137","1000","[[[""img/mask28.png""]]]","","","main","235","color-precision2"
"","","","","","html-keyboard-response","23","177800","0.0-10.0-0.2","5febd16bbaa7c4d3e31147a0","640759fa512f630a2bdc333d","6408c1802c2d8070a8a4a61f","null","","null","","","","","","","","","","","","","","","","","","","fixation","",""
"","","","","","many-guess-6","24","183115","0.0-10.0-1.2-0.2","5febd16bbaa7c4d3e31147a0","640759fa512f630a2bdc333d","6408c1802c2d8070a8a4a61f","[965.2999999998137]","","","[23,21,7,6,4,22,14,9,32,18,24,5,30,31,1,19,15,13,27,26,0,20,16,11,12,28,17,10,35,2,8,25,29,33,3,34]","[173,153,333,283,353,133,183,63,253,303,4,73,243,343,323,193,33,313,293,83,223,24,14,213,163,263,93,233,103,143,123,203,113,43,273,53]","173","12","0","[0]","[348]","[347]","[210,210,210,120,300,300,30,210,210]","0","36","0","148.65000000037253","9.084999999991851","16","[[[""img/mask63.png""],[""img/mask22.png""],[""img/mask20.png""],[""img/mask66.png""],[""img/mask3.png""],[""img/mask16.png""],[""img/mask35.png""],[""img/mask41.png""],[""img/mask24.png""],[""img/mask31.png""],[""img/mask57.png""],[""img/mask25.png""],[""img/mask17.png""],[""img/mask21.png""],[""img/mask39.png""],[""img/mask32.png""],[""img/mask93.png""],[""img/mask16.png""],[""img/mask50.png""],[""img/mask8.png""],[""img/mask73.png""],[""img/mask3.png""],[""img/mask88.png""],[""img/mask100.png""],[""img/mask37.png""],[""img/mask67.png""],[""img/mask47.png""],[""img/mask69.png""],[""img/mask47.png""],[""img/mask26.png""],[""img/mask56.png""],[""img/mask13.png""],[""img/mask97.png""],[""img/mask47.png""],[""img/mask79.png""],[""img/mask16.png""]]]","","[23,21,7,6,4,22,14,9,32,18,24,5,30,31,1,19,15,13,27,26,0,20,16,11,12,28,17,10,35,2,8,25,29,33,3,34]","main","12","many-guess-6"
"","","","","","html-keyboard-response","25","183624","0.0-10.0-0.3","5febd16bbaa7c4d3e31147a0","640759fa512f630a2bdc333d","6408c1802c2d8070a8a4a61f","null","","null","","","","","","","","","","","","","","","","","","","fixation","",""
"","","","","","color-precision2","26","187709","0.0-10.0-1.3-0.3","5febd16bbaa7c4d3e31147a0","640759fa512f630a2bdc333d","6408c1802c2d8070a8a4a61f","[1161.5]","","","[11]","[94]","94","154","243.1660256459177","[243.1660256459177]","[89.1660256459177]","[89]","0","0","1","0","148.24700000073062","992.6720000003697","1000","[[[""img/mask62.png""]]]","","","main","154","color-precision2"
"","","","","","html-keyboard-response","27","188216","0.0-10.0-0.4","5febd16bbaa7c4d3e31147a0","640759fa512f630a2bdc333d","6408c1802c2d8070a8a4a61f","null","","null","","","","","","","","","","","","","","","","","","","fixation","",""
"","","","","","many-guess-6","28","193212","0.0-10.0-1.4-0.4","5febd16bbaa7c4d3e31147a0","640759fa512f630a2bdc333d","6408c1802c2d8070a8a4a61f","[946.2999999998137]","","","[8,21,26,20,11,9,2,19,24,12,31,16,25,29,17,13,15,33,3,10,22,7,30,28,14,18,5,0,4,27,6,1,23,32,34,35]","[306,276,7,156,286,186,326,117,47,196,176,87,246,67,216,296,266,316,336,77,236,166,107,256,206,356,57,146,17,27,226,97,346,137,127,37]","306","301","319.8175221129766","[319.8175221129766]","[18.817522112976576]","[19]","[120,210,210,30,120,210,210,120,300]","0","36","0","148.82900000055088","13.062999999994645","16","[[[""img/mask27.png""],[""img/mask85.png""],[""img/mask3.png""],[""img/mask76.png""],[""img/mask36.png""],[""img/mask45.png""],[""img/mask91.png""],[""img/mask7.png""],[""img/mask52.png""],[""img/mask90.png""],[""img/mask4.png""],[""img/mask54.png""],[""img/mask27.png""],[""img/mask67.png""],[""img/mask87.png""],[""img/mask22.png""],[""img/mask53.png""],[""img/mask88.png""],[""img/mask32.png""],[""img/mask46.png""],[""img/mask56.png""],[""img/mask94.png""],[""img/mask29.png""],[""img/mask98.png""],[""img/mask45.png""],[""img/mask98.png""],[""img/mask78.png""],[""img/mask31.png""],[""img/mask13.png""],[""img/mask99.png""],[""img/mask42.png""],[""img/mask19.png""],[""img/mask25.png""],[""img/mask71.png""],[""img/mask78.png""],[""img/mask85.png""]]]","","[8,21,26,20,11,9,2,19,24,12,31,16,25,29,17,13,15,33,3,10,22,7,30,28,14,18,5,0,4,27,6,1,23,32,34,35]","main","301","many-guess-6"
"","","","","","html-keyboard-response","29","193719","0.0-10.0-0.5","5febd16bbaa7c4d3e31147a0","640759fa512f630a2bdc333d","6408c1802c2d8070a8a4a61f","null","","null","","","","","","","","","","","","","","","","","","","fixation","",""
"","","","","","many-guess-6","30","196738","0.0-10.0-1.5-0.5","5febd16bbaa7c4d3e31147a0","640759fa512f630a2bdc333d","6408c1802c2d8070a8a4a61f","[1156.5]","","","[33,1,13,19,0,7,2,14,16,32,31,35,22,6,11,20,21,29,4,3,17,30,9,10,27,18,28,5,12,34,24,23,25,26,8,15]","[337,178,58,138,48,68,148,38,317,198,158,108,207,118,267,98,78,8,227,357,247,18,188,257,327,287,237,307,28,168,128,347,277,88,297,217]","337","312","24.85320207233463","[24.85320207233463]","[72.85320207233462]","[71]","[30,30,120,30,210,300,120,30,210]","0","36","0","148.6700000000128","9.405000000377186","16","[[[""img/mask38.png""],[""img/mask88.png""],[""img/mask1.png""],[""img/mask35.png""],[""img/mask34.png""],[""img/mask47.png""],[""img/mask48.png""],[""img/mask96.png""],[""img/mask26.png""],[""img/mask37.png""],[""img/mask23.png""],[""img/mask93.png""],[""img/mask28.png""],[""img/mask6.png""],[""img/mask71.png""],[""img/mask36.png""],[""img/mask50.png""],[""img/mask25.png""],[""img/mask43.png""],[""img/mask47.png""],[""img/mask61.png""],[""img/mask6.png""],[""img/mask27.png""],[""img/mask89.png""],[""img/mask64.png""],[""img/mask79.png""],[""img/mask16.png""],[""img/mask4.png""],[""img/mask26.png""],[""img/mask35.png""],[""img/mask23.png""],[""img/mask10.png""],[""img/mask3.png""],[""img/mask55.png""],[""img/mask9.png""],[""img/mask46.png""]]]","","[33,1,13,19,0,7,2,14,16,32,31,35,22,6,11,20,21,29,4,3,17,30,9,10,27,18,28,5,12,34,24,23,25,26,8,15]","main","312","many-guess-6"
"","","","","","html-keyboard-response","31","197240","0.0-10.0-0.6","5febd16bbaa7c4d3e31147a0","640759fa512f630a2bdc333d","6408c1802c2d8070a8a4a61f","null","","null","","","","","","","","","","","","","","","","","","","fixation","",""
"","","","","","many-guess-6","32","199960","0.0-10.0-1.6-0.6","5febd16bbaa7c4d3e31147a0","640759fa512f630a2bdc333d","6408c1802c2d8070a8a4a61f","[1062.4000000003725]","","","[22,29,15,35,4,19,32,17,30,10,31,33,23,3,13,2,25,7,1,21,14,5,16,20,11,9,26,28,0,18,12,6,24,34,27,8]","[64,314,334,234,304,264,104,204,324,134,94,24,344,254,14,154,164,54,274,224,4,284,194,174,294,44,214,74,184,124,244,353,114,84,34,144]","64","255","304.5879009059033","[304.5879009059033]","[49.587900905903325]","[50]","[120,30,120,210,30,30,30,30,120]","0","36","0","148.71100000056322","21.956000000005588","16","[[[""img/mask35.png""],[""img/mask63.png""],[""img/mask19.png""],[""img/mask59.png""],[""img/mask47.png""],[""img/mask40.png""],[""img/mask81.png""],[""img/mask92.png""],[""img/mask90.png""],[""img/mask71.png""],[""img/mask24.png""],[""img/mask80.png""],[""img/mask96.png""],[""img/mask10.png""],[""img/mask42.png""],[""img/mask23.png""],[""img/mask4.png""],[""img/mask46.png""],[""img/mask100.png""],[""img/mask85.png""],[""img/mask37.png""],[""img/mask59.png""],[""img/mask47.png""],[""img/mask14.png""],[""img/mask47.png""],[""img/mask31.png""],[""img/mask77.png""],[""img/mask30.png""],[""img/mask10.png""],[""img/mask23.png""],[""img/mask89.png""],[""img/mask86.png""],[""img/mask69.png""],[""img/mask16.png""],[""img/mask98.png""],[""img/mask82.png""]]]","","[22,29,15,35,4,19,32,17,30,10,31,33,23,3,13,2,25,7,1,21,14,5,16,20,11,9,26,28,0,18,12,6,24,34,27,8]","main","255","many-guess-6"
"","","","","","html-keyboard-response","33","200464","0.0-10.0-0.7","5febd16bbaa7c4d3e31147a0","640759fa512f630a2bdc333d","6408c1802c2d8070a8a4a61f","null","","null","","","","","","","","","","","","","","","","","","","fixation","",""
"","","","","","many-guess-6","34","203378","0.0-10.0-1.7-0.7","5febd16bbaa7c4d3e31147a0","640759fa512f630a2bdc333d","6408c1802c2d8070a8a4a61f","[1112.4000000003725]","","","[16,1,21,24,9,18,26,27,3,19,12,17,28,22,13,30,31,0,25,20,8,14,7,33,34,5,10,11,35,6,15,23,29,2,32,4]","[36,285,275,126,325,96,355,255,146,186,335,6,46,345,226,176,265,16,305,136,166,56,216,106,156,295,196,116,315,245,235,76,66,26,86,206]","36","332","11.094813965716646","[11.094813965716646]","[39.09481396571664]","[38]","[210,120,210,210,210,30,300,300,120]","0","36","0","148.74900000018533","12.293000000383472","16","[[[""img/mask78.png""],[""img/mask41.png""],[""img/mask37.png""],[""img/mask89.png""],[""img/mask90.png""],[""img/mask93.png""],[""img/mask40.png""],[""img/mask95.png""],[""img/mask47.png""],[""img/mask4.png""],[""img/mask58.png""],[""img/mask94.png""],[""img/mask53.png""],[""img/mask40.png""],[""img/mask90.png""],[""img/mask88.png""],[""img/mask69.png""],[""img/mask29.png""],[""img/mask13.png""],[""img/mask48.png""],[""img/mask66.png""],[""img/mask55.png""],[""img/mask73.png""],[""img/mask92.png""],[""img/mask18.png""],[""img/mask70.png""],[""img/mask49.png""],[""img/mask27.png""],[""img/mask20.png""],[""img/mask31.png""],[""img/mask38.png""],[""img/mask38.png""],[""img/mask71.png""],[""img/mask6.png""],[""img/mask24.png""],[""img/mask7.png""]]]","","[16,1,21,24,9,18,26,27,3,19,12,17,28,22,13,30,31,0,25,20,8,14,7,33,34,5,10,11,35,6,15,23,29,2,32,4]","main","332","many-guess-6"
"","","","","","html-keyboard-response","35","203879","0.0-10.0-0.8","5febd16bbaa7c4d3e31147a0","640759fa512f630a2bdc333d","6408c1802c2d8070a8a4a61f","null","","null","","","","","","","","","","","","","","","","","","","fixation","",""
"","","","","","many-guess-6","36","206505","0.0-10.0-1.8-0.8","5febd16bbaa7c4d3e31147a0","640759fa512f630a2bdc333d","6408c1802c2d8070a8a4a61f","[1025.4000000003725]","","","[16,32,10,1,19,6,30,3,8,28,34,23,14,2,21,4,26,29,31,0,12,7,35,18,20,5,22,25,13,11,17,24,33,9,15,27]","[107,226,37,77,206,57,127,236,246,137,256,166,97,356,156,47,316,306,87,336,266,146,326,346,7,216,27,276,196,176,17,286,186,67,117,296]","107","330","191.25269228251372","[191.25269228251372]","[221.25269228251372]","[220]","[30,210,30,120,210,210,300,210,300]","0","36","0","148.79700000074808","12.741000000358326","16","[[[""img/mask73.png""],[""img/mask70.png""],[""img/mask53.png""],[""img/mask82.png""],[""img/mask80.png""],[""img/mask47.png""],[""img/mask6.png""],[""img/mask81.png""],[""img/mask60.png""],[""img/mask86.png""],[""img/mask3.png""],[""img/mask8.png""],[""img/mask40.png""],[""img/mask47.png""],[""img/mask44.png""],[""img/mask39.png""],[""img/mask35.png""],[""img/mask54.png""],[""img/mask6.png""],[""img/mask90.png""],[""img/mask81.png""],[""img/mask29.png""],[""img/mask68.png""],[""img/mask76.png""],[""img/mask40.png""],[""img/mask21.png""],[""img/mask3.png""],[""img/mask77.png""],[""img/mask36.png""],[""img/mask32.png""],[""img/mask91.png""],[""img/mask13.png""],[""img/mask98.png""],[""img/mask73.png""],[""img/mask20.png""],[""img/mask15.png""]]]","","[16,32,10,1,19,6,30,3,8,28,34,23,14,2,21,4,26,29,31,0,12,7,35,18,20,5,22,25,13,11,17,24,33,9,15,27]","main","330","many-guess-6"
"","","","","","html-keyboard-response","37","207008","0.0-10.0-0.9","5febd16bbaa7c4d3e31147a0","640759fa512f630a2bdc333d","6408c1802c2d8070a8a4a61f","null","","null","","","","","","","","","","","","","","","","","","","fixation","",""
"","","","","","color-precision2","38","214786","0.0-10.0-1.9-0.9","5febd16bbaa7c4d3e31147a0","640759fa512f630a2bdc333d","6408c1802c2d8070a8a4a61f","[1906.6000000005588]","","","[34]","[90]","90","7","79.35613987043315","[79.35613987043315]","[72.35613987043315]","[71]","0","0","1","0","148.79000000073574","1004.2140000003856","1000","[[[""img/mask1.png""]]]","","","main","7","color-precision2"
"","","","","","html-keyboard-response","39","215288","0.0-10.0-0.10","5febd16bbaa7c4d3e31147a0","640759fa512f630a2bdc333d","6408c1802c2d8070a8a4a61f","null","","null","","","","","","","","","","","","","","","","","","","fixation","",""
"","","","","","many-guess-6","40","218381","0.0-10.0-1.10-0.10","5febd16bbaa7c4d3e31147a0","640759fa512f630a2bdc333d","6408c1802c2d8070a8a4a61f","[1368.7000000001863]","","","[32,24,2,3,22,9,35,33,14,6,10,0,31,17,7,28,20,13,18,12,4,19,25,21,16,15,27,30,8,5,26,29,11,1,23,34]","[211,21,161,241,51,251,71,61,1,91,81,101,11,300,350,131,141,290,201,310,111,271,191,151,261,340,41,31,281,171,320,330,231,221,121,181]","211","258","228.6706740566126","[228.6706740566126]","[330.6706740566126]","[330]","[30,30,210,210,30,30,120,30,210]","0","36","0","148.74600000018836","17.39000000001397","16","[[[""img/mask10.png""],[""img/mask67.png""],[""img/mask36.png""],[""img/mask81.png""],[""img/mask8.png""],[""img/mask25.png""],[""img/mask96.png""],[""img/mask21.png""],[""img/mask22.png""],[""img/mask89.png""],[""img/mask46.png""],[""img/mask97.png""],[""img/mask13.png""],[""img/mask13.png""],[""img/mask25.png""],[""img/mask2.png""],[""img/mask81.png""],[""img/mask78.png""],[""img/mask53.png""],[""img/mask21.png""],[""img/mask1.png""],[""img/mask99.png""],[""img/mask59.png""],[""img/mask44.png""],[""img/mask39.png""],[""img/mask13.png""],[""img/mask100.png""],[""img/mask92.png""],[""img/mask93.png""],[""img/mask8.png""],[""img/mask84.png""],[""img/mask13.png""],[""img/mask75.png""],[""img/mask9.png""],[""img/mask68.png""],[""img/mask32.png""]]]","","[32,24,2,3,22,9,35,33,14,6,10,0,31,17,7,28,20,13,18,12,4,19,25,21,16,15,27,30,8,5,26,29,11,1,23,34]","main","258","many-guess-6"
"","","","","","html-keyboard-response","41","218887","0.0-10.0-0.11","5febd16bbaa7c4d3e31147a0","640759fa512f630a2bdc333d","6408c1802c2d8070a8a4a61f","null","","null","","","","","","","","","","","","","","","","","","","fixation","",""
"","","","","","color-precision2","42","222049","0.0-10.0-1.11-0.11","5febd16bbaa7c4d3e31147a0","640759fa512f630a2bdc333d","6408c1802c2d8070a8a4a61f","[453.29999999981374]","","","[22]","[119]","119","49","167.55069098357825","[167.55069098357825]","[118.55069098357825]","[119]","0","0","1","0","148.66400000057183","992.3889999999956","1000","[[[""img/mask71.png""]]]","","","main","49","color-precision2"
"","","","","","html-keyboard-response","43","222551","0.0-10.0-0.12","5febd16bbaa7c4d3e31147a0","640759fa512f630a2bdc333d","6408c1802c2d8070a8a4a61f","null","","null","","","","","","","","","","","","","","","","","","","fixation","",""
"","","","","","many-guess-6","44","228161","0.0-10.0-1.12-0.12","5febd16bbaa7c4d3e31147a0","640759fa512f630a2bdc333d","6408c1802c2d8070a8a4a61f","[3764]","","","[3,22,23,4,35,32,9,12,33,30,31,26,7,19,8,18,1,24,15,21,5,16,6,28,14,13,27,25,20,34,11,10,2,0,29,17]","[28,227,108,88,68,98,267,217,317,117,137,177,327,8,207,187,237,48,167,197,78,18,297,247,257,357,127,38,58,147,347,307,287,337,277,157]","28","243","174.18124819260896","[174.18124819260896]","[291.18124819260896]","[290]","[300,30,210,210,210,300,120,120,210]","0","36","0","148.97700000056648","8.312000000558328","16","[[[""img/mask97.png""],[""img/mask20.png""],[""img/mask7.png""],[""img/mask71.png""],[""img/mask95.png""],[""img/mask66.png""],[""img/mask30.png""],[""img/mask64.png""],[""img/mask31.png""],[""img/mask2.png""],[""img/mask45.png""],[""img/mask5.png""],[""img/mask12.png""],[""img/mask14.png""],[""img/mask40.png""],[""img/mask47.png""],[""img/mask74.png""],[""img/mask19.png""],[""img/mask31.png""],[""img/mask91.png""],[""img/mask60.png""],[""img/mask91.png""],[""img/mask33.png""],[""img/mask5.png""],[""img/mask34.png""],[""img/mask34.png""],[""img/mask76.png""],[""img/mask22.png""],[""img/mask72.png""],[""img/mask26.png""],[""img/mask38.png""],[""img/mask7.png""],[""img/mask8.png""],[""img/mask1.png""],[""img/mask92.png""],[""img/mask46.png""]]]","","[3,22,23,4,35,32,9,12,33,30,31,26,7,19,8,18,1,24,15,21,5,16,6,28,14,13,27,25,20,34,11,10,2,0,29,17]","main","243","many-guess-6"
"","","","","","html-keyboard-response","45","228664","0.0-10.0-0.13","5febd16bbaa7c4d3e31147a0","640759fa512f630a2bdc333d","6408c1802c2d8070a8a4a61f","null","","null","","","","","","","","","","","","","","","","","","","fixation","",""
"","","","","","color-precision2","46","234487","0.0-10.0-1.13-0.13","5febd16bbaa7c4d3e31147a0","640759fa512f630a2bdc333d","6408c1802c2d8070a8a4a61f","[1391.5]","","","[1]","[303]","303","175","136.0014052217674","[136.0014052217674]","[321.0014052217674]","[319]","0","0","1","0","148.78200000000652","1003.5070000003616","1000","[[[""img/mask92.png""]]]","","","main","175","color-precision2"
"","","","","","html-keyboard-response","47","234991","0.0-10.0-0.14","5febd16bbaa7c4d3e31147a0","640759fa512f630a2bdc333d","6408c1802c2d8070a8a4a61f","null","","null","","","","","","","","","","","","","","","","","","","fixation","",""
"","","","","","color-precision2","48","240787","0.0-10.0-1.14-0.14","5febd16bbaa7c4d3e31147a0","640759fa512f630a2bdc333d","6408c1802c2d8070a8a4a61f","[3124.800000000745]","","","[15]","[187]","187","308","139.9175865788583","[139.9175865788583]","[191.9175865788583]","[191]","0","0","1","0","148.74200000055134","1001.9629999999888","1000","[[[""img/mask18.png""]]]","","","main","308","color-precision2"
"","","","","","html-keyboard-response","49","241295","0.0-10.0-0.15","5febd16bbaa7c4d3e31147a0","640759fa512f630a2bdc333d","6408c1802c2d8070a8a4a61f","null","","null","","","","","","","","","","","","","","","","","","","fixation","",""
"","","","","","color-precision2","50","244615","0.0-10.0-1.15-0.15","5febd16bbaa7c4d3e31147a0","640759fa512f630a2bdc333d","6408c1802c2d8070a8a4a61f","[586.7999999998137]","","","[13]","[349]","349","165","171.2568414567808","[171.2568414567808]","[6.256841456780791]","[6]","0","0","1","0","148.5720000001893","992.0970000003581","1000","[[[""img/mask14.png""]]]","","","main","165","color-precision2"
"","","","","","html-keyboard-response","51","245119","0.0-10.0-0.16","5febd16bbaa7c4d3e31147a0","640759fa512f630a2bdc333d","6408c1802c2d8070a8a4a61f","null","","null","","","","","","","","","","","","","","","","","","","fixation","",""
"","","","","","many-guess-6","52","247466","0.0-10.0-1.16-0.16","5febd16bbaa7c4d3e31147a0","640759fa512f630a2bdc333d","6408c1802c2d8070a8a4a61f","[802.9000000003725]","","","[22,11,21,35,15,3,27,32,4,18,31,5,9,0,20,34,12,6,1,16,13,7,25,2,8,29,10,23,19,24,26,33,17,30,14,28]","[172,82,92,192,122,302,102,282,262,312,242,212,33,272,322,53,142,3,202,43,182,152,222,352,342,132,332,63,23,72,252,232,112,292,162,13]","172","165","155.46214475667801","[155.46214475667801]","[350.462144756678]","[349]","[210,30,30,120,120,120,30,120,120]","0","36","0","148.8300000007439","17.27400000038324","16","[[[""img/mask93.png""],[""img/mask58.png""],[""img/mask17.png""],[""img/mask28.png""],[""img/mask9.png""],[""img/mask96.png""],[""img/mask21.png""],[""img/mask46.png""],[""img/mask100.png""],[""img/mask43.png""],[""img/mask34.png""],[""img/mask96.png""],[""img/mask99.png""],[""img/mask8.png""],[""img/mask7.png""],[""img/mask92.png""],[""img/mask40.png""],[""img/mask74.png""],[""img/mask21.png""],[""img/mask27.png""],[""img/mask23.png""],[""img/mask52.png""],[""img/mask55.png""],[""img/mask58.png""],[""img/mask94.png""],[""img/mask17.png""],[""img/mask18.png""],[""img/mask24.png""],[""img/mask28.png""],[""img/mask14.png""],[""img/mask30.png""],[""img/mask46.png""],[""img/mask96.png""],[""img/mask59.png""],[""img/mask85.png""],[""img/mask78.png""]]]","","[22,11,21,35,15,3,27,32,4,18,31,5,9,0,20,34,12,6,1,16,13,7,25,2,8,29,10,23,19,24,26,33,17,30,14,28]","main","165","many-guess-6"
"","","","","","html-keyboard-response","53","247967","0.0-10.0-0.17","5febd16bbaa7c4d3e31147a0","640759fa512f630a2bdc333d","6408c1802c2d8070a8a4a61f","null","","null","","","","","","","","","","","","","","","","","","","fixation","",""
"","","","","","color-precision2","54","250829","0.0-10.0-1.17-0.17","5febd16bbaa7c4d3e31147a0","640759fa512f630a2bdc333d","6408c1802c2d8070a8a4a61f","[535.3999999994412]","","","[11]","[351]","351","32","45.81843302347383","[45.81843302347383]","[13.81843302347383]","[12]","0","0","1","0","148.91200000073877","1002.3370000003779","1000","[[[""img/mask45.png""]]]","","","main","32","color-precision2"
"","","","","","html-keyboard-response","55","251335","0.0-10.0-0.18","5febd16bbaa7c4d3e31147a0","640759fa512f630a2bdc333d","6408c1802c2d8070a8a4a61f","null","","null","","","","","","","","","","","","","","","","","","","fixation","",""
"","","","","","many-guess-6","56","254405","0.0-10.0-1.18-0.18","5febd16bbaa7c4d3e31147a0","640759fa512f630a2bdc333d","6408c1802c2d8070a8a4a61f","[1544.7999999998137]","","","[10,21,7,30,4,31,26,5,28,20,9,34,27,23,13,2,24,3,16,19,29,17,32,14,18,15,0,6,11,33,25,1,35,22,8,12]","[263,34,103,193,243,303,213,203,223,133,4,153,333,323,353,313,63,343,73,143,293,163,123,93,44,253,173,113,233,183,273,283,83,54,24,14]","263","21","350.442444858041","[350.442444858041]","[329.442444858041]","[329]","[30,30,300,300,120,30,210,120,210]","0","36","0","148.80800000019372","16.853000000381144","16","[[[""img/mask48.png""],[""img/mask35.png""],[""img/mask73.png""],[""img/mask26.png""],[""img/mask1.png""],[""img/mask1.png""],[""img/mask14.png""],[""img/mask77.png""],[""img/mask33.png""],[""img/mask62.png""],[""img/mask82.png""],[""img/mask84.png""],[""img/mask84.png""],[""img/mask29.png""],[""img/mask1.png""],[""img/mask7.png""],[""img/mask27.png""],[""img/mask5.png""],[""img/mask90.png""],[""img/mask37.png""],[""img/mask61.png""],[""img/mask53.png""],[""img/mask51.png""],[""img/mask87.png""],[""img/mask1.png""],[""img/mask36.png""],[""img/mask9.png""],[""img/mask46.png""],[""img/mask10.png""],[""img/mask14.png""],[""img/mask40.png""],[""img/mask21.png""],[""img/mask80.png""],[""img/mask20.png""],[""img/mask44.png""],[""img/mask90.png""]]]","","[10,21,7,30,4,31,26,5,28,20,9,34,27,23,13,2,24,3,16,19,29,17,32,14,18,15,0,6,11,33,25,1,35,22,8,12]","main","21","many-guess-6"
"","","","","","html-keyboard-response","57","256457","0.0-10.0-0.19","5febd16bbaa7c4d3e31147a0","640759fa512f630a2bdc333d","6408c1802c2d8070a8a4a61f","2049.600000000559","Wow! You've completed 20 out of 180 trials! </p> <p>  </p><p> Take a quick break, then press any key when you're ready to continue."," ","","","","","","","","","","","","","","","","","","","fixation","",""
"","","","","","color-precision2","58","261020","0.0-10.0-1.19-0.19","5febd16bbaa7c4d3e31147a0","640759fa512f630a2bdc333d","6408c1802c2d8070a8a4a61f","[510]","","","[8]","[329]","329","46","42.324892845371345","[42.324892845371345]","[356.3248928453713]","[355]","0","0","1","0","148.68400000053225","1002.3090000003576","1000","[[[""img/mask77.png""]]]","","","main","46","color-precision2"
"","","","","","html-keyboard-response","59","261527","0.0-10.0-0.20","5febd16bbaa7c4d3e31147a0","640759fa512f630a2bdc333d","6408c1802c2d8070a8a4a61f","null","","null","","","","","","","","","","","","","","","","","","","fixation","",""
"","","","","","color-precision2","60","264467","0.0-10.0-1.20-0.20","5febd16bbaa7c4d3e31147a0","640759fa512f630a2bdc333d","6408c1802c2d8070a8a4a61f","[246.70000000018626]","","","[4]","[140]","140","161","302.2275428784337","[302.2275428784337]","[141.22754287843372]","[141]","0","0","1","0","148.93300000054296","1006.057000000379","1000","[[[""img/mask15.png""]]]","","","main","161","color-precision2"
"","","","","","html-keyboard-response","61","264975","0.0-10.0-0.21","5febd16bbaa7c4d3e31147a0","640759fa512f630a2bdc333d","6408c1802c2d8070a8a4a61f","null","","null","","","","","","","","","","","","","","","","","","","fixation","",""
"","","","","","many-guess-6","62","267005","0.0-10.0-1.21-0.21","5febd16bbaa7c4d3e31147a0","640759fa512f630a2bdc333d","6408c1802c2d8070a8a4a61f","[694.8000000007451]","","","[22,23,2,18,0,15,31,5,1,3,24,26,28,34,27,6,10,11,9,33,20,7,16,21,32,14,17,19,25,35,30,29,4,8,13,12]","[56,116,255,335,36,96,225,245,265,285,145,106,215,315,185,46,295,305,345,275,86,6,355,155,76,165,16,235,26,125,195,135,175,325,66,205]","56","209","343.66070390712895","[343.66070390712895]","[134.66070390712895]","[134]","[120,210,30,210,210,120,120,210,30]","0","36","0","148.7940000005765","10.028999999980442","16","[[[""img/mask5.png""],[""img/mask31.png""],[""img/mask47.png""],[""img/mask50.png""],[""img/mask52.png""],[""img/mask3.png""],[""img/mask37.png""],[""img/mask6.png""],[""img/mask37.png""],[""img/mask73.png""],[""img/mask91.png""],[""img/mask6.png""],[""img/mask5.png""],[""img/mask29.png""],[""img/mask23.png""],[""img/mask11.png""],[""img/mask95.png""],[""img/mask16.png""],[""img/mask60.png""],[""img/mask11.png""],[""img/mask43.png""],[""img/mask15.png""],[""img/mask69.png""],[""img/mask53.png""],[""img/mask56.png""],[""img/mask95.png""],[""img/mask30.png""],[""img/mask15.png""],[""img/mask19.png""],[""img/mask57.png""],[""img/mask8.png""],[""img/mask44.png""],[""img/mask48.png""],[""img/mask67.png""],[""img/mask42.png""],[""img/mask73.png""]]]","","[22,23,2,18,0,15,31,5,1,3,24,26,28,34,27,6,10,11,9,33,20,7,16,21,32,14,17,19,25,35,30,29,4,8,13,12]","main","209","many-guess-6"
"","","","","","html-keyboard-response","63","267511","0.0-10.0-0.22","5febd16bbaa7c4d3e31147a0","640759fa512f630a2bdc333d","6408c1802c2d8070a8a4a61f","null","","null","","","","","","","","","","","","","","","","","","","fixation","",""
"","","","","","many-guess-6","64","270083","0.0-10.0-1.22-0.22","5febd16bbaa7c4d3e31147a0","640759fa512f630a2bdc333d","6408c1802c2d8070a8a4a61f","[1223.7999999998137]","","","[17,35,29,7,6,18,32,26,14,19,8,30,4,2,0,5,24,3,9,27,16,23,25,28,22,12,21,1,20,33,10,11,15,31,13,34]","[287,127,326,297,177,7,277,117,257,187,157,37,97,356,307,137,17,197,167,267,77,217,87,336,317,237,207,57,67,247,346,227,47,107,147,27]","287","6","29.078348180809208","[29.078348180809208]","[23.078348180809208]","[22]","[300,210,30,210,300,300,300,300,120]","0","36","0","148.82000000076368","7.755000000353903","16","[[[""img/mask95.png""],[""img/mask81.png""],[""img/mask45.png""],[""img/mask13.png""],[""img/mask62.png""],[""img/mask17.png""],[""img/mask84.png""],[""img/mask70.png""],[""img/mask68.png""],[""img/mask96.png""],[""img/mask84.png""],[""img/mask64.png""],[""img/mask55.png""],[""img/mask17.png""],[""img/mask99.png""],[""img/mask100.png""],[""img/mask85.png""],[""img/mask55.png""],[""img/mask77.png""],[""img/mask81.png""],[""img/mask20.png""],[""img/mask72.png""],[""img/mask59.png""],[""img/mask68.png""],[""img/mask100.png""],[""img/mask52.png""],[""img/mask4.png""],[""img/mask16.png""],[""img/mask4.png""],[""img/mask9.png""],[""img/mask95.png""],[""img/mask74.png""],[""img/mask45.png""],[""img/mask94.png""],[""img/mask97.png""],[""img/mask7.png""]]]","","[17,35,29,7,6,18,32,26,14,19,8,30,4,2,0,5,24,3,9,27,16,23,25,28,22,12,21,1,20,33,10,11,15,31,13,34]","main","6","many-guess-6"
"","","","","","html-keyboard-response","65","270591","0.0-10.0-0.23","5febd16bbaa7c4d3e31147a0","640759fa512f630a2bdc333d","6408c1802c2d8070a8a4a61f","null","","null","","","","","","","","","","","","","","","","","","","fixation","",""
"","","","","","color-precision2","66","273601","0.0-10.0-1.23-0.23","5febd16bbaa7c4d3e31147a0","640759fa512f630a2bdc333d","6408c1802c2d8070a8a4a61f","[442.09999999962747]","","","[34]","[261]","261","284","171.545965452013","[171.545965452013]","[247.545965452013]","[246]","0","0","1","0","148.82400000054622","1003.5489999999991","1000","[[[""img/mask10.png""]]]","","","main","284","color-precision2"
"","","","","","html-keyboard-response","67","274103","0.0-10.0-0.24","5febd16bbaa7c4d3e31147a0","640759fa512f630a2bdc333d","6408c1802c2d8070a8a4a61f","null","","null","","","","","","","","","","","","","","","","","","","fixation","",""
"","","","","","color-precision2","68","277112","0.0-10.0-1.24-0.24","5febd16bbaa7c4d3e31147a0","640759fa512f630a2bdc333d","6408c1802c2d8070a8a4a61f","[536.9000000003725]","","","[1]","[11]","11","275","255.4665700424432","[255.4665700424432]","[340.4665700424432]","[341]","0","0","1","0","148.7590000005439","995.8840000003693","1000","[[[""img/mask44.png""]]]","","","main","275","color-precision2"
"","","","","","html-keyboard-response","69","277616","0.0-10.0-0.25","5febd16bbaa7c4d3e31147a0","640759fa512f630a2bdc333d","6408c1802c2d8070a8a4a61f","null","","null","","","","","","","","","","","","","","","","","","","fixation","",""
"","","","","","color-precision2","70","280542","0.0-10.0-1.25-0.25","5febd16bbaa7c4d3e31147a0","640759fa512f630a2bdc333d","6408c1802c2d8070a8a4a61f","[567.2999999998137]","","","[6]","[203]","203","71","285.6771283208225","[285.6771283208225]","[214.67712832082248]","[215]","0","0","1","0","148.82700000039767","1003.6520000003511","1000","[[[""img/mask81.png""]]]","","","main","71","color-precision2"
"","","","","","html-keyboard-response","71","281047","0.0-10.0-0.26","5febd16bbaa7c4d3e31147a0","640759fa512f630a2bdc333d","6408c1802c2d8070a8a4a61f","null","","null","","","","","","","","","","","","","","","","","","","fixation","",""
"","","","","","many-guess-6","72","283252","0.0-10.0-1.26-0.26","5febd16bbaa7c4d3e31147a0","640759fa512f630a2bdc333d","6408c1802c2d8070a8a4a61f","[826.0999999996275]","","","[15,6,31,13,19,1,5,10,27,28,26,35,14,25,9,32,7,29,16,2,3,17,18,20,34,30,8,4,22,24,0,33,12,23,21,11]","[286,256,106,156,315,306,36,26,96,246,126,236,146,345,56,76,166,206,66,176,355,276,325,6,216,296,186,196,86,226,46,335,16,116,266,136]","286","84","11.921767742073687","[11.921767742073687]","[287.9217677420737]","[287]","[30,120,210,30,120,210,300,210,30]","0","36","0","148.6650000003865","13.60899999999674","16","[[[""img/mask35.png""],[""img/mask62.png""],[""img/mask31.png""],[""img/mask28.png""],[""img/mask80.png""],[""img/mask87.png""],[""img/mask61.png""],[""img/mask68.png""],[""img/mask89.png""],[""img/mask87.png""],[""img/mask49.png""],[""img/mask60.png""],[""img/mask29.png""],[""img/mask98.png""],[""img/mask15.png""],[""img/mask86.png""],[""img/mask67.png""],[""img/mask85.png""],[""img/mask47.png""],[""img/mask13.png""],[""img/mask16.png""],[""img/mask58.png""],[""img/mask68.png""],[""img/mask59.png""],[""img/mask65.png""],[""img/mask82.png""],[""img/mask61.png""],[""img/mask92.png""],[""img/mask92.png""],[""img/mask73.png""],[""img/mask61.png""],[""img/mask74.png""],[""img/mask63.png""],[""img/mask26.png""],[""img/mask80.png""],[""img/mask81.png""]]]","","[15,6,31,13,19,1,5,10,27,28,26,35,14,25,9,32,7,29,16,2,3,17,18,20,34,30,8,4,22,24,0,33,12,23,21,11]","main","84","many-guess-6"
"","","","","","html-keyboard-response","73","283760","0.0-10.0-0.27","5febd16bbaa7c4d3e31147a0","640759fa512f630a2bdc333d","6408c1802c2d8070a8a4a61f","null","","null","","","","","","","","","","","","","","","","","","","fixation","",""
"","","","","","many-guess-6","74","287867","0.0-10.0-1.27-0.27","5febd16bbaa7c4d3e31147a0","640759fa512f630a2bdc333d","6408c1802c2d8070a8a4a61f","[2575.899999999441]","","","[34,2,24,5,8,16,0,7,27,20,14,25,21,9,22,19,13,1,28,30,35,15,10,18,17,4,23,6,12,31,11,3,33,26,32,29]","[241,111,301,131,321,171,201,341,101,21,61,71,51,181,121,1,311,91,151,11,221,161,211,271,231,281,81,191,331,141,261,41,31,251,291,351]","241","158","43.14037066861993","[43.14037066861993]","[245.14037066861994]","[244]","[30,210,120,300,210,210,120,210,210]","0","36","0","148.53600000072038","8.070999999996275","16","[[[""img/mask2.png""],[""img/mask44.png""],[""img/mask5.png""],[""img/mask100.png""],[""img/mask98.png""],[""img/mask89.png""],[""img/mask94.png""],[""img/mask100.png""],[""img/mask67.png""],[""img/mask42.png""],[""img/mask11.png""],[""img/mask40.png""],[""img/mask76.png""],[""img/mask95.png""],[""img/mask87.png""],[""img/mask70.png""],[""img/mask32.png""],[""img/mask68.png""],[""img/mask49.png""],[""img/mask91.png""],[""img/mask1.png""],[""img/mask76.png""],[""img/mask88.png""],[""img/mask81.png""],[""img/mask78.png""],[""img/mask5.png""],[""img/mask2.png""],[""img/mask65.png""],[""img/mask20.png""],[""img/mask55.png""],[""img/mask19.png""],[""img/mask99.png""],[""img/mask52.png""],[""img/mask54.png""],[""img/mask74.png""],[""img/mask66.png""]]]","","[34,2,24,5,8,16,0,7,27,20,14,25,21,9,22,19,13,1,28,30,35,15,10,18,17,4,23,6,12,31,11,3,33,26,32,29]","main","158","many-guess-6"
"","","","","","html-keyboard-response","75","288375","0.0-10.0-0.28","5febd16bbaa7c4d3e31147a0","640759fa512f630a2bdc333d","6408c1802c2d8070a8a4a61f","null","","null","","","","","","","","","","","","","","","","","","","fixation","",""
"","","","","","many-guess-6","76","290966","0.0-10.0-1.28-0.28","5febd16bbaa7c4d3e31147a0","640759fa512f630a2bdc333d","6408c1802c2d8070a8a4a61f","[907.6000000005588]","","","[27,29,14,20,30,18,15,12,2,32,9,4,17,21,10,24,0,13,28,23,31,11,33,8,1,34,6,19,5,35,25,22,16,26,3,7]","[30,309,349,329,289,359,209,170,249,70,219,50,10,60,229,90,179,20,339,110,160,130,40,239,299,80,199,319,189,140,269,120,279,100,259,150]","30","262","318.41229742512223","[318.41229742512223]","[56.41229742512223]","[56]","[300,120,300,30,120,120,30,30,120]","0","36","0","148.77900000021327","14.423000000009779","16","[[[""img/mask32.png""],[""img/mask3.png""],[""img/mask17.png""],[""img/mask81.png""],[""img/mask76.png""],[""img/mask6.png""],[""img/mask14.png""],[""img/mask54.png""],[""img/mask10.png""],[""img/mask98.png""],[""img/mask95.png""],[""img/mask85.png""],[""img/mask40.png""],[""img/mask45.png""],[""img/mask92.png""],[""img/mask59.png""],[""img/mask83.png""],[""img/mask34.png""],[""img/mask37.png""],[""img/mask36.png""],[""img/mask54.png""],[""img/mask4.png""],[""img/mask10.png""],[""img/mask60.png""],[""img/mask18.png""],[""img/mask8.png""],[""img/mask98.png""],[""img/mask7.png""],[""img/mask36.png""],[""img/mask23.png""],[""img/mask80.png""],[""img/mask15.png""],[""img/mask7.png""],[""img/mask26.png""],[""img/mask85.png""],[""img/mask5.png""]]]","","[27,29,14,20,30,18,15,12,2,32,9,4,17,21,10,24,0,13,28,23,31,11,33,8,1,34,6,19,5,35,25,22,16,26,3,7]","main","262","many-guess-6"
"","","","","","html-keyboard-response","77","291471","0.0-10.0-0.29","5febd16bbaa7c4d3e31147a0","640759fa512f630a2bdc333d","6408c1802c2d8070a8a4a61f","null","","null","","","","","","","","","","","","","","","","","","","fixation","",""
"","","","","","color-precision2","78","294473","0.0-10.0-1.29-0.29","5febd16bbaa7c4d3e31147a0","640759fa512f630a2bdc333d","6408c1802c2d8070a8a4a61f","[464.90000000037253]","","","[1]","[210]","210","358","215.76960014408291","[215.76960014408291]","[217.76960014408291]","[218]","0","0","1","0","148.8059999999823","996.0310000003665","1000","[[[""img/mask56.png""]]]","","","main","358","color-precision2"
"","","","","","html-keyboard-response","79","294976","0.0-10.0-0.30","5febd16bbaa7c4d3e31147a0","640759fa512f630a2bdc333d","6408c1802c2d8070a8a4a61f","null","","null","","","","","","","","","","","","","","","","","","","fixation","",""
"","","","","","color-precision2","80","298696","0.0-10.0-1.30-0.30","5febd16bbaa7c4d3e31147a0","640759fa512f630a2bdc333d","6408c1802c2d8070a8a4a61f","[1424.2000000001863]","","","[28]","[193]","193","6","201.61727968850184","[201.61727968850184]","[195.61727968850184]","[195]","0","0","1","0","147.95500000019092","998.5760000000009","1000","[[[""img/mask93.png""]]]","","","main","6","color-precision2"
"","","","","","html-keyboard-response","81","299200","0.0-10.0-0.31","5febd16bbaa7c4d3e31147a0","640759fa512f630a2bdc333d","6408c1802c2d8070a8a4a61f","null","","null","","","","","","","","","","","","","","","","","","","fixation","",""
"","","","","","color-precision2","82","302172","0.0-10.0-1.31-0.31","5febd16bbaa7c4d3e31147a0","640759fa512f630a2bdc333d","6408c1802c2d8070a8a4a61f","[598]","","","[14]","[60]","60","155","217.0263688556898","[217.0263688556898]","[62.02636885568981]","[62]","0","0","1","0","148.75900000071852","994.2839999999851","1000","[[[""img/mask58.png""]]]","","","main","155","color-precision2"
"","","","","","html-keyboard-response","83","302679","0.0-10.0-0.32","5febd16bbaa7c4d3e31147a0","640759fa512f630a2bdc333d","6408c1802c2d8070a8a4a61f","null","","null","","","","","","","","","","","","","","","","","","","fixation","",""
"","","","","","color-precision2","84","305187","0.0-10.0-1.32-0.32","5febd16bbaa7c4d3e31147a0","640759fa512f630a2bdc333d","6408c1802c2d8070a8a4a61f","[263.5]","","","[31]","[344]","344","191","175.6775841370912","[175.6775841370912]","[344.67758413709123]","[344]","0","0","1","0","148.6310000004014","992.0559999999823","1000","[[[""img/mask84.png""]]]","","","main","191","color-precision2"
"","","","","","html-keyboard-response","85","305695","0.0-10.0-0.33","5febd16bbaa7c4d3e31147a0","640759fa512f630a2bdc333d","6408c1802c2d8070a8a4a61f","null","","null","","","","","","","","","","","","","","","","","","","fixation","",""
"","","","","","many-guess-6","86","307888","0.0-10.0-1.33-0.33","5febd16bbaa7c4d3e31147a0","640759fa512f630a2bdc333d","6408c1802c2d8070a8a4a61f","[898.5]","","","[21,26,12,9,7,35,5,18,25,33,24,11,17,27,30,15,29,6,4,14,19,10,34,8,32,3,16,2,1,31,0,22,23,20,28,13]","[7,137,226,296,356,17,77,197,67,107,147,47,326,266,117,37,206,57,236,246,306,27,286,336,256,276,346,87,157,316,127,177,167,97,216,187]","7","132","0","[0]","[228]","[228]","[300,120,300,120,210,210,300,300,120]","0","36","0","148.7609999999986","18.60600000002887","16","[[[""img/mask37.png""],[""img/mask48.png""],[""img/mask74.png""],[""img/mask64.png""],[""img/mask17.png""],[""img/mask47.png""],[""img/mask31.png""],[""img/mask6.png""],[""img/mask43.png""],[""img/mask100.png""],[""img/mask26.png""],[""img/mask89.png""],[""img/mask49.png""],[""img/mask46.png""],[""img/mask64.png""],[""img/mask12.png""],[""img/mask76.png""],[""img/mask86.png""],[""img/mask95.png""],[""img/mask31.png""],[""img/mask58.png""],[""img/mask34.png""],[""img/mask67.png""],[""img/mask39.png""],[""img/mask52.png""],[""img/mask69.png""],[""img/mask58.png""],[""img/mask6.png""],[""img/mask88.png""],[""img/mask98.png""],[""img/mask62.png""],[""img/mask39.png""],[""img/mask62.png""],[""img/mask72.png""],[""img/mask95.png""],[""img/mask99.png""]]]","","[21,26,12,9,7,35,5,18,25,33,24,11,17,27,30,15,29,6,4,14,19,10,34,8,32,3,16,2,1,31,0,22,23,20,28,13]","main","132","many-guess-6"
"","","","","","html-keyboard-response","87","308391","0.0-10.0-0.34","5febd16bbaa7c4d3e31147a0","640759fa512f630a2bdc333d","6408c1802c2d8070a8a4a61f","null","","null","","","","","","","","","","","","","","","","","","","fixation","",""
"","","","","","many-guess-6","88","310474","0.0-10.0-1.34-0.34","5febd16bbaa7c4d3e31147a0","640759fa512f630a2bdc333d","6408c1802c2d8070a8a4a61f","[783.2999999998137]","","","[27,21,2,15,28,33,9,24,20,18,1,11,29,16,31,35,25,14,6,13,26,32,10,30,23,5,19,17,22,7,4,12,3,8,34,0]","[182,271,351,291,112,331,301,92,122,2,12,42,132,22,321,251,241,52,202,221,62,32,72,142,102,261,341,211,172,192,231,82,311,281,152,162]","182","140","347.8324528493648","[347.8324528493648]","[207.8324528493648]","[207]","[210,120,210,300,120,30,120,120,300]","0","36","0","147.87700000073528","22.322000000393018","16","[[[""img/mask77.png""],[""img/mask64.png""],[""img/mask97.png""],[""img/mask76.png""],[""img/mask89.png""],[""img/mask83.png""],[""img/mask44.png""],[""img/mask13.png""],[""img/mask15.png""],[""img/mask23.png""],[""img/mask79.png""],[""img/mask76.png""],[""img/mask25.png""],[""img/mask10.png""],[""img/mask100.png""],[""img/mask84.png""],[""img/mask43.png""],[""img/mask36.png""],[""img/mask60.png""],[""img/mask88.png""],[""img/mask46.png""],[""img/mask10.png""],[""img/mask71.png""],[""img/mask16.png""],[""img/mask63.png""],[""img/mask72.png""],[""img/mask3.png""],[""img/mask11.png""],[""img/mask23.png""],[""img/mask96.png""],[""img/mask71.png""],[""img/mask100.png""],[""img/mask94.png""],[""img/mask4.png""],[""img/mask7.png""],[""img/mask24.png""]]]","","[27,21,2,15,28,33,9,24,20,18,1,11,29,16,31,35,25,14,6,13,26,32,10,30,23,5,19,17,22,7,4,12,3,8,34,0]","main","140","many-guess-6"
"","","","","","html-keyboard-response","89","310975","0.0-10.0-0.35","5febd16bbaa7c4d3e31147a0","640759fa512f630a2bdc333d","6408c1802c2d8070a8a4a61f","null","","null","","","","","","","","","","","","","","","","","","","fixation","",""
"","","","","","color-precision2","90","313575","0.0-10.0-1.35-0.35","5febd16bbaa7c4d3e31147a0","640759fa512f630a2bdc333d","6408c1802c2d8070a8a4a61f","[385.70000000018626]","","","[20]","[128]","128","238","354.5111640134896","[354.5111640134896]","[116.51116401348958]","[116]","0","0","1","0","148.73500000039348","994.1610000000219","1000","[[[""img/mask89.png""]]]","","","main","238","color-precision2"
"","","","","","html-keyboard-response","91","314079","0.0-10.0-0.36","5febd16bbaa7c4d3e31147a0","640759fa512f630a2bdc333d","6408c1802c2d8070a8a4a61f","null","","null","","","","","","","","","","","","","","","","","","","fixation","",""
"","","","","","color-precision2","92","317779","0.0-10.0-1.36-0.36","5febd16bbaa7c4d3e31147a0","640759fa512f630a2bdc333d","6408c1802c2d8070a8a4a61f","[1473.1000000005588]","","","[23]","[162]","162","296","99.13236370037869","[99.13236370037869]","[163.13236370037868]","[162]","0","0","1","0","148.78999999997905","1006.5150000003632","1000","[[[""img/mask44.png""]]]","","","main","296","color-precision2"
"","","","","","html-keyboard-response","93","318287","0.0-10.0-0.37","5febd16bbaa7c4d3e31147a0","640759fa512f630a2bdc333d","6408c1802c2d8070a8a4a61f","null","","null","","","","","","","","","","","","","","","","","","","fixation","",""
"","","","","","color-precision2","94","320857","0.0-10.0-1.37-0.37","5febd16bbaa7c4d3e31147a0","640759fa512f630a2bdc333d","6408c1802c2d8070a8a4a61f","[200.40000000037253]","","","[24]","[252]","252","96","341.2425457304751","[341.2425457304751]","[245.24254573047511]","[245]","0","0","1","0","148.6950000001816","1004.3190000000177","1000","[[[""img/mask79.png""]]]","","","main","96","color-precision2"
"","","","","","html-keyboard-response","95","321359","0.0-10.0-0.38","5febd16bbaa7c4d3e31147a0","640759fa512f630a2bdc333d","6408c1802c2d8070a8a4a61f","null","","null","","","","","","","","","","","","","","","","","","","fixation","",""
"","","","","","color-precision2","96","324390","0.0-10.0-1.38-0.38","5febd16bbaa7c4d3e31147a0","640759fa512f630a2bdc333d","6408c1802c2d8070a8a4a61f","[785]","","","[0]","[320]","320","112","104.08955921070385","[104.08955921070385]","[352.08955921070384]","[350]","0","0","1","0","148.6980000003823","1002.1180000000168","1000","[[[""img/mask7.png""]]]","","","main","112","color-precision2"
"","","","","","html-keyboard-response","97","325777","0.0-10.0-0.39","5febd16bbaa7c4d3e31147a0","640759fa512f630a2bdc333d","6408c1802c2d8070a8a4a61f","1385.4000000003725","Wow! You've completed 40 out of 180 trials! </p> <p>  </p><p> Take a quick break, then press any key when you're ready to continue."," ","","","","","","","","","","","","","","","","","","","fixation","",""
"","","","","","color-precision2","98","329180","0.0-10.0-1.39-0.39","5febd16bbaa7c4d3e31147a0","640759fa512f630a2bdc333d","6408c1802c2d8070a8a4a61f","[626.5999999996275]","","","[31]","[66]","66","34","100.99996439199148","[100.99996439199148]","[66.99996439199148]","[66]","0","0","1","0","148.65700000018114","1007.7060000003548","1000","[[[""img/mask98.png""]]]","","","main","34","color-precision2"
"","","","","","html-keyboard-response","99","329687","0.0-10.0-0.40","5febd16bbaa7c4d3e31147a0","640759fa512f630a2bdc333d","6408c1802c2d8070a8a4a61f","null","","null","","","","","","","","","","","","","","","","","","","fixation","",""
"","","","","","color-precision2","100","334088","0.0-10.0-1.40-0.40","5febd16bbaa7c4d3e31147a0","640759fa512f630a2bdc333d","6408c1802c2d8070a8a4a61f","[2048.600000000559]","","","[35]","[237]","237","127","0","[0]","[233]","[233]","0","0","1","0","148.65800000057789","1002.7780000003986","1000","[[[""img/mask90.png""]]]","","","main","127","color-precision2"
"","","","","","html-keyboard-response","101","334592","0.0-10.0-0.41","5febd16bbaa7c4d3e31147a0","640759fa512f630a2bdc333d","6408c1802c2d8070a8a4a61f","null","","null","","","","","","","","","","","","","","","","","","","fixation","",""
"","","","","","many-guess-6","102","336825","0.0-10.0-1.41-0.41","5febd16bbaa7c4d3e31147a0","640759fa512f630a2bdc333d","6408c1802c2d8070a8a4a61f","[835.7999999998137]","","","[10,27,1,13,34,19,11,4,5,3,21,16,22,6,24,18,32,23,17,28,33,20,7,25,31,29,14,35,0,2,8,12,26,15,9,30]","[129,298,29,69,149,219,49,209,328,239,79,109,248,119,19,258,318,199,308,348,139,59,9,189,338,229,358,278,99,39,89,169,159,179,288,268]","129","47","7.494765430921097","[7.494765430921097]","[320.4947654309211]","[320]","[210,120,210,210,30,210,30,120,30]","0","36","0","148.78899999998976","16.534000000392552","16","[[[""img/mask58.png""],[""img/mask79.png""],[""img/mask32.png""],[""img/mask95.png""],[""img/mask11.png""],[""img/mask100.png""],[""img/mask58.png""],[""img/mask78.png""],[""img/mask85.png""],[""img/mask34.png""],[""img/mask36.png""],[""img/mask42.png""],[""img/mask3.png""],[""img/mask4.png""],[""img/mask7.png""],[""img/mask17.png""],[""img/mask39.png""],[""img/mask60.png""],[""img/mask81.png""],[""img/mask43.png""],[""img/mask93.png""],[""img/mask43.png""],[""img/mask29.png""],[""img/mask82.png""],[""img/mask11.png""],[""img/mask36.png""],[""img/mask99.png""],[""img/mask75.png""],[""img/mask43.png""],[""img/mask85.png""],[""img/mask68.png""],[""img/mask22.png""],[""img/mask61.png""],[""img/mask42.png""],[""img/mask88.png""],[""img/mask49.png""]]]","","[10,27,1,13,34,19,11,4,5,3,21,16,22,6,24,18,32,23,17,28,33,20,7,25,31,29,14,35,0,2,8,12,26,15,9,30]","main","47","many-guess-6"
"","","","","","html-keyboard-response","103","337327","0.0-10.0-0.42","5febd16bbaa7c4d3e31147a0","640759fa512f630a2bdc333d","6408c1802c2d8070a8a4a61f","null","","null","","","","","","","","","","","","","","","","","","","fixation","",""
"","","","","","color-precision2","104","340311","0.0-10.0-1.42-0.42","5febd16bbaa7c4d3e31147a0","640759fa512f630a2bdc333d","6408c1802c2d8070a8a4a61f","[686]","","","[1]","[94]","94","7","77.45991387766432","[77.45991387766432]","[70.45991387766432]","[69]","0","0","1","0","148.80600000056438","1001.0509999999776","1000","[[[""img/mask5.png""]]]","","","main","7","color-precision2"
"","","","","","html-keyboard-response","105","340823","0.0-10.0-0.43","5febd16bbaa7c4d3e31147a0","640759fa512f630a2bdc333d","6408c1802c2d8070a8a4a61f","null","","null","","","","","","","","","","","","","","","","","","","fixation","",""
"","","","","","color-precision2","106","344455","0.0-10.0-1.43-0.43","5febd16bbaa7c4d3e31147a0","640759fa512f630a2bdc333d","6408c1802c2d8070a8a4a61f","[1280.6000000005588]","","","[35]","[276]","276","230","158.36072397663332","[158.36072397663332]","[288.3607239766333]","[287]","0","0","1","0","148.73000000056345","999.5550000005751","1000","[[[""img/mask11.png""]]]","","","main","230","color-precision2"
"","","","","","html-keyboard-response","107","344959","0.0-10.0-0.44","5febd16bbaa7c4d3e31147a0","640759fa512f630a2bdc333d","6408c1802c2d8070a8a4a61f","null","","null","","","","","","","","","","","","","","","","","","","fixation","",""
"","","","","","many-guess-6","108","347089","0.0-10.0-1.44-0.44","5febd16bbaa7c4d3e31147a0","640759fa512f630a2bdc333d","6408c1802c2d8070a8a4a61f","[802.0999999996275]","","","[4,27,11,19,13,26,9,29,34,24,8,30,7,0,35,21,33,3,23,25,32,6,14,20,5,28,2,12,31,17,15,1,22,16,10,18]","[156,206,355,266,236,176,96,46,276,106,326,116,56,36,16,316,166,296,26,136,146,256,306,66,226,196,345,216,186,126,86,246,286,335,76,6]","156","115","147.37719302427527","[147.37719302427527]","[32.37719302427527]","[32]","[120,120,30,120,120,300,210,120,30]","0","36","0","148.98900000035064","19.933000000019092","16","[[[""img/mask26.png""],[""img/mask50.png""],[""img/mask21.png""],[""img/mask54.png""],[""img/mask8.png""],[""img/mask32.png""],[""img/mask5.png""],[""img/mask98.png""],[""img/mask78.png""],[""img/mask42.png""],[""img/mask22.png""],[""img/mask74.png""],[""img/mask13.png""],[""img/mask58.png""],[""img/mask88.png""],[""img/mask44.png""],[""img/mask10.png""],[""img/mask64.png""],[""img/mask41.png""],[""img/mask23.png""],[""img/mask76.png""],[""img/mask3.png""],[""img/mask57.png""],[""img/mask48.png""],[""img/mask84.png""],[""img/mask72.png""],[""img/mask44.png""],[""img/mask5.png""],[""img/mask92.png""],[""img/mask97.png""],[""img/mask54.png""],[""img/mask8.png""],[""img/mask39.png""],[""img/mask79.png""],[""img/mask25.png""],[""img/mask17.png""]]]","","[4,27,11,19,13,26,9,29,34,24,8,30,7,0,35,21,33,3,23,25,32,6,14,20,5,28,2,12,31,17,15,1,22,16,10,18]","main","115","many-guess-6"
"","","","","","html-keyboard-response","109","347592","0.0-10.0-0.45","5febd16bbaa7c4d3e31147a0","640759fa512f630a2bdc333d","6408c1802c2d8070a8a4a61f","null","","null","","","","","","","","","","","","","","","","","","","fixation","",""
"","","","","","color-precision2","110","350759","0.0-10.0-1.45-0.45","5febd16bbaa7c4d3e31147a0","640759fa512f630a2bdc333d","6408c1802c2d8070a8a4a61f","[689.1000000005588]","","","[31]","[283]","283","104","62.42068464757491","[62.42068464757491]","[318.4206846475749]","[317]","0","0","1","0","148.76100000058068","1002.8850000003586","1000","[[[""img/mask19.png""]]]","","","main","104","color-precision2"
"","","","","","html-keyboard-response","111","351263","0.0-10.0-0.46","5febd16bbaa7c4d3e31147a0","640759fa512f630a2bdc333d","6408c1802c2d8070a8a4a61f","null","","null","","","","","","","","","","","","","","","","","","","fixation","",""
"","","","","","color-precision2","112","354553","0.0-10.0-1.46-0.46","5febd16bbaa7c4d3e31147a0","640759fa512f630a2bdc333d","6408c1802c2d8070a8a4a61f","[766.4000000003725]","","","[33]","[101]","101","7","98.11047068644766","[98.11047068644766]","[91.11047068644766]","[90]","0","0","1","0","148.7750000001979","999.6210000001593","1000","[[[""img/mask39.png""]]]","","","main","7","color-precision2"
"","","","","","html-keyboard-response","113","355056","0.0-10.0-0.47","5febd16bbaa7c4d3e31147a0","640759fa512f630a2bdc333d","6408c1802c2d8070a8a4a61f","null","","null","","","","","","","","","","","","","","","","","","","fixation","",""
"","","","","","many-guess-6","114","357734","0.0-10.0-1.47-0.47","5febd16bbaa7c4d3e31147a0","640759fa512f630a2bdc333d","6408c1802c2d8070a8a4a61f","[1413.2000000001863]","","","[15,17,27,6,19,16,0,12,24,4,2,11,3,20,10,9,13,25,5,7,1,28,14,32,35,33,22,34,30,26,29,23,8,18,21,31]","[310,190,81,260,101,340,61,170,180,280,300,71,160,111,350,91,140,220,11,120,130,290,250,210,150,31,21,240,1,330,200,270,320,41,230,51]","310","218","168.12250648434204","[168.12250648434204]","[310.122506484342]","[310]","[120,300,300,120,120,120,120,30,120]","0","36","0","148.64000000036322","12.583999999973457","16","[[[""img/mask100.png""],[""img/mask72.png""],[""img/mask36.png""],[""img/mask47.png""],[""img/mask10.png""],[""img/mask87.png""],[""img/mask28.png""],[""img/mask49.png""],[""img/mask32.png""],[""img/mask1.png""],[""img/mask85.png""],[""img/mask91.png""],[""img/mask65.png""],[""img/mask81.png""],[""img/mask83.png""],[""img/mask76.png""],[""img/mask89.png""],[""img/mask28.png""],[""img/mask66.png""],[""img/mask42.png""],[""img/mask42.png""],[""img/mask57.png""],[""img/mask15.png""],[""img/mask27.png""],[""img/mask94.png""],[""img/mask67.png""],[""img/mask88.png""],[""img/mask22.png""],[""img/mask15.png""],[""img/mask83.png""],[""img/mask34.png""],[""img/mask66.png""],[""img/mask2.png""],[""img/mask3.png""],[""img/mask70.png""],[""img/mask30.png""]]]","","[15,17,27,6,19,16,0,12,24,4,2,11,3,20,10,9,13,25,5,7,1,28,14,32,35,33,22,34,30,26,29,23,8,18,21,31]","main","218","many-guess-6"
"","","","","","html-keyboard-response","115","358239","0.0-10.0-0.48","5febd16bbaa7c4d3e31147a0","640759fa512f630a2bdc333d","6408c1802c2d8070a8a4a61f","null","","null","","","","","","","","","","","","","","","","","","","fixation","",""
"","","","","","many-guess-6","116","362515","0.0-10.0-1.48-0.48","5febd16bbaa7c4d3e31147a0","640759fa512f630a2bdc333d","6408c1802c2d8070a8a4a61f","[1512.0999999996275]","","","[18,2,35,17,32,27,31,8,11,3,10,19,13,16,5,21,33,1,9,26,14,29,25,0,30,23,20,15,6,34,4,28,7,24,12,22]","[27,107,296,316,147,276,87,37,336,167,67,266,306,17,197,207,57,246,117,77,137,187,127,7,256,47,346,326,177,237,356,227,97,157,217,286]","27","134","352.251444488114","[352.251444488114]","[218.25144448811398]","[218]","[300,210,210,210,30,120,300,210,120]","0","36","0","148.75500000000466","23.598999999987427","16","[[[""img/mask50.png""],[""img/mask74.png""],[""img/mask1.png""],[""img/mask12.png""],[""img/mask63.png""],[""img/mask7.png""],[""img/mask40.png""],[""img/mask44.png""],[""img/mask50.png""],[""img/mask84.png""],[""img/mask51.png""],[""img/mask30.png""],[""img/mask40.png""],[""img/mask4.png""],[""img/mask21.png""],[""img/mask86.png""],[""img/mask35.png""],[""img/mask40.png""],[""img/mask14.png""],[""img/mask19.png""],[""img/mask32.png""],[""img/mask32.png""],[""img/mask66.png""],[""img/mask8.png""],[""img/mask63.png""],[""img/mask18.png""],[""img/mask3.png""],[""img/mask31.png""],[""img/mask85.png""],[""img/mask82.png""],[""img/mask50.png""],[""img/mask63.png""],[""img/mask60.png""],[""img/mask99.png""],[""img/mask32.png""],[""img/mask80.png""]]]","","[18,2,35,17,32,27,31,8,11,3,10,19,13,16,5,21,33,1,9,26,14,29,25,0,30,23,20,15,6,34,4,28,7,24,12,22]","main","134","many-guess-6"
"","","","","","html-keyboard-response","117","363023","0.0-10.0-0.49","5febd16bbaa7c4d3e31147a0","640759fa512f630a2bdc333d","6408c1802c2d8070a8a4a61f","null","","null","","","","","","","","","","","","","","","","","","","fixation","",""
"","","","","","color-precision2","118","365868","0.0-10.0-1.49-0.49","5febd16bbaa7c4d3e31147a0","640759fa512f630a2bdc333d","6408c1802c2d8070a8a4a61f","[314.8999999994412]","","","[28]","[357]","357","228","225.47908402515844","[225.47908402515844]","[357.47908402515844]","[357]","0","0","1","0","148.74200000072597","1005.1660000003758","1000","[[[""img/mask61.png""]]]","","","main","228","color-precision2"
"","","","","","html-keyboard-response","119","366375","0.0-10.0-0.50","5febd16bbaa7c4d3e31147a0","640759fa512f630a2bdc333d","6408c1802c2d8070a8a4a61f","null","","null","","","","","","","","","","","","","","","","","","","fixation","",""
"","","","","","many-guess-6","120","368524","0.0-10.0-1.50-0.50","5febd16bbaa7c4d3e31147a0","640759fa512f630a2bdc333d","6408c1802c2d8070a8a4a61f","[854.1999999992549]","","","[29,20,14,32,35,6,2,21,25,23,12,7,18,3,26,0,5,10,11,30,4,33,27,34,22,24,13,9,28,16,17,31,1,19,15,8]","[265,305,165,155,135,95,335,115,175,215,325,245,185,35,5,195,25,45,295,355,75,275,285,205,105,125,255,65,345,225,15,315,145,55,85,235]","265","346","174.02930828184574","[174.02930828184574]","[188.02930828184574]","[187]","[120,120,300,120,210,30,300,120,30]","0","36","0","148.76800000073854","17.81300000002375","16","[[[""img/mask43.png""],[""img/mask51.png""],[""img/mask21.png""],[""img/mask16.png""],[""img/mask89.png""],[""img/mask72.png""],[""img/mask60.png""],[""img/mask97.png""],[""img/mask9.png""],[""img/mask86.png""],[""img/mask20.png""],[""img/mask3.png""],[""img/mask42.png""],[""img/mask63.png""],[""img/mask53.png""],[""img/mask98.png""],[""img/mask18.png""],[""img/mask83.png""],[""img/mask94.png""],[""img/mask21.png""],[""img/mask12.png""],[""img/mask77.png""],[""img/mask28.png""],[""img/mask57.png""],[""img/mask72.png""],[""img/mask93.png""],[""img/mask73.png""],[""img/mask21.png""],[""img/mask14.png""],[""img/mask6.png""],[""img/mask90.png""],[""img/mask83.png""],[""img/mask63.png""],[""img/mask70.png""],[""img/mask31.png""],[""img/mask65.png""]]]","","[29,20,14,32,35,6,2,21,25,23,12,7,18,3,26,0,5,10,11,30,4,33,27,34,22,24,13,9,28,16,17,31,1,19,15,8]","main","346","many-guess-6"
"","","","","","html-keyboard-response","121","369032","0.0-10.0-0.51","5febd16bbaa7c4d3e31147a0","640759fa512f630a2bdc333d","6408c1802c2d8070a8a4a61f","null","","null","","","","","","","","","","","","","","","","","","","fixation","",""
"","","","","","many-guess-6","122","371202","0.0-10.0-1.51-0.51","5febd16bbaa7c4d3e31147a0","640759fa512f630a2bdc333d","6408c1802c2d8070a8a4a61f","[848.8999999994412]","","","[6,35,15,10,4,2,20,0,31,32,27,7,23,34,9,26,25,22,30,5,18,17,29,1,16,33,24,28,21,19,12,8,3,11,13,14]","[203,353,343,14,54,333,293,114,183,64,303,34,283,213,84,4,313,243,273,144,94,253,233,24,223,74,263,193,124,154,323,164,44,104,134,174]","203","122","347.68267442174584","[347.68267442174584]","[225.68267442174584]","[225]","[120,300,210,210,300,120,120,210,300]","0","36","0","148.71900000056485","20.864000000350643","16","[[[""img/mask75.png""],[""img/mask31.png""],[""img/mask9.png""],[""img/mask69.png""],[""img/mask99.png""],[""img/mask66.png""],[""img/mask19.png""],[""img/mask79.png""],[""img/mask48.png""],[""img/mask38.png""],[""img/mask69.png""],[""img/mask26.png""],[""img/mask94.png""],[""img/mask96.png""],[""img/mask83.png""],[""img/mask96.png""],[""img/mask21.png""],[""img/mask12.png""],[""img/mask62.png""],[""img/mask51.png""],[""img/mask35.png""],[""img/mask95.png""],[""img/mask76.png""],[""img/mask20.png""],[""img/mask10.png""],[""img/mask84.png""],[""img/mask42.png""],[""img/mask52.png""],[""img/mask40.png""],[""img/mask74.png""],[""img/mask84.png""],[""img/mask62.png""],[""img/mask26.png""],[""img/mask92.png""],[""img/mask24.png""],[""img/mask41.png""]]]","","[6,35,15,10,4,2,20,0,31,32,27,7,23,34,9,26,25,22,30,5,18,17,29,1,16,33,24,28,21,19,12,8,3,11,13,14]","main","122","many-guess-6"
"","","","","","html-keyboard-response","123","371712","0.0-10.0-0.52","5febd16bbaa7c4d3e31147a0","640759fa512f630a2bdc333d","6408c1802c2d8070a8a4a61f","null","","null","","","","","","","","","","","","","","","","","","","fixation","",""
"","","","","","color-precision2","124","374157","0.0-10.0-1.52-0.52","5febd16bbaa7c4d3e31147a0","640759fa512f630a2bdc333d","6408c1802c2d8070a8a4a61f","[204.8999999994412]","","","[29]","[88]","88","97","169.8738680273109","[169.8738680273109]","[72.87386802731089]","[72]","0","0","1","0","148.77000000036787","996.5950000003795","1000","[[[""img/mask52.png""]]]","","","main","97","color-precision2"
"","","","","","html-keyboard-response","125","374663","0.0-10.0-0.53","5febd16bbaa7c4d3e31147a0","640759fa512f630a2bdc333d","6408c1802c2d8070a8a4a61f","null","","null","","","","","","","","","","","","","","","","","","","fixation","",""
"","","","","","color-precision2","126","377883","0.0-10.0-1.53-0.53","5febd16bbaa7c4d3e31147a0","640759fa512f630a2bdc333d","6408c1802c2d8070a8a4a61f","[1014.2000000001863]","","","[10]","[277]","277","238","172.5419028788131","[172.5419028788131]","[294.54190287881306]","[294]","0","0","1","0","148.74100000038743","993.1639999999898","1000","[[[""img/mask32.png""]]]","","","main","238","color-precision2"
"","","","","","html-keyboard-response","127","378391","0.0-10.0-0.54","5febd16bbaa7c4d3e31147a0","640759fa512f630a2bdc333d","6408c1802c2d8070a8a4a61f","null","","null","","","","","","","","","","","","","","","","","","","fixation","",""
"","","","","","many-guess-6","128","380397","0.0-10.0-1.54-0.54","5febd16bbaa7c4d3e31147a0","640759fa512f630a2bdc333d","6408c1802c2d8070a8a4a61f","[762.2000000001863]","","","[27,10,29,14,16,26,33,8,21,17,0,4,13,24,1,22,28,19,3,12,34,31,6,30,32,15,11,2,35,25,5,23,18,20,9,7]","[7,147,37,227,356,296,326,47,177,247,276,336,286,167,107,57,197,157,137,27,67,257,87,237,187,127,267,117,207,17,316,77,306,346,217,97]","7","358","160.84390420955893","[160.84390420955893]","[162.84390420955893]","[162]","[210,210,210,300,120,210,30,300,300]","0","36","0","148.82099999999627","23.56600000039907","16","[[[""img/mask99.png""],[""img/mask48.png""],[""img/mask19.png""],[""img/mask96.png""],[""img/mask79.png""],[""img/mask17.png""],[""img/mask32.png""],[""img/mask22.png""],[""img/mask35.png""],[""img/mask25.png""],[""img/mask61.png""],[""img/mask20.png""],[""img/mask28.png""],[""img/mask65.png""],[""img/mask84.png""],[""img/mask30.png""],[""img/mask31.png""],[""img/mask54.png""],[""img/mask93.png""],[""img/mask60.png""],[""img/mask18.png""],[""img/mask9.png""],[""img/mask9.png""],[""img/mask92.png""],[""img/mask72.png""],[""img/mask69.png""],[""img/mask14.png""],[""img/mask41.png""],[""img/mask76.png""],[""img/mask26.png""],[""img/mask70.png""],[""img/mask67.png""],[""img/mask18.png""],[""img/mask67.png""],[""img/mask7.png""],[""img/mask26.png""]]]","","[27,10,29,14,16,26,33,8,21,17,0,4,13,24,1,22,28,19,3,12,34,31,6,30,32,15,11,2,35,25,5,23,18,20,9,7]","main","358","many-guess-6"
"","","","","","html-keyboard-response","129","380903","0.0-10.0-0.55","5febd16bbaa7c4d3e31147a0","640759fa512f630a2bdc333d","6408c1802c2d8070a8a4a61f","null","","null","","","","","","","","","","","","","","","","","","","fixation","",""
"","","","","","many-guess-6","130","383290","0.0-10.0-1.55-0.55","5febd16bbaa7c4d3e31147a0","640759fa512f630a2bdc333d","6408c1802c2d8070a8a4a61f","[1120.7999999998137]","","","[29,15,34,10,3,27,19,8,4,16,30,20,25,18,9,7,1,0,14,13,11,12,5,17,26,2,23,33,28,21,32,24,22,6,35,31]","[323,154,54,64,254,264,74,44,174,333,293,313,204,34,124,303,224,234,4,274,14,214,114,284,194,353,244,24,343,94,184,104,134,164,144,84]","323","317","331.99487816176014","[331.99487816176014]","[14.994878161760141]","[15]","[120,120,210,30,120,210,300,210,210]","0","36","0","148.78200000076322","12.826000000000931","16","[[[""img/mask94.png""],[""img/mask77.png""],[""img/mask82.png""],[""img/mask23.png""],[""img/mask52.png""],[""img/mask45.png""],[""img/mask68.png""],[""img/mask33.png""],[""img/mask7.png""],[""img/mask99.png""],[""img/mask97.png""],[""img/mask98.png""],[""img/mask5.png""],[""img/mask47.png""],[""img/mask92.png""],[""img/mask31.png""],[""img/mask87.png""],[""img/mask88.png""],[""img/mask26.png""],[""img/mask8.png""],[""img/mask66.png""],[""img/mask39.png""],[""img/mask99.png""],[""img/mask5.png""],[""img/mask57.png""],[""img/mask83.png""],[""img/mask25.png""],[""img/mask57.png""],[""img/mask39.png""],[""img/mask17.png""],[""img/mask74.png""],[""img/mask35.png""],[""img/mask51.png""],[""img/mask45.png""],[""img/mask76.png""],[""img/mask58.png""]]]","","[29,15,34,10,3,27,19,8,4,16,30,20,25,18,9,7,1,0,14,13,11,12,5,17,26,2,23,33,28,21,32,24,22,6,35,31]","main","317","many-guess-6"
"","","","","","html-keyboard-response","131","383791","0.0-10.0-0.56","5febd16bbaa7c4d3e31147a0","640759fa512f630a2bdc333d","6408c1802c2d8070a8a4a61f","null","","null","","","","","","","","","","","","","","","","","","","fixation","",""
"","","","","","color-precision2","132","386526","0.0-10.0-1.56-0.56","5febd16bbaa7c4d3e31147a0","640759fa512f630a2bdc333d","6408c1802c2d8070a8a4a61f","[425]","","","[21]","[104]","104","165","251.9468921917404","[251.9468921917404]","[86.9468921917404]","[87]","0","0","1","0","148.74400000018068","1001.7690000003786","1000","[[[""img/mask47.png""]]]","","","main","165","color-precision2"
"","","","","","html-keyboard-response","133","387031","0.0-10.0-0.57","5febd16bbaa7c4d3e31147a0","640759fa512f630a2bdc333d","6408c1802c2d8070a8a4a61f","null","","null","","","","","","","","","","","","","","","","","","","fixation","",""
"","","","","","many-guess-6","134","389978","0.0-10.0-1.57-0.57","5febd16bbaa7c4d3e31147a0","640759fa512f630a2bdc333d","6408c1802c2d8070a8a4a61f","[1643.2999999998137]","","","[34,6,10,17,18,19,27,25,30,15,35,23,8,12,33,32,20,31,26,24,9,4,16,0,21,2,7,5,28,22,14,13,11,1,3,29]","[93,243,83,343,163,273,283,183,43,233,123,213,253,133,23,153,223,193,353,203,303,143,313,53,103,14,113,63,263,73,33,323,293,333,4,173]","93","210","159.10920621314716","[159.10920621314716]","[309.10920621314716]","[308]","[120,30,30,30,30,120,210,120,120]","0","36","0","148.72999999998137","19.07400000002235","16","[[[""img/mask54.png""],[""img/mask40.png""],[""img/mask20.png""],[""img/mask18.png""],[""img/mask98.png""],[""img/mask77.png""],[""img/mask91.png""],[""img/mask5.png""],[""img/mask29.png""],[""img/mask41.png""],[""img/mask5.png""],[""img/mask55.png""],[""img/mask15.png""],[""img/mask32.png""],[""img/mask75.png""],[""img/mask60.png""],[""img/mask65.png""],[""img/mask75.png""],[""img/mask18.png""],[""img/mask1.png""],[""img/mask23.png""],[""img/mask38.png""],[""img/mask32.png""],[""img/mask91.png""],[""img/mask69.png""],[""img/mask18.png""],[""img/mask31.png""],[""img/mask21.png""],[""img/mask71.png""],[""img/mask36.png""],[""img/mask7.png""],[""img/mask66.png""],[""img/mask25.png""],[""img/mask58.png""],[""img/mask25.png""],[""img/mask99.png""]]]","","[34,6,10,17,18,19,27,25,30,15,35,23,8,12,33,32,20,31,26,24,9,4,16,0,21,2,7,5,28,22,14,13,11,1,3,29]","main","210","many-guess-6"
"","","","","","html-keyboard-response","135","390480","0.0-10.0-0.58","5febd16bbaa7c4d3e31147a0","640759fa512f630a2bdc333d","6408c1802c2d8070a8a4a61f","null","","null","","","","","","","","","","","","","","","","","","","fixation","",""
"","","","","","many-guess-6","136","393177","0.0-10.0-1.58-0.58","5febd16bbaa7c4d3e31147a0","640759fa512f630a2bdc333d","6408c1802c2d8070a8a4a61f","[1426.300000000745]","","","[0,26,33,5,25,11,10,8,34,18,1,14,9,20,31,12,19,29,6,4,13,35,17,21,2,7,24,16,30,23,32,22,28,15,27,3]","[92,12,102,72,132,22,62,112,171,2,331,341,82,281,201,221,251,301,351,52,191,261,311,211,141,42,32,241,161,151,271,291,181,321,231,122]","92","240","197.5610740792399","[197.5610740792399]","[317.5610740792399]","[317]","[120,30,120,30,300,300,300,210,300]","0","36","0","148.76400000054855","19.709000000206288","16","[[[""img/mask55.png""],[""img/mask11.png""],[""img/mask84.png""],[""img/mask48.png""],[""img/mask29.png""],[""img/mask86.png""],[""img/mask37.png""],[""img/mask28.png""],[""img/mask2.png""],[""img/mask36.png""],[""img/mask38.png""],[""img/mask59.png""],[""img/mask58.png""],[""img/mask11.png""],[""img/mask57.png""],[""img/mask99.png""],[""img/mask85.png""],[""img/mask34.png""],[""img/mask64.png""],[""img/mask73.png""],[""img/mask83.png""],[""img/mask76.png""],[""img/mask8.png""],[""img/mask10.png""],[""img/mask93.png""],[""img/mask89.png""],[""img/mask60.png""],[""img/mask17.png""],[""img/mask30.png""],[""img/mask44.png""],[""img/mask81.png""],[""img/mask92.png""],[""img/mask25.png""],[""img/mask44.png""],[""img/mask72.png""],[""img/mask85.png""]]]","","[0,26,33,5,25,11,10,8,34,18,1,14,9,20,31,12,19,29,6,4,13,35,17,21,2,7,24,16,30,23,32,22,28,15,27,3]","main","240","many-guess-6"
"","","","","","html-keyboard-response","137","394484","0.0-10.0-0.59","5febd16bbaa7c4d3e31147a0","640759fa512f630a2bdc333d","6408c1802c2d8070a8a4a61f","1305.7000000001863","Wow! You've completed 60 out of 180 trials! </p> <p>  </p><p> Take a quick break, then press any key when you're ready to continue."," ","","","","","","","","","","","","","","","","","","","fixation","",""
"","","","","","many-guess-6","138","397292","0.0-10.0-1.59-0.59","5febd16bbaa7c4d3e31147a0","640759fa512f630a2bdc333d","6408c1802c2d8070a8a4a61f","[955.9000000003725]","","","[11,10,2,23,18,21,1,26,34,22,25,9,7,12,16,4,5,35,20,24,13,17,32,6,28,27,3,19,14,33,29,0,31,30,8,15]","[275,335,25,65,225,215,295,315,135,185,265,15,125,305,245,235,5,195,205,165,325,85,115,45,285,155,75,175,35,145,95,105,55,255,345,355]","275","25","340.62367065083566","[340.62367065083566]","[315.62367065083566]","[315]","[300,120,30,120,210,300,120,120,300]","0","36","0","148.88600000017323","18.43000000040047","16","[[[""img/mask69.png""],[""img/mask19.png""],[""img/mask89.png""],[""img/mask95.png""],[""img/mask82.png""],[""img/mask32.png""],[""img/mask76.png""],[""img/mask82.png""],[""img/mask33.png""],[""img/mask59.png""],[""img/mask29.png""],[""img/mask22.png""],[""img/mask99.png""],[""img/mask95.png""],[""img/mask96.png""],[""img/mask8.png""],[""img/mask48.png""],[""img/mask76.png""],[""img/mask59.png""],[""img/mask15.png""],[""img/mask39.png""],[""img/mask28.png""],[""img/mask42.png""],[""img/mask96.png""],[""img/mask63.png""],[""img/mask75.png""],[""img/mask69.png""],[""img/mask26.png""],[""img/mask57.png""],[""img/mask61.png""],[""img/mask15.png""],[""img/mask62.png""],[""img/mask71.png""],[""img/mask55.png""],[""img/mask19.png""],[""img/mask39.png""]]]","","[11,10,2,23,18,21,1,26,34,22,25,9,7,12,16,4,5,35,20,24,13,17,32,6,28,27,3,19,14,33,29,0,31,30,8,15]","main","25","many-guess-6"
"","","","","","html-keyboard-response","139","397800","0.0-10.0-0.60","5febd16bbaa7c4d3e31147a0","640759fa512f630a2bdc333d","6408c1802c2d8070a8a4a61f","null","","null","","","","","","","","","","","","","","","","","","","fixation","",""
"","","","","","color-precision2","140","401127","0.0-10.0-1.60-0.60","5febd16bbaa7c4d3e31147a0","640759fa512f630a2bdc333d","6408c1802c2d8070a8a4a61f","[1159]","","","[10]","[35]","35","38","75.57108700694683","[75.57108700694683]","[37.571087006946826]","[36]","0","0","1","0","147.4700000002049","995.493000000366","1000","[[[""img/mask54.png""]]]","","","main","38","color-precision2"
"","","","","","html-keyboard-response","141","401631","0.0-10.0-0.61","5febd16bbaa7c4d3e31147a0","640759fa512f630a2bdc333d","6408c1802c2d8070a8a4a61f","null","","null","","","","","","","","","","","","","","","","","","","fixation","",""
"","","","","","color-precision2","142","404110","0.0-10.0-1.61-0.61","5febd16bbaa7c4d3e31147a0","640759fa512f630a2bdc333d","6408c1802c2d8070a8a4a61f","[277.6000000005588]","","","[32]","[103]","103","271","353.8924412017417","[353.8924412017417]","[82.89244120174169]","[82]","0","0","1","0","148.6720000000205","997.9969999999739","1000","[[[""img/mask69.png""]]]","","","main","271","color-precision2"
"","","","","","html-keyboard-response","143","404615","0.0-10.0-0.62","5febd16bbaa7c4d3e31147a0","640759fa512f630a2bdc333d","6408c1802c2d8070a8a4a61f","null","","null","","","","","","","","","","","","","","","","","","","fixation","",""
"","","","","","color-precision2","144","406974","0.0-10.0-1.62-0.62","5febd16bbaa7c4d3e31147a0","640759fa512f630a2bdc333d","6408c1802c2d8070a8a4a61f","[191]","","","[33]","[148]","148","182","336.0579548352857","[336.0579548352857]","[154.05795483528573]","[154]","0","0","1","0","148.67100000020582","995.795999999973","1000","[[[""img/mask13.png""]]]","","","main","182","color-precision2"
"","","","","","html-keyboard-response","145","407479","0.0-10.0-0.63","5febd16bbaa7c4d3e31147a0","640759fa512f630a2bdc333d","6408c1802c2d8070a8a4a61f","null","","null","","","","","","","","","","","","","","","","","","","fixation","",""
"","","","","","many-guess-6","146","410160","0.0-10.0-1.63-0.63","5febd16bbaa7c4d3e31147a0","640759fa512f630a2bdc333d","6408c1802c2d8070a8a4a61f","[1476.1000000005588]","","","[3,34,13,30,19,28,1,0,18,5,9,8,6,15,23,20,2,11,25,14,17,4,29,12,16,21,35,31,26,32,22,33,7,10,27,24]","[132,102,342,12,292,242,252,222,142,322,52,352,302,62,202,22,172,92,312,152,112,272,332,182,72,212,232,162,42,122,282,82,192,2,262,32]","132","83","52.59728073726441","[52.59728073726441]","[329.59728073726444]","[328]","[30,300,210,210,210,30,30,210,120]","0","36","0","148.84600000001956","15.690000000002328","16","[[[""img/mask66.png""],[""img/mask23.png""],[""img/mask53.png""],[""img/mask24.png""],[""img/mask92.png""],[""img/mask98.png""],[""img/mask2.png""],[""img/mask83.png""],[""img/mask59.png""],[""img/mask84.png""],[""img/mask99.png""],[""img/mask65.png""],[""img/mask48.png""],[""img/mask70.png""],[""img/mask34.png""],[""img/mask59.png""],[""img/mask28.png""],[""img/mask76.png""],[""img/mask40.png""],[""img/mask64.png""],[""img/mask63.png""],[""img/mask72.png""],[""img/mask53.png""],[""img/mask78.png""],[""img/mask80.png""],[""img/mask60.png""],[""img/mask2.png""],[""img/mask84.png""],[""img/mask25.png""],[""img/mask17.png""],[""img/mask15.png""],[""img/mask71.png""],[""img/mask75.png""],[""img/mask52.png""],[""img/mask62.png""],[""img/mask38.png""]]]","","[3,34,13,30,19,28,1,0,18,5,9,8,6,15,23,20,2,11,25,14,17,4,29,12,16,21,35,31,26,32,22,33,7,10,27,24]","main","83","many-guess-6"
"","","","","","html-keyboard-response","147","410664","0.0-10.0-0.64","5febd16bbaa7c4d3e31147a0","640759fa512f630a2bdc333d","6408c1802c2d8070a8a4a61f","null","","null","","","","","","","","","","","","","","","","","","","fixation","",""
"","","","","","many-guess-6","148","413810","0.0-10.0-1.64-0.64","5febd16bbaa7c4d3e31147a0","640759fa512f630a2bdc333d","6408c1802c2d8070a8a4a61f","[1010.6000000005588]","","","[23,31,8,20,3,27,0,34,7,4,30,32,11,25,12,9,29,2,33,28,26,16,6,24,5,18,35,21,19,14,17,10,15,1,13,22]","[179,39,29,318,229,189,139,99,338,279,239,79,169,129,259,209,299,358,49,89,328,59,289,9,119,308,348,109,249,199,149,219,19,269,69,159]","179","297","320.18147583044686","[320.18147583044686]","[23.181475830446857]","[23]","[300,30,120,300,30,210,300,30,30]","0","36","0","148.73300000000745","12.076999999990221","16","[[[""img/mask60.png""],[""img/mask26.png""],[""img/mask60.png""],[""img/mask81.png""],[""img/mask84.png""],[""img/mask43.png""],[""img/mask41.png""],[""img/mask44.png""],[""img/mask34.png""],[""img/mask37.png""],[""img/mask91.png""],[""img/mask16.png""],[""img/mask75.png""],[""img/mask65.png""],[""img/mask20.png""],[""img/mask7.png""],[""img/mask84.png""],[""img/mask55.png""],[""img/mask10.png""],[""img/mask21.png""],[""img/mask92.png""],[""img/mask23.png""],[""img/mask96.png""],[""img/mask28.png""],[""img/mask90.png""],[""img/mask46.png""],[""img/mask16.png""],[""img/mask17.png""],[""img/mask5.png""],[""img/mask100.png""],[""img/mask49.png""],[""img/mask14.png""],[""img/mask57.png""],[""img/mask38.png""],[""img/mask21.png""],[""img/mask58.png""]]]","","[23,31,8,20,3,27,0,34,7,4,30,32,11,25,12,9,29,2,33,28,26,16,6,24,5,18,35,21,19,14,17,10,15,1,13,22]","main","297","many-guess-6"
"","","","","","html-keyboard-response","149","414319","0.0-10.0-0.65","5febd16bbaa7c4d3e31147a0","640759fa512f630a2bdc333d","6408c1802c2d8070a8a4a61f","null","","null","","","","","","","","","","","","","","","","","","","fixation","",""
"","","","","","color-precision2","150","416823","0.0-10.0-1.65-0.65","5febd16bbaa7c4d3e31147a0","640759fa512f630a2bdc333d","6408c1802c2d8070a8a4a61f","[324]","","","[2]","[257]","257","82","316.38832781463253","[316.38832781463253]","[234.38832781463253]","[234]","0","0","1","0","148.0770000005723","999.7020000003977","1000","[[[""img/mask54.png""]]]","","","main","82","color-precision2"
"","","","","","html-keyboard-response","151","417327","0.0-10.0-0.66","5febd16bbaa7c4d3e31147a0","640759fa512f630a2bdc333d","6408c1802c2d8070a8a4a61f","null","","null","","","","","","","","","","","","","","","","","","","fixation","",""
"","","","","","many-guess-6","152","419284","0.0-10.0-1.66-0.66","5febd16bbaa7c4d3e31147a0","640759fa512f630a2bdc333d","6408c1802c2d8070a8a4a61f","[768.7999999998137]","","","[35,3,5,17,15,14,19,22,13,29,16,26,12,32,20,0,31,9,33,27,21,1,11,8,23,28,30,18,2,34,25,10,6,4,7,24]","[41,200,180,21,111,91,141,51,170,350,81,240,210,250,290,190,310,131,71,230,160,330,11,31,320,220,280,270,340,151,260,1,61,300,121,101]","41","64","359.1403255723979","[359.1403255723979]","[295.1403255723979]","[294]","[210,120,30,30,30,120,210,210,210]","0","36","0","148.81100000074366","8.246000000392087","16","[[[""img/mask42.png""],[""img/mask20.png""],[""img/mask57.png""],[""img/mask35.png""],[""img/mask99.png""],[""img/mask23.png""],[""img/mask45.png""],[""img/mask7.png""],[""img/mask47.png""],[""img/mask48.png""],[""img/mask73.png""],[""img/mask30.png""],[""img/mask13.png""],[""img/mask73.png""],[""img/mask89.png""],[""img/mask99.png""],[""img/mask17.png""],[""img/mask40.png""],[""img/mask26.png""],[""img/mask74.png""],[""img/mask54.png""],[""img/mask15.png""],[""img/mask97.png""],[""img/mask3.png""],[""img/mask46.png""],[""img/mask69.png""],[""img/mask95.png""],[""img/mask49.png""],[""img/mask83.png""],[""img/mask24.png""],[""img/mask32.png""],[""img/mask64.png""],[""img/mask65.png""],[""img/mask14.png""],[""img/mask23.png""],[""img/mask97.png""]]]","","[35,3,5,17,15,14,19,22,13,29,16,26,12,32,20,0,31,9,33,27,21,1,11,8,23,28,30,18,2,34,25,10,6,4,7,24]","main","64","many-guess-6"
"","","","","","html-keyboard-response","153","419791","0.0-10.0-0.67","5febd16bbaa7c4d3e31147a0","640759fa512f630a2bdc333d","6408c1802c2d8070a8a4a61f","null","","null","","","","","","","","","","","","","","","","","","","fixation","",""
"","","","","","many-guess-6","154","429325","0.0-10.0-1.67-0.67","5febd16bbaa7c4d3e31147a0","640759fa512f630a2bdc333d","6408c1802c2d8070a8a4a61f","[8324.600000000559]","","","[15,33,23,12,13,28,30,20,34,3,7,1,29,9,19,32,8,27,17,2,26,25,22,18,31,10,21,35,16,11,0,4,24,14,6,5]","[103,133,63,3,153,343,283,93,223,323,113,183,313,83,263,213,233,163,333,123,193,73,203,303,143,173,253,23,43,293,13,273,352,53,243,33]","103","243","324.51587937594024","[324.51587937594024]","[81.51587937594024]","[81]","[210,120,120,30,30,300,210,120,30]","0","36","0","148.87500000017462","19.420000000391155","16","[[[""img/mask48.png""],[""img/mask2.png""],[""img/mask59.png""],[""img/mask42.png""],[""img/mask95.png""],[""img/mask79.png""],[""img/mask44.png""],[""img/mask86.png""],[""img/mask5.png""],[""img/mask88.png""],[""img/mask57.png""],[""img/mask23.png""],[""img/mask91.png""],[""img/mask44.png""],[""img/mask21.png""],[""img/mask85.png""],[""img/mask42.png""],[""img/mask76.png""],[""img/mask86.png""],[""img/mask38.png""],[""img/mask49.png""],[""img/mask88.png""],[""img/mask61.png""],[""img/mask32.png""],[""img/mask74.png""],[""img/mask54.png""],[""img/mask97.png""],[""img/mask97.png""],[""img/mask23.png""],[""img/mask41.png""],[""img/mask37.png""],[""img/mask85.png""],[""img/mask35.png""],[""img/mask87.png""],[""img/mask42.png""],[""img/mask50.png""]]]","","[15,33,23,12,13,28,30,20,34,3,7,1,29,9,19,32,8,27,17,2,26,25,22,18,31,10,21,35,16,11,0,4,24,14,6,5]","main","243","many-guess-6"
"","","","","","html-keyboard-response","155","429831","0.0-10.0-0.68","5febd16bbaa7c4d3e31147a0","640759fa512f630a2bdc333d","6408c1802c2d8070a8a4a61f","null","","null","","","","","","","","","","","","","","","","","","","fixation","",""
"","","","","","color-precision2","156","433319","0.0-10.0-1.68-0.68","5febd16bbaa7c4d3e31147a0","640759fa512f630a2bdc333d","6408c1802c2d8070a8a4a61f","[487.29999999981374]","","","[34]","[288]","288","197","132.62859838980796","[132.62859838980796]","[295.62859838980796]","[294]","0","0","1","0","148.00400000077207","995.9250000003958","1000","[[[""img/mask42.png""]]]","","","main","197","color-precision2"
"","","","","","html-keyboard-response","157","433823","0.0-10.0-0.69","5febd16bbaa7c4d3e31147a0","640759fa512f630a2bdc333d","6408c1802c2d8070a8a4a61f","null","","null","","","","","","","","","","","","","","","","","","","fixation","",""
"","","","","","color-precision2","158","436148","0.0-10.0-1.69-0.69","5febd16bbaa7c4d3e31147a0","640759fa512f630a2bdc333d","6408c1802c2d8070a8a4a61f","[83.1000000005588]","","","[1]","[187]","187","287","141.94115651808008","[141.94115651808008]","[214.94115651808008]","[214]","0","0","1","0","148.71300000039628","997.1390000000247","1000","[[[""img/mask28.png""]]]","","","main","287","color-precision2"
"","","","","","html-keyboard-response","159","436655","0.0-10.0-0.70","5febd16bbaa7c4d3e31147a0","640759fa512f630a2bdc333d","6408c1802c2d8070a8a4a61f","null","","null","","","","","","","","","","","","","","","","","","","fixation","",""
"","","","","","color-precision2","160","439513","0.0-10.0-1.70-0.70","5febd16bbaa7c4d3e31147a0","640759fa512f630a2bdc333d","6408c1802c2d8070a8a4a61f","[633.4000000003725]","","","[8]","[116]","116","345","79.03437930772624","[79.03437930772624]","[94.03437930772623]","[92]","0","0","1","0","148.48900000017602","997.6369999999879","1000","[[[""img/mask29.png""]]]","","","main","345","color-precision2"
"","","","","","html-keyboard-response","161","440015","0.0-10.0-0.71","5febd16bbaa7c4d3e31147a0","640759fa512f630a2bdc333d","6408c1802c2d8070a8a4a61f","null","","null","","","","","","","","","","","","","","","","","","","fixation","",""
"","","","","","many-guess-6","162","442008","0.0-10.0-1.71-0.71","5febd16bbaa7c4d3e31147a0","640759fa512f630a2bdc333d","6408c1802c2d8070a8a4a61f","[761.1000000005588]","","","[34,12,28,14,26,25,7,19,9,23,27,15,5,10,20,21,35,30,31,0,2,11,13,6,22,32,4,29,17,3,33,8,24,18,1,16]","[260,220,310,31,270,230,120,91,170,81,111,240,340,71,21,250,320,130,140,61,101,160,180,1,51,41,330,350,290,200,210,150,11,280,190,300]","260","175","355.86217006573236","[355.86217006573236]","[180.86217006573236]","[180]","[120,300,120,210,120,30,210,300,120]","0","36","0","148.79800000000978","20.14299999998184","16","[[[""img/mask41.png""],[""img/mask42.png""],[""img/mask73.png""],[""img/mask40.png""],[""img/mask38.png""],[""img/mask81.png""],[""img/mask41.png""],[""img/mask92.png""],[""img/mask22.png""],[""img/mask1.png""],[""img/mask18.png""],[""img/mask76.png""],[""img/mask33.png""],[""img/mask49.png""],[""img/mask63.png""],[""img/mask26.png""],[""img/mask58.png""],[""img/mask33.png""],[""img/mask74.png""],[""img/mask82.png""],[""img/mask26.png""],[""img/mask55.png""],[""img/mask91.png""],[""img/mask66.png""],[""img/mask23.png""],[""img/mask29.png""],[""img/mask61.png""],[""img/mask57.png""],[""img/mask67.png""],[""img/mask18.png""],[""img/mask5.png""],[""img/mask10.png""],[""img/mask35.png""],[""img/mask37.png""],[""img/mask29.png""],[""img/mask33.png""]]]","","[34,12,28,14,26,25,7,19,9,23,27,15,5,10,20,21,35,30,31,0,2,11,13,6,22,32,4,29,17,3,33,8,24,18,1,16]","main","175","many-guess-6"
"","","","","","html-keyboard-response","163","442511","0.0-10.0-0.72","5febd16bbaa7c4d3e31147a0","640759fa512f630a2bdc333d","6408c1802c2d8070a8a4a61f","null","","null","","","","","","","","","","","","","","","","","","","fixation","",""
"","","","","","color-precision2","164","448952","0.0-10.0-1.72-0.72","5febd16bbaa7c4d3e31147a0","640759fa512f630a2bdc333d","6408c1802c2d8070a8a4a61f","[1052.0999999996275]","","","[18]","[52]","52","172","219.29656329627932","[219.29656329627932]","[47.29656329627932]","[47]","0","0","1","0","148.74200000037672","1005.5670000003884","1000","[[[""img/mask79.png""]]]","","","main","172","color-precision2"
"","","","","","html-keyboard-response","165","449455","0.0-10.0-0.73","5febd16bbaa7c4d3e31147a0","640759fa512f630a2bdc333d","6408c1802c2d8070a8a4a61f","null","","null","","","","","","","","","","","","","","","","","","","fixation","",""
"","","","","","many-guess-6","166","451615","0.0-10.0-1.73-0.73","5febd16bbaa7c4d3e31147a0","640759fa512f630a2bdc333d","6408c1802c2d8070a8a4a61f","[851.2999999998137]","","","[26,10,0,14,28,23,1,30,2,7,33,19,13,15,17,34,11,4,25,21,3,35,20,5,32,27,31,9,29,6,8,16,22,18,12,24]","[21,240,300,120,81,61,140,250,270,220,340,190,280,260,200,210,31,1,170,230,320,71,310,150,350,11,290,330,91,180,100,110,41,51,130,160]","21","90","335.5013245989882","[335.5013245989882]","[245.50132459898822]","[245]","[300,300,30,210,210,120,120,120,300]","0","36","0","147.4180000005872","16.162000000011176","16","[[[""img/mask58.png""],[""img/mask24.png""],[""img/mask25.png""],[""img/mask89.png""],[""img/mask62.png""],[""img/mask13.png""],[""img/mask38.png""],[""img/mask35.png""],[""img/mask78.png""],[""img/mask57.png""],[""img/mask18.png""],[""img/mask90.png""],[""img/mask29.png""],[""img/mask64.png""],[""img/mask70.png""],[""img/mask65.png""],[""img/mask47.png""],[""img/mask8.png""],[""img/mask39.png""],[""img/mask88.png""],[""img/mask39.png""],[""img/mask70.png""],[""img/mask5.png""],[""img/mask23.png""],[""img/mask46.png""],[""img/mask78.png""],[""img/mask66.png""],[""img/mask63.png""],[""img/mask20.png""],[""img/mask60.png""],[""img/mask97.png""],[""img/mask66.png""],[""img/mask44.png""],[""img/mask12.png""],[""img/mask98.png""],[""img/mask99.png""]]]","","[26,10,0,14,28,23,1,30,2,7,33,19,13,15,17,34,11,4,25,21,3,35,20,5,32,27,31,9,29,6,8,16,22,18,12,24]","main","90","many-guess-6"
"","","","","","html-keyboard-response","167","452119","0.0-10.0-0.74","5febd16bbaa7c4d3e31147a0","640759fa512f630a2bdc333d","6408c1802c2d8070a8a4a61f","null","","null","","","","","","","","","","","","","","","","","","","fixation","",""
"","","","","","color-precision2","168","459592","0.0-10.0-1.74-0.74","5febd16bbaa7c4d3e31147a0","640759fa512f630a2bdc333d","6408c1802c2d8070a8a4a61f","[628]","","","[34]","[196]","196","292","142.89192806690127","[142.89192806690127]","[210.89192806690127]","[209]","0","0","1","0","148.75699999998324","1007.4810000003781","1000","[[[""img/mask34.png""]]]","","","main","292","color-precision2"
"","","","","","html-keyboard-response","169","460095","0.0-10.0-0.75","5febd16bbaa7c4d3e31147a0","640759fa512f630a2bdc333d","6408c1802c2d8070a8a4a61f","null","","null","","","","","","","","","","","","","","","","","","","fixation","",""
"","","","","","many-guess-6","170","463586","0.0-10.0-1.75-0.75","5febd16bbaa7c4d3e31147a0","640759fa512f630a2bdc333d","6408c1802c2d8070a8a4a61f","[2106.2999999998137]","","","[24,30,13,35,27,17,25,2,8,22,12,11,3,21,31,5,29,19,34,1,14,6,0,28,10,9,20,26,15,7,32,33,18,16,23,4]","[75,185,344,105,115,5,45,235,65,245,15,25,55,215,285,95,85,135,324,354,205,315,334,35,255,195,125,225,295,265,155,145,165,175,275,305]","75","177","209.71802914682235","[209.71802914682235]","[32.718029146822346]","[32]","[30,30,300,210,30,210,210,30,300]","0","36","0","148.75599999999395","12.091000000014901","16","[[[""img/mask3.png""],[""img/mask10.png""],[""img/mask60.png""],[""img/mask80.png""],[""img/mask44.png""],[""img/mask44.png""],[""img/mask34.png""],[""img/mask53.png""],[""img/mask36.png""],[""img/mask68.png""],[""img/mask62.png""],[""img/mask34.png""],[""img/mask6.png""],[""img/mask51.png""],[""img/mask29.png""],[""img/mask52.png""],[""img/mask13.png""],[""img/mask97.png""],[""img/mask45.png""],[""img/mask36.png""],[""img/mask13.png""],[""img/mask92.png""],[""img/mask77.png""],[""img/mask17.png""],[""img/mask12.png""],[""img/mask100.png""],[""img/mask99.png""],[""img/mask1.png""],[""img/mask51.png""],[""img/mask49.png""],[""img/mask58.png""],[""img/mask78.png""],[""img/mask26.png""],[""img/mask19.png""],[""img/mask13.png""],[""img/mask57.png""]]]","","[24,30,13,35,27,17,25,2,8,22,12,11,3,21,31,5,29,19,34,1,14,6,0,28,10,9,20,26,15,7,32,33,18,16,23,4]","main","177","many-guess-6"
"","","","","","html-keyboard-response","171","464095","0.0-10.0-0.76","5febd16bbaa7c4d3e31147a0","640759fa512f630a2bdc333d","6408c1802c2d8070a8a4a61f","null","","null","","","","","","","","","","","","","","","","","","","fixation","",""
"","","","","","many-guess-6","172","467707","0.0-10.0-1.76-0.76","5febd16bbaa7c4d3e31147a0","640759fa512f630a2bdc333d","6408c1802c2d8070a8a4a61f","[643.7999999998137]","","","[12,30,33,35,27,21,31,6,0,19,3,11,7,16,23,17,5,1,32,4,25,14,26,18,34,28,9,15,29,2,10,20,13,8,24,22]","[50,199,60,299,80,40,359,149,309,179,20,239,209,189,89,329,279,99,109,319,219,70,129,169,289,10,269,139,119,339,159,30,249,229,349,259]","50","44","335.68732364574686","[335.68732364574686]","[291.68732364574686]","[291]","[120,120,30,120,120,30,30,120,300]","0","36","0","149.010000000766","10.94500000035623","16","[[[""img/mask20.png""],[""img/mask64.png""],[""img/mask76.png""],[""img/mask10.png""],[""img/mask37.png""],[""img/mask22.png""],[""img/mask33.png""],[""img/mask16.png""],[""img/mask49.png""],[""img/mask42.png""],[""img/mask52.png""],[""img/mask86.png""],[""img/mask7.png""],[""img/mask23.png""],[""img/mask64.png""],[""img/mask33.png""],[""img/mask73.png""],[""img/mask95.png""],[""img/mask65.png""],[""img/mask94.png""],[""img/mask14.png""],[""img/mask91.png""],[""img/mask57.png""],[""img/mask89.png""],[""img/mask80.png""],[""img/mask25.png""],[""img/mask77.png""],[""img/mask52.png""],[""img/mask43.png""],[""img/mask35.png""],[""img/mask83.png""],[""img/mask32.png""],[""img/mask48.png""],[""img/mask50.png""],[""img/mask2.png""],[""img/mask20.png""]]]","","[12,30,33,35,27,21,31,6,0,19,3,11,7,16,23,17,5,1,32,4,25,14,26,18,34,28,9,15,29,2,10,20,13,8,24,22]","main","44","many-guess-6"
"","","","","","html-keyboard-response","173","468215","0.0-10.0-0.77","5febd16bbaa7c4d3e31147a0","640759fa512f630a2bdc333d","6408c1802c2d8070a8a4a61f","null","","null","","","","","","","","","","","","","","","","","","","fixation","",""
"","","","","","color-precision2","174","470956","0.0-10.0-1.77-0.77","5febd16bbaa7c4d3e31147a0","640759fa512f630a2bdc333d","6408c1802c2d8070a8a4a61f","[126.40000000037253]","","","[12]","[208]","208","250","130.92898698903383","[130.92898698903383]","[240.92898698903383]","[239]","0","0","1","0","148.71600000053877","993.3410000003641","1000","[[[""img/mask13.png""]]]","","","main","250","color-precision2"
"","","","","","html-keyboard-response","175","471463","0.0-10.0-0.78","5febd16bbaa7c4d3e31147a0","640759fa512f630a2bdc333d","6408c1802c2d8070a8a4a61f","null","","null","","","","","","","","","","","","","","","","","","","fixation","",""
"","","","","","color-precision2","176","476709","0.0-10.0-1.78-0.78","5febd16bbaa7c4d3e31147a0","640759fa512f630a2bdc333d","6408c1802c2d8070a8a4a61f","[1363.6000000005588]","","","[0]","[241]","241","274","138.68206758207134","[138.68206758207134]","[224.68206758207134]","[223]","0","0","1","0","148.8800000003539","997.8240000000224","1000","[[[""img/mask35.png""]]]","","","main","274","color-precision2"
