"success","timeout","failed_images","failed_audio","failed_video","trial_type","trial_index","time_elapsed","internal_node_id","subject_id","study_id","session_id","rt","stimulus","response","position_of_items","colors_of_items","color_of_target","wheel_spin","response_angle","physical_response_angle","reported_color_angle","reported_color_discrete","locs","which_test","set_size","wheel_num_options","actual_mask_duration","actual_stim_duration","CMDispTime","maskArray","maskRotation","item_positions","task","randomSpinAmount","mainTask"
"true","false","[]","[]","[]","preload","0","1695","0.0-0.0","602e030cc083e38fcb6b2b65","640759fa512f630a2bdc333d","64076708a859b31faa62dde3","","","","","","","","","","","","","","","","","","","","","","","",""
"true","","","","","fullscreen","1","4840","0.0-1.0","602e030cc083e38fcb6b2b65","640759fa512f630a2bdc333d","64076708a859b31faa62dde3","","","","","","","","","","","","","","","","","","","","","","","",""
"","","","","","html-keyboard-response","2","9868","0.0-2.0","602e030cc083e38fcb6b2b65","640759fa512f630a2bdc333d","64076708a859b31faa62dde3","5025.700000762939","What a beautiful Tuesday to do some awesome science! </p> <p>  </p><p> </p>
    By completing this survey or questionnaire, you are consenting to be in this research study. </p>
    Your participation is voluntary and you can stop at any time.<p> [Press any key to continue] </p>"," ","","","","","","","","","","","","","","","","","","","","",""
"","","","","","html-keyboard-response","3","19872","0.0-3.0","602e030cc083e38fcb6b2b65","640759fa512f630a2bdc333d","64076708a859b31faa62dde3","8103.400001525879","
    <div style='width: 1000px;'>
    <div style='float: center;'><img src='img/TaskInstructions1.png'></img>
    </div>
    "," ","","","","","","","","","","","","","","","","","","","","",""
"","","","","","html-keyboard-response","4","20960","0.0-4.0","602e030cc083e38fcb6b2b65","640759fa512f630a2bdc333d","64076708a859b31faa62dde3","1087.400001525879","
    <div style='width: 1000px;'>
    <div style='float: center;'><img src='img/TaskInstructions1.png'></img>
    </div>
    "," ","","","","","","","","","","","","","","","","","","","","",""
"","","","","","html-keyboard-response","5","30980","0.0-5.0","602e030cc083e38fcb6b2b65","640759fa512f630a2bdc333d","64076708a859b31faa62dde3","null","
    <div style='width: 1000px;'>
    <div style='float: center;'><img src='img/TaskInstructions2.png'></img>
    </div>
    ","null","","","","","","","","","","","","","","","","","","","","",""
"","","","","","html-keyboard-response","6","63979","0.0-6.0","602e030cc083e38fcb6b2b65","640759fa512f630a2bdc333d","64076708a859b31faa62dde3","33001.5","
    <div style='width: 1000px;'>
    <div style='float: center;'><img src='img/TaskInstructions2.png'></img>
    </div>
    "," ","","","","","","","","","","","","","","","","","","","","",""
"","","","","","video-keyboard-response","7","171511","0.0-7.0","602e030cc083e38fcb6b2b65","640759fa512f630a2bdc333d","64076708a859b31faa62dde3","107477.20000076294","[""video/TaskInstructions3.mp4""]"," ","","","","","","","","","","","","","","","","","","","","",""
"","","","","","image-keyboard-response","8","177838","0.0-8.0-0.0","602e030cc083e38fcb6b2b65","640759fa512f630a2bdc333d","64076708a859b31faa62dde3","6324.799999237061","img/training1.png"," ","","","","","","","","","","","","","","","","","","","","",""
"","","","","","color-precision2","9","185747","0.0-8.0-1.0-0.0","602e030cc083e38fcb6b2b65","640759fa512f630a2bdc333d","64076708a859b31faa62dde3","[2088.5]","","","[35]","[294]","294","335","262.1582743522553","[262.1582743522553]","[287.1582743522553]","[287]","0","0","1","0","498.58400000000256","1006.4859992370475","1000","","","0","training","",""
"","","","","","image-keyboard-response","10","195231","0.0-8.0-0.1","602e030cc083e38fcb6b2b65","640759fa512f630a2bdc333d","64076708a859b31faa62dde3","9481.099998474121","img/training2.png"," ","","","","","","","","","","","","","","","","","","","","",""
"","","","","","many-guess-6","11","203594","0.0-8.0-1.1-0.1","602e030cc083e38fcb6b2b65","640759fa512f630a2bdc333d","64076708a859b31faa62dde3","[2688.7999992370605]","","","[11,30,20]","[259,33,281]","259","236","160.99625598976908","[160.99625598976908]","[284.9962559897691]","[284]","[120,30,210,210,210,300,300,300,120,210,30,30,300,30,300,120,30,300,120,210,210,210,210,30,210,210,30,210,30,120,300,120,30,210,210,120]","0","3","0","998.7279977111903","1007.5249992370664","1000","[[[""img/mask82.png""],[""img/mask40.png""],[""img/mask91.png""]]]","","[11,30,20]","training","",""
"","","","","","image-keyboard-response","12","238214","0.0-8.0-0.2","602e030cc083e38fcb6b2b65","640759fa512f630a2bdc333d","64076708a859b31faa62dde3","34617.79999923706","img/training3.png"," ","","","","","","","","","","","","","","","","","","","","",""
"","","","","","[""many-guess-6""]","13","244088","0.0-8.0-1.2-0.2","602e030cc083e38fcb6b2b65","640759fa512f630a2bdc333d","64076708a859b31faa62dde3","[1900.599998474121]","","","[28,4,17,29,26]","[36,275,53,346,228]","36","54","130.80978436382574","[130.80978436382574]","[76.80978436382574]","[75]","[300,300,210,300,120,210,120,210,210,300,30,210,30,300,210,30,120,30,210,30,120,120,300,210,30,120,210,120,300,30,120,300,210,30,210,120]","0","5","0","498.8499984741211","496.5999977111933","500","[[[""img/mask83.png""],[""img/mask86.png""],[""img/mask5.png""],[""img/mask58.png""],[""img/mask53.png""]]]","","[28,4,17,29,26]","training","",""
"","","","","","image-keyboard-response","14","247280","0.0-8.0-0.3","602e030cc083e38fcb6b2b65","640759fa512f630a2bdc333d","64076708a859b31faa62dde3","3189.300003051758","img/training4.png"," ","","","","","","","","","","","","","","","","","","","","",""
"","","","","","[""many-guess-6""]","15","254131","0.0-8.0-1.3-0.3","602e030cc083e38fcb6b2b65","640759fa512f630a2bdc333d","64076708a859b31faa62dde3","[3561.300003051758]","","","[3,16,5,24,7,29,18,10,33,1]","[51,155,15,91,309,319,277,71,345,125]","51","76","231.40346413153256","[231.40346413153256]","[155.40346413153256]","[155]","[210,30,300,210,210,120,300,30,30,210,300,120,30,120,30,30,210,210,30,210,210,210,120,120,210,120,30,30,210,30,30,210,210,300,30,30]","0","10","0","131.2579984741169","134.57899771118537","132","[[[""img/mask86.png""],[""img/mask63.png""],[""img/mask98.png""],[""img/mask7.png""],[""img/mask98.png""],[""img/mask47.png""],[""img/mask55.png""],[""img/mask7.png""],[""img/mask30.png""],[""img/mask62.png""]]]","","[3,16,5,24,7,29,18,10,33,1]","training","",""
"","","","","","image-keyboard-response","16","262102","0.0-8.0-0.4","602e030cc083e38fcb6b2b65","640759fa512f630a2bdc333d","64076708a859b31faa62dde3","7964.299999237061","img/training5.png"," ","","","","","","","","","","","","","","","","","","","","",""
"","","","","","[""many-guess-6""]","17","268564","0.0-8.0-1.4-0.4","602e030cc083e38fcb6b2b65","640759fa512f630a2bdc333d","64076708a859b31faa62dde3","[2322.5]","","","[34,17,9,26,5,12,4,6,19,20,28,16,13,2,32,7,3,35,15,30,27,18,8,24,0,22,33,29,31,21,25,1,14,11,23,10]","[71,91,111,41,311,101,121,211,11,301,291,151,131,81,271,191,241,331,51,61,141,21,171,1,281,201,321,351,31,251,231,161,181,341,221,261]","71","82","103.5791507466329","[103.5791507466329]","[21.579150746632905]","[20]","[30,120,30,210,210,300,300,30,120,210,30,30,30,300,120,120,210,30,120,120,210,120,120,30,120,30,210,120,30,300,300,300,120,30,300,120]","0","36","0","146.67199771117885","23.2599992370815","16","[[[""img/mask96.png""],[""img/mask5.png""],[""img/mask60.png""],[""img/mask17.png""],[""img/mask67.png""],[""img/mask31.png""],[""img/mask23.png""],[""img/mask76.png""],[""img/mask84.png""],[""img/mask12.png""],[""img/mask59.png""],[""img/mask16.png""],[""img/mask28.png""],[""img/mask65.png""],[""img/mask46.png""],[""img/mask46.png""],[""img/mask9.png""],[""img/mask79.png""],[""img/mask50.png""],[""img/mask6.png""],[""img/mask32.png""],[""img/mask39.png""],[""img/mask65.png""],[""img/mask100.png""],[""img/mask82.png""],[""img/mask77.png""],[""img/mask35.png""],[""img/mask99.png""],[""img/mask51.png""],[""img/mask13.png""],[""img/mask81.png""],[""img/mask93.png""],[""img/mask74.png""],[""img/mask58.png""],[""img/mask34.png""],[""img/mask34.png""]]]","","[34,17,9,26,5,12,4,6,19,20,28,16,13,2,32,7,3,35,15,30,27,18,8,24,0,22,33,29,31,21,25,1,14,11,23,10]","training","",""
"","","","","","image-keyboard-response","18","273009","0.0-9.0","602e030cc083e38fcb6b2b65","640759fa512f630a2bdc333d","64076708a859b31faa62dde3","4442.299999237061","[""img/endTraining.png""]"," ","","","","","","","","","","","","","","","","","","","","",""
"","","","","","html-keyboard-response","19","273522","0.0-10.0-0.0","602e030cc083e38fcb6b2b65","640759fa512f630a2bdc333d","64076708a859b31faa62dde3","null","","null","","","","","","","","","","","","","","","","","","","fixation","",""
"","","","","","color-precision2","20","278860","0.0-10.0-1.0-0.0","602e030cc083e38fcb6b2b65","640759fa512f630a2bdc333d","64076708a859b31faa62dde3","[1415.400001525879]","","","[24]","[36]","36","171","207.00597581599243","[207.00597581599243]","[36.00597581599243]","[36]","0","0","1","0","148.5529977111728","992.1859977112035","1000","[[[""img/mask43.png""]]]","","","main","171","color-precision2"
"","","","","","html-keyboard-response","21","279368","0.0-10.0-0.1","602e030cc083e38fcb6b2b65","640759fa512f630a2bdc333d","64076708a859b31faa62dde3","null","","null","","","","","","","","","","","","","","","","","","","fixation","",""
"","","","","","color-precision2","22","283629","0.0-10.0-1.1-0.1","602e030cc083e38fcb6b2b65","640759fa512f630a2bdc333d","64076708a859b31faa62dde3","[1118.6000022888184]","","","[25]","[201]","201","229","78.19846400429523","[78.19846400429523]","[209.19846400429523]","[207]","0","0","1","0","148.60399771120865","1003.0619977111928","1000","[[[""img/mask30.png""]]]","","","main","229","color-precision2"
"","","","","","html-keyboard-response","23","284135","0.0-10.0-0.2","602e030cc083e38fcb6b2b65","640759fa512f630a2bdc333d","64076708a859b31faa62dde3","null","","null","","","","","","","","","","","","","","","","","","","fixation","",""
"","","","","","many-guess-6","24","289135","0.0-10.0-1.2-0.2","602e030cc083e38fcb6b2b65","640759fa512f630a2bdc333d","64076708a859b31faa62dde3","[3341.7000007629395]","","","[18,33,12,2,19,29,26,24,30,13,10,28,35,16,4,23,31,34,27,9,22,20,6,11,5,25,0,17,15,7,14,1,3,8,21,32]","[17,287,336,67,117,257,217,316,127,47,247,137,77,187,227,7,197,277,177,306,167,267,326,27,207,237,157,107,147,57,37,97,296,87,346,356]","17","86","317.6143572175961","[317.6143572175961]","[231.61435721759608]","[231]","[300,300,30,210,210,30,210,120,120]","0","36","0","148.7839999999851","9.749997711158358","16","[[[""img/mask66.png""],[""img/mask35.png""],[""img/mask19.png""],[""img/mask54.png""],[""img/mask80.png""],[""img/mask88.png""],[""img/mask53.png""],[""img/mask73.png""],[""img/mask91.png""],[""img/mask77.png""],[""img/mask14.png""],[""img/mask82.png""],[""img/mask61.png""],[""img/mask83.png""],[""img/mask37.png""],[""img/mask78.png""],[""img/mask31.png""],[""img/mask11.png""],[""img/mask20.png""],[""img/mask58.png""],[""img/mask6.png""],[""img/mask65.png""],[""img/mask48.png""],[""img/mask10.png""],[""img/mask94.png""],[""img/mask38.png""],[""img/mask34.png""],[""img/mask15.png""],[""img/mask50.png""],[""img/mask34.png""],[""img/mask58.png""],[""img/mask100.png""],[""img/mask100.png""],[""img/mask9.png""],[""img/mask94.png""],[""img/mask77.png""]]]","","[18,33,12,2,19,29,26,24,30,13,10,28,35,16,4,23,31,34,27,9,22,20,6,11,5,25,0,17,15,7,14,1,3,8,21,32]","main","86","many-guess-6"
"","","","","","html-keyboard-response","25","289642","0.0-10.0-0.3","602e030cc083e38fcb6b2b65","640759fa512f630a2bdc333d","64076708a859b31faa62dde3","null","","null","","","","","","","","","","","","","","","","","","","fixation","",""
"","","","","","many-guess-6","26","293273","0.0-10.0-1.3-0.3","602e030cc083e38fcb6b2b65","640759fa512f630a2bdc333d","64076708a859b31faa62dde3","[2014]","","","[23,16,11,24,9,0,8,13,32,33,15,3,26,25,30,20,10,7,2,19,5,35,4,12,29,6,18,31,22,14,28,27,34,17,21,1]","[309,89,269,99,239,59,50,209,79,20,359,299,199,159,119,329,10,69,229,40,129,139,279,149,289,259,169,179,109,339,219,349,30,319,189,249]","309","123","38.33409373832036","[38.33409373832036]","[275.33409373832035]","[274]","[120,30,210,120,210,30,30,30,120]","0","36","0","148.64400076295715","13.802000000025146","16","[[[""img/mask49.png""],[""img/mask16.png""],[""img/mask88.png""],[""img/mask88.png""],[""img/mask100.png""],[""img/mask24.png""],[""img/mask69.png""],[""img/mask4.png""],[""img/mask95.png""],[""img/mask80.png""],[""img/mask18.png""],[""img/mask38.png""],[""img/mask66.png""],[""img/mask37.png""],[""img/mask4.png""],[""img/mask58.png""],[""img/mask46.png""],[""img/mask88.png""],[""img/mask66.png""],[""img/mask65.png""],[""img/mask65.png""],[""img/mask62.png""],[""img/mask6.png""],[""img/mask16.png""],[""img/mask99.png""],[""img/mask75.png""],[""img/mask16.png""],[""img/mask57.png""],[""img/mask99.png""],[""img/mask26.png""],[""img/mask25.png""],[""img/mask96.png""],[""img/mask82.png""],[""img/mask89.png""],[""img/mask4.png""],[""img/mask40.png""]]]","","[23,16,11,24,9,0,8,13,32,33,15,3,26,25,30,20,10,7,2,19,5,35,4,12,29,6,18,31,22,14,28,27,34,17,21,1]","main","123","many-guess-6"
"","","","","","html-keyboard-response","27","293778","0.0-10.0-0.4","602e030cc083e38fcb6b2b65","640759fa512f630a2bdc333d","64076708a859b31faa62dde3","null","","null","","","","","","","","","","","","","","","","","","","fixation","",""
"","","","","","many-guess-6","28","297831","0.0-10.0-1.4-0.4","602e030cc083e38fcb6b2b65","640759fa512f630a2bdc333d","64076708a859b31faa62dde3","[2221.8999977111816]","","","[26,20,33,6,17,4,0,8,27,1,19,18,7,2,10,12,29,31,32,11,30,13,16,35,23,14,3,22,5,15,21,28,24,25,34,9]","[25,224,204,124,104,294,45,244,344,354,284,214,304,194,5,274,134,254,54,64,94,314,164,264,84,15,144,154,234,35,174,324,334,184,114,74]","25","297","301.86361513615196","[301.86361513615196]","[4.863615136151964]","[5]","[120,120,120,210,30,210,120,210,300]","0","36","0","148.93199771118816","12.082997711200733","16","[[[""img/mask33.png""],[""img/mask40.png""],[""img/mask32.png""],[""img/mask59.png""],[""img/mask45.png""],[""img/mask45.png""],[""img/mask91.png""],[""img/mask33.png""],[""img/mask97.png""],[""img/mask23.png""],[""img/mask24.png""],[""img/mask23.png""],[""img/mask78.png""],[""img/mask19.png""],[""img/mask78.png""],[""img/mask26.png""],[""img/mask87.png""],[""img/mask80.png""],[""img/mask33.png""],[""img/mask20.png""],[""img/mask42.png""],[""img/mask45.png""],[""img/mask13.png""],[""img/mask76.png""],[""img/mask40.png""],[""img/mask83.png""],[""img/mask73.png""],[""img/mask41.png""],[""img/mask82.png""],[""img/mask55.png""],[""img/mask17.png""],[""img/mask45.png""],[""img/mask67.png""],[""img/mask47.png""],[""img/mask21.png""],[""img/mask61.png""]]]","","[26,20,33,6,17,4,0,8,27,1,19,18,7,2,10,12,29,31,32,11,30,13,16,35,23,14,3,22,5,15,21,28,24,25,34,9]","main","297","many-guess-6"
"","","","","","html-keyboard-response","29","298338","0.0-10.0-0.5","602e030cc083e38fcb6b2b65","640759fa512f630a2bdc333d","64076708a859b31faa62dde3","null","","null","","","","","","","","","","","","","","","","","","","fixation","",""
"","","","","","color-precision2","30","302896","0.0-10.0-1.5-0.5","602e030cc083e38fcb6b2b65","640759fa512f630a2bdc333d","64076708a859b31faa62dde3","[1603.099998474121]","","","[21]","[84]","84","214","290.82022172126506","[290.82022172126506]","[76.82022172126506]","[77]","0","0","1","0","146.93599999998696","1007.3449984741164","1000","[[[""img/mask41.png""]]]","","","main","214","color-precision2"
"","","","","","html-keyboard-response","31","303403","0.0-10.0-0.6","602e030cc083e38fcb6b2b65","640759fa512f630a2bdc333d","64076708a859b31faa62dde3","null","","null","","","","","","","","","","","","","","","","","","","fixation","",""
"","","","","","many-guess-6","32","307487","0.0-10.0-1.6-0.6","602e030cc083e38fcb6b2b65","640759fa512f630a2bdc333d","64076708a859b31faa62dde3","[2276.5]","","","[18,11,0,4,27,19,8,7,30,35,34,28,24,1,33,2,14,12,13,3,17,26,5,16,32,9,23,31,6,25,22,15,29,10,20,21]","[297,38,128,68,188,198,8,277,28,218,247,88,138,148,317,48,257,18,287,267,228,327,178,237,347,158,78,168,208,307,118,357,337,108,58,98]","297","4","174.35630732672985","[174.35630732672985]","[170.35630732672985]","[170]","[210,30,30,120,300,120,120,30,300]","0","36","0","148.6020000000135","11.802997711172793","16","[[[""img/mask71.png""],[""img/mask36.png""],[""img/mask100.png""],[""img/mask31.png""],[""img/mask51.png""],[""img/mask93.png""],[""img/mask90.png""],[""img/mask39.png""],[""img/mask74.png""],[""img/mask33.png""],[""img/mask6.png""],[""img/mask20.png""],[""img/mask58.png""],[""img/mask57.png""],[""img/mask99.png""],[""img/mask3.png""],[""img/mask57.png""],[""img/mask15.png""],[""img/mask44.png""],[""img/mask36.png""],[""img/mask24.png""],[""img/mask68.png""],[""img/mask29.png""],[""img/mask28.png""],[""img/mask21.png""],[""img/mask67.png""],[""img/mask40.png""],[""img/mask46.png""],[""img/mask9.png""],[""img/mask61.png""],[""img/mask31.png""],[""img/mask74.png""],[""img/mask22.png""],[""img/mask17.png""],[""img/mask57.png""],[""img/mask79.png""]]]","","[18,11,0,4,27,19,8,7,30,35,34,28,24,1,33,2,14,12,13,3,17,26,5,16,32,9,23,31,6,25,22,15,29,10,20,21]","main","4","many-guess-6"
"","","","","","html-keyboard-response","33","307998","0.0-10.0-0.7","602e030cc083e38fcb6b2b65","640759fa512f630a2bdc333d","64076708a859b31faa62dde3","null","","null","","","","","","","","","","","","","","","","","","","fixation","",""
"","","","","","color-precision2","34","311990","0.0-10.0-1.7-0.7","602e030cc083e38fcb6b2b65","640759fa512f630a2bdc333d","64076708a859b31faa62dde3","[1314.1999969482422]","","","[2]","[222]","222","300","161.91134297180434","[161.91134297180434]","[221.91134297180434]","[222]","0","0","1","0","148.25400000001537","1004.9229977111681","1000","[[[""img/mask88.png""]]]","","","main","300","color-precision2"
"","","","","","html-keyboard-response","35","312500","0.0-10.0-0.8","602e030cc083e38fcb6b2b65","640759fa512f630a2bdc333d","64076708a859b31faa62dde3","null","","null","","","","","","","","","","","","","","","","","","","fixation","",""
"","","","","","many-guess-6","36","317979","0.0-10.0-1.8-0.8","602e030cc083e38fcb6b2b65","640759fa512f630a2bdc333d","64076708a859b31faa62dde3","[2635.8999977111816]","","","[19,23,20,21,6,3,27,26,12,0,5,8,25,32,4,16,1,15,29,7,33,28,22,30,31,17,13,2,11,35,14,10,18,34,24,9]","[30,219,120,179,279,139,60,10,209,40,80,329,90,299,349,319,229,130,149,309,259,159,70,169,269,249,339,289,199,189,100,110,359,20,50,239]","30","328","237.58131018851202","[237.58131018851202]","[269.581310188512]","[270]","[210,120,120,30,120,30,300,30,120]","0","36","0","148.88299999997253","20.01199847413227","16","[[[""img/mask68.png""],[""img/mask42.png""],[""img/mask17.png""],[""img/mask11.png""],[""img/mask47.png""],[""img/mask2.png""],[""img/mask3.png""],[""img/mask62.png""],[""img/mask38.png""],[""img/mask73.png""],[""img/mask9.png""],[""img/mask47.png""],[""img/mask4.png""],[""img/mask54.png""],[""img/mask67.png""],[""img/mask39.png""],[""img/mask55.png""],[""img/mask12.png""],[""img/mask97.png""],[""img/mask44.png""],[""img/mask54.png""],[""img/mask1.png""],[""img/mask20.png""],[""img/mask17.png""],[""img/mask78.png""],[""img/mask14.png""],[""img/mask89.png""],[""img/mask41.png""],[""img/mask78.png""],[""img/mask15.png""],[""img/mask59.png""],[""img/mask49.png""],[""img/mask53.png""],[""img/mask5.png""],[""img/mask24.png""],[""img/mask38.png""]]]","","[19,23,20,21,6,3,27,26,12,0,5,8,25,32,4,16,1,15,29,7,33,28,22,30,31,17,13,2,11,35,14,10,18,34,24,9]","main","328","many-guess-6"
"","","","","","html-keyboard-response","37","318491","0.0-10.0-0.9","602e030cc083e38fcb6b2b65","640759fa512f630a2bdc333d","64076708a859b31faa62dde3","null","","null","","","","","","","","","","","","","","","","","","","fixation","",""
"","","","","","many-guess-6","38","324248","0.0-10.0-1.9-0.9","602e030cc083e38fcb6b2b65","640759fa512f630a2bdc333d","64076708a859b31faa62dde3","[4090]","","","[27,22,28,26,30,17,5,23,16,18,32,0,31,25,12,9,19,3,29,2,10,15,35,13,7,8,11,6,1,21,24,34,14,20,33,4]","[267,217,207,177,67,187,327,357,297,247,347,137,97,127,77,48,117,257,237,147,107,277,337,157,18,197,227,58,38,167,87,8,287,28,307,317]","267","58","38.03866054185299","[38.03866054185299]","[340.038660541853]","[339]","[210,30,120,120,210,210,120,30,120]","0","36","0","148.587999237061","23.145997711166274","16","[[[""img/mask52.png""],[""img/mask85.png""],[""img/mask81.png""],[""img/mask21.png""],[""img/mask35.png""],[""img/mask39.png""],[""img/mask59.png""],[""img/mask99.png""],[""img/mask14.png""],[""img/mask77.png""],[""img/mask9.png""],[""img/mask22.png""],[""img/mask42.png""],[""img/mask88.png""],[""img/mask85.png""],[""img/mask44.png""],[""img/mask59.png""],[""img/mask75.png""],[""img/mask10.png""],[""img/mask45.png""],[""img/mask8.png""],[""img/mask93.png""],[""img/mask33.png""],[""img/mask57.png""],[""img/mask74.png""],[""img/mask38.png""],[""img/mask22.png""],[""img/mask36.png""],[""img/mask1.png""],[""img/mask94.png""],[""img/mask63.png""],[""img/mask38.png""],[""img/mask81.png""],[""img/mask49.png""],[""img/mask37.png""],[""img/mask54.png""]]]","","[27,22,28,26,30,17,5,23,16,18,32,0,31,25,12,9,19,3,29,2,10,15,35,13,7,8,11,6,1,21,24,34,14,20,33,4]","main","58","many-guess-6"
"","","","","","html-keyboard-response","39","324749","0.0-10.0-0.10","602e030cc083e38fcb6b2b65","640759fa512f630a2bdc333d","64076708a859b31faa62dde3","null","","null","","","","","","","","","","","","","","","","","","","fixation","",""
"","","","","","many-guess-6","40","328772","0.0-10.0-1.10-0.10","602e030cc083e38fcb6b2b65","640759fa512f630a2bdc333d","64076708a859b31faa62dde3","[2264.5]","","","[22,30,4,35,18,3,17,20,32,28,7,26,8,6,25,10,24,33,16,31,9,13,12,11,5,2,23,14,0,21,29,15,34,1,27,19]","[351,182,291,152,221,132,261,2,62,191,12,52,72,22,102,201,32,281,211,82,341,271,122,172,142,162,42,92,311,251,301,331,321,241,231,112]","351","215","105.99011555967265","[105.99011555967265]","[250.99011555967263]","[249]","[30,300,120,300,30,120,120,300,120]","0","36","0","148.10699847410433","16.859998474130407","16","[[[""img/mask48.png""],[""img/mask87.png""],[""img/mask34.png""],[""img/mask82.png""],[""img/mask43.png""],[""img/mask94.png""],[""img/mask99.png""],[""img/mask15.png""],[""img/mask88.png""],[""img/mask64.png""],[""img/mask89.png""],[""img/mask13.png""],[""img/mask10.png""],[""img/mask43.png""],[""img/mask23.png""],[""img/mask98.png""],[""img/mask75.png""],[""img/mask66.png""],[""img/mask44.png""],[""img/mask57.png""],[""img/mask20.png""],[""img/mask44.png""],[""img/mask33.png""],[""img/mask54.png""],[""img/mask91.png""],[""img/mask48.png""],[""img/mask9.png""],[""img/mask96.png""],[""img/mask26.png""],[""img/mask94.png""],[""img/mask84.png""],[""img/mask24.png""],[""img/mask3.png""],[""img/mask8.png""],[""img/mask87.png""],[""img/mask13.png""]]]","","[22,30,4,35,18,3,17,20,32,28,7,26,8,6,25,10,24,33,16,31,9,13,12,11,5,2,23,14,0,21,29,15,34,1,27,19]","main","215","many-guess-6"
"","","","","","html-keyboard-response","41","329280","0.0-10.0-0.11","602e030cc083e38fcb6b2b65","640759fa512f630a2bdc333d","64076708a859b31faa62dde3","null","","null","","","","","","","","","","","","","","","","","","","fixation","",""
"","","","","","many-guess-6","42","333083","0.0-10.0-1.11-0.11","602e030cc083e38fcb6b2b65","640759fa512f630a2bdc333d","64076708a859b31faa62dde3","[2075.2999992370605]","","","[30,26,8,31,21,11,35,5,16,29,7,12,33,17,27,3,23,1,18,19,13,0,4,9,24,14,34,15,25,28,6,32,10,20,22,2]","[319,359,80,239,110,229,160,20,120,180,30,309,279,269,339,100,190,349,210,40,259,299,289,140,10,90,200,130,60,70,329,249,220,50,150,170]","319","50","193.2694346516987","[193.2694346516987]","[143.2694346516987]","[143]","[30,30,210,30,120,300,120,210,120]","0","36","0","148.64999847410945","23.37599999998929","16","[[[""img/mask81.png""],[""img/mask61.png""],[""img/mask46.png""],[""img/mask40.png""],[""img/mask24.png""],[""img/mask28.png""],[""img/mask51.png""],[""img/mask68.png""],[""img/mask92.png""],[""img/mask38.png""],[""img/mask14.png""],[""img/mask95.png""],[""img/mask91.png""],[""img/mask29.png""],[""img/mask87.png""],[""img/mask4.png""],[""img/mask11.png""],[""img/mask71.png""],[""img/mask19.png""],[""img/mask52.png""],[""img/mask28.png""],[""img/mask61.png""],[""img/mask89.png""],[""img/mask91.png""],[""img/mask37.png""],[""img/mask39.png""],[""img/mask69.png""],[""img/mask20.png""],[""img/mask32.png""],[""img/mask78.png""],[""img/mask37.png""],[""img/mask30.png""],[""img/mask2.png""],[""img/mask39.png""],[""img/mask25.png""],[""img/mask69.png""]]]","","[30,26,8,31,21,11,35,5,16,29,7,12,33,17,27,3,23,1,18,19,13,0,4,9,24,14,34,15,25,28,6,32,10,20,22,2]","main","50","many-guess-6"
"","","","","","html-keyboard-response","43","333594","0.0-10.0-0.12","602e030cc083e38fcb6b2b65","640759fa512f630a2bdc333d","64076708a859b31faa62dde3","null","","null","","","","","","","","","","","","","","","","","","","fixation","",""
"","","","","","many-guess-6","44","337554","0.0-10.0-1.12-0.12","602e030cc083e38fcb6b2b65","640759fa512f630a2bdc333d","64076708a859b31faa62dde3","[2162.7000007629395]","","","[24,27,25,9,34,35,11,10,12,28,33,5,31,15,6,14,18,2,4,19,20,26,30,16,0,22,17,32,7,29,21,23,8,1,3,13]","[334,294,105,304,175,274,15,314,185,214,324,135,55,204,75,65,244,5,145,254,115,85,125,45,95,284,354,155,25,344,234,165,35,224,195,264]","334","45","317.3111812679093","[317.3111812679093]","[272.3111812679093]","[272]","[300,30,120,30,30,210,210,30,120]","0","36","0","147.05699847411597","13.57199771120213","16","[[[""img/mask59.png""],[""img/mask71.png""],[""img/mask94.png""],[""img/mask18.png""],[""img/mask97.png""],[""img/mask12.png""],[""img/mask29.png""],[""img/mask48.png""],[""img/mask1.png""],[""img/mask72.png""],[""img/mask48.png""],[""img/mask6.png""],[""img/mask25.png""],[""img/mask9.png""],[""img/mask73.png""],[""img/mask11.png""],[""img/mask15.png""],[""img/mask41.png""],[""img/mask17.png""],[""img/mask40.png""],[""img/mask72.png""],[""img/mask31.png""],[""img/mask84.png""],[""img/mask8.png""],[""img/mask56.png""],[""img/mask74.png""],[""img/mask11.png""],[""img/mask63.png""],[""img/mask32.png""],[""img/mask92.png""],[""img/mask51.png""],[""img/mask45.png""],[""img/mask42.png""],[""img/mask90.png""],[""img/mask57.png""],[""img/mask76.png""]]]","","[24,27,25,9,34,35,11,10,12,28,33,5,31,15,6,14,18,2,4,19,20,26,30,16,0,22,17,32,7,29,21,23,8,1,3,13]","main","45","many-guess-6"
"","","","","","html-keyboard-response","45","338056","0.0-10.0-0.13","602e030cc083e38fcb6b2b65","640759fa512f630a2bdc333d","64076708a859b31faa62dde3","null","","null","","","","","","","","","","","","","","","","","","","fixation","",""
"","","","","","many-guess-6","46","342681","0.0-10.0-1.13-0.13","602e030cc083e38fcb6b2b65","640759fa512f630a2bdc333d","64076708a859b31faa62dde3","[2339.2000007629395]","","","[27,31,18,35,0,2,14,25,26,1,12,20,21,19,22,7,5,8,15,4,23,34,28,16,24,6,13,17,29,30,9,32,33,3,10,11]","[107,257,297,247,37,177,97,267,357,57,307,237,47,187,147,337,227,137,127,87,18,327,117,277,167,217,347,207,8,28,67,77,157,197,287,317]","107","176","194.0873442626793","[194.0873442626793]","[18.087344262679295]","[17]","[120,210,30,210,210,300,300,120,30]","0","36","0","149.39200076292036","12.746999237046111","16","[[[""img/mask86.png""],[""img/mask98.png""],[""img/mask9.png""],[""img/mask49.png""],[""img/mask44.png""],[""img/mask63.png""],[""img/mask37.png""],[""img/mask88.png""],[""img/mask14.png""],[""img/mask35.png""],[""img/mask80.png""],[""img/mask95.png""],[""img/mask56.png""],[""img/mask26.png""],[""img/mask99.png""],[""img/mask39.png""],[""img/mask53.png""],[""img/mask12.png""],[""img/mask66.png""],[""img/mask90.png""],[""img/mask4.png""],[""img/mask57.png""],[""img/mask13.png""],[""img/mask92.png""],[""img/mask24.png""],[""img/mask55.png""],[""img/mask17.png""],[""img/mask35.png""],[""img/mask36.png""],[""img/mask7.png""],[""img/mask17.png""],[""img/mask40.png""],[""img/mask28.png""],[""img/mask91.png""],[""img/mask1.png""],[""img/mask2.png""]]]","","[27,31,18,35,0,2,14,25,26,1,12,20,21,19,22,7,5,8,15,4,23,34,28,16,24,6,13,17,29,30,9,32,33,3,10,11]","main","176","many-guess-6"
"","","","","","html-keyboard-response","47","343182","0.0-10.0-0.14","602e030cc083e38fcb6b2b65","640759fa512f630a2bdc333d","64076708a859b31faa62dde3","null","","null","","","","","","","","","","","","","","","","","","","fixation","",""
"","","","","","color-precision2","48","347809","0.0-10.0-1.14-0.14","602e030cc083e38fcb6b2b65","640759fa512f630a2bdc333d","64076708a859b31faa62dde3","[1983.400001525879]","","","[25]","[12]","12","114","124.06800032833888","[124.06800032833888]","[10.068000328338883]","[8]","0","0","1","0","145.9619984741439","1005.4099992370466","1000","[[[""img/mask1.png""]]]","","","main","114","color-precision2"
"","","","","","html-keyboard-response","49","348310","0.0-10.0-0.15","602e030cc083e38fcb6b2b65","640759fa512f630a2bdc333d","64076708a859b31faa62dde3","null","","null","","","","","","","","","","","","","","","","","","","fixation","",""
"","","","","","color-precision2","50","352504","0.0-10.0-1.15-0.15","602e030cc083e38fcb6b2b65","640759fa512f630a2bdc333d","64076708a859b31faa62dde3","[1511.3999977111816]","","","[7]","[257]","257","151","55.12282110034987","[55.12282110034987]","[264.1228211003499]","[263]","0","0","1","0","147.73100076295668","1008.3129992370377","1000","[[[""img/mask100.png""]]]","","","main","151","color-precision2"
"","","","","","html-keyboard-response","51","353005","0.0-10.0-0.16","602e030cc083e38fcb6b2b65","640759fa512f630a2bdc333d","64076708a859b31faa62dde3","null","","null","","","","","","","","","","","","","","","","","","","fixation","",""
"","","","","","many-guess-6","52","357318","0.0-10.0-1.16-0.16","602e030cc083e38fcb6b2b65","640759fa512f630a2bdc333d","64076708a859b31faa62dde3","[2676.8999977111816]","","","[24,20,0,28,25,35,34,6,18,11,14,33,12,23,4,3,17,27,26,22,5,1,13,19,16,30,29,15,21,9,10,32,31,2,7,8]","[139,109,89,129,9,169,19,39,348,79,338,209,318,49,59,268,99,219,199,308,288,189,69,298,358,29,229,259,159,149,278,328,119,179,249,239]","139","251","3.7773237491161926","[3.7773237491161926]","[112.77732374911619]","[112]","[210,300,120,120,300,210,210,30,300]","0","36","0","148.73300076293526","20.372997711179778","16","[[[""img/mask98.png""],[""img/mask17.png""],[""img/mask7.png""],[""img/mask46.png""],[""img/mask70.png""],[""img/mask2.png""],[""img/mask32.png""],[""img/mask86.png""],[""img/mask48.png""],[""img/mask51.png""],[""img/mask88.png""],[""img/mask45.png""],[""img/mask66.png""],[""img/mask18.png""],[""img/mask30.png""],[""img/mask11.png""],[""img/mask36.png""],[""img/mask53.png""],[""img/mask94.png""],[""img/mask83.png""],[""img/mask47.png""],[""img/mask68.png""],[""img/mask48.png""],[""img/mask51.png""],[""img/mask74.png""],[""img/mask59.png""],[""img/mask93.png""],[""img/mask10.png""],[""img/mask4.png""],[""img/mask77.png""],[""img/mask14.png""],[""img/mask73.png""],[""img/mask95.png""],[""img/mask74.png""],[""img/mask7.png""],[""img/mask79.png""]]]","","[24,20,0,28,25,35,34,6,18,11,14,33,12,23,4,3,17,27,26,22,5,1,13,19,16,30,29,15,21,9,10,32,31,2,7,8]","main","251","many-guess-6"
"","","","","","html-keyboard-response","53","357823","0.0-10.0-0.17","602e030cc083e38fcb6b2b65","640759fa512f630a2bdc333d","64076708a859b31faa62dde3","null","","null","","","","","","","","","","","","","","","","","","","fixation","",""
"","","","","","color-precision2","54","363708","0.0-10.0-1.17-0.17","602e030cc083e38fcb6b2b65","640759fa512f630a2bdc333d","64076708a859b31faa62dde3","[1033.099998474121]","","","[11]","[290]","290","39","315.81504273106964","[315.81504273106964]","[276.81504273106964]","[277]","0","0","1","0","149.32099999999627","1005.9399984741467","1000","[[[""img/mask52.png""]]]","","","main","39","color-precision2"
"","","","","","html-keyboard-response","55","364214","0.0-10.0-0.18","602e030cc083e38fcb6b2b65","640759fa512f630a2bdc333d","64076708a859b31faa62dde3","null","","null","","","","","","","","","","","","","","","","","","","fixation","",""
"","","","","","many-guess-6","56","372811","0.0-10.0-1.18-0.18","602e030cc083e38fcb6b2b65","640759fa512f630a2bdc333d","64076708a859b31faa62dde3","[1718.6999969482422]","","","[20,28,0,33,21,29,7,18,23,31,14,15,34,11,5,22,2,12,13,4,16,6,24,25,26,19,1,35,9,10,8,27,32,30,3,17]","[237,47,167,347,27,277,87,37,137,227,177,147,117,287,297,107,8,247,267,307,317,127,97,207,57,217,257,327,67,18,357,77,157,337,197,187]","237","36","262.8490329540308","[262.8490329540308]","[226.8490329540308]","[227]","[120,120,300,120,30,120,30,30,300]","0","36","0","148.55999923706986","23.628999237087555","16","[[[""img/mask18.png""],[""img/mask4.png""],[""img/mask9.png""],[""img/mask33.png""],[""img/mask97.png""],[""img/mask18.png""],[""img/mask27.png""],[""img/mask77.png""],[""img/mask69.png""],[""img/mask89.png""],[""img/mask56.png""],[""img/mask15.png""],[""img/mask52.png""],[""img/mask92.png""],[""img/mask90.png""],[""img/mask33.png""],[""img/mask39.png""],[""img/mask74.png""],[""img/mask63.png""],[""img/mask34.png""],[""img/mask28.png""],[""img/mask80.png""],[""img/mask36.png""],[""img/mask82.png""],[""img/mask86.png""],[""img/mask60.png""],[""img/mask86.png""],[""img/mask85.png""],[""img/mask32.png""],[""img/mask33.png""],[""img/mask85.png""],[""img/mask19.png""],[""img/mask27.png""],[""img/mask24.png""],[""img/mask91.png""],[""img/mask13.png""]]]","","[20,28,0,33,21,29,7,18,23,31,14,15,34,11,5,22,2,12,13,4,16,6,24,25,26,19,1,35,9,10,8,27,32,30,3,17]","main","36","many-guess-6"
"","","","","","html-keyboard-response","57","375851","0.0-10.0-0.19","602e030cc083e38fcb6b2b65","640759fa512f630a2bdc333d","64076708a859b31faa62dde3","3039.6000022888184","Wow! You've completed 20 out of 180 trials! </p> <p>  </p><p> Take a quick break, then press any key when you're ready to continue."," ","","","","","","","","","","","","","","","","","","","fixation","",""
"","","","","","many-guess-6","58","380747","0.0-10.0-1.19-0.19","602e030cc083e38fcb6b2b65","640759fa512f630a2bdc333d","64076708a859b31faa62dde3","[2443]","","","[32,1,0,22,21,14,4,34,26,28,19,5,31,18,7,2,24,12,8,20,27,33,3,30,29,11,25,15,16,23,9,13,6,10,35,17]","[247,237,77,97,7,37,316,197,227,356,87,326,17,277,147,306,157,27,67,286,267,217,346,57,167,47,177,127,107,207,336,257,137,187,117,296]","247","118","155.79505195790298","[155.79505195790298]","[37.795051957902984]","[36]","[300,210,120,210,210,210,30,300,120]","0","36","0","148.6130000000121","12.643997711187694","16","[[[""img/mask95.png""],[""img/mask41.png""],[""img/mask54.png""],[""img/mask11.png""],[""img/mask7.png""],[""img/mask74.png""],[""img/mask94.png""],[""img/mask42.png""],[""img/mask85.png""],[""img/mask54.png""],[""img/mask75.png""],[""img/mask100.png""],[""img/mask31.png""],[""img/mask1.png""],[""img/mask32.png""],[""img/mask76.png""],[""img/mask27.png""],[""img/mask69.png""],[""img/mask54.png""],[""img/mask35.png""],[""img/mask5.png""],[""img/mask82.png""],[""img/mask100.png""],[""img/mask84.png""],[""img/mask7.png""],[""img/mask61.png""],[""img/mask53.png""],[""img/mask100.png""],[""img/mask19.png""],[""img/mask16.png""],[""img/mask58.png""],[""img/mask24.png""],[""img/mask22.png""],[""img/mask52.png""],[""img/mask86.png""],[""img/mask100.png""]]]","","[32,1,0,22,21,14,4,34,26,28,19,5,31,18,7,2,24,12,8,20,27,33,3,30,29,11,25,15,16,23,9,13,6,10,35,17]","main","118","many-guess-6"
"","","","","","html-keyboard-response","59","381252","0.0-10.0-0.20","602e030cc083e38fcb6b2b65","640759fa512f630a2bdc333d","64076708a859b31faa62dde3","null","","null","","","","","","","","","","","","","","","","","","","fixation","",""
"","","","","","color-precision2","60","384649","0.0-10.0-1.20-0.20","602e030cc083e38fcb6b2b65","640759fa512f630a2bdc333d","64076708a859b31faa62dde3","[742.6000022888184]","","","[1]","[193]","193","349","180.4918238553249","[180.4918238553249]","[191.4918238553249]","[191]","0","0","1","0","146.75600076292176","1005.8089984740946","1000","[[[""img/mask90.png""]]]","","","main","349","color-precision2"
"","","","","","html-keyboard-response","61","385155","0.0-10.0-0.21","602e030cc083e38fcb6b2b65","640759fa512f630a2bdc333d","64076708a859b31faa62dde3","null","","null","","","","","","","","","","","","","","","","","","","fixation","",""
"","","","","","color-precision2","62","389648","0.0-10.0-1.21-0.21","602e030cc083e38fcb6b2b65","640759fa512f630a2bdc333d","64076708a859b31faa62dde3","[1726.1000022888184]","","","[7]","[193]","193","151","327.4481749956329","[327.4481749956329]","[176.44817499563288]","[176]","0","0","1","0","148.52399923704797","1005.9060000000172","1000","[[[""img/mask41.png""]]]","","","main","151","color-precision2"
"","","","","","html-keyboard-response","63","390153","0.0-10.0-0.22","602e030cc083e38fcb6b2b65","640759fa512f630a2bdc333d","64076708a859b31faa62dde3","null","","null","","","","","","","","","","","","","","","","","","","fixation","",""
"","","","","","many-guess-6","64","394752","0.0-10.0-1.22-0.22","602e030cc083e38fcb6b2b65","640759fa512f630a2bdc333d","64076708a859b31faa62dde3","[2931.7000007629395]","","","[14,35,26,6,16,25,9,24,30,17,7,4,3,19,20,18,15,5,0,31,32,12,13,29,21,27,11,28,8,1,34,23,10,33,22,2]","[25,15,295,95,45,255,175,155,314,105,235,195,334,225,75,85,65,215,115,165,55,265,5,275,324,35,145,304,185,245,125,344,205,285,354,135]","25","335","256.2029311954987","[256.2029311954987]","[281.2029311954987]","[281]","[300,300,30,210,30,300,210,120,30]","0","36","0","148.64700076292502","9.347997711156495","16","[[[""img/mask46.png""],[""img/mask81.png""],[""img/mask8.png""],[""img/mask50.png""],[""img/mask18.png""],[""img/mask54.png""],[""img/mask38.png""],[""img/mask38.png""],[""img/mask38.png""],[""img/mask16.png""],[""img/mask45.png""],[""img/mask16.png""],[""img/mask81.png""],[""img/mask63.png""],[""img/mask53.png""],[""img/mask39.png""],[""img/mask40.png""],[""img/mask28.png""],[""img/mask25.png""],[""img/mask89.png""],[""img/mask98.png""],[""img/mask52.png""],[""img/mask86.png""],[""img/mask36.png""],[""img/mask32.png""],[""img/mask89.png""],[""img/mask81.png""],[""img/mask12.png""],[""img/mask34.png""],[""img/mask31.png""],[""img/mask65.png""],[""img/mask5.png""],[""img/mask54.png""],[""img/mask18.png""],[""img/mask55.png""],[""img/mask69.png""]]]","","[14,35,26,6,16,25,9,24,30,17,7,4,3,19,20,18,15,5,0,31,32,12,13,29,21,27,11,28,8,1,34,23,10,33,22,2]","main","335","many-guess-6"
"","","","","","html-keyboard-response","65","395261","0.0-10.0-0.23","602e030cc083e38fcb6b2b65","640759fa512f630a2bdc333d","64076708a859b31faa62dde3","null","","null","","","","","","","","","","","","","","","","","","","fixation","",""
"","","","","","many-guess-6","66","399120","0.0-10.0-1.23-0.23","602e030cc083e38fcb6b2b65","640759fa512f630a2bdc333d","64076708a859b31faa62dde3","[2149.3999977111816]","","","[30,2,9,3,17,10,16,22,34,15,21,7,28,6,12,31,20,27,35,25,5,23,18,33,26,11,1,0,24,4,8,32,13,19,14,29]","[62,122,12,331,301,241,231,161,181,211,251,271,72,191,221,2,52,132,42,341,261,311,92,82,112,102,32,321,281,201,22,171,351,152,142,291]","62","177","101.62800306669298","[101.62800306669298]","[284.628003066693]","[283]","[30,210,30,300,120,120,120,210,30]","0","36","0","148.73999923706288","20.84099771117326","16","[[[""img/mask76.png""],[""img/mask57.png""],[""img/mask88.png""],[""img/mask50.png""],[""img/mask82.png""],[""img/mask39.png""],[""img/mask75.png""],[""img/mask53.png""],[""img/mask79.png""],[""img/mask52.png""],[""img/mask78.png""],[""img/mask32.png""],[""img/mask100.png""],[""img/mask46.png""],[""img/mask99.png""],[""img/mask75.png""],[""img/mask75.png""],[""img/mask22.png""],[""img/mask62.png""],[""img/mask8.png""],[""img/mask54.png""],[""img/mask15.png""],[""img/mask45.png""],[""img/mask8.png""],[""img/mask66.png""],[""img/mask14.png""],[""img/mask32.png""],[""img/mask30.png""],[""img/mask33.png""],[""img/mask70.png""],[""img/mask23.png""],[""img/mask54.png""],[""img/mask73.png""],[""img/mask9.png""],[""img/mask62.png""],[""img/mask70.png""]]]","","[30,2,9,3,17,10,16,22,34,15,21,7,28,6,12,31,20,27,35,25,5,23,18,33,26,11,1,0,24,4,8,32,13,19,14,29]","main","177","many-guess-6"
"","","","","","html-keyboard-response","67","399623","0.0-10.0-0.24","602e030cc083e38fcb6b2b65","640759fa512f630a2bdc333d","64076708a859b31faa62dde3","null","","null","","","","","","","","","","","","","","","","","","","fixation","",""
"","","","","","color-precision2","68","403161","0.0-10.0-1.24-0.24","602e030cc083e38fcb6b2b65","640759fa512f630a2bdc333d","64076708a859b31faa62dde3","[990]","","","[12]","[301]","301","140","79.60979098345436","[79.60979098345436]","[299.60979098345433]","[298]","0","0","1","0","147.56299923703773","1007.8219999999856","1000","[[[""img/mask80.png""]]]","","","main","140","color-precision2"
"","","","","","html-keyboard-response","69","403671","0.0-10.0-0.25","602e030cc083e38fcb6b2b65","640759fa512f630a2bdc333d","64076708a859b31faa62dde3","null","","null","","","","","","","","","","","","","","","","","","","fixation","",""
"","","","","","many-guess-6","70","407998","0.0-10.0-1.25-0.25","602e030cc083e38fcb6b2b65","640759fa512f630a2bdc333d","64076708a859b31faa62dde3","[2443.900001525879]","","","[0,32,2,34,26,10,20,31,6,12,3,13,29,1,16,23,35,24,14,22,27,5,17,15,30,11,25,9,28,33,18,21,8,19,7,4]","[37,127,216,7,177,196,157,246,107,226,47,167,336,236,256,17,296,87,346,137,186,97,286,266,326,117,67,276,57,306,27,356,316,77,147,206]","37","62","326.3774353167502","[326.3774353167502]","[264.3774353167502]","[264]","[210,300,210,210,210,210,300,120,30]","0","36","0","148.5549984741374","15.795999999972992","16","[[[""img/mask49.png""],[""img/mask31.png""],[""img/mask35.png""],[""img/mask12.png""],[""img/mask60.png""],[""img/mask29.png""],[""img/mask21.png""],[""img/mask21.png""],[""img/mask61.png""],[""img/mask100.png""],[""img/mask91.png""],[""img/mask75.png""],[""img/mask76.png""],[""img/mask50.png""],[""img/mask6.png""],[""img/mask94.png""],[""img/mask60.png""],[""img/mask99.png""],[""img/mask96.png""],[""img/mask79.png""],[""img/mask98.png""],[""img/mask13.png""],[""img/mask24.png""],[""img/mask39.png""],[""img/mask42.png""],[""img/mask17.png""],[""img/mask54.png""],[""img/mask4.png""],[""img/mask83.png""],[""img/mask60.png""],[""img/mask37.png""],[""img/mask7.png""],[""img/mask21.png""],[""img/mask60.png""],[""img/mask78.png""],[""img/mask20.png""]]]","","[0,32,2,34,26,10,20,31,6,12,3,13,29,1,16,23,35,24,14,22,27,5,17,15,30,11,25,9,28,33,18,21,8,19,7,4]","main","62","many-guess-6"
"","","","","","html-keyboard-response","71","408511","0.0-10.0-0.26","602e030cc083e38fcb6b2b65","640759fa512f630a2bdc333d","64076708a859b31faa62dde3","null","","null","","","","","","","","","","","","","","","","","","","fixation","",""
"","","","","","many-guess-6","72","412434","0.0-10.0-1.26-0.26","602e030cc083e38fcb6b2b65","640759fa512f630a2bdc333d","64076708a859b31faa62dde3","[1896.599998474121]","","","[7,1,8,31,17,13,28,5,33,11,18,35,34,10,24,22,0,9,21,14,30,23,6,3,2,26,20,27,16,4,15,32,29,25,19,12]","[208,287,357,347,108,247,307,277,297,8,198,128,267,88,98,317,28,158,218,257,138,118,188,178,327,68,168,337,38,228,148,238,58,18,48,78]","208","20","199.41343842711623","[199.41343842711623]","[179.41343842711623]","[179]","[120,210,30,120,30,210,210,120,30]","0","36","0","148.96499847411178","16.791000000026543","16","[[[""img/mask11.png""],[""img/mask15.png""],[""img/mask12.png""],[""img/mask34.png""],[""img/mask48.png""],[""img/mask33.png""],[""img/mask66.png""],[""img/mask65.png""],[""img/mask88.png""],[""img/mask27.png""],[""img/mask50.png""],[""img/mask13.png""],[""img/mask71.png""],[""img/mask26.png""],[""img/mask96.png""],[""img/mask92.png""],[""img/mask66.png""],[""img/mask53.png""],[""img/mask55.png""],[""img/mask27.png""],[""img/mask12.png""],[""img/mask60.png""],[""img/mask94.png""],[""img/mask12.png""],[""img/mask70.png""],[""img/mask23.png""],[""img/mask48.png""],[""img/mask29.png""],[""img/mask32.png""],[""img/mask41.png""],[""img/mask13.png""],[""img/mask73.png""],[""img/mask46.png""],[""img/mask14.png""],[""img/mask33.png""],[""img/mask21.png""]]]","","[7,1,8,31,17,13,28,5,33,11,18,35,34,10,24,22,0,9,21,14,30,23,6,3,2,26,20,27,16,4,15,32,29,25,19,12]","main","20","many-guess-6"
"","","","","","html-keyboard-response","73","412940","0.0-10.0-0.27","602e030cc083e38fcb6b2b65","640759fa512f630a2bdc333d","64076708a859b31faa62dde3","null","","null","","","","","","","","","","","","","","","","","","","fixation","",""
"","","","","","color-precision2","74","417895","0.0-10.0-1.27-0.27","602e030cc083e38fcb6b2b65","640759fa512f630a2bdc333d","64076708a859b31faa62dde3","[1424.2999992370605]","","","[12]","[297]","297","170","110.78359901709734","[110.78359901709734]","[300.78359901709734]","[299]","0","0","1","0","147.23599999997532","1003.3139992370852","1000","[[[""img/mask61.png""]]]","","","main","170","color-precision2"
"","","","","","html-keyboard-response","75","418405","0.0-10.0-0.28","602e030cc083e38fcb6b2b65","640759fa512f630a2bdc333d","64076708a859b31faa62dde3","null","","null","","","","","","","","","","","","","","","","","","","fixation","",""
"","","","","","color-precision2","76","422173","0.0-10.0-1.28-0.28","602e030cc083e38fcb6b2b65","640759fa512f630a2bdc333d","64076708a859b31faa62dde3","[1083.900001525879]","","","[1]","[331]","331","246","218.1784585835804","[218.1784585835804]","[332.17845858358044]","[332]","0","0","1","0","148.56200076296227","999.8430007629213","1000","[[[""img/mask66.png""]]]","","","main","246","color-precision2"
"","","","","","html-keyboard-response","77","422690","0.0-10.0-0.29","602e030cc083e38fcb6b2b65","640759fa512f630a2bdc333d","64076708a859b31faa62dde3","null","","null","","","","","","","","","","","","","","","","","","","fixation","",""
"","","","","","color-precision2","78","426861","0.0-10.0-1.29-0.29","602e030cc083e38fcb6b2b65","640759fa512f630a2bdc333d","64076708a859b31faa62dde3","[1640.1999969482422]","","","[25]","[308]","308","157","113.38198602461635","[113.38198602461635]","[316.38198602461637]","[314]","0","0","1","0","148.03899847413413","993.5560007629683","1000","[[[""img/mask56.png""]]]","","","main","157","color-precision2"
"","","","","","html-keyboard-response","79","427370","0.0-10.0-0.30","602e030cc083e38fcb6b2b65","640759fa512f630a2bdc333d","64076708a859b31faa62dde3","null","","null","","","","","","","","","","","","","","","","","","","fixation","",""
"","","","","","color-precision2","80","430798","0.0-10.0-1.30-0.30","602e030cc083e38fcb6b2b65","640759fa512f630a2bdc333d","64076708a859b31faa62dde3","[709.4000015258789]","","","[16]","[87]","87","270","355.24635926246225","[355.24635926246225]","[85.24635926246225]","[85]","0","0","1","0","147.04699923703447","994.973997711204","1000","[[[""img/mask82.png""]]]","","","main","270","color-precision2"
"","","","","","html-keyboard-response","81","431303","0.0-10.0-0.31","602e030cc083e38fcb6b2b65","640759fa512f630a2bdc333d","64076708a859b31faa62dde3","null","","null","","","","","","","","","","","","","","","","","","","fixation","",""
"","","","","","many-guess-6","82","435426","0.0-10.0-1.31-0.31","602e030cc083e38fcb6b2b65","640759fa512f630a2bdc333d","64076708a859b31faa62dde3","[2438.099998474121]","","","[18,32,13,4,33,2,8,24,17,30,25,3,22,29,19,6,26,31,5,27,1,16,11,0,7,34,14,20,9,21,10,28,35,15,12,23]","[4,283,223,34,104,94,164,74,173,24,64,203,183,263,233,333,193,84,303,154,134,353,14,323,253,213,243,114,273,313,293,144,343,124,44,54]","4","80","270.94696956321457","[270.94696956321457]","[190.94696956321457]","[191]","[300,120,210,300,210,30,120,210,120]","0","36","0","148.83300076291198","13.794999999983702","16","[[[""img/mask44.png""],[""img/mask82.png""],[""img/mask16.png""],[""img/mask42.png""],[""img/mask32.png""],[""img/mask38.png""],[""img/mask64.png""],[""img/mask52.png""],[""img/mask50.png""],[""img/mask38.png""],[""img/mask80.png""],[""img/mask92.png""],[""img/mask11.png""],[""img/mask16.png""],[""img/mask63.png""],[""img/mask30.png""],[""img/mask63.png""],[""img/mask31.png""],[""img/mask32.png""],[""img/mask52.png""],[""img/mask24.png""],[""img/mask15.png""],[""img/mask70.png""],[""img/mask37.png""],[""img/mask16.png""],[""img/mask6.png""],[""img/mask2.png""],[""img/mask87.png""],[""img/mask52.png""],[""img/mask92.png""],[""img/mask48.png""],[""img/mask28.png""],[""img/mask42.png""],[""img/mask52.png""],[""img/mask48.png""],[""img/mask6.png""]]]","","[18,32,13,4,33,2,8,24,17,30,25,3,22,29,19,6,26,31,5,27,1,16,11,0,7,34,14,20,9,21,10,28,35,15,12,23]","main","80","many-guess-6"
"","","","","","html-keyboard-response","83","435929","0.0-10.0-0.32","602e030cc083e38fcb6b2b65","640759fa512f630a2bdc333d","64076708a859b31faa62dde3","null","","null","","","","","","","","","","","","","","","","","","","fixation","",""
"","","","","","many-guess-6","84","441244","0.0-10.0-1.32-0.32","602e030cc083e38fcb6b2b65","640759fa512f630a2bdc333d","64076708a859b31faa62dde3","[3765.5]","","","[8,1,15,26,6,19,27,20,29,16,22,24,13,0,31,33,34,4,28,11,12,3,17,10,14,5,9,25,32,2,23,35,18,21,30,7]","[13,312,83,242,73,332,272,3,182,172,152,232,143,292,202,123,212,222,322,113,252,93,43,302,342,33,23,162,262,53,352,63,282,192,133,103]","13","1","311.1880951310612","[311.1880951310612]","[310.1880951310612]","[311]","[210,30,210,210,120,120,120,120,120]","0","36","0","148.71500076295342","23.79599999997299","16","[[[""img/mask93.png""],[""img/mask44.png""],[""img/mask56.png""],[""img/mask16.png""],[""img/mask53.png""],[""img/mask62.png""],[""img/mask26.png""],[""img/mask25.png""],[""img/mask55.png""],[""img/mask28.png""],[""img/mask82.png""],[""img/mask59.png""],[""img/mask69.png""],[""img/mask15.png""],[""img/mask59.png""],[""img/mask7.png""],[""img/mask64.png""],[""img/mask75.png""],[""img/mask18.png""],[""img/mask45.png""],[""img/mask72.png""],[""img/mask5.png""],[""img/mask17.png""],[""img/mask4.png""],[""img/mask32.png""],[""img/mask74.png""],[""img/mask33.png""],[""img/mask74.png""],[""img/mask36.png""],[""img/mask79.png""],[""img/mask29.png""],[""img/mask19.png""],[""img/mask61.png""],[""img/mask93.png""],[""img/mask8.png""],[""img/mask54.png""]]]","","[8,1,15,26,6,19,27,20,29,16,22,24,13,0,31,33,34,4,28,11,12,3,17,10,14,5,9,25,32,2,23,35,18,21,30,7]","main","1","many-guess-6"
"","","","","","html-keyboard-response","85","441746","0.0-10.0-0.33","602e030cc083e38fcb6b2b65","640759fa512f630a2bdc333d","64076708a859b31faa62dde3","null","","null","","","","","","","","","","","","","","","","","","","fixation","",""
"","","","","","color-precision2","86","446451","0.0-10.0-1.33-0.33","602e030cc083e38fcb6b2b65","640759fa512f630a2bdc333d","64076708a859b31faa62dde3","[1039.5]","","","[28]","[228]","228","85","309.8198770145836","[309.8198770145836]","[224.8198770145836]","[225]","0","0","1","0","148.64599771116627","1002.9359992370591","1000","[[[""img/mask60.png""]]]","","","main","85","color-precision2"
"","","","","","html-keyboard-response","87","446958","0.0-10.0-0.34","602e030cc083e38fcb6b2b65","640759fa512f630a2bdc333d","64076708a859b31faa62dde3","null","","null","","","","","","","","","","","","","","","","","","","fixation","",""
"","","","","","color-precision2","88","451265","0.0-10.0-1.34-0.34","602e030cc083e38fcb6b2b65","640759fa512f630a2bdc333d","64076708a859b31faa62dde3","[1170.400001525879]","","","[33]","[198]","198","229","72.71321269866631","[72.71321269866631]","[203.71321269866633]","[202]","0","0","1","0","147.09399923705496","993.4049977111863","1000","[[[""img/mask41.png""]]]","","","main","229","color-precision2"
"","","","","","html-keyboard-response","89","451768","0.0-10.0-0.35","602e030cc083e38fcb6b2b65","640759fa512f630a2bdc333d","64076708a859b31faa62dde3","null","","null","","","","","","","","","","","","","","","","","","","fixation","",""
"","","","","","color-precision2","90","455440","0.0-10.0-1.35-0.35","602e030cc083e38fcb6b2b65","640759fa512f630a2bdc333d","64076708a859b31faa62dde3","[1046]","","","[22]","[254]","254","207","115.81907092186049","[115.81907092186049]","[268.8190709218605]","[267]","0","0","1","0","146.39000000001397","1000.3940007629571","1000","[[[""img/mask22.png""]]]","","","main","207","color-precision2"
"","","","","","html-keyboard-response","91","455943","0.0-10.0-0.36","602e030cc083e38fcb6b2b65","640759fa512f630a2bdc333d","64076708a859b31faa62dde3","null","","null","","","","","","","","","","","","","","","","","","","fixation","",""
"","","","","","color-precision2","92","460202","0.0-10.0-1.36-0.36","602e030cc083e38fcb6b2b65","640759fa512f630a2bdc333d","64076708a859b31faa62dde3","[1623.2999992370605]","","","[4]","[41]","41","323","354.90274980430144","[354.90274980430144]","[31.902749804301436]","[31]","0","0","1","0","147.63899771118304","994.7299999999814","1000","[[[""img/mask55.png""]]]","","","main","323","color-precision2"
"","","","","","html-keyboard-response","93","460706","0.0-10.0-0.37","602e030cc083e38fcb6b2b65","640759fa512f630a2bdc333d","64076708a859b31faa62dde3","null","","null","","","","","","","","","","","","","","","","","","","fixation","",""
"","","","","","many-guess-6","94","464482","0.0-10.0-1.37-0.37","602e030cc083e38fcb6b2b65","640759fa512f630a2bdc333d","64076708a859b31faa62dde3","[2054.5]","","","[35,31,21,4,30,25,8,9,5,32,15,24,33,6,16,29,20,19,27,0,7,26,14,23,13,10,22,17,2,1,3,28,11,34,18,12]","[247,307,147,67,107,47,177,117,207,257,7,127,237,187,27,287,227,316,37,167,217,137,277,297,87,17,346,57,97,267,157,356,336,197,326,77]","247","167","290.7159661788292","[290.7159661788292]","[123.7159661788292]","[124]","[210,120,120,300,300,30,120,30,30]","0","36","0","147.55999847414205","27.045000762911513","16","[[[""img/mask5.png""],[""img/mask1.png""],[""img/mask8.png""],[""img/mask24.png""],[""img/mask9.png""],[""img/mask58.png""],[""img/mask31.png""],[""img/mask19.png""],[""img/mask68.png""],[""img/mask79.png""],[""img/mask38.png""],[""img/mask76.png""],[""img/mask91.png""],[""img/mask6.png""],[""img/mask33.png""],[""img/mask24.png""],[""img/mask85.png""],[""img/mask36.png""],[""img/mask79.png""],[""img/mask37.png""],[""img/mask90.png""],[""img/mask25.png""],[""img/mask82.png""],[""img/mask41.png""],[""img/mask96.png""],[""img/mask96.png""],[""img/mask25.png""],[""img/mask68.png""],[""img/mask23.png""],[""img/mask6.png""],[""img/mask6.png""],[""img/mask73.png""],[""img/mask45.png""],[""img/mask16.png""],[""img/mask40.png""],[""img/mask100.png""]]]","","[35,31,21,4,30,25,8,9,5,32,15,24,33,6,16,29,20,19,27,0,7,26,14,23,13,10,22,17,2,1,3,28,11,34,18,12]","main","167","many-guess-6"
"","","","","","html-keyboard-response","95","464998","0.0-10.0-0.38","602e030cc083e38fcb6b2b65","640759fa512f630a2bdc333d","64076708a859b31faa62dde3","null","","null","","","","","","","","","","","","","","","","","","","fixation","",""
"","","","","","many-guess-6","96","469818","0.0-10.0-1.38-0.38","602e030cc083e38fcb6b2b65","640759fa512f630a2bdc333d","64076708a859b31faa62dde3","[3089.7999992370605]","","","[7,19,8,9,3,21,28,27,31,29,25,35,1,33,18,4,12,16,2,10,23,26,24,11,6,30,32,34,14,22,17,13,15,0,5,20]","[272,202,232,311,132,341,172,252,192,292,42,242,32,282,222,212,52,122,82,182,302,2,321,351,331,22,92,72,112,142,102,162,12,62,152,262]","272","108","276.27879689900374","[276.27879689900374]","[168.27879689900374]","[169]","[210,300,210,30,210,300,30,300,30]","0","36","0","148.7339977111551","14.143999999971129","16","[[[""img/mask78.png""],[""img/mask100.png""],[""img/mask44.png""],[""img/mask81.png""],[""img/mask18.png""],[""img/mask89.png""],[""img/mask6.png""],[""img/mask61.png""],[""img/mask87.png""],[""img/mask43.png""],[""img/mask20.png""],[""img/mask99.png""],[""img/mask19.png""],[""img/mask68.png""],[""img/mask58.png""],[""img/mask29.png""],[""img/mask83.png""],[""img/mask28.png""],[""img/mask46.png""],[""img/mask14.png""],[""img/mask4.png""],[""img/mask43.png""],[""img/mask32.png""],[""img/mask42.png""],[""img/mask53.png""],[""img/mask18.png""],[""img/mask71.png""],[""img/mask9.png""],[""img/mask2.png""],[""img/mask54.png""],[""img/mask91.png""],[""img/mask2.png""],[""img/mask47.png""],[""img/mask23.png""],[""img/mask55.png""],[""img/mask77.png""]]]","","[7,19,8,9,3,21,28,27,31,29,25,35,1,33,18,4,12,16,2,10,23,26,24,11,6,30,32,34,14,22,17,13,15,0,5,20]","main","108","many-guess-6"
"","","","","","html-keyboard-response","97","471425","0.0-10.0-0.39","602e030cc083e38fcb6b2b65","640759fa512f630a2bdc333d","64076708a859b31faa62dde3","1605.2000007629395","Wow! You've completed 40 out of 180 trials! </p> <p>  </p><p> Take a quick break, then press any key when you're ready to continue."," ","","","","","","","","","","","","","","","","","","","fixation","",""
"","","","","","color-precision2","98","475870","0.0-10.0-1.39-0.39","602e030cc083e38fcb6b2b65","640759fa512f630a2bdc333d","64076708a859b31faa62dde3","[909.3999977111816]","","","[32]","[336]","336","291","264.6281273631179","[264.6281273631179]","[333.6281273631179]","[336]","0","0","1","0","147.23399847414112","1004.4630007629166","1000","[[[""img/mask42.png""]]]","","","main","291","color-precision2"
"","","","","","html-keyboard-response","99","476373","0.0-10.0-0.40","602e030cc083e38fcb6b2b65","640759fa512f630a2bdc333d","64076708a859b31faa62dde3","null","","null","","","","","","","","","","","","","","","","","","","fixation","",""
"","","","","","color-precision2","100","480882","0.0-10.0-1.40-0.40","602e030cc083e38fcb6b2b65","640759fa512f630a2bdc333d","64076708a859b31faa62dde3","[1836.400001525879]","","","[16]","[3]","3","140","137.34908455492692","[137.34908455492692]","[357.3490845549269]","[356]","0","0","1","0","147.60799923707964","1004.4439984741039","1000","[[[""img/mask44.png""]]]","","","main","140","color-precision2"
"","","","","","html-keyboard-response","101","481390","0.0-10.0-0.41","602e030cc083e38fcb6b2b65","640759fa512f630a2bdc333d","64076708a859b31faa62dde3","null","","null","","","","","","","","","","","","","","","","","","","fixation","",""
"","","","","","color-precision2","102","484883","0.0-10.0-1.41-0.41","602e030cc083e38fcb6b2b65","640759fa512f630a2bdc333d","64076708a859b31faa62dde3","[952.9000015258789]","","","[14]","[71]","71","5","76.46970868398837","[76.46970868398837]","[71.46970868398837]","[71]","0","0","1","0","147.21199999999953","996.4189992370666","1000","[[[""img/mask70.png""]]]","","","main","5","color-precision2"
"","","","","","html-keyboard-response","103","485387","0.0-10.0-0.42","602e030cc083e38fcb6b2b65","640759fa512f630a2bdc333d","64076708a859b31faa62dde3","null","","null","","","","","","","","","","","","","","","","","","","fixation","",""
"","","","","","color-precision2","104","488807","0.0-10.0-1.42-0.42","602e030cc083e38fcb6b2b65","640759fa512f630a2bdc333d","64076708a859b31faa62dde3","[978.3000030517578]","","","[1]","[306]","306","336","274.32816162530656","[274.32816162530656]","[298.32816162530656]","[299]","0","0","1","0","148.54999847413274","994.4319992370438","1000","[[[""img/mask79.png""]]]","","","main","336","color-precision2"
"","","","","","html-keyboard-response","105","489311","0.0-10.0-0.43","602e030cc083e38fcb6b2b65","640759fa512f630a2bdc333d","64076708a859b31faa62dde3","null","","null","","","","","","","","","","","","","","","","","","","fixation","",""
"","","","","","color-precision2","106","493975","0.0-10.0-1.43-0.43","602e030cc083e38fcb6b2b65","640759fa512f630a2bdc333d","64076708a859b31faa62dde3","[931.3999977111816]","","","[20]","[177]","177","109","293.40254339811105","[293.40254339811105]","[184.40254339811105]","[185]","0","0","1","0","147.74799771117978","996.2700000000186","1000","[[[""img/mask70.png""]]]","","","main","109","color-precision2"
"","","","","","html-keyboard-response","107","494486","0.0-10.0-0.44","602e030cc083e38fcb6b2b65","640759fa512f630a2bdc333d","64076708a859b31faa62dde3","null","","null","","","","","","","","","","","","","","","","","","","fixation","",""
"","","","","","color-precision2","108","498435","0.0-10.0-1.44-0.44","602e030cc083e38fcb6b2b65","640759fa512f630a2bdc333d","64076708a859b31faa62dde3","[1523.2000007629395]","","","[33]","[124]","124","166","302.63213693626267","[302.63213693626267]","[136.63213693626267]","[137]","0","0","1","0","148.9509977111593","994.9519984741346","1000","[[[""img/mask67.png""]]]","","","main","166","color-precision2"
"","","","","","html-keyboard-response","109","498945","0.0-10.0-0.45","602e030cc083e38fcb6b2b65","640759fa512f630a2bdc333d","64076708a859b31faa62dde3","null","","null","","","","","","","","","","","","","","","","","","","fixation","",""
"","","","","","color-precision2","110","502344","0.0-10.0-1.45-0.45","602e030cc083e38fcb6b2b65","640759fa512f630a2bdc333d","64076708a859b31faa62dde3","[897.0999984741211]","","","[14]","[338]","338","18","5.969403744741462","[5.969403744741462]","[347.96940374474144]","[347]","0","0","1","0","146.5769977112068","1007.004997711163","1000","[[[""img/mask58.png""]]]","","","main","18","color-precision2"
"","","","","","html-keyboard-response","111","502848","0.0-10.0-0.46","602e030cc083e38fcb6b2b65","640759fa512f630a2bdc333d","64076708a859b31faa62dde3","null","","null","","","","","","","","","","","","","","","","","","","fixation","",""
"","","","","","color-precision2","112","506461","0.0-10.0-1.46-0.46","602e030cc083e38fcb6b2b65","640759fa512f630a2bdc333d","64076708a859b31faa62dde3","[1013.0999984741211]","","","[19]","[28]","28","221","249.09299151875766","[249.09299151875766]","[28.092991518757657]","[29]","0","0","1","0","148.54200076294364","1008.1229992370354","1000","[[[""img/mask100.png""]]]","","","main","221","color-precision2"
"","","","","","html-keyboard-response","113","506962","0.0-10.0-0.47","602e030cc083e38fcb6b2b65","640759fa512f630a2bdc333d","64076708a859b31faa62dde3","null","","null","","","","","","","","","","","","","","","","","","","fixation","",""
"","","","","","color-precision2","114","510339","0.0-10.0-1.47-0.47","602e030cc083e38fcb6b2b65","640759fa512f630a2bdc333d","64076708a859b31faa62dde3","[792.5]","","","[15]","[159]","159","176","325.9847343462685","[325.9847343462685]","[149.9847343462685]","[150]","0","0","1","0","148.16399923706194","995.0039984741015","1000","[[[""img/mask67.png""]]]","","","main","176","color-precision2"
"","","","","","html-keyboard-response","115","510845","0.0-10.0-0.48","602e030cc083e38fcb6b2b65","640759fa512f630a2bdc333d","64076708a859b31faa62dde3","null","","null","","","","","","","","","","","","","","","","","","","fixation","",""
"","","","","","many-guess-6","116","514521","0.0-10.0-1.48-0.48","602e030cc083e38fcb6b2b65","640759fa512f630a2bdc333d","64076708a859b31faa62dde3","[2257.7999992370605]","","","[2,31,24,9,35,29,13,17,30,15,25,26,22,12,6,1,18,8,28,20,34,5,21,14,0,33,11,19,7,10,32,4,23,3,16,27]","[31,271,21,61,340,300,51,261,350,310,320,141,251,221,1,231,330,241,191,41,11,121,71,171,151,281,101,290,181,161,131,91,211,201,111,81]","31","268","281.3532772899465","[281.3532772899465]","[13.353277289946504]","[14]","[300,120,30,300,30,210,120,30,120]","0","36","0","148.67299847409595","11.330000000016298","16","[[[""img/mask69.png""],[""img/mask15.png""],[""img/mask54.png""],[""img/mask20.png""],[""img/mask54.png""],[""img/mask18.png""],[""img/mask38.png""],[""img/mask21.png""],[""img/mask95.png""],[""img/mask6.png""],[""img/mask87.png""],[""img/mask40.png""],[""img/mask22.png""],[""img/mask66.png""],[""img/mask12.png""],[""img/mask100.png""],[""img/mask45.png""],[""img/mask67.png""],[""img/mask39.png""],[""img/mask4.png""],[""img/mask4.png""],[""img/mask58.png""],[""img/mask33.png""],[""img/mask35.png""],[""img/mask89.png""],[""img/mask90.png""],[""img/mask96.png""],[""img/mask44.png""],[""img/mask38.png""],[""img/mask57.png""],[""img/mask14.png""],[""img/mask28.png""],[""img/mask58.png""],[""img/mask12.png""],[""img/mask15.png""],[""img/mask56.png""]]]","","[2,31,24,9,35,29,13,17,30,15,25,26,22,12,6,1,18,8,28,20,34,5,21,14,0,33,11,19,7,10,32,4,23,3,16,27]","main","268","many-guess-6"
"","","","","","html-keyboard-response","117","515028","0.0-10.0-0.49","602e030cc083e38fcb6b2b65","640759fa512f630a2bdc333d","64076708a859b31faa62dde3","null","","null","","","","","","","","","","","","","","","","","","","fixation","",""
"","","","","","color-precision2","118","518548","0.0-10.0-1.49-0.49","602e030cc083e38fcb6b2b65","640759fa512f630a2bdc333d","64076708a859b31faa62dde3","[885.2999992370605]","","","[30]","[101]","101","106","210.84452285397634","[210.84452285397634]","[104.84452285397634]","[104]","0","0","1","0","146.83400076295948","991.9329984741053","1000","[[[""img/mask44.png""]]]","","","main","106","color-precision2"
"","","","","","html-keyboard-response","119","519052","0.0-10.0-0.50","602e030cc083e38fcb6b2b65","640759fa512f630a2bdc333d","64076708a859b31faa62dde3","null","","null","","","","","","","","","","","","","","","","","","","fixation","",""
"","","","","","color-precision2","120","522550","0.0-10.0-1.50-0.50","602e030cc083e38fcb6b2b65","640759fa512f630a2bdc333d","64076708a859b31faa62dde3","[953.5]","","","[10]","[5]","5","184","174.43755464595807","[174.43755464595807]","[350.4375546459581]","[349]","0","0","1","0","148.43599999998696","1006.5929984741379","1000","[[[""img/mask71.png""]]]","","","main","184","color-precision2"
"","","","","","html-keyboard-response","121","523063","0.0-10.0-0.51","602e030cc083e38fcb6b2b65","640759fa512f630a2bdc333d","64076708a859b31faa62dde3","null","","null","","","","","","","","","","","","","","","","","","","fixation","",""
"","","","","","color-precision2","122","528057","0.0-10.0-1.51-0.51","602e030cc083e38fcb6b2b65","640759fa512f630a2bdc333d","64076708a859b31faa62dde3","[1292.2999992370605]","","","[2]","[159]","159","16","174.7991855657911","[174.7991855657911]","[158.7991855657911]","[159]","0","0","1","0","148.47500076296274","1008.0969977112254","1000","[[[""img/mask94.png""]]]","","","main","16","color-precision2"
"","","","","","html-keyboard-response","123","528574","0.0-10.0-0.52","602e030cc083e38fcb6b2b65","640759fa512f630a2bdc333d","64076708a859b31faa62dde3","null","","null","","","","","","","","","","","","","","","","","","","fixation","",""
"","","","","","many-guess-6","124","532938","0.0-10.0-1.52-0.52","602e030cc083e38fcb6b2b65","640759fa512f630a2bdc333d","64076708a859b31faa62dde3","[2775]","","","[23,33,31,34,13,30,9,20,35,8,7,2,19,17,14,11,21,22,28,16,27,6,10,25,0,3,29,24,26,5,32,12,4,18,1,15]","[199,49,89,69,10,119,139,259,329,319,249,359,169,289,39,339,299,159,129,99,189,59,109,239,229,269,30,219,20,349,79,279,179,309,149,209]","199","351","47.502131044627944","[47.502131044627944]","[56.50213104462796]","[55]","[120,210,120,210,300,30,120,300,120]","0","36","0","148.64700076298323","7.98499999998603","16","[[[""img/mask59.png""],[""img/mask53.png""],[""img/mask69.png""],[""img/mask24.png""],[""img/mask91.png""],[""img/mask34.png""],[""img/mask96.png""],[""img/mask49.png""],[""img/mask83.png""],[""img/mask88.png""],[""img/mask23.png""],[""img/mask34.png""],[""img/mask25.png""],[""img/mask77.png""],[""img/mask11.png""],[""img/mask26.png""],[""img/mask73.png""],[""img/mask85.png""],[""img/mask93.png""],[""img/mask6.png""],[""img/mask87.png""],[""img/mask39.png""],[""img/mask49.png""],[""img/mask67.png""],[""img/mask87.png""],[""img/mask46.png""],[""img/mask79.png""],[""img/mask100.png""],[""img/mask45.png""],[""img/mask50.png""],[""img/mask20.png""],[""img/mask15.png""],[""img/mask71.png""],[""img/mask4.png""],[""img/mask2.png""],[""img/mask73.png""]]]","","[23,33,31,34,13,30,9,20,35,8,7,2,19,17,14,11,21,22,28,16,27,6,10,25,0,3,29,24,26,5,32,12,4,18,1,15]","main","351","many-guess-6"
"","","","","","html-keyboard-response","125","533446","0.0-10.0-0.53","602e030cc083e38fcb6b2b65","640759fa512f630a2bdc333d","64076708a859b31faa62dde3","null","","null","","","","","","","","","","","","","","","","","","","fixation","",""
"","","","","","color-precision2","126","536934","0.0-10.0-1.53-0.53","602e030cc083e38fcb6b2b65","640759fa512f630a2bdc333d","64076708a859b31faa62dde3","[821.6000022888184]","","","[7]","[312]","312","353","296.56765621785644","[296.56765621785644]","[303.56765621785644]","[304]","0","0","1","0","148.0910000000149","1004.6419992370065","1000","[[[""img/mask83.png""]]]","","","main","353","color-precision2"
"","","","","","html-keyboard-response","127","537444","0.0-10.0-0.54","602e030cc083e38fcb6b2b65","640759fa512f630a2bdc333d","64076708a859b31faa62dde3","null","","null","","","","","","","","","","","","","","","","","","","fixation","",""
"","","","","","many-guess-6","128","540977","0.0-10.0-1.54-0.54","602e030cc083e38fcb6b2b65","640759fa512f630a2bdc333d","64076708a859b31faa62dde3","[1946.5]","","","[12,24,1,15,32,34,18,27,0,22,17,28,7,21,6,33,29,30,8,20,5,25,23,9,10,16,35,4,14,26,13,11,19,3,31,2]","[144,264,74,323,343,84,104,313,224,214,303,164,194,184,64,134,34,14,333,154,54,293,244,274,4,124,234,114,24,254,174,94,353,204,284,44]","144","166","353.201841040448","[353.201841040448]","[187.20184104044802]","[186]","[30,300,120,300,300,300,30,210,120]","0","36","0","149.85600076289847","9.022997711203061","16","[[[""img/mask62.png""],[""img/mask2.png""],[""img/mask46.png""],[""img/mask5.png""],[""img/mask3.png""],[""img/mask7.png""],[""img/mask4.png""],[""img/mask26.png""],[""img/mask91.png""],[""img/mask42.png""],[""img/mask12.png""],[""img/mask52.png""],[""img/mask7.png""],[""img/mask78.png""],[""img/mask81.png""],[""img/mask27.png""],[""img/mask17.png""],[""img/mask23.png""],[""img/mask79.png""],[""img/mask71.png""],[""img/mask54.png""],[""img/mask99.png""],[""img/mask65.png""],[""img/mask62.png""],[""img/mask61.png""],[""img/mask55.png""],[""img/mask49.png""],[""img/mask18.png""],[""img/mask65.png""],[""img/mask29.png""],[""img/mask85.png""],[""img/mask67.png""],[""img/mask34.png""],[""img/mask64.png""],[""img/mask75.png""],[""img/mask50.png""]]]","","[12,24,1,15,32,34,18,27,0,22,17,28,7,21,6,33,29,30,8,20,5,25,23,9,10,16,35,4,14,26,13,11,19,3,31,2]","main","166","many-guess-6"
"","","","","","html-keyboard-response","129","541494","0.0-10.0-0.55","602e030cc083e38fcb6b2b65","640759fa512f630a2bdc333d","64076708a859b31faa62dde3","null","","null","","","","","","","","","","","","","","","","","","","fixation","",""
"","","","","","color-precision2","130","545183","0.0-10.0-1.55-0.55","602e030cc083e38fcb6b2b65","640759fa512f630a2bdc333d","64076708a859b31faa62dde3","[934.7999992370605]","","","[21]","[55]","55","166","231.40346413153256","[231.40346413153256]","[65.40346413153256]","[65]","0","0","1","0","146.16499847406521","1007.8050007629208","1000","[[[""img/mask85.png""]]]","","","main","166","color-precision2"
"","","","","","html-keyboard-response","131","545698","0.0-10.0-0.56","602e030cc083e38fcb6b2b65","640759fa512f630a2bdc333d","64076708a859b31faa62dde3","null","","null","","","","","","","","","","","","","","","","","","","fixation","",""
"","","","","","many-guess-6","132","549283","0.0-10.0-1.56-0.56","602e030cc083e38fcb6b2b65","640759fa512f630a2bdc333d","64076708a859b31faa62dde3","[1919.7000007629395]","","","[10,17,1,21,16,7,27,18,2,8,15,22,35,3,25,9,0,23,30,20,11,5,6,13,34,31,29,32,28,14,24,12,19,26,4,33]","[160,90,230,140,339,349,150,310,110,220,290,40,100,120,329,10,80,30,130,50,20,319,250,210,280,300,190,180,200,240,60,170,359,70,270,260]","160","171","77.13200776388314","[77.13200776388314]","[266.13200776388317]","[264]","[300,120,30,210,210,120,210,30,30]","0","36","0","148.70799847412854","20.65399847412482","16","[[[""img/mask45.png""],[""img/mask90.png""],[""img/mask45.png""],[""img/mask44.png""],[""img/mask99.png""],[""img/mask75.png""],[""img/mask90.png""],[""img/mask94.png""],[""img/mask19.png""],[""img/mask67.png""],[""img/mask4.png""],[""img/mask41.png""],[""img/mask25.png""],[""img/mask93.png""],[""img/mask9.png""],[""img/mask93.png""],[""img/mask81.png""],[""img/mask81.png""],[""img/mask33.png""],[""img/mask96.png""],[""img/mask33.png""],[""img/mask31.png""],[""img/mask2.png""],[""img/mask28.png""],[""img/mask32.png""],[""img/mask25.png""],[""img/mask6.png""],[""img/mask10.png""],[""img/mask20.png""],[""img/mask9.png""],[""img/mask11.png""],[""img/mask33.png""],[""img/mask59.png""],[""img/mask50.png""],[""img/mask30.png""],[""img/mask28.png""]]]","","[10,17,1,21,16,7,27,18,2,8,15,22,35,3,25,9,0,23,30,20,11,5,6,13,34,31,29,32,28,14,24,12,19,26,4,33]","main","171","many-guess-6"
"","","","","","html-keyboard-response","133","549793","0.0-10.0-0.57","602e030cc083e38fcb6b2b65","640759fa512f630a2bdc333d","64076708a859b31faa62dde3","null","","null","","","","","","","","","","","","","","","","","","","fixation","",""
"","","","","","color-precision2","134","554631","0.0-10.0-1.57-0.57","602e030cc083e38fcb6b2b65","640759fa512f630a2bdc333d","64076708a859b31faa62dde3","[783.5999984741211]","","","[10]","[64]","64","214","282.00707824970686","[282.00707824970686]","[68.00707824970686]","[68]","0","0","1","0","148.46300076297484","1004.7909977111267","1000","[[[""img/mask76.png""]]]","","","main","214","color-precision2"
"","","","","","html-keyboard-response","135","555136","0.0-10.0-0.58","602e030cc083e38fcb6b2b65","640759fa512f630a2bdc333d","64076708a859b31faa62dde3","null","","null","","","","","","","","","","","","","","","","","","","fixation","",""
"","","","","","many-guess-6","136","564586","0.0-10.0-1.58-0.58","602e030cc083e38fcb6b2b65","640759fa512f630a2bdc333d","64076708a859b31faa62dde3","[2791.7000007629395]","","","[21,26,15,11,20,25,24,28,23,18,31,4,30,8,2,0,35,27,10,33,5,6,32,7,9,34,22,19,13,17,14,29,16,12,3,1]","[356,196,17,47,147,127,176,216,57,67,107,256,77,276,137,316,117,7,246,37,226,87,266,346,206,306,97,326,336,186,27,166,236,156,296,286]","356","39","296.1308464764899","[296.1308464764899]","[257.1308464764899]","[257]","[300,300,210,30,210,120,120,120,300]","0","36","0","148.86799771117512","13.57699847407639","16","[[[""img/mask83.png""],[""img/mask96.png""],[""img/mask45.png""],[""img/mask62.png""],[""img/mask27.png""],[""img/mask49.png""],[""img/mask92.png""],[""img/mask98.png""],[""img/mask16.png""],[""img/mask10.png""],[""img/mask51.png""],[""img/mask72.png""],[""img/mask59.png""],[""img/mask49.png""],[""img/mask19.png""],[""img/mask53.png""],[""img/mask20.png""],[""img/mask71.png""],[""img/mask34.png""],[""img/mask4.png""],[""img/mask61.png""],[""img/mask48.png""],[""img/mask20.png""],[""img/mask3.png""],[""img/mask22.png""],[""img/mask62.png""],[""img/mask43.png""],[""img/mask22.png""],[""img/mask70.png""],[""img/mask11.png""],[""img/mask20.png""],[""img/mask52.png""],[""img/mask68.png""],[""img/mask38.png""],[""img/mask75.png""],[""img/mask53.png""]]]","","[21,26,15,11,20,25,24,28,23,18,31,4,30,8,2,0,35,27,10,33,5,6,32,7,9,34,22,19,13,17,14,29,16,12,3,1]","main","39","many-guess-6"
"","","","","","html-keyboard-response","137","582071","0.0-10.0-0.59","602e030cc083e38fcb6b2b65","640759fa512f630a2bdc333d","64076708a859b31faa62dde3","17483.5","Wow! You've completed 60 out of 180 trials! </p> <p>  </p><p> Take a quick break, then press any key when you're ready to continue."," ","","","","","","","","","","","","","","","","","","","fixation","",""
"","","","","","many-guess-6","138","588240","0.0-10.0-1.59-0.59","602e030cc083e38fcb6b2b65","640759fa512f630a2bdc333d","64076708a859b31faa62dde3","[2462.099998474121]","","","[8,4,15,29,14,1,24,17,20,16,2,33,11,26,19,12,23,35,9,22,3,6,7,25,13,34,10,21,32,28,30,31,18,0,27,5]","[285,216,176,315,136,126,256,226,46,96,355,36,276,236,16,146,295,325,335,56,66,246,206,6,86,76,196,266,305,166,106,186,26,345,116,156]","285","165","330.2335648991106","[330.2335648991106]","[165.2335648991106]","[166]","[210,300,120,300,30,120,300,120,120]","0","36","0","148.60100000002421","17.39399999997113","16","[[[""img/mask14.png""],[""img/mask32.png""],[""img/mask85.png""],[""img/mask53.png""],[""img/mask29.png""],[""img/mask20.png""],[""img/mask70.png""],[""img/mask30.png""],[""img/mask41.png""],[""img/mask14.png""],[""img/mask96.png""],[""img/mask46.png""],[""img/mask27.png""],[""img/mask2.png""],[""img/mask95.png""],[""img/mask52.png""],[""img/mask57.png""],[""img/mask32.png""],[""img/mask34.png""],[""img/mask89.png""],[""img/mask72.png""],[""img/mask82.png""],[""img/mask28.png""],[""img/mask100.png""],[""img/mask30.png""],[""img/mask96.png""],[""img/mask57.png""],[""img/mask49.png""],[""img/mask73.png""],[""img/mask66.png""],[""img/mask56.png""],[""img/mask18.png""],[""img/mask79.png""],[""img/mask99.png""],[""img/mask37.png""],[""img/mask84.png""]]]","","[8,4,15,29,14,1,24,17,20,16,2,33,11,26,19,12,23,35,9,22,3,6,7,25,13,34,10,21,32,28,30,31,18,0,27,5]","main","165","many-guess-6"
"","","","","","html-keyboard-response","139","588743","0.0-10.0-0.60","602e030cc083e38fcb6b2b65","640759fa512f630a2bdc333d","64076708a859b31faa62dde3","null","","null","","","","","","","","","","","","","","","","","","","fixation","",""
"","","","","","color-precision2","140","592585","0.0-10.0-1.60-0.60","602e030cc083e38fcb6b2b65","640759fa512f630a2bdc333d","64076708a859b31faa62dde3","[1039.2000007629395]","","","[22]","[133]","133","55","193.88636208288878","[193.88636208288878]","[138.88636208288878]","[138]","0","0","1","0","146.57700076291803","1000.8989984741202","1000","[[[""img/mask31.png""]]]","","","main","55","color-precision2"
"","","","","","html-keyboard-response","141","593089","0.0-10.0-0.61","602e030cc083e38fcb6b2b65","640759fa512f630a2bdc333d","64076708a859b31faa62dde3","null","","null","","","","","","","","","","","","","","","","","","","fixation","",""
"","","","","","color-precision2","142","596814","0.0-10.0-1.61-0.61","602e030cc083e38fcb6b2b65","640759fa512f630a2bdc333d","64076708a859b31faa62dde3","[603]","","","[4]","[291]","291","172","95.0047828882961","[95.0047828882961]","[283.0047828882961]","[281]","0","0","1","0","148.59399847406894","995.7610007629264","1000","[[[""img/mask89.png""]]]","","","main","172","color-precision2"
"","","","","","html-keyboard-response","143","597320","0.0-10.0-0.62","602e030cc083e38fcb6b2b65","640759fa512f630a2bdc333d","64076708a859b31faa62dde3","null","","null","","","","","","","","","","","","","","","","","","","fixation","",""
"","","","","","color-precision2","144","601092","0.0-10.0-1.62-0.62","602e030cc083e38fcb6b2b65","640759fa512f630a2bdc333d","64076708a859b31faa62dde3","[1329]","","","[13]","[122]","122","284","53.660634162324925","[53.660634162324925]","[129.66063416232493]","[128]","0","0","1","0","147.44399771117605","997.7739984741202","1000","[[[""img/mask12.png""]]]","","","main","284","color-precision2"
"","","","","","html-keyboard-response","145","601598","0.0-10.0-0.63","602e030cc083e38fcb6b2b65","640759fa512f630a2bdc333d","64076708a859b31faa62dde3","null","","null","","","","","","","","","","","","","","","","","","","fixation","",""
"","","","","","many-guess-6","146","606596","0.0-10.0-1.63-0.63","602e030cc083e38fcb6b2b65","640759fa512f630a2bdc333d","64076708a859b31faa62dde3","[2534.300003051758]","","","[7,1,5,4,23,35,25,34,28,8,27,0,32,18,30,14,22,29,13,26,12,9,16,19,24,15,11,33,20,6,21,2,31,3,17,10]","[123,153,343,203,243,353,94,54,133,183,4,24,263,323,223,213,14,84,333,293,74,34,163,303,173,104,283,273,193,143,44,253,64,233,113,313]","123","187","234.32352923112455","[234.32352923112455]","[47.32352923112455]","[47]","[30,210,210,300,30,120,120,120,120]","0","36","0","148.47199847409502","18.441999237053096","16","[[[""img/mask83.png""],[""img/mask98.png""],[""img/mask60.png""],[""img/mask43.png""],[""img/mask33.png""],[""img/mask18.png""],[""img/mask26.png""],[""img/mask13.png""],[""img/mask27.png""],[""img/mask82.png""],[""img/mask52.png""],[""img/mask78.png""],[""img/mask18.png""],[""img/mask91.png""],[""img/mask68.png""],[""img/mask36.png""],[""img/mask100.png""],[""img/mask67.png""],[""img/mask79.png""],[""img/mask18.png""],[""img/mask83.png""],[""img/mask83.png""],[""img/mask35.png""],[""img/mask92.png""],[""img/mask24.png""],[""img/mask95.png""],[""img/mask41.png""],[""img/mask86.png""],[""img/mask92.png""],[""img/mask62.png""],[""img/mask24.png""],[""img/mask6.png""],[""img/mask82.png""],[""img/mask10.png""],[""img/mask37.png""],[""img/mask2.png""]]]","","[7,1,5,4,23,35,25,34,28,8,27,0,32,18,30,14,22,29,13,26,12,9,16,19,24,15,11,33,20,6,21,2,31,3,17,10]","main","187","many-guess-6"
"","","","","","html-keyboard-response","147","607105","0.0-10.0-0.64","602e030cc083e38fcb6b2b65","640759fa512f630a2bdc333d","64076708a859b31faa62dde3","null","","null","","","","","","","","","","","","","","","","","","","fixation","",""
"","","","","","many-guess-6","148","611292","0.0-10.0-1.64-0.64","602e030cc083e38fcb6b2b65","640759fa512f630a2bdc333d","64076708a859b31faa62dde3","[2563.2000007629395]","","","[31,0,3,21,17,15,2,16,12,14,11,26,35,33,9,10,5,18,30,29,27,25,20,1,8,7,22,28,24,6,23,13,4,19,34,32]","[77,87,347,337,217,167,277,57,287,257,28,137,127,67,237,247,297,187,197,47,327,8,177,37,157,147,97,207,307,317,18,107,267,357,227,117]","77","261","331.42139517302337","[331.42139517302337]","[70.42139517302337]","[70]","[120,300,210,120,30,300,210,300,30]","0","36","0","148.4059977112338","24.489999999990687","16","[[[""img/mask45.png""],[""img/mask29.png""],[""img/mask78.png""],[""img/mask57.png""],[""img/mask36.png""],[""img/mask12.png""],[""img/mask18.png""],[""img/mask69.png""],[""img/mask41.png""],[""img/mask85.png""],[""img/mask8.png""],[""img/mask50.png""],[""img/mask50.png""],[""img/mask71.png""],[""img/mask89.png""],[""img/mask45.png""],[""img/mask49.png""],[""img/mask83.png""],[""img/mask16.png""],[""img/mask45.png""],[""img/mask64.png""],[""img/mask2.png""],[""img/mask87.png""],[""img/mask2.png""],[""img/mask10.png""],[""img/mask24.png""],[""img/mask39.png""],[""img/mask50.png""],[""img/mask63.png""],[""img/mask79.png""],[""img/mask59.png""],[""img/mask46.png""],[""img/mask44.png""],[""img/mask76.png""],[""img/mask22.png""],[""img/mask2.png""]]]","","[31,0,3,21,17,15,2,16,12,14,11,26,35,33,9,10,5,18,30,29,27,25,20,1,8,7,22,28,24,6,23,13,4,19,34,32]","main","261","many-guess-6"
"","","","","","html-keyboard-response","149","611812","0.0-10.0-0.65","602e030cc083e38fcb6b2b65","640759fa512f630a2bdc333d","64076708a859b31faa62dde3","null","","null","","","","","","","","","","","","","","","","","","","fixation","",""
"","","","","","many-guess-6","150","615206","0.0-10.0-1.65-0.65","602e030cc083e38fcb6b2b65","640759fa512f630a2bdc333d","64076708a859b31faa62dde3","[1862.099998474121]","","","[27,24,10,2,29,21,12,20,25,15,18,30,0,34,13,19,33,35,17,8,3,26,4,9,16,14,32,22,5,7,23,28,31,6,1,11]","[92,181,341,301,231,211,351,281,42,321,241,122,271,142,72,172,52,261,291,221,82,102,162,152,331,32,201,132,112,311,12,2,191,62,22,251]","92","100","273.23242675356704","[273.23242675356704]","[173.23242675356704]","[174]","[210,210,300,300,30,300,210,120,30]","0","36","0","148.31100076297298","19.859000762924552","16","[[[""img/mask83.png""],[""img/mask23.png""],[""img/mask21.png""],[""img/mask38.png""],[""img/mask48.png""],[""img/mask15.png""],[""img/mask10.png""],[""img/mask24.png""],[""img/mask16.png""],[""img/mask25.png""],[""img/mask57.png""],[""img/mask43.png""],[""img/mask20.png""],[""img/mask25.png""],[""img/mask43.png""],[""img/mask10.png""],[""img/mask26.png""],[""img/mask15.png""],[""img/mask52.png""],[""img/mask91.png""],[""img/mask96.png""],[""img/mask56.png""],[""img/mask90.png""],[""img/mask39.png""],[""img/mask68.png""],[""img/mask37.png""],[""img/mask17.png""],[""img/mask88.png""],[""img/mask99.png""],[""img/mask79.png""],[""img/mask20.png""],[""img/mask15.png""],[""img/mask88.png""],[""img/mask12.png""],[""img/mask78.png""],[""img/mask53.png""]]]","","[27,24,10,2,29,21,12,20,25,15,18,30,0,34,13,19,33,35,17,8,3,26,4,9,16,14,32,22,5,7,23,28,31,6,1,11]","main","100","many-guess-6"
"","","","","","html-keyboard-response","151","615709","0.0-10.0-0.66","602e030cc083e38fcb6b2b65","640759fa512f630a2bdc333d","64076708a859b31faa62dde3","null","","null","","","","","","","","","","","","","","","","","","","fixation","",""
"","","","","","many-guess-6","152","620532","0.0-10.0-1.66-0.66","602e030cc083e38fcb6b2b65","640759fa512f630a2bdc333d","64076708a859b31faa62dde3","[2772.599998474121]","","","[3,33,6,16,10,12,13,11,25,30,8,35,5,24,21,1,19,15,9,4,17,32,18,31,22,34,29,28,14,0,2,7,26,20,23,27]","[329,299,10,220,140,249,289,50,230,30,150,190,259,200,309,60,70,160,319,100,130,349,170,339,239,359,40,180,210,269,20,80,110,120,90,279]","329","237","224.28441118897234","[224.28441118897234]","[347.28441118897234]","[348]","[30,300,300,120,120,120,300,30,210]","0","36","0","148.0399977111956","17.606999999959953","16","[[[""img/mask10.png""],[""img/mask100.png""],[""img/mask12.png""],[""img/mask18.png""],[""img/mask11.png""],[""img/mask6.png""],[""img/mask20.png""],[""img/mask90.png""],[""img/mask68.png""],[""img/mask65.png""],[""img/mask31.png""],[""img/mask61.png""],[""img/mask52.png""],[""img/mask26.png""],[""img/mask4.png""],[""img/mask46.png""],[""img/mask25.png""],[""img/mask20.png""],[""img/mask22.png""],[""img/mask58.png""],[""img/mask11.png""],[""img/mask100.png""],[""img/mask95.png""],[""img/mask44.png""],[""img/mask25.png""],[""img/mask80.png""],[""img/mask45.png""],[""img/mask77.png""],[""img/mask1.png""],[""img/mask50.png""],[""img/mask61.png""],[""img/mask58.png""],[""img/mask14.png""],[""img/mask29.png""],[""img/mask25.png""],[""img/mask52.png""]]]","","[3,33,6,16,10,12,13,11,25,30,8,35,5,24,21,1,19,15,9,4,17,32,18,31,22,34,29,28,14,0,2,7,26,20,23,27]","main","237","many-guess-6"
"","","","","","html-keyboard-response","153","621041","0.0-10.0-0.67","602e030cc083e38fcb6b2b65","640759fa512f630a2bdc333d","64076708a859b31faa62dde3","null","","null","","","","","","","","","","","","","","","","","","","fixation","",""
"","","","","","color-precision2","154","624682","0.0-10.0-1.67-0.67","602e030cc083e38fcb6b2b65","640759fa512f630a2bdc333d","64076708a859b31faa62dde3","[656.2999992370605]","","","[7]","[55]","55","143","198.2990308049855","[198.2990308049855]","[55.299030804985506]","[55]","0","0","1","0","148.45599771116395","1005.7190007629106","1000","[[[""img/mask44.png""]]]","","","main","143","color-precision2"
"","","","","","html-keyboard-response","155","625198","0.0-10.0-0.68","602e030cc083e38fcb6b2b65","640759fa512f630a2bdc333d","64076708a859b31faa62dde3","null","","null","","","","","","","","","","","","","","","","","","","fixation","",""
"","","","","","many-guess-6","156","628955","0.0-10.0-1.68-0.68","602e030cc083e38fcb6b2b65","640759fa512f630a2bdc333d","64076708a859b31faa62dde3","[2228.8999977111816]","","","[6,12,13,14,34,23,15,26,17,0,30,32,1,28,10,35,27,31,21,5,19,3,16,25,7,24,2,4,33,9,18,8,20,11,22,29]","[5,65,194,75,25,334,45,264,15,145,224,304,204,244,234,254,354,214,274,294,184,95,55,314,155,175,125,165,35,105,115,284,85,135,324,344]","5","138","132.64637627685383","[132.64637627685383]","[354.64637627685386]","[353]","[210,120,30,210,300,30,120,30,300]","0","36","0","147.315998474136","11.612999237026088","16","[[[""img/mask36.png""],[""img/mask98.png""],[""img/mask90.png""],[""img/mask100.png""],[""img/mask83.png""],[""img/mask64.png""],[""img/mask57.png""],[""img/mask87.png""],[""img/mask34.png""],[""img/mask43.png""],[""img/mask87.png""],[""img/mask72.png""],[""img/mask15.png""],[""img/mask41.png""],[""img/mask26.png""],[""img/mask77.png""],[""img/mask100.png""],[""img/mask34.png""],[""img/mask27.png""],[""img/mask90.png""],[""img/mask39.png""],[""img/mask76.png""],[""img/mask27.png""],[""img/mask38.png""],[""img/mask9.png""],[""img/mask48.png""],[""img/mask82.png""],[""img/mask32.png""],[""img/mask47.png""],[""img/mask22.png""],[""img/mask10.png""],[""img/mask37.png""],[""img/mask79.png""],[""img/mask49.png""],[""img/mask37.png""],[""img/mask14.png""]]]","","[6,12,13,14,34,23,15,26,17,0,30,32,1,28,10,35,27,31,21,5,19,3,16,25,7,24,2,4,33,9,18,8,20,11,22,29]","main","138","many-guess-6"
"","","","","","html-keyboard-response","157","629458","0.0-10.0-0.69","602e030cc083e38fcb6b2b65","640759fa512f630a2bdc333d","64076708a859b31faa62dde3","null","","null","","","","","","","","","","","","","","","","","","","fixation","",""
"","","","","","many-guess-6","158","633376","0.0-10.0-1.69-0.69","602e030cc083e38fcb6b2b65","640759fa512f630a2bdc333d","64076708a859b31faa62dde3","[1684.3999977111816]","","","[24,30,28,21,1,15,26,0,11,7,10,32,16,23,8,29,5,17,19,25,18,4,35,12,14,13,31,2,22,34,20,33,27,3,9,6]","[289,99,348,229,39,159,259,308,129,119,89,169,29,338,189,79,179,9,249,328,49,239,269,59,149,209,358,279,69,139,199,109,318,298,19,219]","289","204","19.484093294620195","[19.484093294620195]","[175.4840932946202]","[174]","[210,210,300,120,30,30,120,30,120]","0","36","0","148.49799771117978","23.888999999966472","16","[[[""img/mask80.png""],[""img/mask13.png""],[""img/mask77.png""],[""img/mask51.png""],[""img/mask87.png""],[""img/mask13.png""],[""img/mask23.png""],[""img/mask32.png""],[""img/mask96.png""],[""img/mask43.png""],[""img/mask97.png""],[""img/mask62.png""],[""img/mask52.png""],[""img/mask28.png""],[""img/mask58.png""],[""img/mask54.png""],[""img/mask93.png""],[""img/mask80.png""],[""img/mask6.png""],[""img/mask87.png""],[""img/mask79.png""],[""img/mask79.png""],[""img/mask29.png""],[""img/mask53.png""],[""img/mask20.png""],[""img/mask4.png""],[""img/mask69.png""],[""img/mask97.png""],[""img/mask74.png""],[""img/mask95.png""],[""img/mask20.png""],[""img/mask8.png""],[""img/mask71.png""],[""img/mask14.png""],[""img/mask23.png""],[""img/mask57.png""]]]","","[24,30,28,21,1,15,26,0,11,7,10,32,16,23,8,29,5,17,19,25,18,4,35,12,14,13,31,2,22,34,20,33,27,3,9,6]","main","204","many-guess-6"
"","","","","","html-keyboard-response","159","633883","0.0-10.0-0.70","602e030cc083e38fcb6b2b65","640759fa512f630a2bdc333d","64076708a859b31faa62dde3","null","","null","","","","","","","","","","","","","","","","","","","fixation","",""
"","","","","","color-precision2","160","637180","0.0-10.0-1.70-0.70","602e030cc083e38fcb6b2b65","640759fa512f630a2bdc333d","64076708a859b31faa62dde3","[686.5999984741211]","","","[9]","[128]","128","53","181.8586642737344","[181.8586642737344]","[128.8586642737344]","[128]","0","0","1","0","148.0069984741276","998.5219999999972","1000","[[[""img/mask49.png""]]]","","","main","53","color-precision2"
"","","","","","html-keyboard-response","161","637687","0.0-10.0-0.71","602e030cc083e38fcb6b2b65","640759fa512f630a2bdc333d","64076708a859b31faa62dde3","null","","null","","","","","","","","","","","","","","","","","","","fixation","",""
"","","","","","many-guess-6","162","642179","0.0-10.0-1.71-0.71","602e030cc083e38fcb6b2b65","640759fa512f630a2bdc333d","64076708a859b31faa62dde3","[2902.7999992370605]","","","[5,34,13,0,15,20,17,11,26,9,8,18,25,4,31,12,14,28,16,10,3,21,7,6,1,32,30,22,33,35,2,27,24,19,23,29]","[178,39,268,29,79,298,318,208,338,119,19,128,9,109,158,69,148,89,138,218,59,278,188,49,248,168,258,99,288,308,358,328,348,228,238,198]","178","199","348.59422351257615","[348.59422351257615]","[149.59422351257615]","[149]","[300,300,120,210,30,210,300,300,300]","0","36","0","148.63599771121517","23.982997711165808","16","[[[""img/mask3.png""],[""img/mask99.png""],[""img/mask91.png""],[""img/mask9.png""],[""img/mask1.png""],[""img/mask57.png""],[""img/mask83.png""],[""img/mask15.png""],[""img/mask59.png""],[""img/mask53.png""],[""img/mask87.png""],[""img/mask57.png""],[""img/mask17.png""],[""img/mask19.png""],[""img/mask24.png""],[""img/mask12.png""],[""img/mask72.png""],[""img/mask2.png""],[""img/mask50.png""],[""img/mask69.png""],[""img/mask70.png""],[""img/mask12.png""],[""img/mask67.png""],[""img/mask1.png""],[""img/mask93.png""],[""img/mask81.png""],[""img/mask38.png""],[""img/mask72.png""],[""img/mask87.png""],[""img/mask53.png""],[""img/mask36.png""],[""img/mask26.png""],[""img/mask86.png""],[""img/mask86.png""],[""img/mask54.png""],[""img/mask91.png""]]]","","[5,34,13,0,15,20,17,11,26,9,8,18,25,4,31,12,14,28,16,10,3,21,7,6,1,32,30,22,33,35,2,27,24,19,23,29]","main","199","many-guess-6"
"","","","","","html-keyboard-response","163","642684","0.0-10.0-0.72","602e030cc083e38fcb6b2b65","640759fa512f630a2bdc333d","64076708a859b31faa62dde3","null","","null","","","","","","","","","","","","","","","","","","","fixation","",""
"","","","","","color-precision2","164","646183","0.0-10.0-1.72-0.72","602e030cc083e38fcb6b2b65","640759fa512f630a2bdc333d","64076708a859b31faa62dde3","[706.1000022888184]","","","[3]","[113]","113","32","145.53505407905226","[145.53505407905226]","[113.53505407905226]","[113]","0","0","1","0","148.52299771120306","1007.8350007629488","1000","[[[""img/mask92.png""]]]","","","main","32","color-precision2"
"","","","","","html-keyboard-response","165","646690","0.0-10.0-0.73","602e030cc083e38fcb6b2b65","640759fa512f630a2bdc333d","64076708a859b31faa62dde3","null","","null","","","","","","","","","","","","","","","","","","","fixation","",""
"","","","","","many-guess-6","166","650420","0.0-10.0-1.73-0.73","602e030cc083e38fcb6b2b65","640759fa512f630a2bdc333d","64076708a859b31faa62dde3","[2194.2000007629395]","","","[24,14,9,30,18,27,3,19,11,33,25,8,31,13,16,35,26,20,32,34,6,4,12,0,15,17,22,2,7,10,21,1,28,29,23,5]","[122,13,222,302,102,73,142,23,242,202,63,322,332,232,312,162,352,292,342,272,282,83,212,152,262,192,53,43,33,182,93,132,112,252,172,3]","122","52","299.9043824322463","[299.9043824322463]","[247.90438243224628]","[248]","[300,30,210,210,300,300,30,30,300]","0","36","0","148.56999847409315","21.102000762941316","16","[[[""img/mask5.png""],[""img/mask25.png""],[""img/mask90.png""],[""img/mask19.png""],[""img/mask33.png""],[""img/mask88.png""],[""img/mask36.png""],[""img/mask32.png""],[""img/mask82.png""],[""img/mask67.png""],[""img/mask21.png""],[""img/mask63.png""],[""img/mask46.png""],[""img/mask49.png""],[""img/mask45.png""],[""img/mask47.png""],[""img/mask47.png""],[""img/mask14.png""],[""img/mask68.png""],[""img/mask45.png""],[""img/mask12.png""],[""img/mask91.png""],[""img/mask18.png""],[""img/mask57.png""],[""img/mask4.png""],[""img/mask10.png""],[""img/mask32.png""],[""img/mask43.png""],[""img/mask25.png""],[""img/mask60.png""],[""img/mask50.png""],[""img/mask63.png""],[""img/mask46.png""],[""img/mask55.png""],[""img/mask64.png""],[""img/mask6.png""]]]","","[24,14,9,30,18,27,3,19,11,33,25,8,31,13,16,35,26,20,32,34,6,4,12,0,15,17,22,2,7,10,21,1,28,29,23,5]","main","52","many-guess-6"
"","","","","","html-keyboard-response","167","650923","0.0-10.0-0.74","602e030cc083e38fcb6b2b65","640759fa512f630a2bdc333d","64076708a859b31faa62dde3","null","","null","","","","","","","","","","","","","","","","","","","fixation","",""
"","","","","","color-precision2","168","654050","0.0-10.0-1.74-0.74","602e030cc083e38fcb6b2b65","640759fa512f630a2bdc333d","64076708a859b31faa62dde3","[523.5]","","","[25]","[289]","289","166","89.32223889614936","[89.32223889614936]","[283.3222388961494]","[281]","0","0","1","0","148.2029992371099","1004.219000000041","1000","[[[""img/mask83.png""]]]","","","main","166","color-precision2"
"","","","","","html-keyboard-response","169","654558","0.0-10.0-0.75","602e030cc083e38fcb6b2b65","640759fa512f630a2bdc333d","64076708a859b31faa62dde3","null","","null","","","","","","","","","","","","","","","","","","","fixation","",""
"","","","","","color-precision2","170","658246","0.0-10.0-1.75-0.75","602e030cc083e38fcb6b2b65","640759fa512f630a2bdc333d","64076708a859b31faa62dde3","[1219.900001525879]","","","[17]","[40]","40","343","18.396590433813202","[18.396590433813202]","[35.39659043381323]","[34]","0","0","1","0","147.53300076292362","993.7840007629711","1000","[[[""img/mask5.png""]]]","","","main","343","color-precision2"
"","","","","","html-keyboard-response","171","658748","0.0-10.0-0.76","602e030cc083e38fcb6b2b65","640759fa512f630a2bdc333d","64076708a859b31faa62dde3","null","","null","","","","","","","","","","","","","","","","","","","fixation","",""
"","","","","","many-guess-6","172","661994","0.0-10.0-1.76-0.76","602e030cc083e38fcb6b2b65","640759fa512f630a2bdc333d","64076708a859b31faa62dde3","[1717]","","","[18,32,34,13,21,7,0,12,1,5,17,23,25,35,28,29,26,11,24,22,31,30,6,2,9,20,8,27,3,33,15,16,4,10,19,14]","[166,36,196,285,216,206,56,176,275,345,255,106,246,116,126,16,325,6,76,265,46,86,236,156,315,355,96,335,66,146,136,186,305,26,295,226]","166","22","336.3810311150563","[336.3810311150563]","[314.3810311150563]","[315]","[120,300,30,30,120,300,210,210,30]","0","36","0","148.60699999995995","14.197997711133212","16","[[[""img/mask14.png""],[""img/mask68.png""],[""img/mask53.png""],[""img/mask7.png""],[""img/mask90.png""],[""img/mask65.png""],[""img/mask85.png""],[""img/mask41.png""],[""img/mask75.png""],[""img/mask4.png""],[""img/mask39.png""],[""img/mask32.png""],[""img/mask86.png""],[""img/mask2.png""],[""img/mask42.png""],[""img/mask6.png""],[""img/mask58.png""],[""img/mask48.png""],[""img/mask65.png""],[""img/mask49.png""],[""img/mask50.png""],[""img/mask92.png""],[""img/mask51.png""],[""img/mask46.png""],[""img/mask89.png""],[""img/mask37.png""],[""img/mask6.png""],[""img/mask43.png""],[""img/mask23.png""],[""img/mask52.png""],[""img/mask71.png""],[""img/mask54.png""],[""img/mask49.png""],[""img/mask47.png""],[""img/mask82.png""],[""img/mask23.png""]]]","","[18,32,34,13,21,7,0,12,1,5,17,23,25,35,28,29,26,11,24,22,31,30,6,2,9,20,8,27,3,33,15,16,4,10,19,14]","main","22","many-guess-6"
"","","","","","html-keyboard-response","173","662502","0.0-10.0-0.77","602e030cc083e38fcb6b2b65","640759fa512f630a2bdc333d","64076708a859b31faa62dde3","null","","null","","","","","","","","","","","","","","","","","","","fixation","",""
"","","","","","color-precision2","174","665941","0.0-10.0-1.77-0.77","602e030cc083e38fcb6b2b65","640759fa512f630a2bdc333d","64076708a859b31faa62dde3","[966.2000007629395]","","","[34]","[260]","260","106","12.363758462674054","[12.363758462674054]","[266.36375846267407]","[265]","0","0","1","0","148.6329984741751","999.0009984740755","1000","[[[""img/mask9.png""]]]","","","main","106","color-precision2"
"","","","","","html-keyboard-response","175","666447","0.0-10.0-0.78","602e030cc083e38fcb6b2b65","640759fa512f630a2bdc333d","64076708a859b31faa62dde3","null","","null","","","","","","","","","","","","","","","","","","","fixation","",""
"","","","","","color-precision2","176","670022","0.0-10.0-1.78-0.78","602e030cc083e38fcb6b2b65","640759fa512f630a2bdc333d","64076708a859b31faa62dde3","[1096.7999992370605]","","","[32]","[304]","304","176","126.99727263659184","[126.99727263659184]","[310.99727263659184]","[309]","0","0","1","0","148.4509977111593","1000.4930000000168","1000","[[[""img/mask69.png""]]]","","","main","176","color-precision2"
"","","","","","html-keyboard-response","177","671243","0.0-10.0-0.79","602e030cc083e38fcb6b2b65","640759fa512f630a2bdc333d","64076708a859b31faa62dde3","1219.3999977111816","Wow! You've completed 80 out of 180 trials! </p> <p>  </p><p> Take a quick break, then press any key when you're ready to continue."," ","","","","","","","","","","","","","","","","","","","fixation","",""
