"success","timeout","failed_images","failed_audio","failed_video","trial_type","trial_index","time_elapsed","internal_node_id","subject_id","study_id","session_id","rt","stimulus","response","position_of_items","colors_of_items","color_of_target","wheel_spin","response_angle","physical_response_angle","reported_color_angle","reported_color_discrete","locs","which_test","set_size","wheel_num_options","actual_mask_duration","actual_stim_duration","CMDispTime","maskArray","maskRotation","item_positions","task","randomSpinAmount","mainTask"
"true","false","[]","[]","[]","preload","0","1254","0.0-0.0","60a7d7b70d3cf8f48a8a490d","640759fa512f630a2bdc333d","6408c17412ffd79af08583ce","","","","","","","","","","","","","","","","","","","","","","","",""
"true","","","","","fullscreen","1","9636","0.0-1.0","60a7d7b70d3cf8f48a8a490d","640759fa512f630a2bdc333d","6408c17412ffd79af08583ce","","","","","","","","","","","","","","","","","","","","","","","",""
"","","","","","html-keyboard-response","2","13631","0.0-2.0","60a7d7b70d3cf8f48a8a490d","640759fa512f630a2bdc333d","6408c17412ffd79af08583ce","3994","What a beautiful Wednesday to do some awesome science! </p> <p>  </p><p> </p>
    By completing this survey or questionnaire, you are consenting to be in this research study. </p>
    Your participation is voluntary and you can stop at any time.<p> [Press any key to continue] </p>","t","","","","","","","","","","","","","","","","","","","","",""
"","","","","","html-keyboard-response","3","23642","0.0-3.0","60a7d7b70d3cf8f48a8a490d","640759fa512f630a2bdc333d","6408c17412ffd79af08583ce","6709.39999999851","
    <div style='width: 1000px;'>
    <div style='float: center;'><img src='img/TaskInstructions1.png'></img>
    </div>
    ","f","","","","","","","","","","","","","","","","","","","","",""
"","","","","","html-keyboard-response","4","25901","0.0-4.0","60a7d7b70d3cf8f48a8a490d","640759fa512f630a2bdc333d","6408c17412ffd79af08583ce","2257.800000000745","
    <div style='width: 1000px;'>
    <div style='float: center;'><img src='img/TaskInstructions1.png'></img>
    </div>
    "," ","","","","","","","","","","","","","","","","","","","","",""
"","","","","","html-keyboard-response","5","35907","0.0-5.0","60a7d7b70d3cf8f48a8a490d","640759fa512f630a2bdc333d","6408c17412ffd79af08583ce","null","
    <div style='width: 1000px;'>
    <div style='float: center;'><img src='img/TaskInstructions2.png'></img>
    </div>
    ","null","","","","","","","","","","","","","","","","","","","","",""
"","","","","","html-keyboard-response","6","42952","0.0-6.0","60a7d7b70d3cf8f48a8a490d","640759fa512f630a2bdc333d","6408c17412ffd79af08583ce","7044","
    <div style='width: 1000px;'>
    <div style='float: center;'><img src='img/TaskInstructions2.png'></img>
    </div>
    "," ","","","","","","","","","","","","","","","","","","","","",""
"","","","","","video-keyboard-response","7","62941","0.0-7.0","60a7d7b70d3cf8f48a8a490d","640759fa512f630a2bdc333d","6408c17412ffd79af08583ce","19987.199999999255","[""video/TaskInstructions3.mp4""]","f","","","","","","","","","","","","","","","","","","","","",""
"","","","","","image-keyboard-response","8","66236","0.0-8.0-0.0","60a7d7b70d3cf8f48a8a490d","640759fa512f630a2bdc333d","6408c17412ffd79af08583ce","3293.800000000745","img/training1.png","f","","","","","","","","","","","","","","","","","","","","",""
"","","","","","color-precision2","9","75592","0.0-8.0-1.0-0.0","60a7d7b70d3cf8f48a8a490d","640759fa512f630a2bdc333d","6408c17412ffd79af08583ce","[4413.800000000745]","","","[30]","[245]","245","297","176.42487102859957","[176.42487102859957]","[239.42487102859957]","[238]","0","0","1","0","499.16599999999744","994.9160000022384","1000","","","0","training","",""
"","","","","","image-keyboard-response","10","81023","0.0-8.0-0.1","60a7d7b70d3cf8f48a8a490d","640759fa512f630a2bdc333d","6408c17412ffd79af08583ce","5429.300000000745","img/training2.png","f","","","","","","","","","","","","","","","","","","","","",""
"","","","","","many-guess-6","11","91342","0.0-8.0-1.1-0.1","60a7d7b70d3cf8f48a8a490d","640759fa512f630a2bdc333d","6408c17412ffd79af08583ce","[5479.800000000745]","","","[32,35,22]","[36,338,17]","36","0","21.624605486335895","[21.624605486335895]","[21.624605486335895]","[20]","[300,120,30,30,210,300,300,210,210,120,210,120,120,30,300,120,300,300,30,30,210,30,210,210,30,210,210,300,300,210,120,30,30,300,300,120]","0","3","0","999.0290000007517","994.4590000007447","1000","[[[""img/mask73.png""],[""img/mask69.png""],[""img/mask35.png""]]]","","[32,35,22]","training","",""
"","","","","","image-keyboard-response","12","94753","0.0-8.0-0.2","60a7d7b70d3cf8f48a8a490d","640759fa512f630a2bdc333d","6408c17412ffd79af08583ce","3410.599999997765","img/training3.png","f","","","","","","","","","","","","","","","","","","","","",""
"","","","","","[""many-guess-6""]","13","99800","0.0-8.0-1.2-0.2","60a7d7b70d3cf8f48a8a490d","640759fa512f630a2bdc333d","6408c17412ffd79af08583ce","[1571.4000000022352]","","","[25,23,7,11,30]","[120,167,85,193,256]","120","124","332.78920212336357","[332.78920212336357]","[208.78920212336357]","[208]","[30,300,30,120,210,30,210,30,210,30,30,210,210,120,30,300,30,30,300,210,210,120,210,30,300,120,300,210,30,210,300,30,120,30,120,120]","0","5","0","499.2070000022359","501.9640000000072","500","[[[""img/mask66.png""],[""img/mask98.png""],[""img/mask74.png""],[""img/mask90.png""],[""img/mask54.png""]]]","","[25,23,7,11,30]","training","",""
"","","","","","image-keyboard-response","14","101915","0.0-8.0-0.3","60a7d7b70d3cf8f48a8a490d","640759fa512f630a2bdc333d","6408c17412ffd79af08583ce","2114.099999997765","img/training4.png"," ","","","","","","","","","","","","","","","","","","","","",""
"","","","","","[""many-guess-6""]","15","108464","0.0-8.0-1.3-0.3","60a7d7b70d3cf8f48a8a490d","640759fa512f630a2bdc333d","6408c17412ffd79af08583ce","[3018.699999999255]","","","[19,27,9,21,4,11,35,31,29,34]","[39,312,223,280,346,247,26,359,162,188]","39","61","6.834052764744941","[6.834052764744941]","[305.8340527647449]","[305]","[120,300,120,120,300,30,300,120,30,210,300,120,30,30,300,300,300,210,210,300,30,210,30,120,120,120,300,30,30,210,210,30,300,210,120,210]","0","10","0","132.56600000074832","135.04799999999523","132","[[[""img/mask23.png""],[""img/mask9.png""],[""img/mask67.png""],[""img/mask35.png""],[""img/mask33.png""],[""img/mask97.png""],[""img/mask19.png""],[""img/mask99.png""],[""img/mask60.png""],[""img/mask62.png""]]]","","[19,27,9,21,4,11,35,31,29,34]","training","",""
"","","","","","image-keyboard-response","16","111829","0.0-8.0-0.4","60a7d7b70d3cf8f48a8a490d","640759fa512f630a2bdc333d","6408c17412ffd79af08583ce","3364.300000000745","img/training5.png","f","","","","","","","","","","","","","","","","","","","","",""
"","","","","","[""many-guess-6""]","17","118116","0.0-8.0-1.4-0.4","60a7d7b70d3cf8f48a8a490d","640759fa512f630a2bdc333d","6408c17412ffd79af08583ce","[2704.60000000149]","","","[9,2,35,29,18,33,4,22,15,3,28,21,34,8,19,27,14,30,11,17,32,7,6,26,16,31,13,25,24,20,10,0,5,1,12,23]","[306,96,206,17,156,166,126,86,226,27,316,176,256,286,296,146,37,67,57,216,336,7,186,77,196,276,116,346,47,106,266,356,136,326,246,236]","306","129","338.27046475507706","[338.27046475507706]","[209.27046475507706]","[209]","[120,30,120,210,120,120,210,120,30,300,30,30,120,300,210,210,120,210,300,120,300,120,210,300,120,300,210,120,300,300,300,210,300,120,30,300]","0","36","0","132.57800000075076","20.687000002231798","16","[[[""img/mask94.png""],[""img/mask7.png""],[""img/mask82.png""],[""img/mask49.png""],[""img/mask72.png""],[""img/mask32.png""],[""img/mask73.png""],[""img/mask62.png""],[""img/mask52.png""],[""img/mask75.png""],[""img/mask78.png""],[""img/mask9.png""],[""img/mask72.png""],[""img/mask11.png""],[""img/mask7.png""],[""img/mask99.png""],[""img/mask70.png""],[""img/mask59.png""],[""img/mask40.png""],[""img/mask96.png""],[""img/mask84.png""],[""img/mask45.png""],[""img/mask6.png""],[""img/mask49.png""],[""img/mask69.png""],[""img/mask4.png""],[""img/mask54.png""],[""img/mask36.png""],[""img/mask100.png""],[""img/mask9.png""],[""img/mask18.png""],[""img/mask3.png""],[""img/mask1.png""],[""img/mask55.png""],[""img/mask34.png""],[""img/mask50.png""]]]","","[9,2,35,29,18,33,4,22,15,3,28,21,34,8,19,27,14,30,11,17,32,7,6,26,16,31,13,25,24,20,10,0,5,1,12,23]","training","",""
"","","","","","image-keyboard-response","18","120183","0.0-9.0","60a7d7b70d3cf8f48a8a490d","640759fa512f630a2bdc333d","6408c17412ffd79af08583ce","2066.199999999255","[""img/endTraining.png""]","f","","","","","","","","","","","","","","","","","","","","",""
"","","","","","many-guess-6","19","128289","0.0-10.0-0.0-0.0","60a7d7b70d3cf8f48a8a490d","640759fa512f630a2bdc333d","6408c17412ffd79af08583ce","[3060.099999997765]","","","[17,1,35,2,28,12,18,24,16,9,25,15,22,7,14,3,4,21,30,26,19,10,13,27,8,5,34,32,6,20,31,11,29,23,33,0]","[151,261,91,61,311,191,2,22,51,12,231,251,101,221,131,171,81,321,32,301,291,341,281,211,201,141,71,42,181,351,271,121,241,161,111,331]","151","351","251.45699209944868","[251.45699209944868]","[260.4569920994487]","[261]","[30,300,210,300,30,30,300,300,30]","0","36","0","149.1400000014837","13.110000002983725","16","[[[""img/mask62.png""],[""img/mask94.png""],[""img/mask41.png""],[""img/mask96.png""],[""img/mask42.png""],[""img/mask57.png""],[""img/mask82.png""],[""img/mask62.png""],[""img/mask22.png""],[""img/mask40.png""],[""img/mask72.png""],[""img/mask49.png""],[""img/mask88.png""],[""img/mask20.png""],[""img/mask60.png""],[""img/mask46.png""],[""img/mask54.png""],[""img/mask31.png""],[""img/mask78.png""],[""img/mask72.png""],[""img/mask30.png""],[""img/mask37.png""],[""img/mask23.png""],[""img/mask3.png""],[""img/mask15.png""],[""img/mask35.png""],[""img/mask57.png""],[""img/mask70.png""],[""img/mask57.png""],[""img/mask58.png""],[""img/mask3.png""],[""img/mask48.png""],[""img/mask34.png""],[""img/mask52.png""],[""img/mask88.png""],[""img/mask39.png""]]]","","[17,1,35,2,28,12,18,24,16,9,25,15,22,7,14,3,4,21,30,26,19,10,13,27,8,5,34,32,6,20,31,11,29,23,33,0]","main","351","many-guess-6"
"","","","","","html-keyboard-response","20","128797","0.0-10.0-1.0","60a7d7b70d3cf8f48a8a490d","640759fa512f630a2bdc333d","6408c17412ffd79af08583ce","null","","null","","","","","","","","","","","","","","","","","","","fixation","",""
"","","","","","many-guess-6","21","132146","0.0-10.0-0.1-0.1","60a7d7b70d3cf8f48a8a490d","640759fa512f630a2bdc333d","6408c17412ffd79af08583ce","[1283.5]","","","[30,15,5,12,13,34,35,33,4,1,7,6,19,31,2,22,17,3,14,9,23,8,28,16,29,0,25,32,10,21,20,18,27,26,24,11]","[81,201,51,171,161,330,151,211,270,280,260,1,111,31,101,11,221,131,121,310,191,21,290,241,61,320,231,181,340,250,71,141,300,91,41,350]","81","121","222.66543564974063","[222.66543564974063]","[101.66543564974063]","[101]","[30,120,210,300,300,300,300,300,120]","0","36","0","149.41300000296906","24.225000001490116","16","[[[""img/mask33.png""],[""img/mask47.png""],[""img/mask49.png""],[""img/mask100.png""],[""img/mask17.png""],[""img/mask12.png""],[""img/mask63.png""],[""img/mask87.png""],[""img/mask71.png""],[""img/mask92.png""],[""img/mask37.png""],[""img/mask8.png""],[""img/mask45.png""],[""img/mask60.png""],[""img/mask62.png""],[""img/mask55.png""],[""img/mask87.png""],[""img/mask41.png""],[""img/mask84.png""],[""img/mask69.png""],[""img/mask74.png""],[""img/mask83.png""],[""img/mask97.png""],[""img/mask5.png""],[""img/mask12.png""],[""img/mask52.png""],[""img/mask38.png""],[""img/mask37.png""],[""img/mask98.png""],[""img/mask54.png""],[""img/mask82.png""],[""img/mask12.png""],[""img/mask8.png""],[""img/mask30.png""],[""img/mask45.png""],[""img/mask21.png""]]]","","[30,15,5,12,13,34,35,33,4,1,7,6,19,31,2,22,17,3,14,9,23,8,28,16,29,0,25,32,10,21,20,18,27,26,24,11]","main","121","many-guess-6"
"","","","","","html-keyboard-response","22","132646","0.0-10.0-1.1","60a7d7b70d3cf8f48a8a490d","640759fa512f630a2bdc333d","6408c17412ffd79af08583ce","null","","null","","","","","","","","","","","","","","","","","","","fixation","",""
"","","","","","color-precision2","23","141903","0.0-10.0-0.2-0.2","60a7d7b70d3cf8f48a8a490d","640759fa512f630a2bdc333d","6408c17412ffd79af08583ce","[5508.5]","","","[9]","[286]","286","63","345.39830559483937","[345.39830559483937]","[282.39830559483937]","[282]","0","0","1","0","149.14500000150292","1007.4850000029837","1000","[[[""img/mask72.png""]]]","","","main","63","color-precision2"
"","","","","","html-keyboard-response","24","142418","0.0-10.0-1.2","60a7d7b70d3cf8f48a8a490d","640759fa512f630a2bdc333d","6408c17412ffd79af08583ce","null","","null","","","","","","","","","","","","","","","","","","","fixation","",""
"","","","","","many-guess-6","25","147402","0.0-10.0-0.3-0.3","60a7d7b70d3cf8f48a8a490d","640759fa512f630a2bdc333d","6408c17412ffd79af08583ce","[2758.199999999255]","","","[31,21,9,22,2,29,19,1,35,30,4,24,13,26,17,23,0,3,6,32,18,8,28,34,10,16,27,7,12,20,5,15,33,14,25,11]","[41,260,120,310,170,190,111,300,250,330,1,350,290,270,150,220,230,130,71,51,91,21,160,61,31,101,180,340,11,240,200,280,81,140,320,210]","41","259","235.63970690126348","[235.63970690126348]","[336.6397069012635]","[336]","[210,120,30,120,300,120,120,30,120]","0","36","0","149.2710000014922","14.679999999993015","16","[[[""img/mask35.png""],[""img/mask26.png""],[""img/mask27.png""],[""img/mask83.png""],[""img/mask20.png""],[""img/mask58.png""],[""img/mask56.png""],[""img/mask18.png""],[""img/mask31.png""],[""img/mask41.png""],[""img/mask53.png""],[""img/mask81.png""],[""img/mask72.png""],[""img/mask35.png""],[""img/mask11.png""],[""img/mask61.png""],[""img/mask38.png""],[""img/mask44.png""],[""img/mask30.png""],[""img/mask8.png""],[""img/mask62.png""],[""img/mask98.png""],[""img/mask20.png""],[""img/mask24.png""],[""img/mask14.png""],[""img/mask28.png""],[""img/mask31.png""],[""img/mask8.png""],[""img/mask10.png""],[""img/mask11.png""],[""img/mask13.png""],[""img/mask21.png""],[""img/mask97.png""],[""img/mask2.png""],[""img/mask55.png""],[""img/mask62.png""]]]","","[31,21,9,22,2,29,19,1,35,30,4,24,13,26,17,23,0,3,6,32,18,8,28,34,10,16,27,7,12,20,5,15,33,14,25,11]","main","259","many-guess-6"
"","","","","","html-keyboard-response","26","147903","0.0-10.0-1.3","60a7d7b70d3cf8f48a8a490d","640759fa512f630a2bdc333d","6408c17412ffd79af08583ce","null","","null","","","","","","","","","","","","","","","","","","","fixation","",""
"","","","","","many-guess-6","27","152205","0.0-10.0-0.4-0.4","60a7d7b70d3cf8f48a8a490d","640759fa512f630a2bdc333d","6408c17412ffd79af08583ce","[2310.699999999255]","","","[6,12,30,9,27,22,24,18,34,25,26,4,17,31,16,11,2,21,0,3,35,20,29,5,19,10,1,13,7,32,23,8,28,33,15,14]","[67,127,357,107,347,157,217,257,137,307,8,87,48,237,267,297,28,207,197,38,337,187,277,287,97,167,147,227,317,177,77,18,327,57,247,117]","67","275","304.49223642789775","[304.49223642789775]","[29.49223642789775]","[29]","[210,210,210,30,210,30,30,300,120]","0","36","0","147.5329999999958","16.91900000075111","16","[[[""img/mask11.png""],[""img/mask2.png""],[""img/mask80.png""],[""img/mask19.png""],[""img/mask65.png""],[""img/mask84.png""],[""img/mask32.png""],[""img/mask64.png""],[""img/mask83.png""],[""img/mask1.png""],[""img/mask34.png""],[""img/mask25.png""],[""img/mask40.png""],[""img/mask40.png""],[""img/mask13.png""],[""img/mask52.png""],[""img/mask55.png""],[""img/mask94.png""],[""img/mask89.png""],[""img/mask73.png""],[""img/mask74.png""],[""img/mask31.png""],[""img/mask1.png""],[""img/mask13.png""],[""img/mask97.png""],[""img/mask73.png""],[""img/mask50.png""],[""img/mask58.png""],[""img/mask54.png""],[""img/mask48.png""],[""img/mask83.png""],[""img/mask68.png""],[""img/mask89.png""],[""img/mask66.png""],[""img/mask68.png""],[""img/mask62.png""]]]","","[6,12,30,9,27,22,24,18,34,25,26,4,17,31,16,11,2,21,0,3,35,20,29,5,19,10,1,13,7,32,23,8,28,33,15,14]","main","275","many-guess-6"
"","","","","","html-keyboard-response","28","152713","0.0-10.0-1.4","60a7d7b70d3cf8f48a8a490d","640759fa512f630a2bdc333d","6408c17412ffd79af08583ce","null","","null","","","","","","","","","","","","","","","","","","","fixation","",""
"","","","","","many-guess-6","29","156381","0.0-10.0-0.5-0.5","60a7d7b70d3cf8f48a8a490d","640759fa512f630a2bdc333d","6408c17412ffd79af08583ce","[1670.300000000745]","","","[8,15,6,13,26,28,24,33,34,23,31,18,2,5,27,16,20,11,35,0,12,1,10,29,4,21,7,19,30,25,22,3,17,32,14,9]","[155,195,175,334,205,35,304,105,5,15,224,274,135,145,75,244,314,215,284,264,254,65,324,344,354,95,165,115,25,125,85,185,294,55,234,45]","155","67","84.30886470435058","[84.30886470435058]","[17.308864704350583]","[15]","[210,30,210,30,300,300,120,30,30]","0","36","0","148.96800000223448","12.99900000001071","16","[[[""img/mask60.png""],[""img/mask36.png""],[""img/mask54.png""],[""img/mask34.png""],[""img/mask45.png""],[""img/mask26.png""],[""img/mask17.png""],[""img/mask25.png""],[""img/mask79.png""],[""img/mask15.png""],[""img/mask72.png""],[""img/mask37.png""],[""img/mask85.png""],[""img/mask27.png""],[""img/mask95.png""],[""img/mask50.png""],[""img/mask99.png""],[""img/mask77.png""],[""img/mask45.png""],[""img/mask77.png""],[""img/mask52.png""],[""img/mask21.png""],[""img/mask83.png""],[""img/mask72.png""],[""img/mask42.png""],[""img/mask4.png""],[""img/mask21.png""],[""img/mask5.png""],[""img/mask50.png""],[""img/mask39.png""],[""img/mask84.png""],[""img/mask46.png""],[""img/mask93.png""],[""img/mask78.png""],[""img/mask65.png""],[""img/mask4.png""]]]","","[8,15,6,13,26,28,24,33,34,23,31,18,2,5,27,16,20,11,35,0,12,1,10,29,4,21,7,19,30,25,22,3,17,32,14,9]","main","67","many-guess-6"
"","","","","","html-keyboard-response","30","156883","0.0-10.0-1.5","60a7d7b70d3cf8f48a8a490d","640759fa512f630a2bdc333d","6408c17412ffd79af08583ce","null","","null","","","","","","","","","","","","","","","","","","","fixation","",""
"","","","","","many-guess-6","31","162593","0.0-10.0-0.6-0.6","60a7d7b70d3cf8f48a8a490d","640759fa512f630a2bdc333d","6408c17412ffd79af08583ce","[2048.39999999851]","","","[26,21,24,9,17,2,27,3,34,25,8,12,11,4,1,22,32,15,29,10,13,6,19,14,18,30,16,0,20,7,33,23,5,28,35,31]","[231,161,21,241,350,341,141,301,151,101,51,61,221,311,81,11,191,91,281,261,331,211,71,31,1,251,181,291,41,131,271,171,111,121,321,201]","231","148","246.36865523067144","[246.36865523067144]","[98.36865523067144]","[98]","[30,30,300,30,300,300,300,300,300]","0","36","0","149.32300000297255","17.793000000005122","16","[[[""img/mask20.png""],[""img/mask16.png""],[""img/mask20.png""],[""img/mask84.png""],[""img/mask16.png""],[""img/mask54.png""],[""img/mask18.png""],[""img/mask88.png""],[""img/mask62.png""],[""img/mask22.png""],[""img/mask87.png""],[""img/mask34.png""],[""img/mask14.png""],[""img/mask88.png""],[""img/mask4.png""],[""img/mask74.png""],[""img/mask88.png""],[""img/mask15.png""],[""img/mask39.png""],[""img/mask68.png""],[""img/mask75.png""],[""img/mask80.png""],[""img/mask28.png""],[""img/mask59.png""],[""img/mask37.png""],[""img/mask32.png""],[""img/mask49.png""],[""img/mask13.png""],[""img/mask42.png""],[""img/mask15.png""],[""img/mask24.png""],[""img/mask87.png""],[""img/mask86.png""],[""img/mask76.png""],[""img/mask13.png""],[""img/mask5.png""]]]","","[26,21,24,9,17,2,27,3,34,25,8,12,11,4,1,22,32,15,29,10,13,6,19,14,18,30,16,0,20,7,33,23,5,28,35,31]","main","148","many-guess-6"
"","","","","","html-keyboard-response","32","163094","0.0-10.0-1.6","60a7d7b70d3cf8f48a8a490d","640759fa512f630a2bdc333d","6408c17412ffd79af08583ce","null","","null","","","","","","","","","","","","","","","","","","","fixation","",""
"","","","","","color-precision2","33","168249","0.0-10.0-0.7-0.7","60a7d7b70d3cf8f48a8a490d","640759fa512f630a2bdc333d","6408c17412ffd79af08583ce","[1438]","","","[24]","[25]","25","14","34.563454096193176","[34.563454096193176]","[20.563454096193176]","[19]","0","0","1","0","149.50299999999697","1008.2250000022468","1000","[[[""img/mask46.png""]]]","","","main","14","color-precision2"
"","","","","","html-keyboard-response","34","168750","0.0-10.0-1.7","60a7d7b70d3cf8f48a8a490d","640759fa512f630a2bdc333d","6408c17412ffd79af08583ce","null","","null","","","","","","","","","","","","","","","","","","","fixation","",""
"","","","","","color-precision2","35","174261","0.0-10.0-0.8-0.8","60a7d7b70d3cf8f48a8a490d","640759fa512f630a2bdc333d","6408c17412ffd79af08583ce","[2416.800000000745]","","","[32]","[97]","97","219","312.8133518707715","[312.8133518707715]","[93.8133518707715]","[94]","0","0","1","0","148.90600000150152","992.1520000022429","1000","[[[""img/mask1.png""]]]","","","main","219","color-precision2"
"","","","","","html-keyboard-response","36","174762","0.0-10.0-1.8","60a7d7b70d3cf8f48a8a490d","640759fa512f630a2bdc333d","6408c17412ffd79af08583ce","null","","null","","","","","","","","","","","","","","","","","","","fixation","",""
"","","","","","color-precision2","37","179056","0.0-10.0-0.9-0.9","60a7d7b70d3cf8f48a8a490d","640759fa512f630a2bdc333d","6408c17412ffd79af08583ce","[1493.9000000022352]","","","[6]","[316]","316","278","242.22398450659242","[242.22398450659242]","[324.2239845065924]","[324]","0","0","1","0","148.57800000000861","1004.0390000029874","1000","[[[""img/mask22.png""]]]","","","main","278","color-precision2"
"","","","","","html-keyboard-response","38","179556","0.0-10.0-1.9","60a7d7b70d3cf8f48a8a490d","640759fa512f630a2bdc333d","6408c17412ffd79af08583ce","null","","null","","","","","","","","","","","","","","","","","","","fixation","",""
"","","","","","many-guess-6","39","183543","0.0-10.0-0.10-0.10","60a7d7b70d3cf8f48a8a490d","640759fa512f630a2bdc333d","6408c17412ffd79af08583ce","[2215.5]","","","[7,32,27,22,2,6,21,20,13,29,28,25,23,10,17,33,4,18,14,34,5,16,31,11,30,3,19,1,24,35,26,8,12,15,9,0]","[4,114,44,314,214,334,64,104,324,174,184,194,234,224,124,14,264,344,274,54,294,144,164,304,84,34,254,244,154,134,24,94,74,284,353,204]","4","56","319.20555919681266","[319.20555919681266]","[263.20555919681266]","[264]","[210,30,210,30,30,300,210,300,300]","0","36","0","149.42499999998836","10.549000000755768","16","[[[""img/mask7.png""],[""img/mask49.png""],[""img/mask8.png""],[""img/mask89.png""],[""img/mask63.png""],[""img/mask49.png""],[""img/mask23.png""],[""img/mask61.png""],[""img/mask36.png""],[""img/mask83.png""],[""img/mask77.png""],[""img/mask21.png""],[""img/mask87.png""],[""img/mask60.png""],[""img/mask26.png""],[""img/mask20.png""],[""img/mask95.png""],[""img/mask12.png""],[""img/mask91.png""],[""img/mask90.png""],[""img/mask73.png""],[""img/mask48.png""],[""img/mask22.png""],[""img/mask98.png""],[""img/mask29.png""],[""img/mask7.png""],[""img/mask46.png""],[""img/mask69.png""],[""img/mask81.png""],[""img/mask74.png""],[""img/mask72.png""],[""img/mask30.png""],[""img/mask12.png""],[""img/mask39.png""],[""img/mask81.png""],[""img/mask90.png""]]]","","[7,32,27,22,2,6,21,20,13,29,28,25,23,10,17,33,4,18,14,34,5,16,31,11,30,3,19,1,24,35,26,8,12,15,9,0]","main","56","many-guess-6"
"","","","","","html-keyboard-response","40","184057","0.0-10.0-1.10","60a7d7b70d3cf8f48a8a490d","640759fa512f630a2bdc333d","6408c17412ffd79af08583ce","null","","null","","","","","","","","","","","","","","","","","","","fixation","",""
"","","","","","color-precision2","41","191117","0.0-10.0-0.11-0.11","60a7d7b70d3cf8f48a8a490d","640759fa512f630a2bdc333d","6408c17412ffd79af08583ce","[1505.6000000014901]","","","[10]","[316]","316","252","218.88618554121126","[218.88618554121126]","[326.88618554121126]","[327]","0","0","1","0","148.95100000224193","993.8630000029807","1000","[[[""img/mask75.png""]]]","","","main","252","color-precision2"
"","","","","","html-keyboard-response","42","191618","0.0-10.0-1.11","60a7d7b70d3cf8f48a8a490d","640759fa512f630a2bdc333d","6408c17412ffd79af08583ce","null","","null","","","","","","","","","","","","","","","","","","","fixation","",""
"","","","","","color-precision2","43","195881","0.0-10.0-0.12-0.12","60a7d7b70d3cf8f48a8a490d","640759fa512f630a2bdc333d","6408c17412ffd79af08583ce","[1252.9000000022352]","","","[21]","[207]","207","160","359.7162610815358","[359.7162610815358]","[199.71626108153578]","[199]","0","0","1","0","148.9550000015006","991.6720000014757","1000","[[[""img/mask83.png""]]]","","","main","160","color-precision2"
"","","","","","html-keyboard-response","44","196382","0.0-10.0-1.12","60a7d7b70d3cf8f48a8a490d","640759fa512f630a2bdc333d","6408c17412ffd79af08583ce","null","","null","","","","","","","","","","","","","","","","","","","fixation","",""
"","","","","","many-guess-6","45","199702","0.0-10.0-0.13-0.13","60a7d7b70d3cf8f48a8a490d","640759fa512f630a2bdc333d","6408c17412ffd79af08583ce","[1423.800000000745]","","","[34,15,25,11,1,28,17,0,5,4,7,2,13,6,27,29,26,9,32,8,16,21,33,19,20,3,22,24,10,31,14,12,30,18,23,35]","[180,140,269,329,110,30,190,279,160,200,60,80,339,209,359,229,130,100,20,239,40,50,319,170,219,299,349,249,289,120,10,309,259,70,150,90]","180","96","309.38174375711253","[309.38174375711253]","[213.38174375711253]","[214]","[300,30,210,30,120,210,300,300,210]","0","36","0","149.8530000000028","20.62600000150269","16","[[[""img/mask34.png""],[""img/mask59.png""],[""img/mask35.png""],[""img/mask59.png""],[""img/mask75.png""],[""img/mask26.png""],[""img/mask57.png""],[""img/mask1.png""],[""img/mask97.png""],[""img/mask58.png""],[""img/mask58.png""],[""img/mask83.png""],[""img/mask96.png""],[""img/mask18.png""],[""img/mask82.png""],[""img/mask77.png""],[""img/mask18.png""],[""img/mask68.png""],[""img/mask77.png""],[""img/mask5.png""],[""img/mask3.png""],[""img/mask32.png""],[""img/mask11.png""],[""img/mask80.png""],[""img/mask89.png""],[""img/mask84.png""],[""img/mask2.png""],[""img/mask11.png""],[""img/mask64.png""],[""img/mask33.png""],[""img/mask5.png""],[""img/mask16.png""],[""img/mask19.png""],[""img/mask90.png""],[""img/mask62.png""],[""img/mask52.png""]]]","","[34,15,25,11,1,28,17,0,5,4,7,2,13,6,27,29,26,9,32,8,16,21,33,19,20,3,22,24,10,31,14,12,30,18,23,35]","main","96","many-guess-6"
"","","","","","html-keyboard-response","46","200203","0.0-10.0-1.13","60a7d7b70d3cf8f48a8a490d","640759fa512f630a2bdc333d","6408c17412ffd79af08583ce","null","","null","","","","","","","","","","","","","","","","","","","fixation","",""
"","","","","","many-guess-6","47","204523","0.0-10.0-0.14-0.14","60a7d7b70d3cf8f48a8a490d","640759fa512f630a2bdc333d","6408c17412ffd79af08583ce","[1345.800000000745]","","","[24,11,35,29,0,26,21,17,22,31,7,6,9,33,34,32,23,14,27,1,8,2,18,25,13,3,30,19,15,20,10,5,12,16,28,4]","[159,259,59,119,209,109,279,99,30,219,269,50,149,229,69,129,339,10,79,239,289,309,249,179,299,189,359,319,40,89,349,199,329,20,139,169]","159","116","328.7036701888103","[328.7036701888103]","[212.7036701888103]","[213]","[210,120,30,30,120,120,210,30,30]","0","36","0","149.45900000000256","12.643000000010943","16","[[[""img/mask87.png""],[""img/mask83.png""],[""img/mask19.png""],[""img/mask63.png""],[""img/mask89.png""],[""img/mask90.png""],[""img/mask45.png""],[""img/mask81.png""],[""img/mask71.png""],[""img/mask68.png""],[""img/mask80.png""],[""img/mask79.png""],[""img/mask12.png""],[""img/mask40.png""],[""img/mask100.png""],[""img/mask49.png""],[""img/mask58.png""],[""img/mask59.png""],[""img/mask89.png""],[""img/mask23.png""],[""img/mask61.png""],[""img/mask59.png""],[""img/mask41.png""],[""img/mask100.png""],[""img/mask51.png""],[""img/mask92.png""],[""img/mask100.png""],[""img/mask17.png""],[""img/mask94.png""],[""img/mask8.png""],[""img/mask11.png""],[""img/mask11.png""],[""img/mask43.png""],[""img/mask65.png""],[""img/mask9.png""],[""img/mask63.png""]]]","","[24,11,35,29,0,26,21,17,22,31,7,6,9,33,34,32,23,14,27,1,8,2,18,25,13,3,30,19,15,20,10,5,12,16,28,4]","main","116","many-guess-6"
"","","","","","html-keyboard-response","48","205026","0.0-10.0-1.14","60a7d7b70d3cf8f48a8a490d","640759fa512f630a2bdc333d","6408c17412ffd79af08583ce","null","","null","","","","","","","","","","","","","","","","","","","fixation","",""
"","","","","","many-guess-6","49","209067","0.0-10.0-0.15-0.15","60a7d7b70d3cf8f48a8a490d","640759fa512f630a2bdc333d","6408c17412ffd79af08583ce","[1556.1000000014901]","","","[4,25,14,11,12,26,15,8,16,21,33,18,35,9,29,19,24,1,3,20,6,5,22,7,10,27,17,32,2,28,0,23,31,34,30,13]","[24,293,54,123,263,183,253,4,143,353,213,203,163,64,243,283,93,83,273,34,113,133,153,193,343,173,14,74,223,303,323,44,333,313,233,103]","24","47","310.7409362833898","[310.7409362833898]","[263.7409362833898]","[264]","[300,210,120,30,300,300,300,300,210]","0","36","0","149.36800000222865","14.339000000734814","16","[[[""img/mask85.png""],[""img/mask82.png""],[""img/mask34.png""],[""img/mask90.png""],[""img/mask6.png""],[""img/mask7.png""],[""img/mask79.png""],[""img/mask67.png""],[""img/mask62.png""],[""img/mask20.png""],[""img/mask77.png""],[""img/mask48.png""],[""img/mask98.png""],[""img/mask52.png""],[""img/mask35.png""],[""img/mask28.png""],[""img/mask20.png""],[""img/mask49.png""],[""img/mask20.png""],[""img/mask55.png""],[""img/mask45.png""],[""img/mask21.png""],[""img/mask100.png""],[""img/mask5.png""],[""img/mask77.png""],[""img/mask72.png""],[""img/mask10.png""],[""img/mask60.png""],[""img/mask15.png""],[""img/mask99.png""],[""img/mask39.png""],[""img/mask14.png""],[""img/mask71.png""],[""img/mask34.png""],[""img/mask77.png""],[""img/mask75.png""]]]","","[4,25,14,11,12,26,15,8,16,21,33,18,35,9,29,19,24,1,3,20,6,5,22,7,10,27,17,32,2,28,0,23,31,34,30,13]","main","47","many-guess-6"
"","","","","","html-keyboard-response","50","209575","0.0-10.0-1.15","60a7d7b70d3cf8f48a8a490d","640759fa512f630a2bdc333d","6408c17412ffd79af08583ce","null","","null","","","","","","","","","","","","","","","","","","","fixation","",""
"","","","","","many-guess-6","51","214413","0.0-10.0-0.16-0.16","60a7d7b70d3cf8f48a8a490d","640759fa512f630a2bdc333d","6408c17412ffd79af08583ce","[2168.5]","","","[29,33,0,30,13,12,18,32,11,10,31,16,6,3,14,28,23,34,35,17,9,8,20,26,15,25,1,4,24,7,2,19,27,21,22,5]","[106,186,236,196,156,176,315,305,216,96,76,6,276,36,226,246,335,166,66,56,206,26,126,136,285,295,16,256,325,86,116,266,146,355,345,46]","106","282","354.4154384360513","[354.4154384360513]","[72.41543843605132]","[72]","[120,120,210,210,30,210,30,30,210]","0","36","0","149.7400000015041","13.092000002972782","16","[[[""img/mask60.png""],[""img/mask33.png""],[""img/mask29.png""],[""img/mask35.png""],[""img/mask71.png""],[""img/mask20.png""],[""img/mask81.png""],[""img/mask77.png""],[""img/mask57.png""],[""img/mask56.png""],[""img/mask19.png""],[""img/mask58.png""],[""img/mask44.png""],[""img/mask51.png""],[""img/mask68.png""],[""img/mask3.png""],[""img/mask35.png""],[""img/mask95.png""],[""img/mask82.png""],[""img/mask95.png""],[""img/mask95.png""],[""img/mask44.png""],[""img/mask52.png""],[""img/mask16.png""],[""img/mask71.png""],[""img/mask58.png""],[""img/mask76.png""],[""img/mask30.png""],[""img/mask41.png""],[""img/mask53.png""],[""img/mask53.png""],[""img/mask15.png""],[""img/mask83.png""],[""img/mask14.png""],[""img/mask98.png""],[""img/mask64.png""]]]","","[29,33,0,30,13,12,18,32,11,10,31,16,6,3,14,28,23,34,35,17,9,8,20,26,15,25,1,4,24,7,2,19,27,21,22,5]","main","282","many-guess-6"
"","","","","","html-keyboard-response","52","214916","0.0-10.0-1.16","60a7d7b70d3cf8f48a8a490d","640759fa512f630a2bdc333d","6408c17412ffd79af08583ce","null","","null","","","","","","","","","","","","","","","","","","","fixation","",""
"","","","","","many-guess-6","53","219201","0.0-10.0-0.17-0.17","60a7d7b70d3cf8f48a8a490d","640759fa512f630a2bdc333d","6408c17412ffd79af08583ce","[1640]","","","[17,12,0,27,31,11,21,6,5,34,28,19,15,26,4,20,35,10,33,16,32,24,9,1,22,25,3,7,29,30,8,2,14,18,23,13]","[292,213,223,153,302,173,123,312,73,283,243,263,273,13,63,33,3,352,103,253,233,332,342,93,322,23,183,83,113,163,193,43,53,143,203,133]","292","69","267.5765438748111","[267.5765438748111]","[198.57654387481108]","[199]","[30,300,300,210,210,30,210,120,30]","0","36","0","149.1920000029786","10.708000000740867","16","[[[""img/mask14.png""],[""img/mask40.png""],[""img/mask42.png""],[""img/mask38.png""],[""img/mask68.png""],[""img/mask20.png""],[""img/mask1.png""],[""img/mask30.png""],[""img/mask97.png""],[""img/mask6.png""],[""img/mask81.png""],[""img/mask69.png""],[""img/mask95.png""],[""img/mask12.png""],[""img/mask5.png""],[""img/mask40.png""],[""img/mask20.png""],[""img/mask87.png""],[""img/mask25.png""],[""img/mask73.png""],[""img/mask63.png""],[""img/mask76.png""],[""img/mask67.png""],[""img/mask84.png""],[""img/mask16.png""],[""img/mask91.png""],[""img/mask66.png""],[""img/mask5.png""],[""img/mask50.png""],[""img/mask98.png""],[""img/mask68.png""],[""img/mask92.png""],[""img/mask87.png""],[""img/mask40.png""],[""img/mask52.png""],[""img/mask58.png""]]]","","[17,12,0,27,31,11,21,6,5,34,28,19,15,26,4,20,35,10,33,16,32,24,9,1,22,25,3,7,29,30,8,2,14,18,23,13]","main","69","many-guess-6"
"","","","","","html-keyboard-response","54","219702","0.0-10.0-1.17","60a7d7b70d3cf8f48a8a490d","640759fa512f630a2bdc333d","6408c17412ffd79af08583ce","null","","null","","","","","","","","","","","","","","","","","","","fixation","",""
"","","","","","color-precision2","55","223619","0.0-10.0-0.18-0.18","60a7d7b70d3cf8f48a8a490d","640759fa512f630a2bdc333d","6408c17412ffd79af08583ce","[324.20000000298023]","","","[35]","[102]","102","294","27.00939910981611","[27.00939910981611]","[93.00939910981612]","[92]","0","0","1","0","148.68700000297395","1008.0600000007544","1000","[[[""img/mask27.png""]]]","","","main","294","color-precision2"
"","","","","","html-keyboard-response","56","224119","0.0-10.0-1.18","60a7d7b70d3cf8f48a8a490d","640759fa512f630a2bdc333d","6408c17412ffd79af08583ce","null","","null","","","","","","","","","","","","","","","","","","","fixation","",""
"","","","","","many-guess-6","57","228707","0.0-10.0-0.19-0.19","60a7d7b70d3cf8f48a8a490d","640759fa512f630a2bdc333d","6408c17412ffd79af08583ce","[1412.699999999255]","","","[10,19,15,0,30,21,12,2,17,22,8,27,5,34,32,9,33,6,16,7,23,25,29,14,26,35,4,13,11,1,3,20,18,31,24,28]","[47,287,277,247,237,8,307,267,137,357,257,67,207,17,197,77,87,297,57,37,327,127,177,187,347,167,227,117,337,217,317,27,147,107,157,97]","47","293","289.421708650124","[289.421708650124]","[356.421708650124]","[357]","[120,30,30,210,300,300,120,210,210]","0","36","0","148.6920000022219","20.68500000075437","16","[[[""img/mask100.png""],[""img/mask37.png""],[""img/mask98.png""],[""img/mask9.png""],[""img/mask42.png""],[""img/mask99.png""],[""img/mask24.png""],[""img/mask29.png""],[""img/mask10.png""],[""img/mask51.png""],[""img/mask48.png""],[""img/mask27.png""],[""img/mask84.png""],[""img/mask27.png""],[""img/mask85.png""],[""img/mask85.png""],[""img/mask90.png""],[""img/mask27.png""],[""img/mask76.png""],[""img/mask100.png""],[""img/mask64.png""],[""img/mask6.png""],[""img/mask69.png""],[""img/mask93.png""],[""img/mask61.png""],[""img/mask18.png""],[""img/mask77.png""],[""img/mask13.png""],[""img/mask11.png""],[""img/mask19.png""],[""img/mask28.png""],[""img/mask51.png""],[""img/mask82.png""],[""img/mask59.png""],[""img/mask73.png""],[""img/mask26.png""]]]","","[10,19,15,0,30,21,12,2,17,22,8,27,5,34,32,9,33,6,16,7,23,25,29,14,26,35,4,13,11,1,3,20,18,31,24,28]","main","293","many-guess-6"
"","","","","","html-keyboard-response","58","232999","0.0-10.0-1.19","60a7d7b70d3cf8f48a8a490d","640759fa512f630a2bdc333d","6408c17412ffd79af08583ce","4291","Wow! You've completed 20 out of 180 trials! </p> <p>  </p><p> Take a quick break, then press any key when you're ready to continue.","f","","","","","","","","","","","","","","","","","","","fixation","",""
"","","","","","color-precision2","59","236394","0.0-10.0-0.20-0.20","60a7d7b70d3cf8f48a8a490d","640759fa512f630a2bdc333d","6408c17412ffd79af08583ce","[382.20000000298023]","","","[9]","[249]","249","356","239.77644446546873","[239.77644446546873]","[243.77644446546873]","[244]","0","0","1","0","148.2160000029835","1001.5780000022496","1000","[[[""img/mask92.png""]]]","","","main","356","color-precision2"
"","","","","","html-keyboard-response","60","236906","0.0-10.0-1.20","60a7d7b70d3cf8f48a8a490d","640759fa512f630a2bdc333d","6408c17412ffd79af08583ce","null","","null","","","","","","","","","","","","","","","","","","","fixation","",""
"","","","","","many-guess-6","61","242446","0.0-10.0-0.21-0.21","60a7d7b70d3cf8f48a8a490d","640759fa512f630a2bdc333d","6408c17412ffd79af08583ce","[3735.699999999255]","","","[27,20,6,25,32,29,0,31,3,14,26,8,24,35,28,33,4,22,7,19,18,1,5,12,34,21,30,9,13,16,11,23,2,15,10,17]","[126,66,216,136,315,266,206,96,236,106,256,116,26,146,156,276,76,345,186,86,335,355,296,196,166,46,226,6,325,305,286,16,36,56,176,246]","126","267","55.2850020201397","[55.2850020201397]","[148.2850020201397]","[147]","[30,30,30,120,30,300,300,30,210]","0","36","0","149.5920000014885","21.7500000007567","16","[[[""img/mask25.png""],[""img/mask57.png""],[""img/mask81.png""],[""img/mask66.png""],[""img/mask76.png""],[""img/mask60.png""],[""img/mask2.png""],[""img/mask48.png""],[""img/mask4.png""],[""img/mask38.png""],[""img/mask5.png""],[""img/mask60.png""],[""img/mask91.png""],[""img/mask54.png""],[""img/mask67.png""],[""img/mask96.png""],[""img/mask33.png""],[""img/mask78.png""],[""img/mask51.png""],[""img/mask76.png""],[""img/mask60.png""],[""img/mask78.png""],[""img/mask69.png""],[""img/mask79.png""],[""img/mask14.png""],[""img/mask26.png""],[""img/mask63.png""],[""img/mask71.png""],[""img/mask67.png""],[""img/mask67.png""],[""img/mask24.png""],[""img/mask47.png""],[""img/mask3.png""],[""img/mask10.png""],[""img/mask100.png""],[""img/mask31.png""]]]","","[27,20,6,25,32,29,0,31,3,14,26,8,24,35,28,33,4,22,7,19,18,1,5,12,34,21,30,9,13,16,11,23,2,15,10,17]","main","267","many-guess-6"
"","","","","","html-keyboard-response","62","242952","0.0-10.0-1.21","60a7d7b70d3cf8f48a8a490d","640759fa512f630a2bdc333d","6408c17412ffd79af08583ce","null","","null","","","","","","","","","","","","","","","","","","","fixation","",""
"","","","","","many-guess-6","63","246856","0.0-10.0-0.22-0.22","60a7d7b70d3cf8f48a8a490d","640759fa512f630a2bdc333d","6408c17412ffd79af08583ce","[1462.4000000022352]","","","[24,19,16,6,0,32,1,17,5,8,11,2,26,9,34,12,7,14,23,28,13,21,33,31,22,25,20,18,29,27,4,3,15,35,30,10]","[59,49,109,288,328,189,99,139,248,278,159,348,238,199,268,69,39,149,358,129,258,219,19,209,89,298,338,169,318,79,9,179,29,229,308,119]","59","58","326.68858304753223","[326.68858304753223]","[268.68858304753223]","[268]","[210,210,120,120,120,300,120,120,30]","0","36","0","148.92500000222935","21.05600000298","16","[[[""img/mask71.png""],[""img/mask14.png""],[""img/mask87.png""],[""img/mask90.png""],[""img/mask69.png""],[""img/mask77.png""],[""img/mask100.png""],[""img/mask24.png""],[""img/mask60.png""],[""img/mask40.png""],[""img/mask16.png""],[""img/mask37.png""],[""img/mask84.png""],[""img/mask70.png""],[""img/mask82.png""],[""img/mask17.png""],[""img/mask98.png""],[""img/mask100.png""],[""img/mask12.png""],[""img/mask23.png""],[""img/mask100.png""],[""img/mask31.png""],[""img/mask61.png""],[""img/mask28.png""],[""img/mask73.png""],[""img/mask84.png""],[""img/mask36.png""],[""img/mask6.png""],[""img/mask69.png""],[""img/mask65.png""],[""img/mask83.png""],[""img/mask23.png""],[""img/mask84.png""],[""img/mask69.png""],[""img/mask3.png""],[""img/mask36.png""]]]","","[24,19,16,6,0,32,1,17,5,8,11,2,26,9,34,12,7,14,23,28,13,21,33,31,22,25,20,18,29,27,4,3,15,35,30,10]","main","58","many-guess-6"
"","","","","","html-keyboard-response","64","247361","0.0-10.0-1.22","60a7d7b70d3cf8f48a8a490d","640759fa512f630a2bdc333d","6408c17412ffd79af08583ce","null","","null","","","","","","","","","","","","","","","","","","","fixation","",""
"","","","","","color-precision2","65","251329","0.0-10.0-0.23-0.23","60a7d7b70d3cf8f48a8a490d","640759fa512f630a2bdc333d","6408c17412ffd79af08583ce","[1267.7999999970198]","","","[5]","[8]","8","260","262.80317117218544","[262.80317117218544]","[2.8031711721854435]","[3]","0","0","1","0","149.17600000149105","1006.0750000029802","1000","[[[""img/mask34.png""]]]","","","main","260","color-precision2"
"","","","","","html-keyboard-response","66","251830","0.0-10.0-1.23","60a7d7b70d3cf8f48a8a490d","640759fa512f630a2bdc333d","6408c17412ffd79af08583ce","null","","null","","","","","","","","","","","","","","","","","","","fixation","",""
"","","","","","many-guess-6","67","256235","0.0-10.0-0.24-0.24","60a7d7b70d3cf8f48a8a490d","640759fa512f630a2bdc333d","6408c17412ffd79af08583ce","[2791]","","","[28,8,15,26,34,9,29,10,23,35,16,20,12,30,19,25,0,1,4,13,27,32,14,21,22,6,33,3,18,24,31,7,17,2,11,5]","[25,5,294,254,85,354,204,175,155,55,334,194,65,115,284,324,185,344,45,105,224,304,95,264,314,244,145,135,214,35,15,234,165,274,75,125]","25","156","31.98560994231332","[31.98560994231332]","[235.98560994231332]","[235]","[210,120,210,210,300,210,30,300,120]","0","36","0","149.30200000223704","12.065000000759028","16","[[[""img/mask44.png""],[""img/mask42.png""],[""img/mask56.png""],[""img/mask22.png""],[""img/mask84.png""],[""img/mask20.png""],[""img/mask76.png""],[""img/mask91.png""],[""img/mask88.png""],[""img/mask85.png""],[""img/mask54.png""],[""img/mask7.png""],[""img/mask41.png""],[""img/mask53.png""],[""img/mask61.png""],[""img/mask86.png""],[""img/mask73.png""],[""img/mask24.png""],[""img/mask11.png""],[""img/mask10.png""],[""img/mask9.png""],[""img/mask89.png""],[""img/mask67.png""],[""img/mask49.png""],[""img/mask74.png""],[""img/mask23.png""],[""img/mask7.png""],[""img/mask66.png""],[""img/mask10.png""],[""img/mask41.png""],[""img/mask80.png""],[""img/mask63.png""],[""img/mask57.png""],[""img/mask79.png""],[""img/mask51.png""],[""img/mask63.png""]]]","","[28,8,15,26,34,9,29,10,23,35,16,20,12,30,19,25,0,1,4,13,27,32,14,21,22,6,33,3,18,24,31,7,17,2,11,5]","main","156","many-guess-6"
"","","","","","html-keyboard-response","68","256737","0.0-10.0-1.24","60a7d7b70d3cf8f48a8a490d","640759fa512f630a2bdc333d","6408c17412ffd79af08583ce","null","","null","","","","","","","","","","","","","","","","","","","fixation","",""
"","","","","","many-guess-6","69","261440","0.0-10.0-0.25-0.25","60a7d7b70d3cf8f48a8a490d","640759fa512f630a2bdc333d","6408c17412ffd79af08583ce","[2213]","","","[19,8,11,34,10,33,9,20,16,25,22,26,13,35,21,2,32,7,27,0,5,12,15,31,3,29,18,6,28,17,23,1,4,30,14,24]","[201,331,131,241,211,51,121,81,71,101,151,321,281,350,301,181,231,111,141,340,31,171,1,251,21,221,11,161,311,261,91,41,61,191,291,271]","201","332","272.1274704032067","[272.1274704032067]","[300.1274704032067]","[301]","[120,210,300,300,300,300,120,120,300]","0","36","0","149.3750000014843","9.442000001494307","16","[[[""img/mask85.png""],[""img/mask53.png""],[""img/mask43.png""],[""img/mask81.png""],[""img/mask55.png""],[""img/mask29.png""],[""img/mask56.png""],[""img/mask29.png""],[""img/mask48.png""],[""img/mask54.png""],[""img/mask47.png""],[""img/mask86.png""],[""img/mask57.png""],[""img/mask83.png""],[""img/mask53.png""],[""img/mask34.png""],[""img/mask51.png""],[""img/mask45.png""],[""img/mask35.png""],[""img/mask7.png""],[""img/mask12.png""],[""img/mask69.png""],[""img/mask9.png""],[""img/mask4.png""],[""img/mask16.png""],[""img/mask32.png""],[""img/mask63.png""],[""img/mask8.png""],[""img/mask26.png""],[""img/mask80.png""],[""img/mask92.png""],[""img/mask53.png""],[""img/mask4.png""],[""img/mask35.png""],[""img/mask63.png""],[""img/mask30.png""]]]","","[19,8,11,34,10,33,9,20,16,25,22,26,13,35,21,2,32,7,27,0,5,12,15,31,3,29,18,6,28,17,23,1,4,30,14,24]","main","332","many-guess-6"
"","","","","","html-keyboard-response","70","261942","0.0-10.0-1.25","60a7d7b70d3cf8f48a8a490d","640759fa512f630a2bdc333d","6408c17412ffd79af08583ce","null","","null","","","","","","","","","","","","","","","","","","","fixation","",""
"","","","","","many-guess-6","71","265683","0.0-10.0-0.26-0.26","60a7d7b70d3cf8f48a8a490d","640759fa512f630a2bdc333d","6408c17412ffd79af08583ce","[1722.2000000029802]","","","[4,11,30,35,14,25,1,31,3,27,0,28,10,21,2,16,5,13,34,32,23,17,29,15,19,8,22,12,33,6,9,24,7,18,26,20]","[15,344,185,294,75,205,225,135,215,105,45,354,254,274,5,314,324,195,235,145,95,65,334,125,284,155,244,165,304,55,85,25,35,115,264,175]","15","38","3.6926709637077986","[3.6926709637077986]","[325.69267096370777]","[325]","[210,120,30,300,300,210,210,30,30]","0","36","0","148.52899999998044","19.36000000225613","16","[[[""img/mask3.png""],[""img/mask44.png""],[""img/mask54.png""],[""img/mask34.png""],[""img/mask86.png""],[""img/mask15.png""],[""img/mask67.png""],[""img/mask25.png""],[""img/mask85.png""],[""img/mask28.png""],[""img/mask95.png""],[""img/mask70.png""],[""img/mask94.png""],[""img/mask35.png""],[""img/mask14.png""],[""img/mask54.png""],[""img/mask60.png""],[""img/mask88.png""],[""img/mask96.png""],[""img/mask17.png""],[""img/mask38.png""],[""img/mask18.png""],[""img/mask38.png""],[""img/mask94.png""],[""img/mask52.png""],[""img/mask14.png""],[""img/mask48.png""],[""img/mask51.png""],[""img/mask74.png""],[""img/mask19.png""],[""img/mask12.png""],[""img/mask90.png""],[""img/mask67.png""],[""img/mask59.png""],[""img/mask13.png""],[""img/mask12.png""]]]","","[4,11,30,35,14,25,1,31,3,27,0,28,10,21,2,16,5,13,34,32,23,17,29,15,19,8,22,12,33,6,9,24,7,18,26,20]","main","38","many-guess-6"
"","","","","","html-keyboard-response","72","266186","0.0-10.0-1.26","60a7d7b70d3cf8f48a8a490d","640759fa512f630a2bdc333d","6408c17412ffd79af08583ce","null","","null","","","","","","","","","","","","","","","","","","","fixation","",""
"","","","","","many-guess-6","73","269859","0.0-10.0-0.27-0.27","60a7d7b70d3cf8f48a8a490d","640759fa512f630a2bdc333d","6408c17412ffd79af08583ce","[1164.5]","","","[13,9,12,8,35,27,3,32,23,25,10,19,31,14,2,33,4,17,5,22,28,20,21,11,26,0,6,29,1,18,34,16,30,24,7,15]","[220,120,230,1,40,320,20,190,70,180,150,140,300,250,110,100,290,350,340,170,80,280,10,90,310,270,330,30,240,60,200,130,260,50,160,210]","220","162","337.6199837975002","[337.6199837975002]","[175.6199837975002]","[175]","[210,300,210,300,210,210,30,120,30]","0","36","0","149.46000000147615","17.621000002953224","16","[[[""img/mask59.png""],[""img/mask1.png""],[""img/mask40.png""],[""img/mask74.png""],[""img/mask27.png""],[""img/mask13.png""],[""img/mask74.png""],[""img/mask97.png""],[""img/mask68.png""],[""img/mask67.png""],[""img/mask37.png""],[""img/mask40.png""],[""img/mask3.png""],[""img/mask88.png""],[""img/mask81.png""],[""img/mask52.png""],[""img/mask94.png""],[""img/mask22.png""],[""img/mask50.png""],[""img/mask25.png""],[""img/mask74.png""],[""img/mask29.png""],[""img/mask92.png""],[""img/mask78.png""],[""img/mask3.png""],[""img/mask21.png""],[""img/mask10.png""],[""img/mask64.png""],[""img/mask46.png""],[""img/mask24.png""],[""img/mask2.png""],[""img/mask83.png""],[""img/mask92.png""],[""img/mask50.png""],[""img/mask38.png""],[""img/mask20.png""]]]","","[13,9,12,8,35,27,3,32,23,25,10,19,31,14,2,33,4,17,5,22,28,20,21,11,26,0,6,29,1,18,34,16,30,24,7,15]","main","162","many-guess-6"
"","","","","","html-keyboard-response","74","270375","0.0-10.0-1.27","60a7d7b70d3cf8f48a8a490d","640759fa512f630a2bdc333d","6408c17412ffd79af08583ce","null","","null","","","","","","","","","","","","","","","","","","","fixation","",""
"","","","","","many-guess-6","75","275562","0.0-10.0-0.28-0.28","60a7d7b70d3cf8f48a8a490d","640759fa512f630a2bdc333d","6408c17412ffd79af08583ce","[2217.800000000745]","","","[19,14,18,34,30,17,26,7,12,3,25,20,32,4,5,9,21,29,15,27,35,11,6,23,33,22,31,16,10,8,2,24,0,13,28,1]","[143,123,212,172,302,262,322,192,222,242,33,23,13,63,342,153,202,352,83,282,292,73,113,252,43,163,232,3,182,133,272,53,93,332,312,103]","143","294","63.1344996761457","[63.1344996761457]","[129.1344996761457]","[127]","[30,300,210,300,30,300,300,30,120]","0","36","0","149.02500000223517","8.159000001498498","16","[[[""img/mask36.png""],[""img/mask28.png""],[""img/mask18.png""],[""img/mask32.png""],[""img/mask32.png""],[""img/mask61.png""],[""img/mask6.png""],[""img/mask33.png""],[""img/mask52.png""],[""img/mask73.png""],[""img/mask87.png""],[""img/mask43.png""],[""img/mask28.png""],[""img/mask69.png""],[""img/mask55.png""],[""img/mask30.png""],[""img/mask73.png""],[""img/mask45.png""],[""img/mask84.png""],[""img/mask53.png""],[""img/mask29.png""],[""img/mask36.png""],[""img/mask89.png""],[""img/mask84.png""],[""img/mask56.png""],[""img/mask19.png""],[""img/mask22.png""],[""img/mask43.png""],[""img/mask31.png""],[""img/mask41.png""],[""img/mask87.png""],[""img/mask63.png""],[""img/mask23.png""],[""img/mask87.png""],[""img/mask43.png""],[""img/mask69.png""]]]","","[19,14,18,34,30,17,26,7,12,3,25,20,32,4,5,9,21,29,15,27,35,11,6,23,33,22,31,16,10,8,2,24,0,13,28,1]","main","294","many-guess-6"
"","","","","","html-keyboard-response","76","276063","0.0-10.0-1.28","60a7d7b70d3cf8f48a8a490d","640759fa512f630a2bdc333d","6408c17412ffd79af08583ce","null","","null","","","","","","","","","","","","","","","","","","","fixation","",""
"","","","","","color-precision2","77","282033","0.0-10.0-0.29-0.29","60a7d7b70d3cf8f48a8a490d","640759fa512f630a2bdc333d","6408c17412ffd79af08583ce","[2854.7000000029802]","","","[25]","[13]","13","135","173.32486664017875","[173.32486664017875]","[38.324866640178755]","[37]","0","0","1","0","148.92700000072364","999.5870000015129","1000","[[[""img/mask68.png""]]]","","","main","135","color-precision2"
"","","","","","html-keyboard-response","78","282544","0.0-10.0-1.29","60a7d7b70d3cf8f48a8a490d","640759fa512f630a2bdc333d","6408c17412ffd79af08583ce","null","","null","","","","","","","","","","","","","","","","","","","fixation","",""
"","","","","","many-guess-6","79","286867","0.0-10.0-0.30-0.30","60a7d7b70d3cf8f48a8a490d","640759fa512f630a2bdc333d","6408c17412ffd79af08583ce","[2389.400000002235]","","","[8,31,14,27,4,23,35,21,13,11,34,5,29,32,33,22,30,24,19,28,16,20,26,9,15,3,2,1,6,7,25,12,17,10,0,18]","[246,27,316,7,127,97,47,137,147,286,57,346,236,37,87,176,296,266,166,67,206,306,226,326,17,276,77,196,107,256,117,186,356,336,156,216]","246","228","293.16139326500996","[293.16139326500996]","[65.16139326500996]","[65]","[300,210,210,210,210,120,210,210,300]","0","36","0","149.5440000022063","14.249000002222601","16","[[[""img/mask21.png""],[""img/mask40.png""],[""img/mask96.png""],[""img/mask99.png""],[""img/mask73.png""],[""img/mask27.png""],[""img/mask57.png""],[""img/mask80.png""],[""img/mask29.png""],[""img/mask63.png""],[""img/mask40.png""],[""img/mask39.png""],[""img/mask53.png""],[""img/mask39.png""],[""img/mask36.png""],[""img/mask84.png""],[""img/mask9.png""],[""img/mask76.png""],[""img/mask87.png""],[""img/mask18.png""],[""img/mask25.png""],[""img/mask45.png""],[""img/mask67.png""],[""img/mask89.png""],[""img/mask39.png""],[""img/mask12.png""],[""img/mask47.png""],[""img/mask51.png""],[""img/mask79.png""],[""img/mask11.png""],[""img/mask69.png""],[""img/mask10.png""],[""img/mask98.png""],[""img/mask20.png""],[""img/mask37.png""],[""img/mask76.png""]]]","","[8,31,14,27,4,23,35,21,13,11,34,5,29,32,33,22,30,24,19,28,16,20,26,9,15,3,2,1,6,7,25,12,17,10,0,18]","main","228","many-guess-6"
"","","","","","html-keyboard-response","80","287368","0.0-10.0-1.30","60a7d7b70d3cf8f48a8a490d","640759fa512f630a2bdc333d","6408c17412ffd79af08583ce","null","","null","","","","","","","","","","","","","","","","","","","fixation","",""
"","","","","","color-precision2","81","298540","0.0-10.0-0.31-0.31","60a7d7b70d3cf8f48a8a490d","640759fa512f630a2bdc333d","6408c17412ffd79af08583ce","[5696.5]","","","[18]","[334]","334","147","325.1445596035168","[325.1445596035168]","[178.14455960351683]","[179]","0","0","1","0","149.49500000296393","996.9550000022282","1000","[[[""img/mask2.png""]]]","","","main","147","color-precision2"
"","","","","","html-keyboard-response","82","299041","0.0-10.0-1.31","60a7d7b70d3cf8f48a8a490d","640759fa512f630a2bdc333d","6408c17412ffd79af08583ce","null","","null","","","","","","","","","","","","","","","","","","","fixation","",""
"","","","","","many-guess-6","83","303019","0.0-10.0-0.32-0.32","60a7d7b70d3cf8f48a8a490d","640759fa512f630a2bdc333d","6408c17412ffd79af08583ce","[1841.4000000022352]","","","[14,12,11,30,33,13,34,28,6,27,18,7,26,19,35,1,10,15,0,20,16,24,31,22,8,32,9,17,21,4,5,3,29,23,2,25]","[239,269,348,298,318,139,358,89,328,308,338,189,79,149,129,49,9,229,279,29,199,289,219,209,259,119,109,179,169,19,69,159,59,249,99,39]","239","82","263.88983022109437","[263.88983022109437]","[181.88983022109437]","[182]","[120,30,120,300,300,300,30,30,210]","0","36","0","149.35800000297604","22.380000001518056","16","[[[""img/mask74.png""],[""img/mask91.png""],[""img/mask99.png""],[""img/mask49.png""],[""img/mask70.png""],[""img/mask13.png""],[""img/mask23.png""],[""img/mask61.png""],[""img/mask56.png""],[""img/mask92.png""],[""img/mask69.png""],[""img/mask91.png""],[""img/mask28.png""],[""img/mask42.png""],[""img/mask50.png""],[""img/mask47.png""],[""img/mask27.png""],[""img/mask4.png""],[""img/mask39.png""],[""img/mask41.png""],[""img/mask92.png""],[""img/mask65.png""],[""img/mask84.png""],[""img/mask75.png""],[""img/mask97.png""],[""img/mask62.png""],[""img/mask19.png""],[""img/mask29.png""],[""img/mask88.png""],[""img/mask24.png""],[""img/mask73.png""],[""img/mask18.png""],[""img/mask34.png""],[""img/mask66.png""],[""img/mask39.png""],[""img/mask59.png""]]]","","[14,12,11,30,33,13,34,28,6,27,18,7,26,19,35,1,10,15,0,20,16,24,31,22,8,32,9,17,21,4,5,3,29,23,2,25]","main","82","many-guess-6"
"","","","","","html-keyboard-response","84","303520","0.0-10.0-1.32","60a7d7b70d3cf8f48a8a490d","640759fa512f630a2bdc333d","6408c17412ffd79af08583ce","null","","null","","","","","","","","","","","","","","","","","","","fixation","",""
"","","","","","many-guess-6","85","306840","0.0-10.0-0.33-0.33","60a7d7b70d3cf8f48a8a490d","640759fa512f630a2bdc333d","6408c17412ffd79af08583ce","[1279.8999999985099]","","","[29,13,22,14,32,12,21,18,0,4,20,5,30,24,34,26,27,3,9,11,28,35,17,1,33,6,7,2,10,23,25,31,16,8,15,19]","[38,317,28,327,238,228,218,18,307,168,78,118,128,158,357,8,347,68,297,178,88,248,188,287,198,208,258,278,337,58,108,148,48,98,138,268]","38","348","54.42962767607287","[54.42962767607287]","[66.42962767607287]","[65]","[30,210,300,120,300,210,300,210,300]","0","36","0","148.21000000002095","23.512000001501292","16","[[[""img/mask62.png""],[""img/mask6.png""],[""img/mask67.png""],[""img/mask19.png""],[""img/mask68.png""],[""img/mask46.png""],[""img/mask17.png""],[""img/mask83.png""],[""img/mask4.png""],[""img/mask59.png""],[""img/mask18.png""],[""img/mask97.png""],[""img/mask54.png""],[""img/mask13.png""],[""img/mask42.png""],[""img/mask78.png""],[""img/mask30.png""],[""img/mask55.png""],[""img/mask40.png""],[""img/mask89.png""],[""img/mask49.png""],[""img/mask56.png""],[""img/mask44.png""],[""img/mask49.png""],[""img/mask37.png""],[""img/mask66.png""],[""img/mask24.png""],[""img/mask81.png""],[""img/mask70.png""],[""img/mask100.png""],[""img/mask72.png""],[""img/mask55.png""],[""img/mask92.png""],[""img/mask96.png""],[""img/mask58.png""],[""img/mask97.png""]]]","","[29,13,22,14,32,12,21,18,0,4,20,5,30,24,34,26,27,3,9,11,28,35,17,1,33,6,7,2,10,23,25,31,16,8,15,19]","main","348","many-guess-6"
"","","","","","html-keyboard-response","86","307341","0.0-10.0-1.33","60a7d7b70d3cf8f48a8a490d","640759fa512f630a2bdc333d","6408c17412ffd79af08583ce","null","","null","","","","","","","","","","","","","","","","","","","fixation","",""
"","","","","","color-precision2","87","313870","0.0-10.0-0.34-0.34","60a7d7b70d3cf8f48a8a490d","640759fa512f630a2bdc333d","6408c17412ffd79af08583ce","[2526.2000000029802]","","","[10]","[63]","63","133","191.4404197915601","[191.4404197915601]","[58.44041979156009]","[58]","0","0","1","0","149.13900000147987","1003.5680000022403","1000","[[[""img/mask55.png""]]]","","","main","133","color-precision2"
"","","","","","html-keyboard-response","88","314371","0.0-10.0-1.34","60a7d7b70d3cf8f48a8a490d","640759fa512f630a2bdc333d","6408c17412ffd79af08583ce","null","","null","","","","","","","","","","","","","","","","","","","fixation","",""
"","","","","","color-precision2","89","318804","0.0-10.0-0.35-0.35","60a7d7b70d3cf8f48a8a490d","640759fa512f630a2bdc333d","6408c17412ffd79af08583ce","[727.3999999985099]","","","[22]","[126]","126","73","203.04915132694","[203.04915132694]","[130.04915132694]","[130]","0","0","1","0","149.66600000148173","1006.5040000007721","1000","[[[""img/mask18.png""]]]","","","main","73","color-precision2"
"","","","","","html-keyboard-response","90","319306","0.0-10.0-1.35","60a7d7b70d3cf8f48a8a490d","640759fa512f630a2bdc333d","6408c17412ffd79af08583ce","null","","null","","","","","","","","","","","","","","","","","","","fixation","",""
"","","","","","many-guess-6","91","323140","0.0-10.0-0.36-0.36","60a7d7b70d3cf8f48a8a490d","640759fa512f630a2bdc333d","6408c17412ffd79af08583ce","[1546.199999999255]","","","[32,13,18,25,27,10,28,4,3,22,23,6,14,12,17,20,26,5,19,7,34,2,11,30,9,15,35,24,31,21,16,33,1,0,29,8]","[162,191,92,22,32,72,261,82,251,2,112,52,291,311,122,132,241,321,171,181,211,301,42,62,152,331,271,281,201,351,221,341,12,231,102,142]","162","129","324.77065126054043","[324.77065126054043]","[195.77065126054043]","[196]","[120,300,30,210,30,210,210,210,120]","0","36","0","149.4320000029984","11.490999999979977","16","[[[""img/mask74.png""],[""img/mask46.png""],[""img/mask30.png""],[""img/mask88.png""],[""img/mask25.png""],[""img/mask29.png""],[""img/mask34.png""],[""img/mask2.png""],[""img/mask9.png""],[""img/mask49.png""],[""img/mask38.png""],[""img/mask9.png""],[""img/mask93.png""],[""img/mask27.png""],[""img/mask45.png""],[""img/mask71.png""],[""img/mask62.png""],[""img/mask82.png""],[""img/mask47.png""],[""img/mask88.png""],[""img/mask35.png""],[""img/mask3.png""],[""img/mask33.png""],[""img/mask23.png""],[""img/mask20.png""],[""img/mask89.png""],[""img/mask13.png""],[""img/mask28.png""],[""img/mask31.png""],[""img/mask72.png""],[""img/mask90.png""],[""img/mask36.png""],[""img/mask73.png""],[""img/mask12.png""],[""img/mask92.png""],[""img/mask99.png""]]]","","[32,13,18,25,27,10,28,4,3,22,23,6,14,12,17,20,26,5,19,7,34,2,11,30,9,15,35,24,31,21,16,33,1,0,29,8]","main","129","many-guess-6"
"","","","","","html-keyboard-response","92","323641","0.0-10.0-1.36","60a7d7b70d3cf8f48a8a490d","640759fa512f630a2bdc333d","6408c17412ffd79af08583ce","null","","null","","","","","","","","","","","","","","","","","","","fixation","",""
"","","","","","many-guess-6","93","327035","0.0-10.0-0.37-0.37","60a7d7b70d3cf8f48a8a490d","640759fa512f630a2bdc333d","6408c17412ffd79af08583ce","[1374]","","","[13,7,1,24,0,9,30,29,27,5,23,11,6,25,28,34,12,10,21,18,3,22,16,31,8,35,15,20,14,2,4,33,26,19,17,32]","[343,273,173,114,293,143,44,153,303,323,4,263,64,213,24,163,253,243,54,183,133,313,94,283,84,104,333,34,193,203,124,14,353,233,223,74]","343","283","28.32908366680055","[28.32908366680055]","[105.32908366680056]","[104]","[210,120,30,30,210,300,210,30,300]","0","36","0","149.4310000030091","13.640000002225861","16","[[[""img/mask41.png""],[""img/mask21.png""],[""img/mask49.png""],[""img/mask27.png""],[""img/mask66.png""],[""img/mask78.png""],[""img/mask34.png""],[""img/mask33.png""],[""img/mask64.png""],[""img/mask12.png""],[""img/mask62.png""],[""img/mask59.png""],[""img/mask77.png""],[""img/mask56.png""],[""img/mask6.png""],[""img/mask9.png""],[""img/mask24.png""],[""img/mask27.png""],[""img/mask89.png""],[""img/mask1.png""],[""img/mask8.png""],[""img/mask84.png""],[""img/mask2.png""],[""img/mask47.png""],[""img/mask3.png""],[""img/mask37.png""],[""img/mask78.png""],[""img/mask80.png""],[""img/mask25.png""],[""img/mask5.png""],[""img/mask27.png""],[""img/mask85.png""],[""img/mask88.png""],[""img/mask91.png""],[""img/mask17.png""],[""img/mask36.png""]]]","","[13,7,1,24,0,9,30,29,27,5,23,11,6,25,28,34,12,10,21,18,3,22,16,31,8,35,15,20,14,2,4,33,26,19,17,32]","main","283","many-guess-6"
"","","","","","html-keyboard-response","94","327536","0.0-10.0-1.37","60a7d7b70d3cf8f48a8a490d","640759fa512f630a2bdc333d","6408c17412ffd79af08583ce","null","","null","","","","","","","","","","","","","","","","","","","fixation","",""
"","","","","","color-precision2","95","333632","0.0-10.0-0.38-0.38","60a7d7b70d3cf8f48a8a490d","640759fa512f630a2bdc333d","6408c17412ffd79af08583ce","[2838.5]","","","[20]","[22]","22","222","240.7535146770627","[240.7535146770627]","[18.753514677062697]","[19]","0","0","1","0","148.69900000002235","992.5790000014822","1000","[[[""img/mask75.png""]]]","","","main","222","color-precision2"
"","","","","","html-keyboard-response","96","334134","0.0-10.0-1.38","60a7d7b70d3cf8f48a8a490d","640759fa512f630a2bdc333d","6408c17412ffd79af08583ce","null","","null","","","","","","","","","","","","","","","","","","","fixation","",""
"","","","","","color-precision2","97","338361","0.0-10.0-0.39-0.39","60a7d7b70d3cf8f48a8a490d","640759fa512f630a2bdc333d","6408c17412ffd79af08583ce","[400]","","","[17]","[256]","256","174","86.78532903340363","[86.78532903340363]","[272.7853290334036]","[271]","0","0","1","0","147.74699999997392","1004.3460000014747","1000","[[[""img/mask46.png""]]]","","","main","174","color-precision2"
"","","","","","html-keyboard-response","98","372006","0.0-10.0-1.39","60a7d7b70d3cf8f48a8a490d","640759fa512f630a2bdc333d","6408c17412ffd79af08583ce","33645.099999997765","Wow! You've completed 40 out of 180 trials! </p> <p>  </p><p> Take a quick break, then press any key when you're ready to continue.","f","","","","","","","","","","","","","","","","","","","fixation","",""
"","","","","","many-guess-6","99","375494","0.0-10.0-0.40-0.40","60a7d7b70d3cf8f48a8a490d","640759fa512f630a2bdc333d","6408c17412ffd79af08583ce","[1284.0999999977648]","","","[4,21,12,16,31,30,20,8,14,32,19,22,33,15,26,17,18,35,23,29,27,25,34,6,13,5,11,10,0,9,7,3,1,24,28,2]","[212,262,312,242,122,22,3,282,142,342,322,352,202,32,52,192,82,232,112,172,132,222,152,92,72,62,332,162,12,272,42,252,182,292,102,302]","212","255","274.4115413893218","[274.4115413893218]","[19.411541389321826]","[20]","[210,120,120,300,210,300,300,210,210]","0","36","0","148.27000000223052","16.06100000225706","16","[[[""img/mask72.png""],[""img/mask98.png""],[""img/mask54.png""],[""img/mask86.png""],[""img/mask88.png""],[""img/mask37.png""],[""img/mask25.png""],[""img/mask47.png""],[""img/mask16.png""],[""img/mask64.png""],[""img/mask93.png""],[""img/mask82.png""],[""img/mask89.png""],[""img/mask62.png""],[""img/mask67.png""],[""img/mask55.png""],[""img/mask53.png""],[""img/mask48.png""],[""img/mask3.png""],[""img/mask14.png""],[""img/mask99.png""],[""img/mask40.png""],[""img/mask63.png""],[""img/mask44.png""],[""img/mask30.png""],[""img/mask14.png""],[""img/mask9.png""],[""img/mask3.png""],[""img/mask64.png""],[""img/mask44.png""],[""img/mask88.png""],[""img/mask57.png""],[""img/mask82.png""],[""img/mask91.png""],[""img/mask99.png""],[""img/mask79.png""]]]","","[4,21,12,16,31,30,20,8,14,32,19,22,33,15,26,17,18,35,23,29,27,25,34,6,13,5,11,10,0,9,7,3,1,24,28,2]","main","255","many-guess-6"
"","","","","","html-keyboard-response","100","375996","0.0-10.0-1.40","60a7d7b70d3cf8f48a8a490d","640759fa512f630a2bdc333d","6408c17412ffd79af08583ce","null","","null","","","","","","","","","","","","","","","","","","","fixation","",""
"","","","","","many-guess-6","101","380127","0.0-10.0-0.41-0.41","60a7d7b70d3cf8f48a8a490d","640759fa512f630a2bdc333d","6408c17412ffd79af08583ce","[2032.300000000745]","","","[18,21,15,4,3,2,28,27,7,24,11,13,9,19,25,10,6,1,33,16,8,0,5,23,26,29,30,22,31,34,20,14,32,35,17,12]","[240,120,330,140,320,70,210,310,350,290,160,340,150,51,100,230,200,170,300,130,41,11,80,60,31,90,270,250,220,190,21,180,110,1,280,260]","240","140","310.49199181899576","[310.49199181899576]","[170.49199181899576]","[171]","[120,120,210,210,300,120,120,210,30]","0","36","0","149.6470000022091","9.665000002249144","16","[[[""img/mask65.png""],[""img/mask13.png""],[""img/mask96.png""],[""img/mask18.png""],[""img/mask68.png""],[""img/mask72.png""],[""img/mask56.png""],[""img/mask13.png""],[""img/mask97.png""],[""img/mask64.png""],[""img/mask19.png""],[""img/mask32.png""],[""img/mask73.png""],[""img/mask21.png""],[""img/mask29.png""],[""img/mask89.png""],[""img/mask28.png""],[""img/mask41.png""],[""img/mask1.png""],[""img/mask67.png""],[""img/mask87.png""],[""img/mask3.png""],[""img/mask60.png""],[""img/mask43.png""],[""img/mask86.png""],[""img/mask8.png""],[""img/mask29.png""],[""img/mask20.png""],[""img/mask60.png""],[""img/mask11.png""],[""img/mask77.png""],[""img/mask55.png""],[""img/mask34.png""],[""img/mask27.png""],[""img/mask88.png""],[""img/mask74.png""]]]","","[18,21,15,4,3,2,28,27,7,24,11,13,9,19,25,10,6,1,33,16,8,0,5,23,26,29,30,22,31,34,20,14,32,35,17,12]","main","140","many-guess-6"
"","","","","","html-keyboard-response","102","380628","0.0-10.0-1.41","60a7d7b70d3cf8f48a8a490d","640759fa512f630a2bdc333d","6408c17412ffd79af08583ce","null","","null","","","","","","","","","","","","","","","","","","","fixation","",""
"","","","","","color-precision2","103","384536","0.0-10.0-0.42-0.42","60a7d7b70d3cf8f48a8a490d","640759fa512f630a2bdc333d","6408c17412ffd79af08583ce","[958.3999999985099]","","","[5]","[41]","41","225","268.2997496904392","[268.2997496904392]","[43.29974969043923]","[43]","0","0","1","0","149.08400000300026","1002.8030000000144","1000","[[[""img/mask99.png""]]]","","","main","225","color-precision2"
"","","","","","html-keyboard-response","104","385038","0.0-10.0-1.42","60a7d7b70d3cf8f48a8a490d","640759fa512f630a2bdc333d","6408c17412ffd79af08583ce","null","","null","","","","","","","","","","","","","","","","","","","fixation","",""
"","","","","","color-precision2","105","389648","0.0-10.0-0.43-0.43","60a7d7b70d3cf8f48a8a490d","640759fa512f630a2bdc333d","6408c17412ffd79af08583ce","[570.6000000014901]","","","[30]","[296]","296","340","272.22058739051573","[272.22058739051573]","[292.22058739051573]","[292]","0","0","1","0","149.73300000297604","1002.8600000014994","1000","[[[""img/mask20.png""]]]","","","main","340","color-precision2"
"","","","","","html-keyboard-response","106","390154","0.0-10.0-1.43","60a7d7b70d3cf8f48a8a490d","640759fa512f630a2bdc333d","6408c17412ffd79af08583ce","null","","null","","","","","","","","","","","","","","","","","","","fixation","",""
"","","","","","many-guess-6","107","393580","0.0-10.0-0.44-0.44","60a7d7b70d3cf8f48a8a490d","640759fa512f630a2bdc333d","6408c17412ffd79af08583ce","[1202.7999999970198]","","","[12,20,10,11,9,34,19,33,28,25,26,31,4,5,16,35,2,23,21,3,24,30,17,13,18,6,29,0,14,22,32,15,1,8,7,27]","[140,280,350,320,21,310,71,1,200,31,81,110,180,340,250,270,330,170,240,220,210,130,101,230,290,91,150,260,300,120,190,61,41,11,160,51]","140","4","310.81955998103297","[310.81955998103297]","[306.81955998103297]","[307]","[210,30,30,30,210,30,210,300,120]","0","36","0","149.3290000014822","19.588000002258923","16","[[[""img/mask7.png""],[""img/mask42.png""],[""img/mask16.png""],[""img/mask61.png""],[""img/mask83.png""],[""img/mask93.png""],[""img/mask93.png""],[""img/mask66.png""],[""img/mask21.png""],[""img/mask89.png""],[""img/mask20.png""],[""img/mask24.png""],[""img/mask70.png""],[""img/mask27.png""],[""img/mask55.png""],[""img/mask54.png""],[""img/mask26.png""],[""img/mask67.png""],[""img/mask64.png""],[""img/mask97.png""],[""img/mask10.png""],[""img/mask44.png""],[""img/mask70.png""],[""img/mask65.png""],[""img/mask1.png""],[""img/mask76.png""],[""img/mask77.png""],[""img/mask98.png""],[""img/mask85.png""],[""img/mask29.png""],[""img/mask69.png""],[""img/mask69.png""],[""img/mask63.png""],[""img/mask11.png""],[""img/mask6.png""],[""img/mask82.png""]]]","","[12,20,10,11,9,34,19,33,28,25,26,31,4,5,16,35,2,23,21,3,24,30,17,13,18,6,29,0,14,22,32,15,1,8,7,27]","main","4","many-guess-6"
"","","","","","html-keyboard-response","108","394090","0.0-10.0-1.44","60a7d7b70d3cf8f48a8a490d","640759fa512f630a2bdc333d","6408c17412ffd79af08583ce","null","","null","","","","","","","","","","","","","","","","","","","fixation","",""
"","","","","","color-precision2","109","398507","0.0-10.0-0.45-0.45","60a7d7b70d3cf8f48a8a490d","640759fa512f630a2bdc333d","6408c17412ffd79af08583ce","[1078.5]","","","[30]","[22]","22","306","318.64343973863623","[318.64343973863623]","[12.643439738636232]","[13]","0","0","1","0","148.70800000225427","994.3380000007455","1000","[[[""img/mask81.png""]]]","","","main","306","color-precision2"
"","","","","","html-keyboard-response","110","399020","0.0-10.0-1.45","60a7d7b70d3cf8f48a8a490d","640759fa512f630a2bdc333d","6408c17412ffd79af08583ce","null","","null","","","","","","","","","","","","","","","","","","","fixation","",""
"","","","","","color-precision2","111","402630","0.0-10.0-0.46-0.46","60a7d7b70d3cf8f48a8a490d","640759fa512f630a2bdc333d","6408c17412ffd79af08583ce","[585.8999999985099]","","","[2]","[292]","292","247","173.93541154943154","[173.93541154943154]","[286.93541154943154]","[286]","0","0","1","0","148.89100000151666","996.7199999999721","1000","[[[""img/mask41.png""]]]","","","main","247","color-precision2"
"","","","","","html-keyboard-response","112","403131","0.0-10.0-1.46","60a7d7b70d3cf8f48a8a490d","640759fa512f630a2bdc333d","6408c17412ffd79af08583ce","null","","null","","","","","","","","","","","","","","","","","","","fixation","",""
"","","","","","many-guess-6","113","406755","0.0-10.0-0.47-0.47","60a7d7b70d3cf8f48a8a490d","640759fa512f630a2bdc333d","6408c17412ffd79af08583ce","[1494.0999999977648]","","","[13,6,33,28,31,0,9,7,18,5,23,3,22,27,25,34,30,11,24,16,10,20,14,17,8,1,35,21,26,2,4,29,32,15,12,19]","[177,97,306,346,57,7,127,207,47,246,77,336,147,216,226,286,316,236,187,17,27,356,87,256,107,167,326,266,157,117,276,296,67,37,137,197]","177","358","314.8843023368791","[314.8843023368791]","[316.8843023368791]","[317]","[30,300,120,210,30,120,120,120,120]","0","36","0","149.06100000150036","13.510999999998603","16","[[[""img/mask20.png""],[""img/mask28.png""],[""img/mask2.png""],[""img/mask56.png""],[""img/mask15.png""],[""img/mask77.png""],[""img/mask68.png""],[""img/mask77.png""],[""img/mask87.png""],[""img/mask88.png""],[""img/mask1.png""],[""img/mask48.png""],[""img/mask34.png""],[""img/mask52.png""],[""img/mask100.png""],[""img/mask94.png""],[""img/mask84.png""],[""img/mask30.png""],[""img/mask62.png""],[""img/mask50.png""],[""img/mask22.png""],[""img/mask100.png""],[""img/mask33.png""],[""img/mask54.png""],[""img/mask13.png""],[""img/mask11.png""],[""img/mask64.png""],[""img/mask1.png""],[""img/mask93.png""],[""img/mask61.png""],[""img/mask97.png""],[""img/mask75.png""],[""img/mask95.png""],[""img/mask75.png""],[""img/mask93.png""],[""img/mask96.png""]]]","","[13,6,33,28,31,0,9,7,18,5,23,3,22,27,25,34,30,11,24,16,10,20,14,17,8,1,35,21,26,2,4,29,32,15,12,19]","main","358","many-guess-6"
"","","","","","html-keyboard-response","114","407255","0.0-10.0-1.47","60a7d7b70d3cf8f48a8a490d","640759fa512f630a2bdc333d","6408c17412ffd79af08583ce","null","","null","","","","","","","","","","","","","","","","","","","fixation","",""
"","","","","","color-precision2","115","410389","0.0-10.0-0.48-0.48","60a7d7b70d3cf8f48a8a490d","640759fa512f630a2bdc333d","6408c17412ffd79af08583ce","[211.19999999925494]","","","[30]","[199]","199","164","348.63004260515186","[348.63004260515186]","[184.63004260515186]","[184]","0","0","1","0","147.98400000075344","1004.4200000007404","1000","[[[""img/mask76.png""]]]","","","main","164","color-precision2"
"","","","","","html-keyboard-response","116","410894","0.0-10.0-1.48","60a7d7b70d3cf8f48a8a490d","640759fa512f630a2bdc333d","6408c17412ffd79af08583ce","null","","null","","","","","","","","","","","","","","","","","","","fixation","",""
"","","","","","color-precision2","117","415308","0.0-10.0-0.49-0.49","60a7d7b70d3cf8f48a8a490d","640759fa512f630a2bdc333d","6408c17412ffd79af08583ce","[731.1000000014901]","","","[12]","[306]","306","148","92.15692555869477","[92.15692555869477]","[304.15692555869475]","[302]","0","0","1","0","149.16600000072503","1005.8890000029933","1000","[[[""img/mask38.png""]]]","","","main","148","color-precision2"
"","","","","","html-keyboard-response","118","415809","0.0-10.0-1.49","60a7d7b70d3cf8f48a8a490d","640759fa512f630a2bdc333d","6408c17412ffd79af08583ce","null","","null","","","","","","","","","","","","","","","","","","","fixation","",""
"","","","","","color-precision2","119","419539","0.0-10.0-0.50-0.50","60a7d7b70d3cf8f48a8a490d","640759fa512f630a2bdc333d","6408c17412ffd79af08583ce","[645.1999999992549]","","","[22]","[137]","137","206","4.603263685847554","[4.603263685847554]","[158.60326368584757]","[158]","0","0","1","0","149.07600000151433","1002.4850000007427","1000","[[[""img/mask100.png""]]]","","","main","206","color-precision2"
"","","","","","html-keyboard-response","120","420040","0.0-10.0-1.50","60a7d7b70d3cf8f48a8a490d","640759fa512f630a2bdc333d","6408c17412ffd79af08583ce","null","","null","","","","","","","","","","","","","","","","","","","fixation","",""
"","","","","","color-precision2","121","425141","0.0-10.0-0.51-0.51","60a7d7b70d3cf8f48a8a490d","640759fa512f630a2bdc333d","6408c17412ffd79af08583ce","[380.8999999985099]","","","[3]","[357]","357","306","319.6122052993871","[319.6122052993871]","[13.612205299387085]","[14]","0","0","1","0","149.3390000030049","993.221000000718","1000","[[[""img/mask30.png""]]]","","","main","306","color-precision2"
"","","","","","html-keyboard-response","122","425642","0.0-10.0-1.51","60a7d7b70d3cf8f48a8a490d","640759fa512f630a2bdc333d","6408c17412ffd79af08583ce","null","","null","","","","","","","","","","","","","","","","","","","fixation","",""
"","","","","","many-guess-6","123","430301","0.0-10.0-0.52-0.52","60a7d7b70d3cf8f48a8a490d","640759fa512f630a2bdc333d","6408c17412ffd79af08583ce","[2773]","","","[16,13,2,31,23,3,32,12,22,21,11,29,35,4,8,17,25,5,14,34,1,19,6,18,30,10,0,28,9,33,7,26,27,24,20,15]","[298,29,318,308,338,139,238,109,288,228,248,119,9,348,59,358,218,268,39,278,258,149,129,208,159,89,169,69,79,99,328,198,179,49,19,189]","298","292","17.942162672585997","[17.942162672585997]","[85.942162672586]","[85]","[300,30,30,30,120,120,120,120,210]","0","36","0","149.26500000222586","21.214000001491513","16","[[[""img/mask49.png""],[""img/mask83.png""],[""img/mask51.png""],[""img/mask93.png""],[""img/mask44.png""],[""img/mask66.png""],[""img/mask69.png""],[""img/mask60.png""],[""img/mask37.png""],[""img/mask64.png""],[""img/mask82.png""],[""img/mask89.png""],[""img/mask33.png""],[""img/mask47.png""],[""img/mask30.png""],[""img/mask9.png""],[""img/mask60.png""],[""img/mask67.png""],[""img/mask5.png""],[""img/mask19.png""],[""img/mask3.png""],[""img/mask35.png""],[""img/mask50.png""],[""img/mask71.png""],[""img/mask70.png""],[""img/mask92.png""],[""img/mask11.png""],[""img/mask96.png""],[""img/mask79.png""],[""img/mask20.png""],[""img/mask9.png""],[""img/mask100.png""],[""img/mask79.png""],[""img/mask38.png""],[""img/mask24.png""],[""img/mask74.png""]]]","","[16,13,2,31,23,3,32,12,22,21,11,29,35,4,8,17,25,5,14,34,1,19,6,18,30,10,0,28,9,33,7,26,27,24,20,15]","main","292","many-guess-6"
"","","","","","html-keyboard-response","124","430805","0.0-10.0-1.52","60a7d7b70d3cf8f48a8a490d","640759fa512f630a2bdc333d","6408c17412ffd79af08583ce","null","","null","","","","","","","","","","","","","","","","","","","fixation","",""
"","","","","","many-guess-6","125","434951","0.0-10.0-0.53-0.53","60a7d7b70d3cf8f48a8a490d","640759fa512f630a2bdc333d","6408c17412ffd79af08583ce","[2140.2000000029802]","","","[17,35,32,21,30,12,11,7,27,19,31,24,33,26,5,9,28,16,8,23,13,0,3,25,20,2,14,6,10,29,34,1,18,4,22,15]","[317,356,87,207,287,336,267,346,177,247,217,147,237,97,327,167,297,67,77,117,277,27,17,37,257,57,7,47,137,107,187,157,307,227,197,127]","317","206","259.77651658037166","[259.77651658037166]","[53.77651658037166]","[54]","[210,210,300,210,210,210,210,120,30]","0","36","0","149.15000000072177","9.629000002983958","16","[[[""img/mask6.png""],[""img/mask22.png""],[""img/mask65.png""],[""img/mask15.png""],[""img/mask6.png""],[""img/mask33.png""],[""img/mask24.png""],[""img/mask94.png""],[""img/mask41.png""],[""img/mask7.png""],[""img/mask39.png""],[""img/mask18.png""],[""img/mask81.png""],[""img/mask24.png""],[""img/mask26.png""],[""img/mask7.png""],[""img/mask42.png""],[""img/mask97.png""],[""img/mask89.png""],[""img/mask69.png""],[""img/mask53.png""],[""img/mask20.png""],[""img/mask63.png""],[""img/mask31.png""],[""img/mask93.png""],[""img/mask56.png""],[""img/mask18.png""],[""img/mask2.png""],[""img/mask93.png""],[""img/mask83.png""],[""img/mask100.png""],[""img/mask34.png""],[""img/mask23.png""],[""img/mask38.png""],[""img/mask28.png""],[""img/mask24.png""]]]","","[17,35,32,21,30,12,11,7,27,19,31,24,33,26,5,9,28,16,8,23,13,0,3,25,20,2,14,6,10,29,34,1,18,4,22,15]","main","206","many-guess-6"
"","","","","","html-keyboard-response","126","435452","0.0-10.0-1.53","60a7d7b70d3cf8f48a8a490d","640759fa512f630a2bdc333d","6408c17412ffd79af08583ce","null","","null","","","","","","","","","","","","","","","","","","","fixation","",""
"","","","","","color-precision2","127","438706","0.0-10.0-0.54-0.54","60a7d7b70d3cf8f48a8a490d","640759fa512f630a2bdc333d","6408c17412ffd79af08583ce","[527.1000000014901]","","","[16]","[220]","220","49","277.1570288867955","[277.1570288867955]","[228.1570288867955]","[229]","0","0","1","0","149.19700000295416","992.6440000014845","1000","[[[""img/mask16.png""]]]","","","main","49","color-precision2"
"","","","","","html-keyboard-response","128","439207","0.0-10.0-1.54","60a7d7b70d3cf8f48a8a490d","640759fa512f630a2bdc333d","6408c17412ffd79af08583ce","null","","null","","","","","","","","","","","","","","","","","","","fixation","",""
"","","","","","many-guess-6","129","442450","0.0-10.0-0.55-0.55","60a7d7b70d3cf8f48a8a490d","640759fa512f630a2bdc333d","6408c17412ffd79af08583ce","[1256.3999999985099]","","","[27,12,24,35,20,21,32,16,34,2,17,8,29,26,23,5,10,22,15,25,6,28,13,19,18,7,1,31,30,0,14,9,4,3,33,11]","[92,181,32,161,72,201,271,251,52,12,281,231,241,62,261,102,331,321,131,2,122,291,351,42,82,221,311,301,341,151,112,171,141,22,211,191]","92","328","325.12744290343863","[325.12744290343863]","[357.12744290343863]","[358]","[30,300,300,210,120,300,300,300,300]","0","36","0","149.00900000071852","23.76400000002468","16","[[[""img/mask17.png""],[""img/mask98.png""],[""img/mask40.png""],[""img/mask23.png""],[""img/mask49.png""],[""img/mask58.png""],[""img/mask71.png""],[""img/mask59.png""],[""img/mask67.png""],[""img/mask91.png""],[""img/mask95.png""],[""img/mask79.png""],[""img/mask8.png""],[""img/mask51.png""],[""img/mask32.png""],[""img/mask95.png""],[""img/mask69.png""],[""img/mask64.png""],[""img/mask21.png""],[""img/mask98.png""],[""img/mask83.png""],[""img/mask37.png""],[""img/mask12.png""],[""img/mask68.png""],[""img/mask29.png""],[""img/mask40.png""],[""img/mask80.png""],[""img/mask82.png""],[""img/mask67.png""],[""img/mask35.png""],[""img/mask5.png""],[""img/mask70.png""],[""img/mask79.png""],[""img/mask44.png""],[""img/mask68.png""],[""img/mask97.png""]]]","","[27,12,24,35,20,21,32,16,34,2,17,8,29,26,23,5,10,22,15,25,6,28,13,19,18,7,1,31,30,0,14,9,4,3,33,11]","main","328","many-guess-6"
"","","","","","html-keyboard-response","130","442958","0.0-10.0-1.55","60a7d7b70d3cf8f48a8a490d","640759fa512f630a2bdc333d","6408c17412ffd79af08583ce","null","","null","","","","","","","","","","","","","","","","","","","fixation","",""
"","","","","","color-precision2","131","446704","0.0-10.0-0.56-0.56","60a7d7b70d3cf8f48a8a490d","640759fa512f630a2bdc333d","6408c17412ffd79af08583ce","[893.8000000007451]","","","[34]","[24]","24","69","102.7612866297961","[102.7612866297961]","[33.7612866297961]","[32]","0","0","1","0","148.72000000224216","992.0740000022342","1000","[[[""img/mask33.png""]]]","","","main","69","color-precision2"
"","","","","","html-keyboard-response","132","447205","0.0-10.0-1.56","60a7d7b70d3cf8f48a8a490d","640759fa512f630a2bdc333d","6408c17412ffd79af08583ce","null","","null","","","","","","","","","","","","","","","","","","","fixation","",""
"","","","","","many-guess-6","133","451599","0.0-10.0-0.57-0.57","60a7d7b70d3cf8f48a8a490d","640759fa512f630a2bdc333d","6408c17412ffd79af08583ce","[2104.60000000149]","","","[3,23,15,8,13,12,6,5,9,31,14,2,22,29,7,26,27,34,20,33,21,16,11,10,17,35,28,1,19,25,4,30,32,24,18,0]","[299,349,309,339,109,59,129,89,39,69,229,239,279,329,189,9,179,169,159,319,289,79,259,139,359,219,199,99,49,209,29,19,149,249,269,119]","299","27","273.1911977780613","[273.1911977780613]","[246.19119777806128]","[246]","[120,120,300,300,120,300,210,30,300]","0","36","0","149.66700000001583","20.62600000074599","16","[[[""img/mask33.png""],[""img/mask7.png""],[""img/mask83.png""],[""img/mask27.png""],[""img/mask79.png""],[""img/mask61.png""],[""img/mask61.png""],[""img/mask65.png""],[""img/mask3.png""],[""img/mask23.png""],[""img/mask100.png""],[""img/mask59.png""],[""img/mask91.png""],[""img/mask56.png""],[""img/mask84.png""],[""img/mask55.png""],[""img/mask59.png""],[""img/mask92.png""],[""img/mask23.png""],[""img/mask35.png""],[""img/mask40.png""],[""img/mask14.png""],[""img/mask33.png""],[""img/mask80.png""],[""img/mask89.png""],[""img/mask49.png""],[""img/mask12.png""],[""img/mask4.png""],[""img/mask28.png""],[""img/mask88.png""],[""img/mask60.png""],[""img/mask82.png""],[""img/mask9.png""],[""img/mask37.png""],[""img/mask83.png""],[""img/mask23.png""]]]","","[3,23,15,8,13,12,6,5,9,31,14,2,22,29,7,26,27,34,20,33,21,16,11,10,17,35,28,1,19,25,4,30,32,24,18,0]","main","27","many-guess-6"
"","","","","","html-keyboard-response","134","452100","0.0-10.0-1.57","60a7d7b70d3cf8f48a8a490d","640759fa512f630a2bdc333d","6408c17412ffd79af08583ce","null","","null","","","","","","","","","","","","","","","","","","","fixation","",""
"","","","","","many-guess-6","135","456102","0.0-10.0-0.58-0.58","60a7d7b70d3cf8f48a8a490d","640759fa512f630a2bdc333d","6408c17412ffd79af08583ce","[1992]","","","[7,27,24,30,6,21,1,33,25,4,2,23,15,12,32,26,34,19,31,0,5,17,9,29,13,16,8,10,28,18,22,20,14,3,35,11]","[334,234,75,174,145,95,274,254,194,15,165,105,314,344,324,204,45,125,284,55,294,135,354,115,25,214,65,155,264,35,5,224,184,304,85,244]","334","134","328.52018096595623","[328.52018096595623]","[194.52018096595623]","[194]","[120,210,30,210,210,210,120,300,120]","0","36","0","149.4440000022296","15.43900000146823","16","[[[""img/mask98.png""],[""img/mask63.png""],[""img/mask91.png""],[""img/mask71.png""],[""img/mask58.png""],[""img/mask55.png""],[""img/mask44.png""],[""img/mask66.png""],[""img/mask18.png""],[""img/mask52.png""],[""img/mask80.png""],[""img/mask2.png""],[""img/mask28.png""],[""img/mask74.png""],[""img/mask67.png""],[""img/mask76.png""],[""img/mask68.png""],[""img/mask2.png""],[""img/mask5.png""],[""img/mask34.png""],[""img/mask63.png""],[""img/mask63.png""],[""img/mask24.png""],[""img/mask78.png""],[""img/mask36.png""],[""img/mask74.png""],[""img/mask92.png""],[""img/mask9.png""],[""img/mask62.png""],[""img/mask45.png""],[""img/mask91.png""],[""img/mask91.png""],[""img/mask33.png""],[""img/mask13.png""],[""img/mask41.png""],[""img/mask51.png""]]]","","[7,27,24,30,6,21,1,33,25,4,2,23,15,12,32,26,34,19,31,0,5,17,9,29,13,16,8,10,28,18,22,20,14,3,35,11]","main","134","many-guess-6"
"","","","","","html-keyboard-response","136","456604","0.0-10.0-1.58","60a7d7b70d3cf8f48a8a490d","640759fa512f630a2bdc333d","6408c17412ffd79af08583ce","null","","null","","","","","","","","","","","","","","","","","","","fixation","",""
"","","","","","many-guess-6","137","461935","0.0-10.0-0.59-0.59","60a7d7b70d3cf8f48a8a490d","640759fa512f630a2bdc333d","6408c17412ffd79af08583ce","[2556.699999999255]","","","[13,20,18,4,11,24,22,30,5,16,29,6,12,14,34,35,17,7,9,28,26,19,15,1,10,2,23,21,33,8,3,32,27,0,31,25]","[137,57,307,107,127,317,297,207,97,237,77,327,187,227,267,157,357,217,247,37,277,67,87,257,287,27,167,147,47,197,347,117,177,337,8,17]","137","22","242.87053281316122","[242.87053281316122]","[220.87053281316122]","[221]","[210,300,210,30,210,300,30,300,30]","0","36","0","148.56199999997625","12.64000000298256","16","[[[""img/mask48.png""],[""img/mask87.png""],[""img/mask58.png""],[""img/mask79.png""],[""img/mask16.png""],[""img/mask37.png""],[""img/mask57.png""],[""img/mask76.png""],[""img/mask27.png""],[""img/mask36.png""],[""img/mask85.png""],[""img/mask49.png""],[""img/mask35.png""],[""img/mask13.png""],[""img/mask83.png""],[""img/mask55.png""],[""img/mask49.png""],[""img/mask64.png""],[""img/mask53.png""],[""img/mask50.png""],[""img/mask53.png""],[""img/mask90.png""],[""img/mask6.png""],[""img/mask39.png""],[""img/mask7.png""],[""img/mask95.png""],[""img/mask81.png""],[""img/mask63.png""],[""img/mask65.png""],[""img/mask22.png""],[""img/mask98.png""],[""img/mask31.png""],[""img/mask69.png""],[""img/mask44.png""],[""img/mask90.png""],[""img/mask76.png""]]]","","[13,20,18,4,11,24,22,30,5,16,29,6,12,14,34,35,17,7,9,28,26,19,15,1,10,2,23,21,33,8,3,32,27,0,31,25]","main","22","many-guess-6"
"","","","","","html-keyboard-response","138","498096","0.0-10.0-1.59","60a7d7b70d3cf8f48a8a490d","640759fa512f630a2bdc333d","6408c17412ffd79af08583ce","36160.89999999851","Wow! You've completed 60 out of 180 trials! </p> <p>  </p><p> Take a quick break, then press any key when you're ready to continue.","d","","","","","","","","","","","","","","","","","","","fixation","",""
"","","","","","many-guess-6","139","502502","0.0-10.0-0.60-0.60","60a7d7b70d3cf8f48a8a490d","640759fa512f630a2bdc333d","6408c17412ffd79af08583ce","[1858.199999999255]","","","[12,27,35,17,20,5,23,24,11,26,10,32,8,6,25,16,29,14,1,2,31,0,34,9,30,19,21,15,18,22,33,7,3,28,13,4]","[210,289,150,20,280,10,140,319,130,270,200,260,100,160,339,190,110,30,40,220,299,50,250,329,359,349,309,70,120,180,80,230,60,240,170,90]","210","187","48.3341704394402","[48.3341704394402]","[221.3341704394402]","[220]","[300,210,30,120,30,210,300,210,30]","0","36","0","149.61700000299606","13.482000002230052","16","[[[""img/mask60.png""],[""img/mask27.png""],[""img/mask62.png""],[""img/mask91.png""],[""img/mask44.png""],[""img/mask15.png""],[""img/mask23.png""],[""img/mask95.png""],[""img/mask100.png""],[""img/mask44.png""],[""img/mask46.png""],[""img/mask26.png""],[""img/mask23.png""],[""img/mask36.png""],[""img/mask82.png""],[""img/mask95.png""],[""img/mask80.png""],[""img/mask100.png""],[""img/mask93.png""],[""img/mask64.png""],[""img/mask51.png""],[""img/mask78.png""],[""img/mask75.png""],[""img/mask12.png""],[""img/mask69.png""],[""img/mask32.png""],[""img/mask20.png""],[""img/mask35.png""],[""img/mask80.png""],[""img/mask13.png""],[""img/mask88.png""],[""img/mask46.png""],[""img/mask23.png""],[""img/mask93.png""],[""img/mask45.png""],[""img/mask76.png""]]]","","[12,27,35,17,20,5,23,24,11,26,10,32,8,6,25,16,29,14,1,2,31,0,34,9,30,19,21,15,18,22,33,7,3,28,13,4]","main","187","many-guess-6"
"","","","","","html-keyboard-response","140","503003","0.0-10.0-1.60","60a7d7b70d3cf8f48a8a490d","640759fa512f630a2bdc333d","6408c17412ffd79af08583ce","null","","null","","","","","","","","","","","","","","","","","","","fixation","",""
"","","","","","many-guess-6","141","506566","0.0-10.0-0.61-0.61","60a7d7b70d3cf8f48a8a490d","640759fa512f630a2bdc333d","6408c17412ffd79af08583ce","[1538.699999999255]","","","[24,31,33,14,2,16,34,29,7,1,9,6,19,4,3,8,22,30,5,17,11,13,25,27,12,10,28,21,23,32,35,26,15,18,20,0]","[301,41,291,51,91,241,61,181,141,131,350,211,111,201,191,311,121,251,1,221,151,281,21,331,31,341,71,231,101,81,11,261,161,271,171,321]","301","266","52.86563455402902","[52.86563455402902]","[146.86563455402901]","[145]","[30,300,30,120,210,300,300,30,120]","0","36","0","149.61999999999534","23.84500000299886","16","[[[""img/mask69.png""],[""img/mask91.png""],[""img/mask9.png""],[""img/mask50.png""],[""img/mask68.png""],[""img/mask48.png""],[""img/mask93.png""],[""img/mask26.png""],[""img/mask4.png""],[""img/mask76.png""],[""img/mask93.png""],[""img/mask32.png""],[""img/mask28.png""],[""img/mask55.png""],[""img/mask6.png""],[""img/mask74.png""],[""img/mask35.png""],[""img/mask53.png""],[""img/mask12.png""],[""img/mask88.png""],[""img/mask16.png""],[""img/mask31.png""],[""img/mask44.png""],[""img/mask52.png""],[""img/mask79.png""],[""img/mask29.png""],[""img/mask20.png""],[""img/mask91.png""],[""img/mask96.png""],[""img/mask1.png""],[""img/mask30.png""],[""img/mask56.png""],[""img/mask20.png""],[""img/mask30.png""],[""img/mask7.png""],[""img/mask78.png""]]]","","[24,31,33,14,2,16,34,29,7,1,9,6,19,4,3,8,22,30,5,17,11,13,25,27,12,10,28,21,23,32,35,26,15,18,20,0]","main","266","many-guess-6"
"","","","","","html-keyboard-response","142","507067","0.0-10.0-1.61","60a7d7b70d3cf8f48a8a490d","640759fa512f630a2bdc333d","6408c17412ffd79af08583ce","null","","null","","","","","","","","","","","","","","","","","","","fixation","",""
"","","","","","color-precision2","143","510896","0.0-10.0-0.62-0.62","60a7d7b70d3cf8f48a8a490d","640759fa512f630a2bdc333d","6408c17412ffd79af08583ce","[1168.2000000029802]","","","[10]","[124]","124","308","63.95019349182065","[63.95019349182065]","[115.95019349182064]","[114]","0","0","1","0","148.38000000000466","1002.4020000029705","1000","[[[""img/mask86.png""]]]","","","main","308","color-precision2"
"","","","","","html-keyboard-response","144","511396","0.0-10.0-1.62","60a7d7b70d3cf8f48a8a490d","640759fa512f630a2bdc333d","6408c17412ffd79af08583ce","null","","null","","","","","","","","","","","","","","","","","","","fixation","",""
"","","","","","color-precision2","145","515031","0.0-10.0-0.63-0.63","60a7d7b70d3cf8f48a8a490d","640759fa512f630a2bdc333d","6408c17412ffd79af08583ce","[421.5]","","","[15]","[264]","264","249","163.39854830796105","[163.39854830796105]","[274.39854830796105]","[273]","0","0","1","0","149.1920000007376","1006.622000002244","1000","[[[""img/mask70.png""]]]","","","main","249","color-precision2"
"","","","","","html-keyboard-response","146","515533","0.0-10.0-1.63","60a7d7b70d3cf8f48a8a490d","640759fa512f630a2bdc333d","6408c17412ffd79af08583ce","null","","null","","","","","","","","","","","","","","","","","","","fixation","",""
"","","","","","many-guess-6","147","519186","0.0-10.0-0.64-0.64","60a7d7b70d3cf8f48a8a490d","640759fa512f630a2bdc333d","6408c17412ffd79af08583ce","[1825.6000000014901]","","","[29,6,20,18,33,28,25,8,5,17,3,13,1,11,10,21,7,4,35,12,24,0,22,32,16,27,34,26,30,2,14,15,19,9,23,31]","[121,91,271,350,251,211,151,21,231,1,51,61,71,161,320,181,330,290,31,111,300,101,171,81,310,261,201,41,241,191,11,221,141,281,131,340]","121","186","211.16570734449286","[211.16570734449286]","[25.16570734449286]","[25]","[210,210,30,120,30,120,210,300,300]","0","36","0","149.36800000222865","14.530000001483131","16","[[[""img/mask32.png""],[""img/mask97.png""],[""img/mask1.png""],[""img/mask5.png""],[""img/mask8.png""],[""img/mask47.png""],[""img/mask30.png""],[""img/mask20.png""],[""img/mask59.png""],[""img/mask12.png""],[""img/mask57.png""],[""img/mask58.png""],[""img/mask96.png""],[""img/mask73.png""],[""img/mask48.png""],[""img/mask58.png""],[""img/mask43.png""],[""img/mask78.png""],[""img/mask88.png""],[""img/mask42.png""],[""img/mask46.png""],[""img/mask82.png""],[""img/mask55.png""],[""img/mask50.png""],[""img/mask86.png""],[""img/mask2.png""],[""img/mask98.png""],[""img/mask25.png""],[""img/mask50.png""],[""img/mask47.png""],[""img/mask71.png""],[""img/mask8.png""],[""img/mask16.png""],[""img/mask98.png""],[""img/mask57.png""],[""img/mask16.png""]]]","","[29,6,20,18,33,28,25,8,5,17,3,13,1,11,10,21,7,4,35,12,24,0,22,32,16,27,34,26,30,2,14,15,19,9,23,31]","main","186","many-guess-6"
"","","","","","html-keyboard-response","148","519687","0.0-10.0-1.64","60a7d7b70d3cf8f48a8a490d","640759fa512f630a2bdc333d","6408c17412ffd79af08583ce","null","","null","","","","","","","","","","","","","","","","","","","fixation","",""
"","","","","","color-precision2","149","523647","0.0-10.0-0.65-0.65","60a7d7b70d3cf8f48a8a490d","640759fa512f630a2bdc333d","6408c17412ffd79af08583ce","[620.3999999985099]","","","[4]","[101]","101","137","241.06290635136108","[241.06290635136108]","[104.06290635136108]","[104]","0","0","1","0","147.48400000296533","992.9950000030221","1000","[[[""img/mask7.png""]]]","","","main","137","color-precision2"
"","","","","","html-keyboard-response","150","524149","0.0-10.0-1.65","60a7d7b70d3cf8f48a8a490d","640759fa512f630a2bdc333d","6408c17412ffd79af08583ce","null","","null","","","","","","","","","","","","","","","","","","","fixation","",""
"","","","","","color-precision2","151","528177","0.0-10.0-0.66-0.66","60a7d7b70d3cf8f48a8a490d","640759fa512f630a2bdc333d","6408c17412ffd79af08583ce","[633.3000000007451]","","","[33]","[265]","265","137","54.26664744019362","[54.26664744019362]","[277.26664744019365]","[276]","0","0","1","0","149.17500000295695","995.9949999999953","1000","[[[""img/mask3.png""]]]","","","main","137","color-precision2"
"","","","","","html-keyboard-response","152","528679","0.0-10.0-1.66","60a7d7b70d3cf8f48a8a490d","640759fa512f630a2bdc333d","6408c17412ffd79af08583ce","null","","null","","","","","","","","","","","","","","","","","","","fixation","",""
"","","","","","many-guess-6","153","532426","0.0-10.0-0.67-0.67","60a7d7b70d3cf8f48a8a490d","640759fa512f630a2bdc333d","6408c17412ffd79af08583ce","[1448.8999999985099]","","","[16,30,6,9,3,23,26,7,12,33,34,15,8,5,31,0,32,1,10,13,21,25,19,2,29,11,35,17,27,28,4,14,18,20,24,22]","[253,104,204,74,34,333,293,343,84,154,184,223,283,124,14,194,323,263,233,164,44,24,313,214,273,174,303,144,54,353,94,4,243,114,134,64]","253","357","244.3004168686561","[244.3004168686561]","[247.3004168686561]","[248]","[120,300,210,30,210,300,300,30,120]","0","36","0","148.91400000220165","14.574000000720844","16","[[[""img/mask100.png""],[""img/mask44.png""],[""img/mask100.png""],[""img/mask25.png""],[""img/mask3.png""],[""img/mask72.png""],[""img/mask73.png""],[""img/mask16.png""],[""img/mask61.png""],[""img/mask82.png""],[""img/mask12.png""],[""img/mask42.png""],[""img/mask41.png""],[""img/mask56.png""],[""img/mask30.png""],[""img/mask58.png""],[""img/mask9.png""],[""img/mask31.png""],[""img/mask41.png""],[""img/mask21.png""],[""img/mask1.png""],[""img/mask44.png""],[""img/mask73.png""],[""img/mask65.png""],[""img/mask42.png""],[""img/mask76.png""],[""img/mask27.png""],[""img/mask21.png""],[""img/mask22.png""],[""img/mask96.png""],[""img/mask10.png""],[""img/mask23.png""],[""img/mask52.png""],[""img/mask26.png""],[""img/mask86.png""],[""img/mask29.png""]]]","","[16,30,6,9,3,23,26,7,12,33,34,15,8,5,31,0,32,1,10,13,21,25,19,2,29,11,35,17,27,28,4,14,18,20,24,22]","main","357","many-guess-6"
"","","","","","html-keyboard-response","154","532927","0.0-10.0-1.67","60a7d7b70d3cf8f48a8a490d","640759fa512f630a2bdc333d","6408c17412ffd79af08583ce","null","","null","","","","","","","","","","","","","","","","","","","fixation","",""
"","","","","","color-precision2","155","536655","0.0-10.0-0.68-0.68","60a7d7b70d3cf8f48a8a490d","640759fa512f630a2bdc333d","6408c17412ffd79af08583ce","[795.6999999992549]","","","[20]","[245]","245","185","68.0346516291114","[68.0346516291114]","[243.0346516291114]","[241]","0","0","1","0","148.96300000150222","996.0030000007246","1000","[[[""img/mask29.png""]]]","","","main","185","color-precision2"
"","","","","","html-keyboard-response","156","537158","0.0-10.0-1.68","60a7d7b70d3cf8f48a8a490d","640759fa512f630a2bdc333d","6408c17412ffd79af08583ce","null","","null","","","","","","","","","","","","","","","","","","","fixation","",""
"","","","","","color-precision2","157","541026","0.0-10.0-0.69-0.69","60a7d7b70d3cf8f48a8a490d","640759fa512f630a2bdc333d","6408c17412ffd79af08583ce","[932.2999999970198]","","","[17]","[288]","288","315","246.2131308788391","[246.2131308788391]","[291.21313087883914]","[292]","0","0","1","0","149.55200000002515","998.0850000007777","1000","[[[""img/mask65.png""]]]","","","main","315","color-precision2"
"","","","","","html-keyboard-response","158","541528","0.0-10.0-1.69","60a7d7b70d3cf8f48a8a490d","640759fa512f630a2bdc333d","6408c17412ffd79af08583ce","null","","null","","","","","","","","","","","","","","","","","","","fixation","",""
"","","","","","color-precision2","159","545574","0.0-10.0-0.70-0.70","60a7d7b70d3cf8f48a8a490d","640759fa512f630a2bdc333d","6408c17412ffd79af08583ce","[863.4000000022352]","","","[8]","[114]","114","7","117.95069486479072","[117.95069486479072]","[110.95069486479072]","[109]","0","0","1","0","148.83299999998417","998.599000002956","1000","[[[""img/mask72.png""]]]","","","main","7","color-precision2"
"","","","","","html-keyboard-response","160","546075","0.0-10.0-1.70","60a7d7b70d3cf8f48a8a490d","640759fa512f630a2bdc333d","6408c17412ffd79af08583ce","null","","null","","","","","","","","","","","","","","","","","","","fixation","",""
"","","","","","color-precision2","161","550660","0.0-10.0-0.71-0.71","60a7d7b70d3cf8f48a8a490d","640759fa512f630a2bdc333d","6408c17412ffd79af08583ce","[432.8999999985099]","","","[1]","[200]","200","204","38.16938587226769","[38.16938587226769]","[194.1693858722677]","[193]","0","0","1","0","147.8860000014538","1005.535000001546","1000","[[[""img/mask73.png""]]]","","","main","204","color-precision2"
"","","","","","html-keyboard-response","162","551161","0.0-10.0-1.71","60a7d7b70d3cf8f48a8a490d","640759fa512f630a2bdc333d","6408c17412ffd79af08583ce","null","","null","","","","","","","","","","","","","","","","","","","fixation","",""
"","","","","","color-precision2","163","554290","0.0-10.0-0.72-0.72","60a7d7b70d3cf8f48a8a490d","640759fa512f630a2bdc333d","6408c17412ffd79af08583ce","[529.8000000007451]","","","[20]","[109]","109","26","132.16676843797867","[132.16676843797867]","[106.16676843797867]","[104]","0","0","1","0","148.9330000022892","1003.8869999999879","1000","[[[""img/mask80.png""]]]","","","main","26","color-precision2"
"","","","","","html-keyboard-response","164","554790","0.0-10.0-1.72","60a7d7b70d3cf8f48a8a490d","640759fa512f630a2bdc333d","6408c17412ffd79af08583ce","null","","null","","","","","","","","","","","","","","","","","","","fixation","",""
"","","","","","color-precision2","165","558422","0.0-10.0-0.73-0.73","60a7d7b70d3cf8f48a8a490d","640759fa512f630a2bdc333d","6408c17412ffd79af08583ce","[678.5]","","","[3]","[75]","75","174","254.26426756625017","[254.26426756625017]","[80.26426756625017]","[80]","0","0","1","0","149.31000000296626","1002.8260000015143","1000","[[[""img/mask10.png""]]]","","","main","174","color-precision2"
"","","","","","html-keyboard-response","166","558923","0.0-10.0-1.73","60a7d7b70d3cf8f48a8a490d","640759fa512f630a2bdc333d","6408c17412ffd79af08583ce","null","","null","","","","","","","","","","","","","","","","","","","fixation","",""
