"success","timeout","failed_images","failed_audio","failed_video","trial_type","trial_index","time_elapsed","internal_node_id","subject_id","study_id","session_id","rt","stimulus","response","position_of_items","colors_of_items","color_of_target","wheel_spin","response_angle","physical_response_angle","reported_color_angle","reported_color_discrete","locs","which_test","set_size","wheel_num_options","actual_mask_duration","actual_stim_duration","CMDispTime","maskArray","maskRotation","item_positions","task","randomSpinAmount","mainTask"
"true","false","[]","[]","[]","preload","0","1518","0.0-0.0","6101bdeaeb616cce742ad98e","640759fa512f630a2bdc333d","64077d8dc96f74900084337c","","","","","","","","","","","","","","","","","","","","","","","",""
"true","","","","","fullscreen","1","9741","0.0-1.0","6101bdeaeb616cce742ad98e","640759fa512f630a2bdc333d","64077d8dc96f74900084337c","","","","","","","","","","","","","","","","","","","","","","","",""
"","","","","","html-keyboard-response","2","14126","0.0-2.0","6101bdeaeb616cce742ad98e","640759fa512f630a2bdc333d","64077d8dc96f74900084337c","4384.900000095367","What a beautiful Tuesday to do some awesome science! </p> <p>  </p><p> </p>
    By completing this survey or questionnaire, you are consenting to be in this research study. </p>
    Your participation is voluntary and you can stop at any time.<p> [Press any key to continue] </p>"," ","","","","","","","","","","","","","","","","","","","","",""
"","","","","","html-keyboard-response","3","24127","0.0-3.0","6101bdeaeb616cce742ad98e","640759fa512f630a2bdc333d","64077d8dc96f74900084337c","2351.2000000476837","
    <div style='width: 1000px;'>
    <div style='float: center;'><img src='img/TaskInstructions1.png'></img>
    </div>
    "," ","","","","","","","","","","","","","","","","","","","","",""
"","","","","","html-keyboard-response","4","25637","0.0-4.0","6101bdeaeb616cce742ad98e","640759fa512f630a2bdc333d","64077d8dc96f74900084337c","1510.6000001430511","
    <div style='width: 1000px;'>
    <div style='float: center;'><img src='img/TaskInstructions1.png'></img>
    </div>
    "," ","","","","","","","","","","","","","","","","","","","","",""
"","","","","","html-keyboard-response","5","35648","0.0-5.0","6101bdeaeb616cce742ad98e","640759fa512f630a2bdc333d","64077d8dc96f74900084337c","999.5999999046326","
    <div style='width: 1000px;'>
    <div style='float: center;'><img src='img/TaskInstructions2.png'></img>
    </div>
    "," ","","","","","","","","","","","","","","","","","","","","",""
"","","","","","html-keyboard-response","6","36046","0.0-6.0","6101bdeaeb616cce742ad98e","640759fa512f630a2bdc333d","64077d8dc96f74900084337c","397","
    <div style='width: 1000px;'>
    <div style='float: center;'><img src='img/TaskInstructions2.png'></img>
    </div>
    ","g","","","","","","","","","","","","","","","","","","","","",""
"","","","","","video-keyboard-response","7","37030","0.0-7.0","6101bdeaeb616cce742ad98e","640759fa512f630a2bdc333d","64077d8dc96f74900084337c","982.9000000953674","[""video/TaskInstructions3.mp4""]"," ","","","","","","","","","","","","","","","","","","","","",""
"","","","","","image-keyboard-response","8","39502","0.0-8.0-0.0","6101bdeaeb616cce742ad98e","640759fa512f630a2bdc333d","64077d8dc96f74900084337c","2471.4000000953674","img/training1.png"," ","","","","","","","","","","","","","","","","","","","","",""
"","","","","","color-precision2","9","45170","0.0-8.0-1.0-0.0","6101bdeaeb616cce742ad98e","640759fa512f630a2bdc333d","64077d8dc96f74900084337c","[359.10000014305115]","","","[8]","[71]","71","272","332.85092947838575","[332.85092947838575]","[60.85092947838575]","[60]","0","0","1","0","499.4329999046313","997.5760000476803","1000","","","0","training","",""
"","","","","","image-keyboard-response","10","48254","0.0-8.0-0.1","6101bdeaeb616cce742ad98e","640759fa512f630a2bdc333d","64077d8dc96f74900084337c","3082.9000000953674","img/training2.png","g","","","","","","","","","","","","","","","","","","","","",""
"","","","","","many-guess-6","11","55219","0.0-8.0-1.1-0.1","6101bdeaeb616cce742ad98e","640759fa512f630a2bdc333d","64077d8dc96f74900084337c","[2823.699999809265]","","","[2,12,33]","[106,129,32]","106","53","334.37590746967453","[334.37590746967453]","[281.37590746967453]","[281]","[30,300,30,210,120,30,210,30,300,300,300,300,210,300,300,120,120,120,300,300,120,300,30,300,30,300,120,30,120,30,120,120,30,210,210,120]","0","3","0","999.5809999046323","997.7569999523184","1000","[[[""img/mask41.png""],[""img/mask10.png""],[""img/mask68.png""]]]","","[2,12,33]","training","",""
"","","","","","image-keyboard-response","12","60454","0.0-8.0-0.2","6101bdeaeb616cce742ad98e","640759fa512f630a2bdc333d","64077d8dc96f74900084337c","5234.099999904633","img/training3.png","g","","","","","","","","","","","","","","","","","","","","",""
"","","","","","[""many-guess-6""]","13","64079","0.0-8.0-1.2-0.2","6101bdeaeb616cce742ad98e","640759fa512f630a2bdc333d","64077d8dc96f74900084337c","[273]","","","[4,33,7,19,9]","[211,282,186,140,159]","211","72","86.43440988459811","[86.43440988459811]","[14.43440988459811]","[13]","[300,300,120,30,30,300,300,210,210,210,30,120,120,210,120,210,30,120,120,120,30,120,210,210,120,30,300,210,300,30,30,210,300,30,300,120]","0","5","0","499.6769999523094","497.6749999523163","500","[[[""img/mask92.png""],[""img/mask58.png""],[""img/mask83.png""],[""img/mask80.png""],[""img/mask37.png""]]]","","[4,33,7,19,9]","training","",""
"","","","","","image-keyboard-response","14","65534","0.0-8.0-0.3","6101bdeaeb616cce742ad98e","640759fa512f630a2bdc333d","64077d8dc96f74900084337c","1454.1000001430511","img/training4.png","g","","","","","","","","","","","","","","","","","","","","",""
"","","","","","[""many-guess-6""]","15","68248","0.0-8.0-1.3-0.3","6101bdeaeb616cce742ad98e","640759fa512f630a2bdc333d","64077d8dc96f74900084337c","[212.20000004768372]","","","[33,28,32,5,1,6,34,23,8,15]","[312,231,351,252,45,288,199,264,339,19]","312","130","170.7443665283391","[170.7443665283391]","[40.7443665283391]","[40]","[300,120,210,210,30,30,120,300,210,210,210,120,210,120,210,300,210,120,120,210,120,120,30,300,30,300,30,210,210,300,120,30,210,30,30,300]","0","10","0","131.74599995231256","131.83999995230988","132","[[[""img/mask75.png""],[""img/mask25.png""],[""img/mask78.png""],[""img/mask69.png""],[""img/mask17.png""],[""img/mask70.png""],[""img/mask67.png""],[""img/mask71.png""],[""img/mask75.png""],[""img/mask33.png""]]]","","[33,28,32,5,1,6,34,23,8,15]","training","",""
"","","","","","image-keyboard-response","16","70230","0.0-8.0-0.4","6101bdeaeb616cce742ad98e","640759fa512f630a2bdc333d","64077d8dc96f74900084337c","1981.2999999523163","img/training5.png","g","","","","","","","","","","","","","","","","","","","","",""
"","","","","","[""many-guess-6""]","17","72925","0.0-8.0-1.4-0.4","6101bdeaeb616cce742ad98e","640759fa512f630a2bdc333d","64077d8dc96f74900084337c","[166.5]","","","[29,8,7,0,32,15,23,13,11,6,20,4,3,27,18,34,16,12,30,31,1,21,5,25,26,35,14,9,19,17,28,10,2,33,24,22]","[282,321,301,341,12,82,52,62,102,291,212,192,172,202,122,351,272,72,331,22,162,2,242,311,42,252,262,132,222,92,182,152,112,142,232,32]","282","135","","[null]","[null]","[166]","[210,300,210,120,300,300,300,30,30,30,30,30,120,300,30,120,120,30,210,210,30,30,210,30,120,30,210,300,30,120,210,210,30,30,30,210]","0","36","0","131.6649999999936","14.871999904629774","16","[[[""img/mask36.png""],[""img/mask11.png""],[""img/mask34.png""],[""img/mask51.png""],[""img/mask81.png""],[""img/mask77.png""],[""img/mask100.png""],[""img/mask27.png""],[""img/mask90.png""],[""img/mask61.png""],[""img/mask8.png""],[""img/mask52.png""],[""img/mask54.png""],[""img/mask66.png""],[""img/mask94.png""],[""img/mask60.png""],[""img/mask92.png""],[""img/mask57.png""],[""img/mask69.png""],[""img/mask55.png""],[""img/mask35.png""],[""img/mask92.png""],[""img/mask78.png""],[""img/mask70.png""],[""img/mask12.png""],[""img/mask2.png""],[""img/mask43.png""],[""img/mask34.png""],[""img/mask76.png""],[""img/mask2.png""],[""img/mask85.png""],[""img/mask49.png""],[""img/mask64.png""],[""img/mask89.png""],[""img/mask84.png""],[""img/mask55.png""]]]","","[29,8,7,0,32,15,23,13,11,6,20,4,3,27,18,34,16,12,30,31,1,21,5,25,26,35,14,9,19,17,28,10,2,33,24,22]","training","",""
"","","","","","image-keyboard-response","18","75630","0.0-9.0","6101bdeaeb616cce742ad98e","640759fa512f630a2bdc333d","64077d8dc96f74900084337c","2704.2000000476837","[""img/endTraining.png""]","g","","","","","","","","","","","","","","","","","","","","",""
"","","","","","html-keyboard-response","19","76131","0.0-10.0-0.0","6101bdeaeb616cce742ad98e","640759fa512f630a2bdc333d","64077d8dc96f74900084337c","null","","null","","","","","","","","","","","","","","","","","","","fixation","",""
"","","","","","many-guess-6","20","78758","0.0-10.0-1.0-0.0","6101bdeaeb616cce742ad98e","640759fa512f630a2bdc333d","64077d8dc96f74900084337c","[860.1000001430511]","","","[27,26,6,32,34,24,0,16,8,28,14,23,33,1,17,12,21,9,11,5,10,15,3,18,2,7,4,30,29,19,22,25,31,20,35,13]","[131,22,211,291,261,351,311,41,281,121,101,51,32,301,221,191,2,181,201,91,241,12,231,71,61,271,151,171,251,141,111,331,81,161,341,321]","131","307","304.65206278679705","[304.65206278679705]","[357.65206278679705]","[358]","[210,120,210,120,300,210,120,120,300]","0","36","0","152.4730000953714","16.744000095364754","16","[[[""img/mask65.png""],[""img/mask92.png""],[""img/mask46.png""],[""img/mask23.png""],[""img/mask60.png""],[""img/mask83.png""],[""img/mask87.png""],[""img/mask57.png""],[""img/mask81.png""],[""img/mask39.png""],[""img/mask60.png""],[""img/mask48.png""],[""img/mask54.png""],[""img/mask17.png""],[""img/mask26.png""],[""img/mask3.png""],[""img/mask52.png""],[""img/mask27.png""],[""img/mask42.png""],[""img/mask99.png""],[""img/mask33.png""],[""img/mask100.png""],[""img/mask2.png""],[""img/mask62.png""],[""img/mask40.png""],[""img/mask2.png""],[""img/mask67.png""],[""img/mask57.png""],[""img/mask94.png""],[""img/mask100.png""],[""img/mask43.png""],[""img/mask10.png""],[""img/mask4.png""],[""img/mask47.png""],[""img/mask11.png""],[""img/mask72.png""]]]","","[27,26,6,32,34,24,0,16,8,28,14,23,33,1,17,12,21,9,11,5,10,15,3,18,2,7,4,30,29,19,22,25,31,20,35,13]","main","307","many-guess-6"
"","","","","","html-keyboard-response","21","79258","0.0-10.0-0.1","6101bdeaeb616cce742ad98e","640759fa512f630a2bdc333d","64077d8dc96f74900084337c","null","","null","","","","","","","","","","","","","","","","","","","fixation","",""
"","","","","","many-guess-6","22","81369","0.0-10.0-1.1-0.1","6101bdeaeb616cce742ad98e","640759fa512f630a2bdc333d","64077d8dc96f74900084337c","[234.5]","","","[0,24,27,12,1,14,22,21,10,15,26,6,33,4,3,18,11,34,35,31,25,5,16,8,20,30,32,2,17,28,13,29,7,19,23,9]","[80,70,60,230,320,120,280,260,250,130,110,240,340,1,160,20,90,300,190,30,140,210,220,330,290,100,10,40,50,170,150,270,310,350,180,200]","80","308","200.9404671681382","[200.9404671681382]","[252.9404671681382]","[252]","[300,120,30,30,120,210,210,210,30]","0","36","0","152.5179999999964","17.779999999998836","16","[[[""img/mask75.png""],[""img/mask30.png""],[""img/mask9.png""],[""img/mask78.png""],[""img/mask83.png""],[""img/mask40.png""],[""img/mask14.png""],[""img/mask93.png""],[""img/mask10.png""],[""img/mask94.png""],[""img/mask10.png""],[""img/mask59.png""],[""img/mask38.png""],[""img/mask98.png""],[""img/mask25.png""],[""img/mask21.png""],[""img/mask54.png""],[""img/mask90.png""],[""img/mask84.png""],[""img/mask11.png""],[""img/mask76.png""],[""img/mask79.png""],[""img/mask43.png""],[""img/mask64.png""],[""img/mask13.png""],[""img/mask30.png""],[""img/mask39.png""],[""img/mask17.png""],[""img/mask97.png""],[""img/mask61.png""],[""img/mask50.png""],[""img/mask30.png""],[""img/mask73.png""],[""img/mask96.png""],[""img/mask79.png""],[""img/mask45.png""]]]","","[0,24,27,12,1,14,22,21,10,15,26,6,33,4,3,18,11,34,35,31,25,5,16,8,20,30,32,2,17,28,13,29,7,19,23,9]","main","308","many-guess-6"
"","","","","","html-keyboard-response","23","81870","0.0-10.0-0.2","6101bdeaeb616cce742ad98e","640759fa512f630a2bdc333d","64077d8dc96f74900084337c","null","","null","","","","","","","","","","","","","","","","","","","fixation","",""
"","","","","","color-precision2","24","84361","0.0-10.0-1.2-0.2","6101bdeaeb616cce742ad98e","640759fa512f630a2bdc333d","64077d8dc96f74900084337c","[184.20000004768372]","","","[1]","[273]","273","221","143.80196993489693","[143.80196993489693]","[282.80196993489693]","[281]","0","0","1","0","151.89700009537046","1006.8629999046389","1000","[[[""img/mask37.png""]]]","","","main","221","color-precision2"
"","","","","","html-keyboard-response","25","84862","0.0-10.0-0.3","6101bdeaeb616cce742ad98e","640759fa512f630a2bdc333d","64077d8dc96f74900084337c","null","","null","","","","","","","","","","","","","","","","","","","fixation","",""
"","","","","","color-precision2","26","87278","0.0-10.0-1.3-0.3","6101bdeaeb616cce742ad98e","640759fa512f630a2bdc333d","64077d8dc96f74900084337c","[32.200000047683716]","","","[31]","[184]","184","25","196.9739864996592","[196.9739864996592]","[171.9739864996592]","[171]","0","0","1","0","152.45400004768453","1002.9100000953622","1000","[[[""img/mask94.png""]]]","","","main","25","color-precision2"
"","","","","","html-keyboard-response","27","87780","0.0-10.0-0.4","6101bdeaeb616cce742ad98e","640759fa512f630a2bdc333d","64077d8dc96f74900084337c","null","","null","","","","","","","","","","","","","","","","","","","fixation","",""
"","","","","","many-guess-6","28","91792","0.0-10.0-1.4-0.4","6101bdeaeb616cce742ad98e","640759fa512f630a2bdc333d","64077d8dc96f74900084337c","[2872.7999999523163]","","","[9,13,35,17,20,25,29,3,22,32,8,1,14,23,26,15,24,18,5,19,2,11,33,16,28,6,4,27,0,31,34,30,10,7,12,21]","[274,264,135,224,284,105,165,125,294,324,354,95,45,184,55,75,15,314,254,204,304,155,244,65,35,145,344,115,194,175,5,85,234,334,214,25]","274","64","229.77313791388815","[229.77313791388815]","[165.77313791388815]","[166]","[300,210,120,120,210,30,300,300,300]","0","36","0","152.63799990463303","14.500000047686626","16","[[[""img/mask64.png""],[""img/mask59.png""],[""img/mask87.png""],[""img/mask51.png""],[""img/mask77.png""],[""img/mask88.png""],[""img/mask47.png""],[""img/mask43.png""],[""img/mask62.png""],[""img/mask13.png""],[""img/mask77.png""],[""img/mask64.png""],[""img/mask92.png""],[""img/mask50.png""],[""img/mask91.png""],[""img/mask16.png""],[""img/mask64.png""],[""img/mask34.png""],[""img/mask74.png""],[""img/mask49.png""],[""img/mask38.png""],[""img/mask5.png""],[""img/mask86.png""],[""img/mask96.png""],[""img/mask77.png""],[""img/mask77.png""],[""img/mask56.png""],[""img/mask85.png""],[""img/mask77.png""],[""img/mask46.png""],[""img/mask48.png""],[""img/mask32.png""],[""img/mask24.png""],[""img/mask68.png""],[""img/mask50.png""],[""img/mask74.png""]]]","","[9,13,35,17,20,25,29,3,22,32,8,1,14,23,26,15,24,18,5,19,2,11,33,16,28,6,4,27,0,31,34,30,10,7,12,21]","main","64","many-guess-6"
"","","","","","html-keyboard-response","29","92293","0.0-10.0-0.5","6101bdeaeb616cce742ad98e","640759fa512f630a2bdc333d","64077d8dc96f74900084337c","null","","null","","","","","","","","","","","","","","","","","","","fixation","",""
"","","","","","many-guess-6","30","95058","0.0-10.0-1.5-0.5","6101bdeaeb616cce742ad98e","640759fa512f630a2bdc333d","64077d8dc96f74900084337c","[1602.5999999046326]","","","[15,27,17,33,14,1,21,35,7,31,11,10,13,26,8,22,6,23,24,25,9,19,34,29,2,28,3,18,0,5,32,30,12,20,16,4]","[255,5,165,314,125,175,205,334,115,225,15,185,55,195,235,85,284,105,324,304,265,294,65,155,245,145,215,354,275,135,344,95,75,35,45,25]","255","110","281.26312746935326","[281.26312746935326]","[171.26312746935326]","[171]","[210,30,120,210,30,210,300,300,300]","0","36","0","152.63000009536336","16.5","16","[[[""img/mask88.png""],[""img/mask80.png""],[""img/mask14.png""],[""img/mask6.png""],[""img/mask38.png""],[""img/mask65.png""],[""img/mask95.png""],[""img/mask81.png""],[""img/mask38.png""],[""img/mask90.png""],[""img/mask70.png""],[""img/mask37.png""],[""img/mask99.png""],[""img/mask73.png""],[""img/mask84.png""],[""img/mask57.png""],[""img/mask4.png""],[""img/mask65.png""],[""img/mask87.png""],[""img/mask1.png""],[""img/mask51.png""],[""img/mask50.png""],[""img/mask62.png""],[""img/mask51.png""],[""img/mask60.png""],[""img/mask20.png""],[""img/mask8.png""],[""img/mask95.png""],[""img/mask100.png""],[""img/mask67.png""],[""img/mask56.png""],[""img/mask14.png""],[""img/mask27.png""],[""img/mask59.png""],[""img/mask81.png""],[""img/mask68.png""]]]","","[15,27,17,33,14,1,21,35,7,31,11,10,13,26,8,22,6,23,24,25,9,19,34,29,2,28,3,18,0,5,32,30,12,20,16,4]","main","110","many-guess-6"
"","","","","","html-keyboard-response","31","95559","0.0-10.0-0.6","6101bdeaeb616cce742ad98e","640759fa512f630a2bdc333d","64077d8dc96f74900084337c","null","","null","","","","","","","","","","","","","","","","","","","fixation","",""
"","","","","","many-guess-6","32","97424","0.0-10.0-1.6-0.6","6101bdeaeb616cce742ad98e","640759fa512f630a2bdc333d","64077d8dc96f74900084337c","[469.2000000476837]","","","[1,11,8,19,23,10,14,30,35,18,2,32,20,7,31,28,21,15,16,26,0,33,25,4,22,34,13,9,27,24,12,3,5,6,17,29]","[300,240,260,270,340,80,150,170,250,230,11,210,190,200,130,280,110,50,40,290,1,90,20,310,30,160,350,60,70,320,180,120,220,140,330,100]","300","276","357.1508170475589","[357.1508170475589]","[81.15081704755892]","[80]","[300,120,120,300,120,300,120,120,120]","0","36","0","152.59900000000198","15.95199990463152","16","[[[""img/mask67.png""],[""img/mask74.png""],[""img/mask11.png""],[""img/mask95.png""],[""img/mask23.png""],[""img/mask79.png""],[""img/mask68.png""],[""img/mask26.png""],[""img/mask73.png""],[""img/mask40.png""],[""img/mask6.png""],[""img/mask62.png""],[""img/mask97.png""],[""img/mask29.png""],[""img/mask81.png""],[""img/mask89.png""],[""img/mask95.png""],[""img/mask67.png""],[""img/mask87.png""],[""img/mask96.png""],[""img/mask46.png""],[""img/mask29.png""],[""img/mask82.png""],[""img/mask46.png""],[""img/mask62.png""],[""img/mask86.png""],[""img/mask33.png""],[""img/mask13.png""],[""img/mask52.png""],[""img/mask93.png""],[""img/mask51.png""],[""img/mask32.png""],[""img/mask73.png""],[""img/mask54.png""],[""img/mask13.png""],[""img/mask97.png""]]]","","[1,11,8,19,23,10,14,30,35,18,2,32,20,7,31,28,21,15,16,26,0,33,25,4,22,34,13,9,27,24,12,3,5,6,17,29]","main","276","many-guess-6"
"","","","","","html-keyboard-response","33","97926","0.0-10.0-0.7","6101bdeaeb616cce742ad98e","640759fa512f630a2bdc333d","64077d8dc96f74900084337c","null","","null","","","","","","","","","","","","","","","","","","","fixation","",""
"","","","","","color-precision2","34","100988","0.0-10.0-1.7-0.7","6101bdeaeb616cce742ad98e","640759fa512f630a2bdc333d","64077d8dc96f74900084337c","[643.5]","","","[0]","[161]","161","253","61.52214512524018","[61.52214512524018]","[168.52214512524017]","[167]","0","0","1","0","152.22400009536068","1004.7860000476794","1000","[[[""img/mask1.png""]]]","","","main","253","color-precision2"
"","","","","","html-keyboard-response","35","101490","0.0-10.0-0.8","6101bdeaeb616cce742ad98e","640759fa512f630a2bdc333d","64077d8dc96f74900084337c","null","","null","","","","","","","","","","","","","","","","","","","fixation","",""
"","","","","","color-precision2","36","104065","0.0-10.0-1.8-0.8","6101bdeaeb616cce742ad98e","640759fa512f630a2bdc333d","64077d8dc96f74900084337c","[234.10000014305115]","","","[4]","[273]","273","221","140.75180388458426","[140.75180388458426]","[279.75180388458426]","[278]","0","0","1","0","152.5869999523129","1001.9510000953742","1000","[[[""img/mask80.png""]]]","","","main","221","color-precision2"
"","","","","","html-keyboard-response","37","104566","0.0-10.0-0.9","6101bdeaeb616cce742ad98e","640759fa512f630a2bdc333d","64077d8dc96f74900084337c","null","","null","","","","","","","","","","","","","","","","","","","fixation","",""
"","","","","","color-precision2","38","107097","0.0-10.0-1.9-0.9","6101bdeaeb616cce742ad98e","640759fa512f630a2bdc333d","64077d8dc96f74900084337c","[147.70000004768372]","","","[31]","[148]","148","143","","[null]","[null]","[160]","0","0","1","0","152.36800004768884","1001.1330000476883","1000","[[[""img/mask64.png""]]]","","","main","143","color-precision2"
"","","","","","html-keyboard-response","39","107599","0.0-10.0-0.10","6101bdeaeb616cce742ad98e","640759fa512f630a2bdc333d","64077d8dc96f74900084337c","null","","null","","","","","","","","","","","","","","","","","","","fixation","",""
"","","","","","many-guess-6","40","110787","0.0-10.0-1.10-0.10","6101bdeaeb616cce742ad98e","640759fa512f630a2bdc333d","64077d8dc96f74900084337c","[1969.7000000476837]","","","[5,30,8,32,18,23,16,15,21,0,17,13,31,22,35,3,29,11,34,14,2,26,1,9,10,25,28,4,27,19,12,7,20,33,24,6]","[128,267,227,168,218,88,327,307,337,247,357,297,118,68,347,287,138,78,148,208,237,178,18,28,98,8,108,188,257,158,317,48,277,38,198,58]","128","15","170.8063697413791","[170.8063697413791]","[155.8063697413791]","[155]","[30,30,120,30,30,210,120,210,30]","0","36","0","152.6150000476773","15.169999999998254","16","[[[""img/mask30.png""],[""img/mask59.png""],[""img/mask90.png""],[""img/mask98.png""],[""img/mask80.png""],[""img/mask24.png""],[""img/mask75.png""],[""img/mask17.png""],[""img/mask49.png""],[""img/mask51.png""],[""img/mask87.png""],[""img/mask29.png""],[""img/mask68.png""],[""img/mask52.png""],[""img/mask79.png""],[""img/mask15.png""],[""img/mask77.png""],[""img/mask41.png""],[""img/mask29.png""],[""img/mask10.png""],[""img/mask51.png""],[""img/mask97.png""],[""img/mask56.png""],[""img/mask26.png""],[""img/mask89.png""],[""img/mask17.png""],[""img/mask51.png""],[""img/mask83.png""],[""img/mask16.png""],[""img/mask40.png""],[""img/mask27.png""],[""img/mask70.png""],[""img/mask5.png""],[""img/mask96.png""],[""img/mask66.png""],[""img/mask3.png""]]]","","[5,30,8,32,18,23,16,15,21,0,17,13,31,22,35,3,29,11,34,14,2,26,1,9,10,25,28,4,27,19,12,7,20,33,24,6]","main","15","many-guess-6"
"","","","","","html-keyboard-response","41","111297","0.0-10.0-0.11","6101bdeaeb616cce742ad98e","640759fa512f630a2bdc333d","64077d8dc96f74900084337c","null","","null","","","","","","","","","","","","","","","","","","","fixation","",""
"","","","","","color-precision2","42","114275","0.0-10.0-1.11-0.11","6101bdeaeb616cce742ad98e","640759fa512f630a2bdc333d","64077d8dc96f74900084337c","[164.70000004768372]","","","[20]","[229]","229","343","223.36129010497783","[223.36129010497783]","[240.36129010497783]","[241]","0","0","1","0","152.03300009536906","1004.6859999523149","1000","[[[""img/mask41.png""]]]","","","main","343","color-precision2"
"","","","","","html-keyboard-response","43","114776","0.0-10.0-0.12","6101bdeaeb616cce742ad98e","640759fa512f630a2bdc333d","64077d8dc96f74900084337c","null","","null","","","","","","","","","","","","","","","","","","","fixation","",""
"","","","","","many-guess-6","44","117084","0.0-10.0-1.12-0.12","6101bdeaeb616cce742ad98e","640759fa512f630a2bdc333d","64077d8dc96f74900084337c","[1182.2999999523163]","","","[24,8,22,29,11,34,0,13,19,9,30,3,2,31,7,18,14,26,23,21,20,10,35,16,12,6,32,15,33,27,17,4,5,28,25,1]","[323,243,353,343,64,303,4,273,263,333,223,44,34,173,133,153,233,24,163,54,213,94,104,143,203,74,283,193,114,313,123,293,84,183,253,14]","323","23","185.0090892649364","[185.0090892649364]","[162.0090892649364]","[161]","[300,30,300,30,30,30,210,210,30]","0","36","0","152.47900000000664","13.439000047685113","16","[[[""img/mask70.png""],[""img/mask97.png""],[""img/mask95.png""],[""img/mask28.png""],[""img/mask77.png""],[""img/mask20.png""],[""img/mask9.png""],[""img/mask66.png""],[""img/mask69.png""],[""img/mask41.png""],[""img/mask57.png""],[""img/mask40.png""],[""img/mask34.png""],[""img/mask76.png""],[""img/mask53.png""],[""img/mask89.png""],[""img/mask37.png""],[""img/mask17.png""],[""img/mask95.png""],[""img/mask95.png""],[""img/mask27.png""],[""img/mask81.png""],[""img/mask6.png""],[""img/mask62.png""],[""img/mask44.png""],[""img/mask74.png""],[""img/mask80.png""],[""img/mask31.png""],[""img/mask84.png""],[""img/mask45.png""],[""img/mask80.png""],[""img/mask86.png""],[""img/mask16.png""],[""img/mask39.png""],[""img/mask61.png""],[""img/mask93.png""]]]","","[24,8,22,29,11,34,0,13,19,9,30,3,2,31,7,18,14,26,23,21,20,10,35,16,12,6,32,15,33,27,17,4,5,28,25,1]","main","23","many-guess-6"
"","","","","","html-keyboard-response","45","117585","0.0-10.0-0.13","6101bdeaeb616cce742ad98e","640759fa512f630a2bdc333d","64077d8dc96f74900084337c","null","","null","","","","","","","","","","","","","","","","","","","fixation","",""
"","","","","","color-precision2","46","120162","0.0-10.0-1.13-0.13","6101bdeaeb616cce742ad98e","640759fa512f630a2bdc333d","64077d8dc96f74900084337c","[44.59999990463257]","","","[16]","[303]","303","356","","[null]","[null]","[308]","0","0","1","0","152.5910000953736","1002.5489999046258","1000","[[[""img/mask51.png""]]]","","","main","356","color-precision2"
"","","","","","html-keyboard-response","47","120664","0.0-10.0-0.14","6101bdeaeb616cce742ad98e","640759fa512f630a2bdc333d","64077d8dc96f74900084337c","null","","null","","","","","","","","","","","","","","","","","","","fixation","",""
"","","","","","color-precision2","48","123101","0.0-10.0-1.14-0.14","6101bdeaeb616cce742ad98e","640759fa512f630a2bdc333d","64077d8dc96f74900084337c","[44.59999990463257]","","","[14]","[188]","188","74","","[null]","[null]","[190]","0","0","1","0","151.99199999999837","1006.059999952311","1000","[[[""img/mask83.png""]]]","","","main","74","color-precision2"
"","","","","","html-keyboard-response","49","123602","0.0-10.0-0.15","6101bdeaeb616cce742ad98e","640759fa512f630a2bdc333d","64077d8dc96f74900084337c","null","","null","","","","","","","","","","","","","","","","","","","fixation","",""
"","","","","","many-guess-6","50","126774","0.0-10.0-1.15-0.15","6101bdeaeb616cce742ad98e","640759fa512f630a2bdc333d","64077d8dc96f74900084337c","[1308.8999998569489]","","","[5,4,12,11,20,30,22,31,14,0,21,32,35,3,18,17,26,1,28,7,6,2,19,23,13,10,9,33,15,29,8,34,25,16,24,27]","[124,164,134,284,194,54,264,224,84,344,64,274,234,114,34,294,204,104,24,214,5,334,244,324,354,14,304,154,44,314,74,254,184,144,174,94]","124","47","226.22546294455634","[226.22546294455634]","[179.22546294455634]","[180]","[300,300,300,120,300,120,120,120,30]","0","36","0","152.55599990463816","14.930000047679641","16","[[[""img/mask73.png""],[""img/mask31.png""],[""img/mask88.png""],[""img/mask30.png""],[""img/mask5.png""],[""img/mask52.png""],[""img/mask17.png""],[""img/mask82.png""],[""img/mask94.png""],[""img/mask89.png""],[""img/mask88.png""],[""img/mask91.png""],[""img/mask54.png""],[""img/mask39.png""],[""img/mask29.png""],[""img/mask10.png""],[""img/mask30.png""],[""img/mask24.png""],[""img/mask66.png""],[""img/mask47.png""],[""img/mask72.png""],[""img/mask31.png""],[""img/mask11.png""],[""img/mask96.png""],[""img/mask70.png""],[""img/mask89.png""],[""img/mask24.png""],[""img/mask76.png""],[""img/mask41.png""],[""img/mask70.png""],[""img/mask78.png""],[""img/mask19.png""],[""img/mask98.png""],[""img/mask44.png""],[""img/mask64.png""],[""img/mask83.png""]]]","","[5,4,12,11,20,30,22,31,14,0,21,32,35,3,18,17,26,1,28,7,6,2,19,23,13,10,9,33,15,29,8,34,25,16,24,27]","main","47","many-guess-6"
"","","","","","html-keyboard-response","51","127275","0.0-10.0-0.16","6101bdeaeb616cce742ad98e","640759fa512f630a2bdc333d","64077d8dc96f74900084337c","null","","null","","","","","","","","","","","","","","","","","","","fixation","",""
"","","","","","color-precision2","52","130099","0.0-10.0-1.16-0.16","6101bdeaeb616cce742ad98e","640759fa512f630a2bdc333d","64077d8dc96f74900084337c","[284.89999985694885]","","","[10]","[43]","43","105","133.38816438792307","[133.38816438792307]","[28.38816438792307]","[27]","0","0","1","0","152.02200009537046","1005.7960000953753","1000","[[[""img/mask35.png""]]]","","","main","105","color-precision2"
"","","","","","html-keyboard-response","53","130599","0.0-10.0-0.17","6101bdeaeb616cce742ad98e","640759fa512f630a2bdc333d","64077d8dc96f74900084337c","null","","null","","","","","","","","","","","","","","","","","","","fixation","",""
"","","","","","color-precision2","54","133235","0.0-10.0-1.17-0.17","6101bdeaeb616cce742ad98e","640759fa512f630a2bdc333d","64077d8dc96f74900084337c","[178.40000009536743]","","","[25]","[137]","137","208","","[null]","[null]","[165]","0","0","1","0","152.11399990462814","1004.969000047684","1000","[[[""img/mask14.png""]]]","","","main","208","color-precision2"
"","","","","","html-keyboard-response","55","133736","0.0-10.0-0.18","6101bdeaeb616cce742ad98e","640759fa512f630a2bdc333d","64077d8dc96f74900084337c","null","","null","","","","","","","","","","","","","","","","","","","fixation","",""
"","","","","","many-guess-6","56","135993","0.0-10.0-1.18-0.18","6101bdeaeb616cce742ad98e","640759fa512f630a2bdc333d","64077d8dc96f74900084337c","[1318.5]","","","[13,32,25,0,30,17,9,20,22,21,34,24,5,2,16,4,1,3,31,23,26,8,18,28,14,7,33,11,6,10,35,29,27,12,19,15]","[217,37,247,297,17,197,227,356,107,337,207,67,137,7,147,307,27,157,177,277,47,57,117,257,327,167,317,347,237,267,127,187,77,287,87,97]","217","277","221.32695978406616","[221.32695978406616]","[304.32695978406616]","[304]","[210,210,300,300,210,120,300,210,30]","0","36","0","152.63800009537954","13.100999904621858","16","[[[""img/mask78.png""],[""img/mask55.png""],[""img/mask2.png""],[""img/mask94.png""],[""img/mask94.png""],[""img/mask6.png""],[""img/mask34.png""],[""img/mask12.png""],[""img/mask71.png""],[""img/mask81.png""],[""img/mask3.png""],[""img/mask74.png""],[""img/mask50.png""],[""img/mask29.png""],[""img/mask99.png""],[""img/mask5.png""],[""img/mask5.png""],[""img/mask22.png""],[""img/mask46.png""],[""img/mask37.png""],[""img/mask79.png""],[""img/mask84.png""],[""img/mask36.png""],[""img/mask5.png""],[""img/mask17.png""],[""img/mask77.png""],[""img/mask7.png""],[""img/mask68.png""],[""img/mask22.png""],[""img/mask3.png""],[""img/mask45.png""],[""img/mask34.png""],[""img/mask25.png""],[""img/mask26.png""],[""img/mask14.png""],[""img/mask81.png""]]]","","[13,32,25,0,30,17,9,20,22,21,34,24,5,2,16,4,1,3,31,23,26,8,18,28,14,7,33,11,6,10,35,29,27,12,19,15]","main","277","many-guess-6"
"","","","","","html-keyboard-response","57","138462","0.0-10.0-0.19","6101bdeaeb616cce742ad98e","640759fa512f630a2bdc333d","64077d8dc96f74900084337c","2468.699999809265","Wow! You've completed 20 out of 180 trials! </p> <p>  </p><p> Take a quick break, then press any key when you're ready to continue.","g","","","","","","","","","","","","","","","","","","","fixation","",""
"","","","","","many-guess-6","58","141285","0.0-10.0-1.19-0.19","6101bdeaeb616cce742ad98e","640759fa512f630a2bdc333d","64077d8dc96f74900084337c","[1110]","","","[23,18,34,33,28,20,8,30,31,6,29,5,35,21,19,3,27,32,4,0,10,13,14,1,17,2,9,15,25,7,26,16,12,24,11,22]","[3,332,73,143,212,193,302,173,262,113,43,93,222,33,63,342,252,133,153,322,352,232,83,292,242,53,272,23,13,183,282,103,312,123,202,163]","3","280","73.14422010873457","[73.14422010873457]","[153.14422010873457]","[151]","[210,120,30,30,120,300,210,300,210]","0","36","0","151.9039999046363","15.460999952309066","16","[[[""img/mask34.png""],[""img/mask47.png""],[""img/mask68.png""],[""img/mask37.png""],[""img/mask32.png""],[""img/mask58.png""],[""img/mask11.png""],[""img/mask65.png""],[""img/mask93.png""],[""img/mask33.png""],[""img/mask42.png""],[""img/mask20.png""],[""img/mask58.png""],[""img/mask34.png""],[""img/mask54.png""],[""img/mask78.png""],[""img/mask47.png""],[""img/mask70.png""],[""img/mask9.png""],[""img/mask65.png""],[""img/mask69.png""],[""img/mask67.png""],[""img/mask51.png""],[""img/mask80.png""],[""img/mask63.png""],[""img/mask96.png""],[""img/mask18.png""],[""img/mask76.png""],[""img/mask56.png""],[""img/mask50.png""],[""img/mask88.png""],[""img/mask69.png""],[""img/mask91.png""],[""img/mask40.png""],[""img/mask3.png""],[""img/mask92.png""]]]","","[23,18,34,33,28,20,8,30,31,6,29,5,35,21,19,3,27,32,4,0,10,13,14,1,17,2,9,15,25,7,26,16,12,24,11,22]","main","280","many-guess-6"
"","","","","","html-keyboard-response","59","141791","0.0-10.0-0.20","6101bdeaeb616cce742ad98e","640759fa512f630a2bdc333d","64077d8dc96f74900084337c","null","","null","","","","","","","","","","","","","","","","","","","fixation","",""
"","","","","","many-guess-6","60","144199","0.0-10.0-1.20-0.20","6101bdeaeb616cce742ad98e","640759fa512f630a2bdc333d","64077d8dc96f74900084337c","[1329]","","","[1,15,9,10,12,3,28,8,27,24,29,35,30,21,13,17,33,14,26,18,5,25,34,0,11,2,7,23,4,19,31,6,32,22,16,20]","[171,141,11,300,1,91,340,191,111,201,320,330,350,291,221,101,181,41,51,271,231,121,31,261,21,71,81,161,211,131,241,251,310,281,151,61]","171","290","86.69364720282807","[86.69364720282807]","[156.69364720282806]","[155]","[210,120,30,120,120,120,210,30,120]","0","36","0","152.31599995231954","15.376999904634431","16","[[[""img/mask66.png""],[""img/mask64.png""],[""img/mask90.png""],[""img/mask45.png""],[""img/mask45.png""],[""img/mask93.png""],[""img/mask16.png""],[""img/mask45.png""],[""img/mask79.png""],[""img/mask23.png""],[""img/mask10.png""],[""img/mask16.png""],[""img/mask11.png""],[""img/mask7.png""],[""img/mask12.png""],[""img/mask16.png""],[""img/mask50.png""],[""img/mask90.png""],[""img/mask24.png""],[""img/mask29.png""],[""img/mask27.png""],[""img/mask61.png""],[""img/mask59.png""],[""img/mask49.png""],[""img/mask57.png""],[""img/mask61.png""],[""img/mask73.png""],[""img/mask68.png""],[""img/mask58.png""],[""img/mask96.png""],[""img/mask74.png""],[""img/mask28.png""],[""img/mask66.png""],[""img/mask90.png""],[""img/mask75.png""],[""img/mask79.png""]]]","","[1,15,9,10,12,3,28,8,27,24,29,35,30,21,13,17,33,14,26,18,5,25,34,0,11,2,7,23,4,19,31,6,32,22,16,20]","main","290","many-guess-6"
"","","","","","html-keyboard-response","61","144700","0.0-10.0-0.21","6101bdeaeb616cce742ad98e","640759fa512f630a2bdc333d","64077d8dc96f74900084337c","null","","null","","","","","","","","","","","","","","","","","","","fixation","",""
"","","","","","color-precision2","62","147795","0.0-10.0-1.21-0.21","6101bdeaeb616cce742ad98e","640759fa512f630a2bdc333d","64077d8dc96f74900084337c","[1028.9000000953674]","","","[34]","[41]","41","247","265.0652858954041","[265.0652858954041]","[18.065285895404088]","[18]","0","0","1","0","152.5579999523179","999.9180000953784","1000","[[[""img/mask28.png""]]]","","","main","247","color-precision2"
"","","","","","html-keyboard-response","63","148295","0.0-10.0-0.22","6101bdeaeb616cce742ad98e","640759fa512f630a2bdc333d","64077d8dc96f74900084337c","null","","null","","","","","","","","","","","","","","","","","","","fixation","",""
"","","","","","color-precision2","64","150949","0.0-10.0-1.22-0.22","6101bdeaeb616cce742ad98e","640759fa512f630a2bdc333d","64077d8dc96f74900084337c","[383.39999985694885]","","","[13]","[185]","185","21","213.94594884869502","[213.94594884869502]","[192.94594884869502]","[193]","0","0","1","0","152.15900009535835","1004.515000000014","1000","[[[""img/mask23.png""]]]","","","main","21","color-precision2"
"","","","","","html-keyboard-response","65","151450","0.0-10.0-0.23","6101bdeaeb616cce742ad98e","640759fa512f630a2bdc333d","64077d8dc96f74900084337c","null","","null","","","","","","","","","","","","","","","","","","","fixation","",""
"","","","","","color-precision2","66","153816","0.0-10.0-1.23-0.23","6101bdeaeb616cce742ad98e","640759fa512f630a2bdc333d","64077d8dc96f74900084337c","[104.5]","","","[29]","[316]","316","311","","[null]","[null]","[329]","0","0","1","0","152.4100000000035","1001.8800000476767","1000","[[[""img/mask91.png""]]]","","","main","311","color-precision2"
"","","","","","html-keyboard-response","67","154317","0.0-10.0-0.24","6101bdeaeb616cce742ad98e","640759fa512f630a2bdc333d","64077d8dc96f74900084337c","null","","null","","","","","","","","","","","","","","","","","","","fixation","",""
"","","","","","many-guess-6","68","155912","0.0-10.0-1.24-0.24","6101bdeaeb616cce742ad98e","640759fa512f630a2bdc333d","64077d8dc96f74900084337c","[492.2000000476837]","","","[14,8,26,23,11,21,22,20,31,13,27,10,16,4,24,32,29,12,9,17,7,35,5,2,1,15,28,25,34,6,30,0,3,19,33,18]","[124,254,294,134,304,324,144,15,154,94,114,44,244,64,194,284,334,234,344,184,274,204,104,264,24,224,54,314,174,214,164,354,5,74,34,84]","124","2","289.034351878121","[289.034351878121]","[287.034351878121]","[287]","[30,210,30,210,30,210,210,120,300]","0","36","0","152.3230000953772","13.48699995232164","16","[[[""img/mask72.png""],[""img/mask64.png""],[""img/mask78.png""],[""img/mask32.png""],[""img/mask81.png""],[""img/mask76.png""],[""img/mask46.png""],[""img/mask24.png""],[""img/mask43.png""],[""img/mask50.png""],[""img/mask99.png""],[""img/mask33.png""],[""img/mask30.png""],[""img/mask33.png""],[""img/mask37.png""],[""img/mask80.png""],[""img/mask24.png""],[""img/mask37.png""],[""img/mask53.png""],[""img/mask20.png""],[""img/mask88.png""],[""img/mask70.png""],[""img/mask8.png""],[""img/mask12.png""],[""img/mask33.png""],[""img/mask22.png""],[""img/mask2.png""],[""img/mask62.png""],[""img/mask18.png""],[""img/mask65.png""],[""img/mask8.png""],[""img/mask42.png""],[""img/mask57.png""],[""img/mask18.png""],[""img/mask93.png""],[""img/mask71.png""]]]","","[14,8,26,23,11,21,22,20,31,13,27,10,16,4,24,32,29,12,9,17,7,35,5,2,1,15,28,25,34,6,30,0,3,19,33,18]","main","2","many-guess-6"
"","","","","","html-keyboard-response","69","156413","0.0-10.0-0.25","6101bdeaeb616cce742ad98e","640759fa512f630a2bdc333d","64077d8dc96f74900084337c","null","","null","","","","","","","","","","","","","","","","","","","fixation","",""
"","","","","","color-precision2","70","158793","0.0-10.0-1.25-0.25","6101bdeaeb616cce742ad98e","640759fa512f630a2bdc333d","64077d8dc96f74900084337c","[87.79999995231628]","","","[0]","[240]","240","41","","[null]","[null]","[240]","0","0","1","0","152.57699990464607","1001.5379999523284","1000","[[[""img/mask37.png""]]]","","","main","41","color-precision2"
"","","","","","html-keyboard-response","71","159295","0.0-10.0-0.26","6101bdeaeb616cce742ad98e","640759fa512f630a2bdc333d","64077d8dc96f74900084337c","null","","null","","","","","","","","","","","","","","","","","","","fixation","",""
"","","","","","color-precision2","72","161724","0.0-10.0-1.26-0.26","6101bdeaeb616cce742ad98e","640759fa512f630a2bdc333d","64077d8dc96f74900084337c","[53.299999952316284]","","","[9]","[44]","44","327","","[null]","[null]","[26]","0","0","1","0","152.56299999999464","1002.9199999046396","1000","[[[""img/mask89.png""]]]","","","main","327","color-precision2"
"","","","","","html-keyboard-response","73","162226","0.0-10.0-0.27","6101bdeaeb616cce742ad98e","640759fa512f630a2bdc333d","64077d8dc96f74900084337c","null","","null","","","","","","","","","","","","","","","","","","","fixation","",""
"","","","","","color-precision2","74","164557","0.0-10.0-1.27-0.27","6101bdeaeb616cce742ad98e","640759fa512f630a2bdc333d","64077d8dc96f74900084337c","[79.89999985694885]","","","[7]","[165]","165","303","","[null]","[null]","[170]","0","0","1","0","152.40700000000652","1002.6710000000021","1000","[[[""img/mask63.png""]]]","","","main","303","color-precision2"
"","","","","","html-keyboard-response","75","165059","0.0-10.0-0.28","6101bdeaeb616cce742ad98e","640759fa512f630a2bdc333d","64077d8dc96f74900084337c","null","","null","","","","","","","","","","","","","","","","","","","fixation","",""
"","","","","","color-precision2","76","167674","0.0-10.0-1.28-0.28","6101bdeaeb616cce742ad98e","640759fa512f630a2bdc333d","64077d8dc96f74900084337c","[30.299999952316284]","","","[0]","[343]","343","256","","[null]","[null]","[352]","0","0","1","0","152.18999995233025","1003.8520000476856","1000","[[[""img/mask34.png""]]]","","","main","256","color-precision2"
"","","","","","html-keyboard-response","77","168175","0.0-10.0-0.29","6101bdeaeb616cce742ad98e","640759fa512f630a2bdc333d","64077d8dc96f74900084337c","null","","null","","","","","","","","","","","","","","","","","","","fixation","",""
"","","","","","color-precision2","78","170860","0.0-10.0-1.29-0.29","6101bdeaeb616cce742ad98e","640759fa512f630a2bdc333d","64077d8dc96f74900084337c","[69.5]","","","[15]","[291]","291","223","","[null]","[null]","[289]","0","0","1","0","151.94700009535882","1006.1119999523216","1000","[[[""img/mask25.png""]]]","","","main","223","color-precision2"
"","","","","","html-keyboard-response","79","171361","0.0-10.0-0.30","6101bdeaeb616cce742ad98e","640759fa512f630a2bdc333d","64077d8dc96f74900084337c","null","","null","","","","","","","","","","","","","","","","","","","fixation","",""
"","","","","","many-guess-6","80","174147","0.0-10.0-1.30-0.30","6101bdeaeb616cce742ad98e","640759fa512f630a2bdc333d","64077d8dc96f74900084337c","[1426.6999998092651]","","","[14,19,25,24,3,17,8,33,22,2,30,27,32,21,28,5,29,34,20,31,16,1,23,7,15,9,4,35,13,11,18,12,0,6,26,10]","[270,21,210,61,330,71,41,91,320,11,31,130,101,200,240,190,340,220,230,81,280,300,111,120,290,180,1,350,170,160,310,250,150,51,260,140]","270","352","290.94849527920604","[290.94849527920604]","[298.94849527920604]","[299]","[300,120,300,30,120,120,300,210,210]","0","36","0","151.41099990461953","16.71699990463094","16","[[[""img/mask44.png""],[""img/mask62.png""],[""img/mask44.png""],[""img/mask6.png""],[""img/mask91.png""],[""img/mask100.png""],[""img/mask29.png""],[""img/mask11.png""],[""img/mask69.png""],[""img/mask61.png""],[""img/mask37.png""],[""img/mask49.png""],[""img/mask26.png""],[""img/mask41.png""],[""img/mask47.png""],[""img/mask50.png""],[""img/mask12.png""],[""img/mask57.png""],[""img/mask83.png""],[""img/mask63.png""],[""img/mask2.png""],[""img/mask50.png""],[""img/mask13.png""],[""img/mask55.png""],[""img/mask60.png""],[""img/mask25.png""],[""img/mask98.png""],[""img/mask78.png""],[""img/mask81.png""],[""img/mask12.png""],[""img/mask63.png""],[""img/mask65.png""],[""img/mask64.png""],[""img/mask2.png""],[""img/mask14.png""],[""img/mask37.png""]]]","","[14,19,25,24,3,17,8,33,22,2,30,27,32,21,28,5,29,34,20,31,16,1,23,7,15,9,4,35,13,11,18,12,0,6,26,10]","main","352","many-guess-6"
"","","","","","html-keyboard-response","81","174648","0.0-10.0-0.31","6101bdeaeb616cce742ad98e","640759fa512f630a2bdc333d","64077d8dc96f74900084337c","null","","null","","","","","","","","","","","","","","","","","","","fixation","",""
"","","","","","many-guess-6","82","176390","0.0-10.0-1.31-0.31","6101bdeaeb616cce742ad98e","640759fa512f630a2bdc333d","64077d8dc96f74900084337c","[273.2000000476837]","","","[32,16,3,20,9,17,7,28,33,24,2,12,26,18,13,19,22,8,1,25,14,23,11,29,21,6,30,5,34,10,15,0,4,35,27,31]","[154,164,234,114,344,314,254,184,94,104,24,204,284,324,334,134,14,354,4,304,214,274,174,264,84,294,194,74,54,124,64,244,144,44,224,34]","154","229","272.89137879580966","[272.89137879580966]","[43.89137879580966]","[44]","[210,210,120,120,30,210,210,210,300]","0","36","0","152.49600000001374","13.051999952323968","16","[[[""img/mask64.png""],[""img/mask71.png""],[""img/mask36.png""],[""img/mask85.png""],[""img/mask65.png""],[""img/mask80.png""],[""img/mask52.png""],[""img/mask33.png""],[""img/mask73.png""],[""img/mask62.png""],[""img/mask38.png""],[""img/mask33.png""],[""img/mask26.png""],[""img/mask36.png""],[""img/mask17.png""],[""img/mask67.png""],[""img/mask17.png""],[""img/mask83.png""],[""img/mask73.png""],[""img/mask62.png""],[""img/mask20.png""],[""img/mask73.png""],[""img/mask74.png""],[""img/mask94.png""],[""img/mask29.png""],[""img/mask88.png""],[""img/mask10.png""],[""img/mask44.png""],[""img/mask21.png""],[""img/mask53.png""],[""img/mask33.png""],[""img/mask90.png""],[""img/mask51.png""],[""img/mask90.png""],[""img/mask7.png""],[""img/mask95.png""]]]","","[32,16,3,20,9,17,7,28,33,24,2,12,26,18,13,19,22,8,1,25,14,23,11,29,21,6,30,5,34,10,15,0,4,35,27,31]","main","229","many-guess-6"
"","","","","","html-keyboard-response","83","176890","0.0-10.0-0.32","6101bdeaeb616cce742ad98e","640759fa512f630a2bdc333d","64077d8dc96f74900084337c","null","","null","","","","","","","","","","","","","","","","","","","fixation","",""
"","","","","","many-guess-6","84","178474","0.0-10.0-1.32-0.32","6101bdeaeb616cce742ad98e","640759fa512f630a2bdc333d","64077d8dc96f74900084337c","[287.5]","","","[12,31,23,3,35,29,32,5,15,11,26,17,7,24,20,10,2,8,25,19,13,21,34,6,30,18,22,14,28,0,1,33,16,27,4,9]","[120,130,50,189,299,100,279,239,150,319,20,199,160,90,329,269,80,40,170,10,339,70,60,249,219,179,110,209,140,259,349,289,229,309,359,30]","120","266","229.0165614498083","[229.0165614498083]","[323.0165614498083]","[323]","[210,30,30,210,120,120,120,210,30]","0","36","0","152.54700009536464","13.814000095357187","16","[[[""img/mask70.png""],[""img/mask17.png""],[""img/mask92.png""],[""img/mask1.png""],[""img/mask28.png""],[""img/mask50.png""],[""img/mask8.png""],[""img/mask88.png""],[""img/mask93.png""],[""img/mask85.png""],[""img/mask2.png""],[""img/mask12.png""],[""img/mask32.png""],[""img/mask72.png""],[""img/mask1.png""],[""img/mask36.png""],[""img/mask60.png""],[""img/mask31.png""],[""img/mask43.png""],[""img/mask3.png""],[""img/mask88.png""],[""img/mask43.png""],[""img/mask77.png""],[""img/mask6.png""],[""img/mask92.png""],[""img/mask33.png""],[""img/mask1.png""],[""img/mask18.png""],[""img/mask33.png""],[""img/mask52.png""],[""img/mask93.png""],[""img/mask76.png""],[""img/mask65.png""],[""img/mask100.png""],[""img/mask69.png""],[""img/mask49.png""]]]","","[12,31,23,3,35,29,32,5,15,11,26,17,7,24,20,10,2,8,25,19,13,21,34,6,30,18,22,14,28,0,1,33,16,27,4,9]","main","266","many-guess-6"
"","","","","","html-keyboard-response","85","178974","0.0-10.0-0.33","6101bdeaeb616cce742ad98e","640759fa512f630a2bdc333d","64077d8dc96f74900084337c","null","","null","","","","","","","","","","","","","","","","","","","fixation","",""
"","","","","","color-precision2","86","181403","0.0-10.0-1.33-0.33","6101bdeaeb616cce742ad98e","640759fa512f630a2bdc333d","64077d8dc96f74900084337c","[132.80000019073486]","","","[34]","[29]","29","326","340.56120777431363","[340.56120777431363]","[14.56120777431363]","[14]","0","0","1","0","152.59699995230767","1003.1519999046286","1000","[[[""img/mask78.png""]]]","","","main","326","color-precision2"
"","","","","","html-keyboard-response","87","181904","0.0-10.0-0.34","6101bdeaeb616cce742ad98e","640759fa512f630a2bdc333d","64077d8dc96f74900084337c","null","","null","","","","","","","","","","","","","","","","","","","fixation","",""
"","","","","","color-precision2","88","184337","0.0-10.0-1.34-0.34","6101bdeaeb616cce742ad98e","640759fa512f630a2bdc333d","64077d8dc96f74900084337c","[114.90000009536743]","","","[21]","[235]","235","322","","[null]","[null]","[239]","0","0","1","0","152.5949999046279","1000.3529999046295","1000","[[[""img/mask87.png""]]]","","","main","322","color-precision2"
"","","","","","html-keyboard-response","89","184837","0.0-10.0-0.35","6101bdeaeb616cce742ad98e","640759fa512f630a2bdc333d","64077d8dc96f74900084337c","null","","null","","","","","","","","","","","","","","","","","","","fixation","",""
"","","","","","many-guess-6","90","187197","0.0-10.0-1.35-0.35","6101bdeaeb616cce742ad98e","640759fa512f630a2bdc333d","64077d8dc96f74900084337c","[912.2999999523163]","","","[28,21,5,16,23,18,31,35,27,3,33,12,2,1,9,10,13,7,0,29,4,14,34,11,19,25,26,20,22,6,15,30,8,32,24,17]","[6,335,175,56,245,106,255,305,16,166,156,195,136,116,205,325,146,225,295,355,126,76,215,265,66,185,26,285,36,86,96,275,345,235,315,46]","6","342","166.82616970415722","[166.82616970415722]","[184.82616970415722]","[184]","[120,120,120,210,300,300,300,210,210]","0","36","0","152.60100009536836","12.66200004768325","16","[[[""img/mask42.png""],[""img/mask99.png""],[""img/mask76.png""],[""img/mask22.png""],[""img/mask52.png""],[""img/mask50.png""],[""img/mask84.png""],[""img/mask89.png""],[""img/mask52.png""],[""img/mask41.png""],[""img/mask15.png""],[""img/mask59.png""],[""img/mask98.png""],[""img/mask100.png""],[""img/mask24.png""],[""img/mask33.png""],[""img/mask14.png""],[""img/mask86.png""],[""img/mask33.png""],[""img/mask59.png""],[""img/mask49.png""],[""img/mask74.png""],[""img/mask86.png""],[""img/mask94.png""],[""img/mask14.png""],[""img/mask93.png""],[""img/mask1.png""],[""img/mask14.png""],[""img/mask51.png""],[""img/mask100.png""],[""img/mask2.png""],[""img/mask96.png""],[""img/mask43.png""],[""img/mask86.png""],[""img/mask79.png""],[""img/mask97.png""]]]","","[28,21,5,16,23,18,31,35,27,3,33,12,2,1,9,10,13,7,0,29,4,14,34,11,19,25,26,20,22,6,15,30,8,32,24,17]","main","342","many-guess-6"
"","","","","","html-keyboard-response","91","187697","0.0-10.0-0.36","6101bdeaeb616cce742ad98e","640759fa512f630a2bdc333d","64077d8dc96f74900084337c","null","","null","","","","","","","","","","","","","","","","","","","fixation","",""
"","","","","","many-guess-6","92","189884","0.0-10.0-1.36-0.36","6101bdeaeb616cce742ad98e","640759fa512f630a2bdc333d","64077d8dc96f74900084337c","[994.7999999523163]","","","[3,26,1,34,27,33,29,17,24,16,7,31,15,14,28,10,21,22,35,30,6,19,4,5,20,11,0,32,9,25,2,13,8,12,18,23]","[163,183,303,193,124,243,253,94,34,4,223,144,263,114,74,24,293,104,64,333,134,343,323,44,203,313,353,273,84,54,14,283,173,233,213,153]","163","5","6.217783252638497","[6.217783252638497]","[1.2177832526384966]","[0]","[210,300,300,120,300,30,210,210,300]","0","36","0","152.63200000001234","14.596000047691632","16","[[[""img/mask3.png""],[""img/mask65.png""],[""img/mask91.png""],[""img/mask24.png""],[""img/mask47.png""],[""img/mask8.png""],[""img/mask90.png""],[""img/mask19.png""],[""img/mask51.png""],[""img/mask7.png""],[""img/mask70.png""],[""img/mask77.png""],[""img/mask43.png""],[""img/mask23.png""],[""img/mask82.png""],[""img/mask37.png""],[""img/mask42.png""],[""img/mask70.png""],[""img/mask33.png""],[""img/mask17.png""],[""img/mask92.png""],[""img/mask17.png""],[""img/mask92.png""],[""img/mask91.png""],[""img/mask34.png""],[""img/mask65.png""],[""img/mask22.png""],[""img/mask75.png""],[""img/mask9.png""],[""img/mask76.png""],[""img/mask65.png""],[""img/mask8.png""],[""img/mask63.png""],[""img/mask20.png""],[""img/mask14.png""],[""img/mask100.png""]]]","","[3,26,1,34,27,33,29,17,24,16,7,31,15,14,28,10,21,22,35,30,6,19,4,5,20,11,0,32,9,25,2,13,8,12,18,23]","main","5","many-guess-6"
"","","","","","html-keyboard-response","93","190384","0.0-10.0-0.37","6101bdeaeb616cce742ad98e","640759fa512f630a2bdc333d","64077d8dc96f74900084337c","null","","null","","","","","","","","","","","","","","","","","","","fixation","",""
"","","","","","many-guess-6","94","192310","0.0-10.0-1.37-0.37","6101bdeaeb616cce742ad98e","640759fa512f630a2bdc333d","64077d8dc96f74900084337c","[781.7999999523163]","","","[3,5,32,0,16,35,14,13,2,22,19,6,33,26,17,15,1,34,11,21,31,23,8,25,18,28,12,29,24,10,27,9,30,20,7,4]","[260,160,210,20,270,320,359,280,150,110,330,300,130,10,60,120,220,140,40,180,310,30,70,90,349,170,200,50,80,290,100,250,339,230,190,240]","260","315","122.07946562472968","[122.07946562472968]","[167.07946562472966]","[166]","[120,300,300,210,210,300,210,120,30]","0","36","0","152.4970000476751","12.657999904622557","16","[[[""img/mask48.png""],[""img/mask21.png""],[""img/mask7.png""],[""img/mask66.png""],[""img/mask27.png""],[""img/mask45.png""],[""img/mask71.png""],[""img/mask10.png""],[""img/mask37.png""],[""img/mask38.png""],[""img/mask62.png""],[""img/mask60.png""],[""img/mask14.png""],[""img/mask25.png""],[""img/mask51.png""],[""img/mask51.png""],[""img/mask71.png""],[""img/mask3.png""],[""img/mask4.png""],[""img/mask55.png""],[""img/mask58.png""],[""img/mask7.png""],[""img/mask72.png""],[""img/mask7.png""],[""img/mask56.png""],[""img/mask43.png""],[""img/mask57.png""],[""img/mask84.png""],[""img/mask70.png""],[""img/mask76.png""],[""img/mask17.png""],[""img/mask37.png""],[""img/mask74.png""],[""img/mask15.png""],[""img/mask40.png""],[""img/mask6.png""]]]","","[3,5,32,0,16,35,14,13,2,22,19,6,33,26,17,15,1,34,11,21,31,23,8,25,18,28,12,29,24,10,27,9,30,20,7,4]","main","315","many-guess-6"
"","","","","","html-keyboard-response","95","192811","0.0-10.0-0.38","6101bdeaeb616cce742ad98e","640759fa512f630a2bdc333d","64077d8dc96f74900084337c","null","","null","","","","","","","","","","","","","","","","","","","fixation","",""
"","","","","","color-precision2","96","195443","0.0-10.0-1.38-0.38","6101bdeaeb616cce742ad98e","640759fa512f630a2bdc333d","64077d8dc96f74900084337c","[330.90000009536743]","","","[16]","[324]","324","292","","[null]","[null]","[341]","0","0","1","0","152.59199990463094","1002.252999999997","1000","[[[""img/mask78.png""]]]","","","main","292","color-precision2"
"","","","","","html-keyboard-response","97","198334","0.0-10.0-0.39","6101bdeaeb616cce742ad98e","640759fa512f630a2bdc333d","64077d8dc96f74900084337c","2891.5","Wow! You've completed 40 out of 180 trials! </p> <p>  </p><p> Take a quick break, then press any key when you're ready to continue.","g","","","","","","","","","","","","","","","","","","","fixation","",""
"","","","","","color-precision2","98","201571","0.0-10.0-1.39-0.39","6101bdeaeb616cce742ad98e","640759fa512f630a2bdc333d","64077d8dc96f74900084337c","[0.6999998092651367]","","","[2]","[328]","328","22","","[null]","[null]","[332]","0","0","1","0","152.19400004768977","998.5779999523074","1000","[[[""img/mask67.png""]]]","","","main","22","color-precision2"
"","","","","","html-keyboard-response","99","202072","0.0-10.0-0.40","6101bdeaeb616cce742ad98e","640759fa512f630a2bdc333d","64077d8dc96f74900084337c","null","","null","","","","","","","","","","","","","","","","","","","fixation","",""
"","","","","","color-precision2","100","204993","0.0-10.0-1.40-0.40","6101bdeaeb616cce742ad98e","640759fa512f630a2bdc333d","64077d8dc96f74900084337c","[179.59999990463257]","","","[23]","[181]","181","131","317.06377798347603","[317.06377798347603]","[186.06377798347603]","[186]","0","0","1","0","152.5780000476807","999.7339999046235","1000","[[[""img/mask46.png""]]]","","","main","131","color-precision2"
"","","","","","html-keyboard-response","101","205495","0.0-10.0-0.41","6101bdeaeb616cce742ad98e","640759fa512f630a2bdc333d","64077d8dc96f74900084337c","null","","null","","","","","","","","","","","","","","","","","","","fixation","",""
"","","","","","many-guess-6","102","207508","0.0-10.0-1.41-0.41","6101bdeaeb616cce742ad98e","640759fa512f630a2bdc333d","64077d8dc96f74900084337c","[722.2000000476837]","","","[21,9,1,31,28,35,34,0,6,5,18,8,11,25,24,19,2,30,20,29,12,27,13,23,10,17,16,4,22,26,33,7,15,3,32,14]","[127,97,37,176,196,316,206,17,7,167,27,256,87,236,67,117,356,296,47,186,246,286,137,57,216,77,226,157,326,147,346,276,266,336,306,107]","127","206","289.337067524063","[289.337067524063]","[83.337067524063]","[84]","[210,300,30,300,30,30,120,300,300]","0","36","0","152.4039999046363","14.959000095375814","16","[[[""img/mask48.png""],[""img/mask69.png""],[""img/mask54.png""],[""img/mask18.png""],[""img/mask16.png""],[""img/mask52.png""],[""img/mask72.png""],[""img/mask100.png""],[""img/mask72.png""],[""img/mask64.png""],[""img/mask16.png""],[""img/mask28.png""],[""img/mask95.png""],[""img/mask7.png""],[""img/mask47.png""],[""img/mask35.png""],[""img/mask87.png""],[""img/mask90.png""],[""img/mask89.png""],[""img/mask51.png""],[""img/mask33.png""],[""img/mask66.png""],[""img/mask46.png""],[""img/mask32.png""],[""img/mask10.png""],[""img/mask29.png""],[""img/mask93.png""],[""img/mask81.png""],[""img/mask23.png""],[""img/mask54.png""],[""img/mask7.png""],[""img/mask82.png""],[""img/mask55.png""],[""img/mask50.png""],[""img/mask30.png""],[""img/mask34.png""]]]","","[21,9,1,31,28,35,34,0,6,5,18,8,11,25,24,19,2,30,20,29,12,27,13,23,10,17,16,4,22,26,33,7,15,3,32,14]","main","206","many-guess-6"
"","","","","","html-keyboard-response","103","208009","0.0-10.0-0.42","6101bdeaeb616cce742ad98e","640759fa512f630a2bdc333d","64077d8dc96f74900084337c","null","","null","","","","","","","","","","","","","","","","","","","fixation","",""
"","","","","","many-guess-6","104","209575","0.0-10.0-1.42-0.42","6101bdeaeb616cce742ad98e","640759fa512f630a2bdc333d","64077d8dc96f74900084337c","[275.09999990463257]","","","[29,27,31,19,26,8,20,2,5,17,33,25,30,7,34,18,22,16,28,21,23,24,32,35,14,6,1,11,13,4,10,9,0,3,12,15]","[262,142,342,312,192,103,322,63,113,123,152,242,352,3,73,132,272,93,302,212,162,43,13,182,172,53,252,83,282,292,23,222,202,33,232,332]","262","52","7.736251784626229","[7.736251784626229]","[315.73625178462623]","[315]","[210,300,210,120,120,210,30,120,210]","0","36","0","152.65400004768162","14.11500009536394","16","[[[""img/mask22.png""],[""img/mask51.png""],[""img/mask100.png""],[""img/mask67.png""],[""img/mask11.png""],[""img/mask85.png""],[""img/mask54.png""],[""img/mask98.png""],[""img/mask77.png""],[""img/mask55.png""],[""img/mask9.png""],[""img/mask79.png""],[""img/mask96.png""],[""img/mask65.png""],[""img/mask35.png""],[""img/mask51.png""],[""img/mask98.png""],[""img/mask9.png""],[""img/mask45.png""],[""img/mask71.png""],[""img/mask39.png""],[""img/mask70.png""],[""img/mask24.png""],[""img/mask49.png""],[""img/mask88.png""],[""img/mask26.png""],[""img/mask37.png""],[""img/mask71.png""],[""img/mask96.png""],[""img/mask63.png""],[""img/mask32.png""],[""img/mask38.png""],[""img/mask58.png""],[""img/mask29.png""],[""img/mask46.png""],[""img/mask70.png""]]]","","[29,27,31,19,26,8,20,2,5,17,33,25,30,7,34,18,22,16,28,21,23,24,32,35,14,6,1,11,13,4,10,9,0,3,12,15]","main","52","many-guess-6"
"","","","","","html-keyboard-response","105","210077","0.0-10.0-0.43","6101bdeaeb616cce742ad98e","640759fa512f630a2bdc333d","64077d8dc96f74900084337c","null","","null","","","","","","","","","","","","","","","","","","","fixation","",""
"","","","","","many-guess-6","106","211243","0.0-10.0-1.43-0.43","6101bdeaeb616cce742ad98e","640759fa512f630a2bdc333d","64077d8dc96f74900084337c","[40]","","","[34,5,32,26,20,28,30,27,6,7,31,23,22,12,1,4,33,13,3,18,16,2,17,15,29,19,11,0,21,14,10,8,35,24,25,9]","[68,98,19,228,108,39,258,208,158,188,248,128,118,88,78,148,168,268,138,298,9,178,308,29,58,48,238,218,358,338,288,348,198,278,318,328]","68","173","","[null]","[null]","[221]","[30,30,30,30,30,210,30,300,300]","0","36","0","152.52199990462395","13.485999952303246","16","[[[""img/mask52.png""],[""img/mask40.png""],[""img/mask41.png""],[""img/mask34.png""],[""img/mask68.png""],[""img/mask8.png""],[""img/mask34.png""],[""img/mask41.png""],[""img/mask68.png""],[""img/mask31.png""],[""img/mask26.png""],[""img/mask99.png""],[""img/mask61.png""],[""img/mask9.png""],[""img/mask21.png""],[""img/mask70.png""],[""img/mask57.png""],[""img/mask76.png""],[""img/mask51.png""],[""img/mask48.png""],[""img/mask29.png""],[""img/mask92.png""],[""img/mask25.png""],[""img/mask65.png""],[""img/mask30.png""],[""img/mask36.png""],[""img/mask77.png""],[""img/mask24.png""],[""img/mask1.png""],[""img/mask56.png""],[""img/mask60.png""],[""img/mask9.png""],[""img/mask40.png""],[""img/mask95.png""],[""img/mask29.png""],[""img/mask28.png""]]]","","[34,5,32,26,20,28,30,27,6,7,31,23,22,12,1,4,33,13,3,18,16,2,17,15,29,19,11,0,21,14,10,8,35,24,25,9]","main","173","many-guess-6"
"","","","","","html-keyboard-response","107","211744","0.0-10.0-0.44","6101bdeaeb616cce742ad98e","640759fa512f630a2bdc333d","64077d8dc96f74900084337c","null","","null","","","","","","","","","","","","","","","","","","","fixation","",""
"","","","","","many-guess-6","108","213210","0.0-10.0-1.44-0.44","6101bdeaeb616cce742ad98e","640759fa512f630a2bdc333d","64077d8dc96f74900084337c","[290.5]","","","[10,2,31,28,22,5,32,35,34,20,18,23,14,24,15,16,3,21,0,6,17,30,29,1,27,19,8,7,9,26,12,33,25,13,4,11]","[76,285,175,205,96,305,265,335,145,325,106,195,56,115,26,275,165,86,245,6,36,355,255,235,295,155,345,135,215,46,315,16,185,225,66,125]","76","206","","[null]","[null]","[154]","[300,120,210,120,300,210,300,210,30]","0","36","0","152.23499995231396","14.557000095373951","16","[[[""img/mask94.png""],[""img/mask34.png""],[""img/mask67.png""],[""img/mask40.png""],[""img/mask53.png""],[""img/mask14.png""],[""img/mask13.png""],[""img/mask27.png""],[""img/mask63.png""],[""img/mask33.png""],[""img/mask30.png""],[""img/mask74.png""],[""img/mask90.png""],[""img/mask2.png""],[""img/mask54.png""],[""img/mask38.png""],[""img/mask78.png""],[""img/mask95.png""],[""img/mask15.png""],[""img/mask75.png""],[""img/mask26.png""],[""img/mask4.png""],[""img/mask1.png""],[""img/mask26.png""],[""img/mask91.png""],[""img/mask68.png""],[""img/mask28.png""],[""img/mask13.png""],[""img/mask55.png""],[""img/mask92.png""],[""img/mask52.png""],[""img/mask94.png""],[""img/mask78.png""],[""img/mask10.png""],[""img/mask5.png""],[""img/mask93.png""]]]","","[10,2,31,28,22,5,32,35,34,20,18,23,14,24,15,16,3,21,0,6,17,30,29,1,27,19,8,7,9,26,12,33,25,13,4,11]","main","206","many-guess-6"
"","","","","","html-keyboard-response","109","213710","0.0-10.0-0.45","6101bdeaeb616cce742ad98e","640759fa512f630a2bdc333d","64077d8dc96f74900084337c","null","","null","","","","","","","","","","","","","","","","","","","fixation","",""
"","","","","","color-precision2","110","219130","0.0-10.0-1.45-0.45","6101bdeaeb616cce742ad98e","640759fa512f630a2bdc333d","64077d8dc96f74900084337c","[2995.800000190735]","","","[21]","[70]","70","158","216.09617175553655","[216.09617175553655]","[58.096171755536545]","[58]","0","0","1","0","152.6780000476865","996.8419999046309","1000","[[[""img/mask72.png""]]]","","","main","158","color-precision2"
"","","","","","html-keyboard-response","111","219643","0.0-10.0-0.46","6101bdeaeb616cce742ad98e","640759fa512f630a2bdc333d","64077d8dc96f74900084337c","null","","null","","","","","","","","","","","","","","","","","","","fixation","",""
"","","","","","color-precision2","112","221817","0.0-10.0-1.46-0.46","6101bdeaeb616cce742ad98e","640759fa512f630a2bdc333d","64077d8dc96f74900084337c","[43.30000019073486]","","","[34]","[271]","271","329","","[null]","[null]","[273]","0","0","1","0","152.45000000001164","1000.5099999523081","1000","[[[""img/mask94.png""]]]","","","main","329","color-precision2"
"","","","","","html-keyboard-response","113","222330","0.0-10.0-0.47","6101bdeaeb616cce742ad98e","640759fa512f630a2bdc333d","64077d8dc96f74900084337c","null","","null","","","","","","","","","","","","","","","","","","","fixation","",""
"","","","","","color-precision2","114","224603","0.0-10.0-1.47-0.47","6101bdeaeb616cce742ad98e","640759fa512f630a2bdc333d","64077d8dc96f74900084337c","[141.5]","","","[9]","[34]","34","67","","[null]","[null]","[14]","0","0","1","0","152.53199995230534","998.5989999046433","1000","[[[""img/mask22.png""]]]","","","main","67","color-precision2"
"","","","","","html-keyboard-response","115","225104","0.0-10.0-0.48","6101bdeaeb616cce742ad98e","640759fa512f630a2bdc333d","64077d8dc96f74900084337c","null","","null","","","","","","","","","","","","","","","","","","","fixation","",""
"","","","","","many-guess-6","116","227088","0.0-10.0-1.48-0.48","6101bdeaeb616cce742ad98e","640759fa512f630a2bdc333d","64077d8dc96f74900084337c","[778.9000000953674]","","","[1,5,34,18,32,19,26,33,0,31,9,20,27,10,22,23,11,21,8,25,4,29,13,7,12,2,24,16,6,3,28,15,17,35,14,30]","[277,217,337,197,117,157,67,167,257,317,87,357,147,97,127,307,247,327,38,18,207,48,8,267,77,287,137,347,107,237,187,28,177,57,227,297]","277","359","329.8162994917374","[329.8162994917374]","[330.8162994917374]","[331]","[210,210,120,300,210,120,210,300,210]","0","36","0","152.54600009537535","19.198999952321174","16","[[[""img/mask41.png""],[""img/mask81.png""],[""img/mask25.png""],[""img/mask26.png""],[""img/mask80.png""],[""img/mask35.png""],[""img/mask22.png""],[""img/mask11.png""],[""img/mask59.png""],[""img/mask97.png""],[""img/mask17.png""],[""img/mask41.png""],[""img/mask95.png""],[""img/mask62.png""],[""img/mask7.png""],[""img/mask64.png""],[""img/mask67.png""],[""img/mask74.png""],[""img/mask88.png""],[""img/mask10.png""],[""img/mask42.png""],[""img/mask1.png""],[""img/mask9.png""],[""img/mask35.png""],[""img/mask6.png""],[""img/mask4.png""],[""img/mask30.png""],[""img/mask19.png""],[""img/mask87.png""],[""img/mask23.png""],[""img/mask50.png""],[""img/mask29.png""],[""img/mask61.png""],[""img/mask45.png""],[""img/mask35.png""],[""img/mask64.png""]]]","","[1,5,34,18,32,19,26,33,0,31,9,20,27,10,22,23,11,21,8,25,4,29,13,7,12,2,24,16,6,3,28,15,17,35,14,30]","main","359","many-guess-6"
"","","","","","html-keyboard-response","117","227589","0.0-10.0-0.49","6101bdeaeb616cce742ad98e","640759fa512f630a2bdc333d","64077d8dc96f74900084337c","null","","null","","","","","","","","","","","","","","","","","","","fixation","",""
"","","","","","color-precision2","118","229946","0.0-10.0-1.49-0.49","6101bdeaeb616cce742ad98e","640759fa512f630a2bdc333d","64077d8dc96f74900084337c","[39.10000014305115]","","","[34]","[145]","145","13","","[null]","[null]","[147]","0","0","1","0","152.23300000000745","1006.7939999523223","1000","[[[""img/mask98.png""]]]","","","main","13","color-precision2"
"","","","","","html-keyboard-response","119","230447","0.0-10.0-0.50","6101bdeaeb616cce742ad98e","640759fa512f630a2bdc333d","64077d8dc96f74900084337c","null","","null","","","","","","","","","","","","","","","","","","","fixation","",""
"","","","","","many-guess-6","120","231716","0.0-10.0-1.50-0.50","6101bdeaeb616cce742ad98e","640759fa512f630a2bdc333d","64077d8dc96f74900084337c","[114.60000014305115]","","","[18,30,26,29,24,34,22,31,33,17,23,20,35,8,0,4,1,25,28,14,32,16,21,27,7,6,2,15,13,9,3,12,10,5,11,19]","[118,318,128,357,108,88,98,8,168,78,28,347,58,278,308,48,38,18,188,268,338,178,228,138,328,298,148,248,288,198,68,258,238,208,158,218]","118","294","185.47739786028626","[185.47739786028626]","[251.47739786028626]","[251]","[30,210,30,30,210,300,210,210,30]","0","36","0","152.55000004768954","15.619999999995343","16","[[[""img/mask98.png""],[""img/mask10.png""],[""img/mask31.png""],[""img/mask34.png""],[""img/mask53.png""],[""img/mask10.png""],[""img/mask40.png""],[""img/mask100.png""],[""img/mask54.png""],[""img/mask99.png""],[""img/mask28.png""],[""img/mask45.png""],[""img/mask42.png""],[""img/mask42.png""],[""img/mask52.png""],[""img/mask51.png""],[""img/mask58.png""],[""img/mask61.png""],[""img/mask26.png""],[""img/mask46.png""],[""img/mask99.png""],[""img/mask48.png""],[""img/mask87.png""],[""img/mask13.png""],[""img/mask4.png""],[""img/mask32.png""],[""img/mask98.png""],[""img/mask9.png""],[""img/mask52.png""],[""img/mask24.png""],[""img/mask25.png""],[""img/mask22.png""],[""img/mask86.png""],[""img/mask83.png""],[""img/mask71.png""],[""img/mask44.png""]]]","","[18,30,26,29,24,34,22,31,33,17,23,20,35,8,0,4,1,25,28,14,32,16,21,27,7,6,2,15,13,9,3,12,10,5,11,19]","main","294","many-guess-6"
"","","","","","html-keyboard-response","121","232217","0.0-10.0-0.51","6101bdeaeb616cce742ad98e","640759fa512f630a2bdc333d","64077d8dc96f74900084337c","null","","null","","","","","","","","","","","","","","","","","","","fixation","",""
"","","","","","many-guess-6","122","233688","0.0-10.0-1.51-0.51","6101bdeaeb616cce742ad98e","640759fa512f630a2bdc333d","64077d8dc96f74900084337c","[357.2000000476837]","","","[23,16,29,14,26,6,33,8,4,30,3,32,17,24,5,10,1,11,28,20,0,34,9,35,22,27,15,2,13,31,7,25,12,21,18,19]","[125,344,95,234,274,15,204,45,184,55,354,154,65,25,224,334,194,294,135,75,5,304,324,254,85,214,174,264,164,284,144,105,314,35,244,115]","125","301","19.59441645458818","[19.59441645458818]","[78.59441645458816]","[78]","[210,30,210,300,120,210,300,30,300]","0","36","0","152.40200004767394","17.26199995231582","16","[[[""img/mask24.png""],[""img/mask84.png""],[""img/mask77.png""],[""img/mask9.png""],[""img/mask76.png""],[""img/mask13.png""],[""img/mask90.png""],[""img/mask44.png""],[""img/mask54.png""],[""img/mask5.png""],[""img/mask50.png""],[""img/mask73.png""],[""img/mask52.png""],[""img/mask40.png""],[""img/mask57.png""],[""img/mask77.png""],[""img/mask6.png""],[""img/mask73.png""],[""img/mask8.png""],[""img/mask95.png""],[""img/mask13.png""],[""img/mask58.png""],[""img/mask83.png""],[""img/mask32.png""],[""img/mask26.png""],[""img/mask26.png""],[""img/mask65.png""],[""img/mask78.png""],[""img/mask24.png""],[""img/mask81.png""],[""img/mask37.png""],[""img/mask24.png""],[""img/mask27.png""],[""img/mask66.png""],[""img/mask4.png""],[""img/mask21.png""]]]","","[23,16,29,14,26,6,33,8,4,30,3,32,17,24,5,10,1,11,28,20,0,34,9,35,22,27,15,2,13,31,7,25,12,21,18,19]","main","301","many-guess-6"
"","","","","","html-keyboard-response","123","234189","0.0-10.0-0.52","6101bdeaeb616cce742ad98e","640759fa512f630a2bdc333d","64077d8dc96f74900084337c","null","","null","","","","","","","","","","","","","","","","","","","fixation","",""
"","","","","","many-guess-6","124","235533","0.0-10.0-1.52-0.52","6101bdeaeb616cce742ad98e","640759fa512f630a2bdc333d","64077d8dc96f74900084337c","[243.79999995231628]","","","[8,23,34,18,5,27,14,20,16,3,17,6,4,12,21,13,35,30,19,7,1,28,25,0,22,26,10,15,24,9,2,11,31,32,33,29]","[224,244,184,94,15,144,214,304,134,274,354,324,45,294,194,5,154,84,314,74,334,114,124,54,254,234,64,204,104,164,35,284,344,264,25,174]","224","93","131.407813177013","[131.407813177013]","[38.407813177013]","[37]","[300,300,300,120,30,210,300,120,300]","0","36","0","152.43700004767743","17.697000047686743","16","[[[""img/mask19.png""],[""img/mask70.png""],[""img/mask38.png""],[""img/mask24.png""],[""img/mask63.png""],[""img/mask84.png""],[""img/mask46.png""],[""img/mask49.png""],[""img/mask8.png""],[""img/mask32.png""],[""img/mask66.png""],[""img/mask49.png""],[""img/mask56.png""],[""img/mask85.png""],[""img/mask1.png""],[""img/mask93.png""],[""img/mask20.png""],[""img/mask99.png""],[""img/mask45.png""],[""img/mask77.png""],[""img/mask34.png""],[""img/mask45.png""],[""img/mask39.png""],[""img/mask39.png""],[""img/mask21.png""],[""img/mask89.png""],[""img/mask6.png""],[""img/mask81.png""],[""img/mask40.png""],[""img/mask10.png""],[""img/mask4.png""],[""img/mask2.png""],[""img/mask62.png""],[""img/mask36.png""],[""img/mask58.png""],[""img/mask71.png""]]]","","[8,23,34,18,5,27,14,20,16,3,17,6,4,12,21,13,35,30,19,7,1,28,25,0,22,26,10,15,24,9,2,11,31,32,33,29]","main","93","many-guess-6"
"","","","","","html-keyboard-response","125","236034","0.0-10.0-0.53","6101bdeaeb616cce742ad98e","640759fa512f630a2bdc333d","64077d8dc96f74900084337c","null","","null","","","","","","","","","","","","","","","","","","","fixation","",""
"","","","","","many-guess-6","126","237649","0.0-10.0-1.53-0.53","6101bdeaeb616cce742ad98e","640759fa512f630a2bdc333d","64077d8dc96f74900084337c","[116.5]","","","[7,8,28,13,24,32,1,9,14,21,3,12,15,30,22,4,19,25,23,34,6,33,11,17,26,29,18,2,27,10,5,0,31,16,35,20]","[252,152,72,62,202,12,322,82,212,2,242,122,132,182,272,42,331,92,232,102,222,351,302,142,192,162,32,172,312,262,52,22,292,112,282,341]","252","235","","[null]","[null]","[72]","[300,300,120,210,300,30,210,210,300]","0","36","0","152.5109999999986","15.172000095364638","16","[[[""img/mask94.png""],[""img/mask14.png""],[""img/mask84.png""],[""img/mask59.png""],[""img/mask44.png""],[""img/mask63.png""],[""img/mask4.png""],[""img/mask93.png""],[""img/mask41.png""],[""img/mask29.png""],[""img/mask32.png""],[""img/mask13.png""],[""img/mask41.png""],[""img/mask3.png""],[""img/mask23.png""],[""img/mask80.png""],[""img/mask1.png""],[""img/mask52.png""],[""img/mask53.png""],[""img/mask22.png""],[""img/mask14.png""],[""img/mask11.png""],[""img/mask3.png""],[""img/mask62.png""],[""img/mask8.png""],[""img/mask31.png""],[""img/mask97.png""],[""img/mask97.png""],[""img/mask90.png""],[""img/mask60.png""],[""img/mask24.png""],[""img/mask86.png""],[""img/mask68.png""],[""img/mask99.png""],[""img/mask34.png""],[""img/mask39.png""]]]","","[7,8,28,13,24,32,1,9,14,21,3,12,15,30,22,4,19,25,23,34,6,33,11,17,26,29,18,2,27,10,5,0,31,16,35,20]","main","235","many-guess-6"
"","","","","","html-keyboard-response","127","238150","0.0-10.0-0.54","6101bdeaeb616cce742ad98e","640759fa512f630a2bdc333d","64077d8dc96f74900084337c","null","","null","","","","","","","","","","","","","","","","","","","fixation","",""
"","","","","","many-guess-6","128","239823","0.0-10.0-1.54-0.54","6101bdeaeb616cce742ad98e","640759fa512f630a2bdc333d","64077d8dc96f74900084337c","[415.5]","","","[6,16,0,26,5,22,10,13,25,27,31,11,33,34,19,2,17,18,32,4,35,24,29,14,1,8,21,15,3,9,20,30,28,7,23,12]","[254,313,204,214,353,124,194,174,304,184,264,144,54,114,104,64,224,44,164,14,244,24,234,74,84,154,323,333,274,4,343,34,284,134,294,94]","254","344","348.54485432294945","[348.54485432294945]","[4.544854322949448]","[4]","[30,210,30,120,120,30,120,300,30]","0","36","0","152.51199995231582","18.071999904641416","16","[[[""img/mask77.png""],[""img/mask39.png""],[""img/mask49.png""],[""img/mask18.png""],[""img/mask4.png""],[""img/mask89.png""],[""img/mask3.png""],[""img/mask41.png""],[""img/mask98.png""],[""img/mask61.png""],[""img/mask18.png""],[""img/mask59.png""],[""img/mask84.png""],[""img/mask33.png""],[""img/mask6.png""],[""img/mask82.png""],[""img/mask51.png""],[""img/mask85.png""],[""img/mask99.png""],[""img/mask13.png""],[""img/mask72.png""],[""img/mask91.png""],[""img/mask1.png""],[""img/mask75.png""],[""img/mask55.png""],[""img/mask5.png""],[""img/mask5.png""],[""img/mask47.png""],[""img/mask5.png""],[""img/mask27.png""],[""img/mask26.png""],[""img/mask24.png""],[""img/mask42.png""],[""img/mask96.png""],[""img/mask40.png""],[""img/mask53.png""]]]","","[6,16,0,26,5,22,10,13,25,27,31,11,33,34,19,2,17,18,32,4,35,24,29,14,1,8,21,15,3,9,20,30,28,7,23,12]","main","344","many-guess-6"
"","","","","","html-keyboard-response","129","240324","0.0-10.0-0.55","6101bdeaeb616cce742ad98e","640759fa512f630a2bdc333d","64077d8dc96f74900084337c","null","","null","","","","","","","","","","","","","","","","","","","fixation","",""
"","","","","","color-precision2","130","242461","0.0-10.0-1.55-0.55","6101bdeaeb616cce742ad98e","640759fa512f630a2bdc333d","64077d8dc96f74900084337c","[25.299999952316284]","","","[11]","[252]","252","156","","[null]","[null]","[231]","0","0","1","0","152.50700004768441","998.7800000476709","1000","[[[""img/mask24.png""]]]","","","main","156","color-precision2"
"","","","","","html-keyboard-response","131","242961","0.0-10.0-0.56","6101bdeaeb616cce742ad98e","640759fa512f630a2bdc333d","64077d8dc96f74900084337c","null","","null","","","","","","","","","","","","","","","","","","","fixation","",""
"","","","","","color-precision2","132","245254","0.0-10.0-1.56-0.56","6101bdeaeb616cce742ad98e","640759fa512f630a2bdc333d","64077d8dc96f74900084337c","[144.19999980926514]","","","[34]","[15]","15","315","294.63206800910655","[294.63206800910655]","[339.63206800910655]","[340]","0","0","1","0","152.59100009535905","997.0699999046337","1000","[[[""img/mask9.png""]]]","","","main","315","color-precision2"
"","","","","","html-keyboard-response","133","245755","0.0-10.0-0.57","6101bdeaeb616cce742ad98e","640759fa512f630a2bdc333d","64077d8dc96f74900084337c","null","","null","","","","","","","","","","","","","","","","","","","fixation","",""
"","","","","","many-guess-6","134","247706","0.0-10.0-1.57-0.57","6101bdeaeb616cce742ad98e","640759fa512f630a2bdc333d","64077d8dc96f74900084337c","[686.2999999523163]","","","[15,9,10,1,22,29,31,19,11,12,16,28,30,5,23,6,32,3,21,26,14,33,18,7,27,8,4,35,20,0,2,24,13,17,25,34]","[352,322,3,53,342,203,23,193,93,163,73,232,63,282,183,103,213,312,262,133,252,302,143,272,113,43,153,123,33,292,83,332,242,13,222,173]","352","305","351.7445576471281","[351.7445576471281]","[46.74455764712809]","[46]","[300,120,120,120,120,30,30,30,30]","0","36","0","152.5070000953565","18.166999952314654","16","[[[""img/mask22.png""],[""img/mask7.png""],[""img/mask57.png""],[""img/mask21.png""],[""img/mask54.png""],[""img/mask13.png""],[""img/mask46.png""],[""img/mask95.png""],[""img/mask42.png""],[""img/mask82.png""],[""img/mask39.png""],[""img/mask27.png""],[""img/mask45.png""],[""img/mask47.png""],[""img/mask6.png""],[""img/mask41.png""],[""img/mask23.png""],[""img/mask17.png""],[""img/mask95.png""],[""img/mask73.png""],[""img/mask74.png""],[""img/mask83.png""],[""img/mask97.png""],[""img/mask41.png""],[""img/mask10.png""],[""img/mask62.png""],[""img/mask2.png""],[""img/mask33.png""],[""img/mask51.png""],[""img/mask89.png""],[""img/mask8.png""],[""img/mask71.png""],[""img/mask89.png""],[""img/mask75.png""],[""img/mask59.png""],[""img/mask71.png""]]]","","[15,9,10,1,22,29,31,19,11,12,16,28,30,5,23,6,32,3,21,26,14,33,18,7,27,8,4,35,20,0,2,24,13,17,25,34]","main","305","many-guess-6"
"","","","","","html-keyboard-response","135","248215","0.0-10.0-0.58","6101bdeaeb616cce742ad98e","640759fa512f630a2bdc333d","64077d8dc96f74900084337c","null","","null","","","","","","","","","","","","","","","","","","","fixation","",""
"","","","","","many-guess-6","136","249531","0.0-10.0-1.58-0.58","6101bdeaeb616cce742ad98e","640759fa512f630a2bdc333d","64077d8dc96f74900084337c","[136]","","","[10,2,1,29,30,26,23,31,17,33,15,14,8,28,24,19,13,6,21,12,25,32,11,20,18,34,0,7,5,4,16,22,9,35,3,27]","[128,28,198,118,108,88,8,277,68,257,18,237,38,217,178,287,78,227,48,207,307,168,357,317,58,337,138,247,267,98,297,148,327,347,188,158]","128","345","","[null]","[null]","[178]","[300,210,300,300,30,120,120,300,300]","0","36","0","152.4499999046384","13.611999999993714","16","[[[""img/mask95.png""],[""img/mask34.png""],[""img/mask72.png""],[""img/mask78.png""],[""img/mask32.png""],[""img/mask13.png""],[""img/mask3.png""],[""img/mask25.png""],[""img/mask48.png""],[""img/mask26.png""],[""img/mask27.png""],[""img/mask13.png""],[""img/mask89.png""],[""img/mask70.png""],[""img/mask55.png""],[""img/mask74.png""],[""img/mask52.png""],[""img/mask64.png""],[""img/mask80.png""],[""img/mask85.png""],[""img/mask83.png""],[""img/mask28.png""],[""img/mask2.png""],[""img/mask81.png""],[""img/mask87.png""],[""img/mask24.png""],[""img/mask58.png""],[""img/mask65.png""],[""img/mask29.png""],[""img/mask76.png""],[""img/mask18.png""],[""img/mask96.png""],[""img/mask22.png""],[""img/mask7.png""],[""img/mask63.png""],[""img/mask90.png""]]]","","[10,2,1,29,30,26,23,31,17,33,15,14,8,28,24,19,13,6,21,12,25,32,11,20,18,34,0,7,5,4,16,22,9,35,3,27]","main","345","many-guess-6"
"","","","","","html-keyboard-response","137","251110","0.0-10.0-0.59","6101bdeaeb616cce742ad98e","640759fa512f630a2bdc333d","64077d8dc96f74900084337c","1578.7999999523163","Wow! You've completed 60 out of 180 trials! </p> <p>  </p><p> Take a quick break, then press any key when you're ready to continue.","g","","","","","","","","","","","","","","","","","","","fixation","",""
"","","","","","many-guess-6","138","253192","0.0-10.0-1.59-0.59","6101bdeaeb616cce742ad98e","640759fa512f630a2bdc333d","64077d8dc96f74900084337c","[421.7000000476837]","","","[15,34,33,25,6,10,4,28,22,16,0,23,20,17,31,26,29,21,35,19,7,9,14,27,12,13,2,3,18,11,5,1,24,30,8,32]","[153,163,23,333,193,203,63,293,113,33,313,143,323,53,303,263,243,343,13,103,3,173,73,213,133,353,93,183,253,283,123,83,223,273,233,43]","153","163","207.88836517347875","[207.88836517347875]","[44.888365173478746]","[45]","[120,210,300,120,30,30,300,210,210]","0","36","0","152.20000000001164","15.56699990463676","16","[[[""img/mask53.png""],[""img/mask7.png""],[""img/mask89.png""],[""img/mask46.png""],[""img/mask3.png""],[""img/mask72.png""],[""img/mask61.png""],[""img/mask84.png""],[""img/mask87.png""],[""img/mask63.png""],[""img/mask80.png""],[""img/mask94.png""],[""img/mask60.png""],[""img/mask29.png""],[""img/mask70.png""],[""img/mask88.png""],[""img/mask38.png""],[""img/mask87.png""],[""img/mask31.png""],[""img/mask9.png""],[""img/mask60.png""],[""img/mask93.png""],[""img/mask43.png""],[""img/mask56.png""],[""img/mask78.png""],[""img/mask23.png""],[""img/mask65.png""],[""img/mask46.png""],[""img/mask64.png""],[""img/mask69.png""],[""img/mask76.png""],[""img/mask19.png""],[""img/mask40.png""],[""img/mask85.png""],[""img/mask51.png""],[""img/mask81.png""]]]","","[15,34,33,25,6,10,4,28,22,16,0,23,20,17,31,26,29,21,35,19,7,9,14,27,12,13,2,3,18,11,5,1,24,30,8,32]","main","163","many-guess-6"
"","","","","","html-keyboard-response","139","253694","0.0-10.0-0.60","6101bdeaeb616cce742ad98e","640759fa512f630a2bdc333d","64077d8dc96f74900084337c","null","","null","","","","","","","","","","","","","","","","","","","fixation","",""
"","","","","","color-precision2","140","256044","0.0-10.0-1.60-0.60","6101bdeaeb616cce742ad98e","640759fa512f630a2bdc333d","64077d8dc96f74900084337c","[16.40000009536743]","","","[13]","[354]","354","186","","[null]","[null]","[345]","0","0","1","0","152.5729999046307","1001.829999904643","1000","[[[""img/mask78.png""]]]","","","main","186","color-precision2"
"","","","","","html-keyboard-response","141","256545","0.0-10.0-0.61","6101bdeaeb616cce742ad98e","640759fa512f630a2bdc333d","64077d8dc96f74900084337c","null","","null","","","","","","","","","","","","","","","","","","","fixation","",""
"","","","","","many-guess-6","142","258498","0.0-10.0-1.61-0.61","6101bdeaeb616cce742ad98e","640759fa512f630a2bdc333d","64077d8dc96f74900084337c","[893.7999999523163]","","","[30,35,3,8,6,23,25,24,14,31,1,11,16,22,12,19,2,21,34,26,29,10,7,5,32,20,9,0,27,4,15,18,33,28,17,13]","[319,90,349,70,149,110,209,219,80,60,40,169,359,299,189,179,100,50,120,199,249,309,159,139,259,279,269,239,130,329,10,289,339,20,30,229]","319","178","209.3192483204207","[209.3192483204207]","[31.319248320420712]","[32]","[210,300,120,30,210,30,120,210,30]","0","36","0","152.52499999999418","18.787000000011176","16","[[[""img/mask24.png""],[""img/mask96.png""],[""img/mask44.png""],[""img/mask76.png""],[""img/mask11.png""],[""img/mask2.png""],[""img/mask92.png""],[""img/mask74.png""],[""img/mask3.png""],[""img/mask10.png""],[""img/mask20.png""],[""img/mask64.png""],[""img/mask53.png""],[""img/mask85.png""],[""img/mask82.png""],[""img/mask53.png""],[""img/mask27.png""],[""img/mask25.png""],[""img/mask15.png""],[""img/mask48.png""],[""img/mask21.png""],[""img/mask41.png""],[""img/mask4.png""],[""img/mask47.png""],[""img/mask33.png""],[""img/mask34.png""],[""img/mask32.png""],[""img/mask18.png""],[""img/mask34.png""],[""img/mask24.png""],[""img/mask88.png""],[""img/mask15.png""],[""img/mask76.png""],[""img/mask41.png""],[""img/mask7.png""],[""img/mask85.png""]]]","","[30,35,3,8,6,23,25,24,14,31,1,11,16,22,12,19,2,21,34,26,29,10,7,5,32,20,9,0,27,4,15,18,33,28,17,13]","main","178","many-guess-6"
"","","","","","html-keyboard-response","143","258999","0.0-10.0-0.62","6101bdeaeb616cce742ad98e","640759fa512f630a2bdc333d","64077d8dc96f74900084337c","null","","null","","","","","","","","","","","","","","","","","","","fixation","",""
"","","","","","many-guess-6","144","260876","0.0-10.0-1.62-0.62","6101bdeaeb616cce742ad98e","640759fa512f630a2bdc333d","64077d8dc96f74900084337c","[618.8000001907349]","","","[1,8,18,30,23,26,0,4,29,7,19,16,12,2,31,13,5,14,22,20,10,17,9,33,15,32,25,3,34,11,35,27,28,21,24,6]","[304,65,284,85,354,75,15,254,105,184,294,204,35,324,55,214,25,234,155,135,125,115,334,314,165,95,344,174,194,5,224,145,244,274,264,45]","304","39","210.8349471326218","[210.8349471326218]","[171.8349471326218]","[171]","[210,210,300,120,300,30,210,300,30]","0","36","0","152.57400000002235","18.63799995230511","16","[[[""img/mask35.png""],[""img/mask7.png""],[""img/mask10.png""],[""img/mask63.png""],[""img/mask58.png""],[""img/mask38.png""],[""img/mask60.png""],[""img/mask68.png""],[""img/mask1.png""],[""img/mask2.png""],[""img/mask52.png""],[""img/mask33.png""],[""img/mask26.png""],[""img/mask46.png""],[""img/mask59.png""],[""img/mask64.png""],[""img/mask7.png""],[""img/mask17.png""],[""img/mask75.png""],[""img/mask41.png""],[""img/mask33.png""],[""img/mask46.png""],[""img/mask36.png""],[""img/mask49.png""],[""img/mask33.png""],[""img/mask76.png""],[""img/mask2.png""],[""img/mask86.png""],[""img/mask80.png""],[""img/mask32.png""],[""img/mask75.png""],[""img/mask11.png""],[""img/mask32.png""],[""img/mask13.png""],[""img/mask95.png""],[""img/mask5.png""]]]","","[1,8,18,30,23,26,0,4,29,7,19,16,12,2,31,13,5,14,22,20,10,17,9,33,15,32,25,3,34,11,35,27,28,21,24,6]","main","39","many-guess-6"
"","","","","","html-keyboard-response","145","261379","0.0-10.0-0.63","6101bdeaeb616cce742ad98e","640759fa512f630a2bdc333d","64077d8dc96f74900084337c","null","","null","","","","","","","","","","","","","","","","","","","fixation","",""
"","","","","","many-guess-6","146","269808","0.0-10.0-1.63-0.63","6101bdeaeb616cce742ad98e","640759fa512f630a2bdc333d","64077d8dc96f74900084337c","[6426.199999809265]","","","[28,29,35,14,3,23,0,31,4,9,22,30,25,11,34,33,1,27,2,15,18,13,21,17,12,6,7,8,26,10,5,19,16,20,32,24]","[16,125,215,175,195,335,95,255,46,165,26,105,275,225,185,355,155,75,56,295,6,315,135,205,66,245,115,305,285,345,145,85,36,235,325,265]","16","121","19.680204030575585","[19.680204030575585]","[258.68020403057557]","[258]","[300,300,210,300,30,30,210,120,30]","0","36","0","152.49999990465585","18.183000000019092","16","[[[""img/mask70.png""],[""img/mask38.png""],[""img/mask27.png""],[""img/mask16.png""],[""img/mask3.png""],[""img/mask98.png""],[""img/mask7.png""],[""img/mask58.png""],[""img/mask6.png""],[""img/mask9.png""],[""img/mask58.png""],[""img/mask38.png""],[""img/mask70.png""],[""img/mask31.png""],[""img/mask23.png""],[""img/mask24.png""],[""img/mask20.png""],[""img/mask63.png""],[""img/mask39.png""],[""img/mask2.png""],[""img/mask3.png""],[""img/mask55.png""],[""img/mask86.png""],[""img/mask98.png""],[""img/mask3.png""],[""img/mask41.png""],[""img/mask54.png""],[""img/mask91.png""],[""img/mask30.png""],[""img/mask10.png""],[""img/mask87.png""],[""img/mask79.png""],[""img/mask2.png""],[""img/mask54.png""],[""img/mask73.png""],[""img/mask100.png""]]]","","[28,29,35,14,3,23,0,31,4,9,22,30,25,11,34,33,1,27,2,15,18,13,21,17,12,6,7,8,26,10,5,19,16,20,32,24]","main","121","many-guess-6"
"","","","","","html-keyboard-response","147","270310","0.0-10.0-0.64","6101bdeaeb616cce742ad98e","640759fa512f630a2bdc333d","64077d8dc96f74900084337c","null","","null","","","","","","","","","","","","","","","","","","","fixation","",""
"","","","","","color-precision2","148","272655","0.0-10.0-1.64-0.64","6101bdeaeb616cce742ad98e","640759fa512f630a2bdc333d","64077d8dc96f74900084337c","[307.10000014305115]","","","[16]","[91]","91","75","163.9849962379661","[163.9849962379661]","[88.9849962379661]","[88]","0","0","1","0","152.39799995231442","1001.9599999046186","1000","[[[""img/mask21.png""]]]","","","main","75","color-precision2"
"","","","","","html-keyboard-response","149","273156","0.0-10.0-0.65","6101bdeaeb616cce742ad98e","640759fa512f630a2bdc333d","64077d8dc96f74900084337c","null","","null","","","","","","","","","","","","","","","","","","","fixation","",""
"","","","","","color-precision2","150","275476","0.0-10.0-1.65-0.65","6101bdeaeb616cce742ad98e","640759fa512f630a2bdc333d","64077d8dc96f74900084337c","[64.90000009536743]","","","[3]","[66]","66","39","","[null]","[null]","[66]","0","0","1","0","152.10400004766416","1004.9669999523321","1000","[[[""img/mask90.png""]]]","","","main","39","color-precision2"
"","","","","","html-keyboard-response","151","275977","0.0-10.0-0.66","6101bdeaeb616cce742ad98e","640759fa512f630a2bdc333d","64077d8dc96f74900084337c","null","","null","","","","","","","","","","","","","","","","","","","fixation","",""
"","","","","","many-guess-6","152","277732","0.0-10.0-1.66-0.66","6101bdeaeb616cce742ad98e","640759fa512f630a2bdc333d","64077d8dc96f74900084337c","[633.2000000476837]","","","[1,5,16,20,12,15,23,6,31,25,4,11,26,14,18,34,8,30,10,17,28,2,33,0,35,32,13,29,9,24,21,22,27,7,3,19]","[201,62,191,22,161,251,241,52,211,321,351,132,92,152,12,291,171,331,261,32,271,142,122,82,301,311,221,42,2,112,341,72,281,181,231,102]","201","176","82.40637268388073","[82.40637268388073]","[266.4063726838807]","[264]","[300,30,120,30,120,300,300,120,210]","0","36","0","152.58399999997346","14.044000047666486","16","[[[""img/mask16.png""],[""img/mask52.png""],[""img/mask24.png""],[""img/mask94.png""],[""img/mask89.png""],[""img/mask78.png""],[""img/mask49.png""],[""img/mask6.png""],[""img/mask97.png""],[""img/mask32.png""],[""img/mask83.png""],[""img/mask89.png""],[""img/mask59.png""],[""img/mask99.png""],[""img/mask85.png""],[""img/mask16.png""],[""img/mask15.png""],[""img/mask28.png""],[""img/mask78.png""],[""img/mask18.png""],[""img/mask51.png""],[""img/mask23.png""],[""img/mask52.png""],[""img/mask94.png""],[""img/mask66.png""],[""img/mask83.png""],[""img/mask44.png""],[""img/mask72.png""],[""img/mask71.png""],[""img/mask57.png""],[""img/mask3.png""],[""img/mask30.png""],[""img/mask4.png""],[""img/mask27.png""],[""img/mask56.png""],[""img/mask94.png""]]]","","[1,5,16,20,12,15,23,6,31,25,4,11,26,14,18,34,8,30,10,17,28,2,33,0,35,32,13,29,9,24,21,22,27,7,3,19]","main","176","many-guess-6"
"","","","","","html-keyboard-response","153","278237","0.0-10.0-0.67","6101bdeaeb616cce742ad98e","640759fa512f630a2bdc333d","64077d8dc96f74900084337c","null","","null","","","","","","","","","","","","","","","","","","","fixation","",""
"","","","","","many-guess-6","154","280570","0.0-10.0-1.67-0.67","6101bdeaeb616cce742ad98e","640759fa512f630a2bdc333d","64077d8dc96f74900084337c","[1026.6999998092651]","","","[30,33,8,18,0,19,26,16,2,32,7,3,27,25,23,35,22,21,11,29,6,24,12,15,20,14,10,17,4,28,1,5,31,34,13,9]","[259,20,359,339,149,99,79,209,89,289,10,249,179,29,129,159,119,139,299,329,279,59,49,229,109,239,189,269,319,309,169,39,349,69,199,219]","259","224","133.05283140104905","[133.05283140104905]","[269.05283140104905]","[267]","[30,120,210,30,30,300,210,210,30]","0","36","0","152.56799995229812","16.041000000026543","16","[[[""img/mask22.png""],[""img/mask27.png""],[""img/mask77.png""],[""img/mask91.png""],[""img/mask25.png""],[""img/mask17.png""],[""img/mask98.png""],[""img/mask57.png""],[""img/mask95.png""],[""img/mask7.png""],[""img/mask62.png""],[""img/mask57.png""],[""img/mask54.png""],[""img/mask5.png""],[""img/mask82.png""],[""img/mask94.png""],[""img/mask25.png""],[""img/mask23.png""],[""img/mask92.png""],[""img/mask36.png""],[""img/mask66.png""],[""img/mask45.png""],[""img/mask78.png""],[""img/mask15.png""],[""img/mask12.png""],[""img/mask7.png""],[""img/mask4.png""],[""img/mask78.png""],[""img/mask26.png""],[""img/mask33.png""],[""img/mask72.png""],[""img/mask87.png""],[""img/mask100.png""],[""img/mask16.png""],[""img/mask46.png""],[""img/mask11.png""]]]","","[30,33,8,18,0,19,26,16,2,32,7,3,27,25,23,35,22,21,11,29,6,24,12,15,20,14,10,17,4,28,1,5,31,34,13,9]","main","224","many-guess-6"
"","","","","","html-keyboard-response","155","281071","0.0-10.0-0.68","6101bdeaeb616cce742ad98e","640759fa512f630a2bdc333d","64077d8dc96f74900084337c","null","","null","","","","","","","","","","","","","","","","","","","fixation","",""
"","","","","","many-guess-6","156","283202","0.0-10.0-1.68-0.68","6101bdeaeb616cce742ad98e","640759fa512f630a2bdc333d","64077d8dc96f74900084337c","[783.2999999523163]","","","[6,24,14,17,2,16,12,22,21,18,27,13,29,11,32,10,25,20,7,28,3,15,19,26,1,0,35,9,33,34,5,23,8,31,30,4]","[62,202,332,302,52,322,142,82,242,232,272,43,162,182,342,312,102,152,172,292,33,132,262,13,222,352,112,212,282,122,192,23,72,92,3,252]","62","18","113.32691649292349","[113.32691649292349]","[95.32691649292349]","[93]","[120,210,30,300,120,30,300,300,210]","0","36","0","152.58699999999953","17.737000095366966","16","[[[""img/mask89.png""],[""img/mask74.png""],[""img/mask52.png""],[""img/mask26.png""],[""img/mask57.png""],[""img/mask84.png""],[""img/mask51.png""],[""img/mask95.png""],[""img/mask49.png""],[""img/mask80.png""],[""img/mask63.png""],[""img/mask39.png""],[""img/mask59.png""],[""img/mask86.png""],[""img/mask41.png""],[""img/mask3.png""],[""img/mask89.png""],[""img/mask44.png""],[""img/mask88.png""],[""img/mask82.png""],[""img/mask7.png""],[""img/mask57.png""],[""img/mask36.png""],[""img/mask29.png""],[""img/mask64.png""],[""img/mask30.png""],[""img/mask48.png""],[""img/mask12.png""],[""img/mask16.png""],[""img/mask21.png""],[""img/mask45.png""],[""img/mask49.png""],[""img/mask82.png""],[""img/mask80.png""],[""img/mask13.png""],[""img/mask46.png""]]]","","[6,24,14,17,2,16,12,22,21,18,27,13,29,11,32,10,25,20,7,28,3,15,19,26,1,0,35,9,33,34,5,23,8,31,30,4]","main","18","many-guess-6"
"","","","","","html-keyboard-response","157","283704","0.0-10.0-0.69","6101bdeaeb616cce742ad98e","640759fa512f630a2bdc333d","64077d8dc96f74900084337c","null","","null","","","","","","","","","","","","","","","","","","","fixation","",""
"","","","","","many-guess-6","158","285608","0.0-10.0-1.69-0.69","6101bdeaeb616cce742ad98e","640759fa512f630a2bdc333d","64077d8dc96f74900084337c","[689]","","","[22,19,27,23,16,8,2,6,30,31,4,20,28,3,1,5,7,33,32,35,26,12,13,25,14,15,0,21,9,17,10,29,11,18,34,24]","[213,313,13,193,33,273,63,343,93,303,293,173,243,113,203,253,4,233,43,103,133,23,53,323,163,83,333,263,73,143,283,353,123,223,183,153]","213","207","107.63293989353983","[107.63293989353983]","[260.63293989353986]","[259]","[300,30,300,300,210,210,210,120,300]","0","36","0","152.6269999523065","14.990000095393043","16","[[[""img/mask27.png""],[""img/mask75.png""],[""img/mask93.png""],[""img/mask87.png""],[""img/mask53.png""],[""img/mask60.png""],[""img/mask47.png""],[""img/mask3.png""],[""img/mask58.png""],[""img/mask80.png""],[""img/mask60.png""],[""img/mask87.png""],[""img/mask8.png""],[""img/mask44.png""],[""img/mask79.png""],[""img/mask39.png""],[""img/mask77.png""],[""img/mask91.png""],[""img/mask69.png""],[""img/mask17.png""],[""img/mask4.png""],[""img/mask20.png""],[""img/mask99.png""],[""img/mask39.png""],[""img/mask15.png""],[""img/mask60.png""],[""img/mask5.png""],[""img/mask9.png""],[""img/mask51.png""],[""img/mask6.png""],[""img/mask53.png""],[""img/mask61.png""],[""img/mask6.png""],[""img/mask65.png""],[""img/mask96.png""],[""img/mask26.png""]]]","","[22,19,27,23,16,8,2,6,30,31,4,20,28,3,1,5,7,33,32,35,26,12,13,25,14,15,0,21,9,17,10,29,11,18,34,24]","main","207","many-guess-6"
"","","","","","html-keyboard-response","159","286110","0.0-10.0-0.70","6101bdeaeb616cce742ad98e","640759fa512f630a2bdc333d","64077d8dc96f74900084337c","null","","null","","","","","","","","","","","","","","","","","","","fixation","",""
"","","","","","color-precision2","160","289338","0.0-10.0-1.70-0.70","6101bdeaeb616cce742ad98e","640759fa512f630a2bdc333d","64077d8dc96f74900084337c","[71.5]","","","[11]","[10]","10","63","","[null]","[null]","[26]","0","0","1","0","152.49499999999534","1002.652000095346","1000","[[[""img/mask15.png""]]]","","","main","63","color-precision2"
"","","","","","html-keyboard-response","161","289839","0.0-10.0-0.71","6101bdeaeb616cce742ad98e","640759fa512f630a2bdc333d","64077d8dc96f74900084337c","null","","null","","","","","","","","","","","","","","","","","","","fixation","",""
"","","","","","color-precision2","162","292258","0.0-10.0-1.71-0.71","6101bdeaeb616cce742ad98e","640759fa512f630a2bdc333d","64077d8dc96f74900084337c","[130]","","","[5]","[334]","334","106","","[null]","[null]","[327]","0","0","1","0","152.5049999046605","997.984999952314","1000","[[[""img/mask85.png""]]]","","","main","106","color-precision2"
"","","","","","html-keyboard-response","163","292759","0.0-10.0-0.72","6101bdeaeb616cce742ad98e","640759fa512f630a2bdc333d","64077d8dc96f74900084337c","null","","null","","","","","","","","","","","","","","","","","","","fixation","",""
"","","","","","color-precision2","164","296668","0.0-10.0-1.72-0.72","6101bdeaeb616cce742ad98e","640759fa512f630a2bdc333d","64077d8dc96f74900084337c","[483.60000014305115]","","","[11]","[20]","20","271","287.020829336577","[287.020829336577]","[16.02082933657698]","[16]","0","0","1","0","152.46899990463862","1003.2279999046586","1000","[[[""img/mask54.png""]]]","","","main","271","color-precision2"
"","","","","","html-keyboard-response","165","297169","0.0-10.0-0.73","6101bdeaeb616cce742ad98e","640759fa512f630a2bdc333d","64077d8dc96f74900084337c","null","","null","","","","","","","","","","","","","","","","","","","fixation","",""
"","","","","","many-guess-6","166","299460","0.0-10.0-1.73-0.73","6101bdeaeb616cce742ad98e","640759fa512f630a2bdc333d","64077d8dc96f74900084337c","[859]","","","[34,6,30,8,11,13,29,12,27,17,14,23,3,9,31,2,33,19,26,10,21,7,5,20,35,15,22,18,32,24,0,1,16,25,28,4]","[119,348,229,79,59,179,318,89,219,169,49,109,288,328,189,99,239,9,149,209,298,129,159,39,139,358,338,308,199,29,258,69,249,268,278,19]","119","48","109.89258684115484","[109.89258684115484]","[61.89258684115484]","[61]","[210,300,30,120,30,300,120,30,210]","0","36","0","152.58999995229533","13.751000047661364","16","[[[""img/mask72.png""],[""img/mask46.png""],[""img/mask67.png""],[""img/mask57.png""],[""img/mask11.png""],[""img/mask26.png""],[""img/mask71.png""],[""img/mask8.png""],[""img/mask83.png""],[""img/mask70.png""],[""img/mask63.png""],[""img/mask28.png""],[""img/mask56.png""],[""img/mask76.png""],[""img/mask24.png""],[""img/mask79.png""],[""img/mask93.png""],[""img/mask45.png""],[""img/mask20.png""],[""img/mask61.png""],[""img/mask1.png""],[""img/mask43.png""],[""img/mask37.png""],[""img/mask28.png""],[""img/mask92.png""],[""img/mask28.png""],[""img/mask50.png""],[""img/mask3.png""],[""img/mask60.png""],[""img/mask2.png""],[""img/mask52.png""],[""img/mask96.png""],[""img/mask23.png""],[""img/mask8.png""],[""img/mask34.png""],[""img/mask82.png""]]]","","[34,6,30,8,11,13,29,12,27,17,14,23,3,9,31,2,33,19,26,10,21,7,5,20,35,15,22,18,32,24,0,1,16,25,28,4]","main","48","many-guess-6"
"","","","","","html-keyboard-response","167","299961","0.0-10.0-0.74","6101bdeaeb616cce742ad98e","640759fa512f630a2bdc333d","64077d8dc96f74900084337c","null","","null","","","","","","","","","","","","","","","","","","","fixation","",""
"","","","","","color-precision2","168","303182","0.0-10.0-1.74-0.74","6101bdeaeb616cce742ad98e","640759fa512f630a2bdc333d","64077d8dc96f74900084337c","[73.5]","","","[23]","[220]","220","22","","[null]","[null]","[214]","0","0","1","0","152.49899995233864","999.7599999523372","1000","[[[""img/mask64.png""]]]","","","main","22","color-precision2"
"","","","","","html-keyboard-response","169","303684","0.0-10.0-0.75","6101bdeaeb616cce742ad98e","640759fa512f630a2bdc333d","64077d8dc96f74900084337c","null","","null","","","","","","","","","","","","","","","","","","","fixation","",""
"","","","","","color-precision2","170","306583","0.0-10.0-1.75-0.75","6101bdeaeb616cce742ad98e","640759fa512f630a2bdc333d","64077d8dc96f74900084337c","[369.2999999523163]","","","[8]","[179]","179","270","86.26096445006552","[86.26096445006552]","[176.2609644500655]","[174]","0","0","1","0","152.1809999999823","1005.0379999046563","1000","[[[""img/mask39.png""]]]","","","main","270","color-precision2"
"","","","","","html-keyboard-response","171","307084","0.0-10.0-0.76","6101bdeaeb616cce742ad98e","640759fa512f630a2bdc333d","64077d8dc96f74900084337c","null","","null","","","","","","","","","","","","","","","","","","","fixation","",""
