"success","timeout","failed_images","failed_audio","failed_video","trial_type","trial_index","time_elapsed","internal_node_id","subject_id","study_id","session_id","rt","stimulus","response","position_of_items","colors_of_items","color_of_target","wheel_spin","response_angle","physical_response_angle","reported_color_angle","reported_color_discrete","locs","which_test","set_size","wheel_num_options","actual_mask_duration","actual_stim_duration","CMDispTime","maskArray","maskRotation","item_positions","task","randomSpinAmount","mainTask"
"true","false","[]","[]","[]","preload","0","5390","0.0-0.0","628778b9bd0dbcd8fa2eeb3a","640759fa512f630a2bdc333d","6408c178eaf41ce91ec0ece0","","","","","","","","","","","","","","","","","","","","","","","",""
"true","","","","","fullscreen","1","9514","0.0-1.0","628778b9bd0dbcd8fa2eeb3a","640759fa512f630a2bdc333d","6408c178eaf41ce91ec0ece0","","","","","","","","","","","","","","","","","","","","","","","",""
"","","","","","html-keyboard-response","2","15529","0.0-2.0","628778b9bd0dbcd8fa2eeb3a","640759fa512f630a2bdc333d","6408c178eaf41ce91ec0ece0","6014.799999952316","What a beautiful Wednesday to do some awesome science! </p> <p>  </p><p> </p>
    By completing this survey or questionnaire, you are consenting to be in this research study. </p>
    Your participation is voluntary and you can stop at any time.<p> [Press any key to continue] </p>"," ","","","","","","","","","","","","","","","","","","","","",""
"","","","","","html-keyboard-response","3","25531","0.0-3.0","628778b9bd0dbcd8fa2eeb3a","640759fa512f630a2bdc333d","6408c178eaf41ce91ec0ece0","null","
    <div style='width: 1000px;'>
    <div style='float: center;'><img src='img/TaskInstructions1.png'></img>
    </div>
    ","null","","","","","","","","","","","","","","","","","","","","",""
"","","","","","html-keyboard-response","4","29266","0.0-4.0","628778b9bd0dbcd8fa2eeb3a","640759fa512f630a2bdc333d","6408c178eaf41ce91ec0ece0","3734.7000000476837","
    <div style='width: 1000px;'>
    <div style='float: center;'><img src='img/TaskInstructions1.png'></img>
    </div>
    "," ","","","","","","","","","","","","","","","","","","","","",""
"","","","","","html-keyboard-response","5","39281","0.0-5.0","628778b9bd0dbcd8fa2eeb3a","640759fa512f630a2bdc333d","6408c178eaf41ce91ec0ece0","null","
    <div style='width: 1000px;'>
    <div style='float: center;'><img src='img/TaskInstructions2.png'></img>
    </div>
    ","null","","","","","","","","","","","","","","","","","","","","",""
"","","","","","html-keyboard-response","6","75725","0.0-6.0","628778b9bd0dbcd8fa2eeb3a","640759fa512f630a2bdc333d","6408c178eaf41ce91ec0ece0","36443.60000014305","
    <div style='width: 1000px;'>
    <div style='float: center;'><img src='img/TaskInstructions2.png'></img>
    </div>
    "," ","","","","","","","","","","","","","","","","","","","","",""
"","","","","","video-keyboard-response","7","95565","0.0-7.0","628778b9bd0dbcd8fa2eeb3a","640759fa512f630a2bdc333d","6408c178eaf41ce91ec0ece0","19836.400000095367","[""video/TaskInstructions3.mp4""]"," ","","","","","","","","","","","","","","","","","","","","",""
"","","","","","image-keyboard-response","8","102513","0.0-8.0-0.0","628778b9bd0dbcd8fa2eeb3a","640759fa512f630a2bdc333d","6408c178eaf41ce91ec0ece0","6947.299999952316","img/training1.png"," ","","","","","","","","","","","","","","","","","","","","",""
"","","","","","color-precision2","9","110801","0.0-8.0-1.0-0.0","628778b9bd0dbcd8fa2eeb3a","640759fa512f630a2bdc333d","6408c178eaf41ce91ec0ece0","[1212.7000000476837]","","","[30]","[319]","319","271","232.46718884888224","[232.46718884888224]","[321.46718884888224]","[322]","0","0","1","0","498.11399990462814","1007.737000095367","1000","","","0","training","",""
"","","","","","image-keyboard-response","10","125781","0.0-8.0-0.1","628778b9bd0dbcd8fa2eeb3a","640759fa512f630a2bdc333d","6408c178eaf41ce91ec0ece0","14979.099999904633","img/training2.png"," ","","","","","","","","","","","","","","","","","","","","",""
"","","","","","many-guess-6","11","138626","0.0-8.0-1.1-0.1","628778b9bd0dbcd8fa2eeb3a","640759fa512f630a2bdc333d","6408c178eaf41ce91ec0ece0","[6737.200000047684]","","","[12,34,11]","[66,311,301]","66","116","138.68206758207134","[138.68206758207134]","[22.68206758207134]","[21]","[210,120,120,30,300,300,30,30,210,120,120,210,300,30,120,300,210,120,210,210,30,120,210,120,210,30,210,30,210,210,30,120,300,210,120,210]","0","3","0","998.6049999523093","1001.204999904643","1000","[[[""img/mask45.png""],[""img/mask45.png""],[""img/mask69.png""]]]","","[12,34,11]","training","",""
"","","","","","image-keyboard-response","12","148694","0.0-8.0-0.2","628778b9bd0dbcd8fa2eeb3a","640759fa512f630a2bdc333d","6408c178eaf41ce91ec0ece0","10067.400000095367","img/training3.png"," ","","","","","","","","","","","","","","","","","","","","",""
"","","","","","[""many-guess-6""]","13","160724","0.0-8.0-1.2-0.2","628778b9bd0dbcd8fa2eeb3a","640759fa512f630a2bdc333d","6408c178eaf41ce91ec0ece0","[5785.200000047684]","","","[34,20,5,27,35]","[316,153,88,112,27]","316","75","297.88695784405076","[297.88695784405076]","[222.88695784405076]","[223]","[210,30,30,30,30,120,120,120,300,30,300,300,30,210,30,210,120,30,210,30,210,120,210,120,210,30,300,30,210,120,30,120,300,120,300,210]","0","5","0","498.0200000953628","494.36600009535323","500","[[[""img/mask32.png""],[""img/mask44.png""],[""img/mask79.png""],[""img/mask53.png""],[""img/mask52.png""]]]","","[34,20,5,27,35]","training","",""
"","","","","","image-keyboard-response","14","170360","0.0-8.0-0.3","628778b9bd0dbcd8fa2eeb3a","640759fa512f630a2bdc333d","6408c178eaf41ce91ec0ece0","9635.100000143051","img/training4.png"," ","","","","","","","","","","","","","","","","","","","","",""
"","","","","","[""many-guess-6""]","15","183947","0.0-8.0-1.3-0.3","628778b9bd0dbcd8fa2eeb3a","640759fa512f630a2bdc333d","6408c178eaf41ce91ec0ece0","[2790]","","","[1,9,29,11,7,30,6,3,4,28]","[122,145,23,304,336,350,84,95,270,56]","122","34","115.69479243051583","[115.69479243051583]","[81.69479243051583]","[80]","[210,120,300,30,210,300,300,120,120,30,120,120,300,300,300,210,120,30,300,120,210,120,300,210,210,30,120,300,30,120,210,30,30,30,300,120]","0","10","0","132.06700009535416","140.2339999046235","132","[[[""img/mask69.png""],[""img/mask10.png""],[""img/mask32.png""],[""img/mask8.png""],[""img/mask48.png""],[""img/mask61.png""],[""img/mask88.png""],[""img/mask42.png""],[""img/mask49.png""],[""img/mask36.png""]]]","","[1,9,29,11,7,30,6,3,4,28]","training","",""
"","","","","","image-keyboard-response","16","190470","0.0-8.0-0.4","628778b9bd0dbcd8fa2eeb3a","640759fa512f630a2bdc333d","6408c178eaf41ce91ec0ece0","6522.100000143051","img/training5.png"," ","","","","","","","","","","","","","","","","","","","","",""
"","","","","","[""many-guess-6""]","17","196419","0.0-8.0-1.4-0.4","628778b9bd0dbcd8fa2eeb3a","640759fa512f630a2bdc333d","6408c178eaf41ce91ec0ece0","[2945.4000000953674]","","","[28,29,19,13,0,35,14,34,11,25,5,7,12,3,10,8,1,17,22,6,4,27,9,2,16,26,31,33,24,30,21,15,18,23,32,20]","[272,192,302,332,322,112,92,13,3,212,152,222,122,82,72,242,292,42,132,23,262,252,142,52,172,342,232,162,312,182,352,102,32,282,62,202]","272","320","270.4015378367751","[270.4015378367751]","[310.4015378367751]","[311]","[30,120,30,120,210,300,120,300,300,120,30,300,30,210,210,30,30,30,30,300,300,30,300,300,300,30,120,120,120,30,210,210,30,210,300,30]","0","36","0","131.90800009536906","23.997000000003027","16","[[[""img/mask10.png""],[""img/mask53.png""],[""img/mask35.png""],[""img/mask15.png""],[""img/mask28.png""],[""img/mask76.png""],[""img/mask88.png""],[""img/mask13.png""],[""img/mask60.png""],[""img/mask48.png""],[""img/mask15.png""],[""img/mask25.png""],[""img/mask94.png""],[""img/mask31.png""],[""img/mask98.png""],[""img/mask72.png""],[""img/mask33.png""],[""img/mask57.png""],[""img/mask45.png""],[""img/mask26.png""],[""img/mask62.png""],[""img/mask60.png""],[""img/mask5.png""],[""img/mask85.png""],[""img/mask40.png""],[""img/mask78.png""],[""img/mask78.png""],[""img/mask10.png""],[""img/mask39.png""],[""img/mask22.png""],[""img/mask47.png""],[""img/mask53.png""],[""img/mask23.png""],[""img/mask1.png""],[""img/mask99.png""],[""img/mask62.png""]]]","","[28,29,19,13,0,35,14,34,11,25,5,7,12,3,10,8,1,17,22,6,4,27,9,2,16,26,31,33,24,30,21,15,18,23,32,20]","training","",""
"","","","","","image-keyboard-response","18","202231","0.0-9.0","628778b9bd0dbcd8fa2eeb3a","640759fa512f630a2bdc333d","6408c178eaf41ce91ec0ece0","5809.5","[""img/endTraining.png""]"," ","","","","","","","","","","","","","","","","","","","","",""
"","","","","","html-keyboard-response","19","202744","0.0-10.0-0.0","628778b9bd0dbcd8fa2eeb3a","640759fa512f630a2bdc333d","6408c178eaf41ce91ec0ece0","null","","null","","","","","","","","","","","","","","","","","","","fixation","",""
"","","","","","color-precision2","20","208504","0.0-10.0-1.0-0.0","628778b9bd0dbcd8fa2eeb3a","640759fa512f630a2bdc333d","6408c178eaf41ce91ec0ece0","[1980.6000001430511]","","","[0]","[250]","250","257","150.24766493562967","[150.24766493562967]","[253.24766493562967]","[252]","0","0","1","0","147.87900004768744","1001.4530000000086","1000","[[[""img/mask30.png""]]]","","","main","257","color-precision2"
"","","","","","html-keyboard-response","21","209005","0.0-10.0-0.1","628778b9bd0dbcd8fa2eeb3a","640759fa512f630a2bdc333d","6408c178eaf41ce91ec0ece0","null","","null","","","","","","","","","","","","","","","","","","","fixation","",""
"","","","","","color-precision2","22","213818","0.0-10.0-1.1-0.1","628778b9bd0dbcd8fa2eeb3a","640759fa512f630a2bdc333d","6408c178eaf41ce91ec0ece0","[1211.6999998092651]","","","[30]","[58]","58","277","331.563236631658","[331.563236631658]","[54.563236631658015]","[54]","0","0","1","0","149.44400009536184","991.8729999999923","1000","[[[""img/mask15.png""]]]","","","main","277","color-precision2"
"","","","","","html-keyboard-response","23","214319","0.0-10.0-0.2","628778b9bd0dbcd8fa2eeb3a","640759fa512f630a2bdc333d","6408c178eaf41ce91ec0ece0","null","","null","","","","","","","","","","","","","","","","","","","fixation","",""
"","","","","","many-guess-6","24","220951","0.0-10.0-1.2-0.2","628778b9bd0dbcd8fa2eeb3a","640759fa512f630a2bdc333d","6408c178eaf41ce91ec0ece0","[4494.300000190735]","","","[21,10,11,20,27,28,2,33,18,12,17,14,26,32,1,31,3,35,29,4,23,25,24,30,9,8,7,6,19,16,5,22,15,34,13,0]","[207,237,8,267,187,18,167,38,247,58,297,78,357,68,287,88,148,217,277,108,347,118,128,197,138,98,28,337,177,327,257,317,227,157,307,48]","207","86","90.44539834861617","[90.44539834861617]","[4.445398348616166]","[3]","[120,120,300,30,210,30,210,30,300]","0","36","0","148.54400009536766","16.945999999996275","16","[[[""img/mask68.png""],[""img/mask42.png""],[""img/mask86.png""],[""img/mask78.png""],[""img/mask28.png""],[""img/mask25.png""],[""img/mask51.png""],[""img/mask49.png""],[""img/mask64.png""],[""img/mask61.png""],[""img/mask100.png""],[""img/mask48.png""],[""img/mask52.png""],[""img/mask84.png""],[""img/mask6.png""],[""img/mask30.png""],[""img/mask7.png""],[""img/mask36.png""],[""img/mask26.png""],[""img/mask17.png""],[""img/mask41.png""],[""img/mask5.png""],[""img/mask40.png""],[""img/mask65.png""],[""img/mask90.png""],[""img/mask51.png""],[""img/mask54.png""],[""img/mask45.png""],[""img/mask17.png""],[""img/mask11.png""],[""img/mask9.png""],[""img/mask75.png""],[""img/mask8.png""],[""img/mask26.png""],[""img/mask44.png""],[""img/mask60.png""]]]","","[21,10,11,20,27,28,2,33,18,12,17,14,26,32,1,31,3,35,29,4,23,25,24,30,9,8,7,6,19,16,5,22,15,34,13,0]","main","86","many-guess-6"
"","","","","","html-keyboard-response","25","221452","0.0-10.0-0.3","628778b9bd0dbcd8fa2eeb3a","640759fa512f630a2bdc333d","6408c178eaf41ce91ec0ece0","null","","null","","","","","","","","","","","","","","","","","","","fixation","",""
"","","","","","color-precision2","26","227205","0.0-10.0-1.3-0.3","628778b9bd0dbcd8fa2eeb3a","640759fa512f630a2bdc333d","6408c178eaf41ce91ec0ece0","[1565.2999999523163]","","","[28]","[61]","61","145","206.1814974519022","[206.1814974519022]","[61.1814974519022]","[61]","0","0","1","0","148.57199999998556","1005.3850000000093","1000","[[[""img/mask75.png""]]]","","","main","145","color-precision2"
"","","","","","html-keyboard-response","27","227706","0.0-10.0-0.4","628778b9bd0dbcd8fa2eeb3a","640759fa512f630a2bdc333d","6408c178eaf41ce91ec0ece0","null","","null","","","","","","","","","","","","","","","","","","","fixation","",""
"","","","","","color-precision2","28","231179","0.0-10.0-1.4-0.4","628778b9bd0dbcd8fa2eeb3a","640759fa512f630a2bdc333d","6408c178eaf41ce91ec0ece0","[822.5]","","","[5]","[230]","230","112","338.7716817506272","[338.7716817506272]","[226.77168175062718]","[226]","0","0","1","0","148.32500000001164","1002.9820000953623","1000","[[[""img/mask15.png""]]]","","","main","112","color-precision2"
"","","","","","html-keyboard-response","29","231681","0.0-10.0-0.5","628778b9bd0dbcd8fa2eeb3a","640759fa512f630a2bdc333d","6408c178eaf41ce91ec0ece0","null","","null","","","","","","","","","","","","","","","","","","","fixation","",""
"","","","","","many-guess-6","30","240895","0.0-10.0-1.5-0.5","628778b9bd0dbcd8fa2eeb3a","640759fa512f630a2bdc333d","6408c178eaf41ce91ec0ece0","[7571.800000190735]","","","[2,19,22,23,9,24,31,35,15,7,10,29,12,17,33,28,13,0,16,25,5,27,30,14,21,20,6,32,8,26,18,11,3,4,34,1]","[327,278,38,58,347,128,238,48,178,8,18,208,248,287,88,28,357,317,98,118,337,188,148,168,228,198,108,297,218,258,158,68,307,138,268,78]","327","138","76.32209233526002","[76.32209233526002]","[298.32209233526004]","[296]","[300,210,30,300,120,300,300,30,120]","0","36","0","149.3319999523228","12.861999999993714","16","[[[""img/mask2.png""],[""img/mask33.png""],[""img/mask13.png""],[""img/mask19.png""],[""img/mask67.png""],[""img/mask23.png""],[""img/mask82.png""],[""img/mask90.png""],[""img/mask64.png""],[""img/mask49.png""],[""img/mask43.png""],[""img/mask36.png""],[""img/mask77.png""],[""img/mask37.png""],[""img/mask97.png""],[""img/mask20.png""],[""img/mask89.png""],[""img/mask24.png""],[""img/mask24.png""],[""img/mask70.png""],[""img/mask96.png""],[""img/mask46.png""],[""img/mask37.png""],[""img/mask13.png""],[""img/mask66.png""],[""img/mask43.png""],[""img/mask37.png""],[""img/mask71.png""],[""img/mask43.png""],[""img/mask16.png""],[""img/mask64.png""],[""img/mask10.png""],[""img/mask64.png""],[""img/mask19.png""],[""img/mask69.png""],[""img/mask1.png""]]]","","[2,19,22,23,9,24,31,35,15,7,10,29,12,17,33,28,13,0,16,25,5,27,30,14,21,20,6,32,8,26,18,11,3,4,34,1]","main","138","many-guess-6"
"","","","","","html-keyboard-response","31","241396","0.0-10.0-0.6","628778b9bd0dbcd8fa2eeb3a","640759fa512f630a2bdc333d","6408c178eaf41ce91ec0ece0","null","","null","","","","","","","","","","","","","","","","","","","fixation","",""
"","","","","","color-precision2","32","245918","0.0-10.0-1.6-0.6","628778b9bd0dbcd8fa2eeb3a","640759fa512f630a2bdc333d","6408c178eaf41ce91ec0ece0","[2012.2999999523163]","","","[12]","[97]","97","185","287.0235055848567","[287.0235055848567]","[102.02350558485671]","[103]","0","0","1","0","148.78999995230697","1003.3799999046314","1000","[[[""img/mask95.png""]]]","","","main","185","color-precision2"
"","","","","","html-keyboard-response","33","246421","0.0-10.0-0.7","628778b9bd0dbcd8fa2eeb3a","640759fa512f630a2bdc333d","6408c178eaf41ce91ec0ece0","null","","null","","","","","","","","","","","","","","","","","","","fixation","",""
"","","","","","many-guess-6","34","250761","0.0-10.0-1.7-0.7","628778b9bd0dbcd8fa2eeb3a","640759fa512f630a2bdc333d","6408c178eaf41ce91ec0ece0","[2838.300000190735]","","","[29,6,34,18,12,7,21,11,22,9,20,23,30,35,19,0,1,31,4,32,27,24,15,16,33,28,13,10,25,26,5,3,14,17,2,8]","[349,149,90,289,119,309,70,199,50,229,239,20,129,40,249,219,80,269,109,339,209,139,279,189,30,159,359,299,169,60,319,259,179,10,100,329]","349","80","235.63970690126348","[235.63970690126348]","[155.63970690126348]","[155]","[30,210,210,300,120,210,30,30,120]","0","36","0","148.32399990462","17.13499990463606","16","[[[""img/mask92.png""],[""img/mask30.png""],[""img/mask8.png""],[""img/mask50.png""],[""img/mask45.png""],[""img/mask82.png""],[""img/mask18.png""],[""img/mask38.png""],[""img/mask59.png""],[""img/mask87.png""],[""img/mask38.png""],[""img/mask12.png""],[""img/mask47.png""],[""img/mask68.png""],[""img/mask44.png""],[""img/mask37.png""],[""img/mask72.png""],[""img/mask67.png""],[""img/mask94.png""],[""img/mask12.png""],[""img/mask85.png""],[""img/mask84.png""],[""img/mask97.png""],[""img/mask28.png""],[""img/mask36.png""],[""img/mask71.png""],[""img/mask47.png""],[""img/mask38.png""],[""img/mask99.png""],[""img/mask5.png""],[""img/mask79.png""],[""img/mask65.png""],[""img/mask50.png""],[""img/mask40.png""],[""img/mask12.png""],[""img/mask10.png""]]]","","[29,6,34,18,12,7,21,11,22,9,20,23,30,35,19,0,1,31,4,32,27,24,15,16,33,28,13,10,25,26,5,3,14,17,2,8]","main","80","many-guess-6"
"","","","","","html-keyboard-response","35","251263","0.0-10.0-0.8","628778b9bd0dbcd8fa2eeb3a","640759fa512f630a2bdc333d","6408c178eaf41ce91ec0ece0","null","","null","","","","","","","","","","","","","","","","","","","fixation","",""
"","","","","","many-guess-6","36","257196","0.0-10.0-1.8-0.8","628778b9bd0dbcd8fa2eeb3a","640759fa512f630a2bdc333d","6408c178eaf41ce91ec0ece0","[4289.299999952316]","","","[21,34,25,11,17,14,32,1,7,3,19,35,15,4,31,10,29,28,6,16,24,12,8,0,13,27,9,22,33,23,5,18,2,26,20,30]","[145,274,224,314,174,284,294,165,234,214,65,244,105,334,55,15,45,85,115,354,184,254,125,344,155,75,135,25,35,264,304,324,204,194,5,95]","145","290","188.36304442857104","[188.36304442857104]","[258.363044428571]","[258]","[210,300,30,120,30,120,300,300,300]","0","36","0","149.02300009535975","11.453000000008615","16","[[[""img/mask36.png""],[""img/mask22.png""],[""img/mask59.png""],[""img/mask47.png""],[""img/mask96.png""],[""img/mask46.png""],[""img/mask65.png""],[""img/mask9.png""],[""img/mask62.png""],[""img/mask61.png""],[""img/mask30.png""],[""img/mask37.png""],[""img/mask69.png""],[""img/mask89.png""],[""img/mask86.png""],[""img/mask98.png""],[""img/mask21.png""],[""img/mask65.png""],[""img/mask35.png""],[""img/mask13.png""],[""img/mask18.png""],[""img/mask50.png""],[""img/mask52.png""],[""img/mask68.png""],[""img/mask1.png""],[""img/mask97.png""],[""img/mask26.png""],[""img/mask35.png""],[""img/mask14.png""],[""img/mask35.png""],[""img/mask76.png""],[""img/mask77.png""],[""img/mask75.png""],[""img/mask98.png""],[""img/mask61.png""],[""img/mask80.png""]]]","","[21,34,25,11,17,14,32,1,7,3,19,35,15,4,31,10,29,28,6,16,24,12,8,0,13,27,9,22,33,23,5,18,2,26,20,30]","main","290","many-guess-6"
"","","","","","html-keyboard-response","37","257698","0.0-10.0-0.9","628778b9bd0dbcd8fa2eeb3a","640759fa512f630a2bdc333d","6408c178eaf41ce91ec0ece0","null","","null","","","","","","","","","","","","","","","","","","","fixation","",""
"","","","","","color-precision2","38","261543","0.0-10.0-1.9-0.9","628778b9bd0dbcd8fa2eeb3a","640759fa512f630a2bdc333d","6408c178eaf41ce91ec0ece0","[1219.4000000953674]","","","[25]","[130]","130","18","162.5359802174095","[162.5359802174095]","[144.5359802174095]","[143]","0","0","1","0","148.78700009535532","1008.13400000002","1000","[[[""img/mask6.png""]]]","","","main","18","color-precision2"
"","","","","","html-keyboard-response","39","262044","0.0-10.0-0.10","628778b9bd0dbcd8fa2eeb3a","640759fa512f630a2bdc333d","6408c178eaf41ce91ec0ece0","null","","null","","","","","","","","","","","","","","","","","","","fixation","",""
"","","","","","many-guess-6","40","266156","0.0-10.0-1.10-0.10","628778b9bd0dbcd8fa2eeb3a","640759fa512f630a2bdc333d","6408c178eaf41ce91ec0ece0","[2331.5]","","","[31,10,9,12,15,4,30,23,19,18,25,27,35,13,11,6,24,29,0,17,21,1,5,34,14,7,26,20,33,32,2,8,22,3,28,16]","[308,318,218,68,337,18,148,288,238,278,208,258,268,248,98,58,347,108,178,88,48,78,128,328,28,198,158,118,188,228,138,298,8,168,357,38]","308","85","328.7603841596772","[328.7603841596772]","[243.7603841596772]","[243]","[120,210,120,300,30,300,30,300,300]","0","36","0","147.62700004770886","17.21799999999348","16","[[[""img/mask47.png""],[""img/mask99.png""],[""img/mask39.png""],[""img/mask1.png""],[""img/mask48.png""],[""img/mask55.png""],[""img/mask31.png""],[""img/mask57.png""],[""img/mask26.png""],[""img/mask75.png""],[""img/mask21.png""],[""img/mask100.png""],[""img/mask1.png""],[""img/mask31.png""],[""img/mask24.png""],[""img/mask52.png""],[""img/mask22.png""],[""img/mask41.png""],[""img/mask51.png""],[""img/mask16.png""],[""img/mask63.png""],[""img/mask3.png""],[""img/mask6.png""],[""img/mask26.png""],[""img/mask27.png""],[""img/mask50.png""],[""img/mask86.png""],[""img/mask99.png""],[""img/mask6.png""],[""img/mask81.png""],[""img/mask74.png""],[""img/mask30.png""],[""img/mask76.png""],[""img/mask60.png""],[""img/mask5.png""],[""img/mask88.png""]]]","","[31,10,9,12,15,4,30,23,19,18,25,27,35,13,11,6,24,29,0,17,21,1,5,34,14,7,26,20,33,32,2,8,22,3,28,16]","main","85","many-guess-6"
"","","","","","html-keyboard-response","41","266658","0.0-10.0-0.11","628778b9bd0dbcd8fa2eeb3a","640759fa512f630a2bdc333d","6408c178eaf41ce91ec0ece0","null","","null","","","","","","","","","","","","","","","","","","","fixation","",""
"","","","","","color-precision2","42","271926","0.0-10.0-1.11-0.11","628778b9bd0dbcd8fa2eeb3a","640759fa512f630a2bdc333d","6408c178eaf41ce91ec0ece0","[2468.9000000953674]","","","[0]","[266]","266","171","74.61568081451661","[74.61568081451661]","[263.6156808145166]","[262]","0","0","1","0","149.21300009539118","992.619000000006","1000","[[[""img/mask94.png""]]]","","","main","171","color-precision2"
"","","","","","html-keyboard-response","43","272427","0.0-10.0-0.12","628778b9bd0dbcd8fa2eeb3a","640759fa512f630a2bdc333d","6408c178eaf41ce91ec0ece0","null","","null","","","","","","","","","","","","","","","","","","","fixation","",""
"","","","","","many-guess-6","44","277663","0.0-10.0-1.12-0.12","628778b9bd0dbcd8fa2eeb3a","640759fa512f630a2bdc333d","6408c178eaf41ce91ec0ece0","[3738.7999999523163]","","","[9,5,10,12,22,31,16,18,2,27,20,29,21,23,1,7,32,8,30,25,15,13,26,3,33,14,35,19,0,34,28,11,17,24,6,4]","[227,178,148,188,237,257,347,217,327,357,48,18,317,287,78,28,108,138,267,118,168,158,277,128,98,297,197,38,8,307,58,337,68,247,207,88]","227","82","129.57013597314324","[129.57013597314324]","[47.57013597314324]","[46]","[300,300,210,300,30,30,120,30,120]","0","36","0","148.6659999046242","16.49999990465585","16","[[[""img/mask26.png""],[""img/mask39.png""],[""img/mask32.png""],[""img/mask39.png""],[""img/mask1.png""],[""img/mask51.png""],[""img/mask19.png""],[""img/mask72.png""],[""img/mask98.png""],[""img/mask27.png""],[""img/mask74.png""],[""img/mask25.png""],[""img/mask65.png""],[""img/mask67.png""],[""img/mask13.png""],[""img/mask82.png""],[""img/mask49.png""],[""img/mask71.png""],[""img/mask15.png""],[""img/mask33.png""],[""img/mask85.png""],[""img/mask39.png""],[""img/mask87.png""],[""img/mask66.png""],[""img/mask38.png""],[""img/mask63.png""],[""img/mask62.png""],[""img/mask81.png""],[""img/mask37.png""],[""img/mask6.png""],[""img/mask72.png""],[""img/mask13.png""],[""img/mask97.png""],[""img/mask53.png""],[""img/mask38.png""],[""img/mask46.png""]]]","","[9,5,10,12,22,31,16,18,2,27,20,29,21,23,1,7,32,8,30,25,15,13,26,3,33,14,35,19,0,34,28,11,17,24,6,4]","main","82","many-guess-6"
"","","","","","html-keyboard-response","45","278165","0.0-10.0-0.13","628778b9bd0dbcd8fa2eeb3a","640759fa512f630a2bdc333d","6408c178eaf41ce91ec0ece0","null","","null","","","","","","","","","","","","","","","","","","","fixation","",""
"","","","","","many-guess-6","46","282196","0.0-10.0-1.13-0.13","628778b9bd0dbcd8fa2eeb3a","640759fa512f630a2bdc333d","6408c178eaf41ce91ec0ece0","[2306.2000000476837]","","","[30,9,0,2,5,21,13,33,18,11,7,23,35,27,6,29,34,16,1,24,12,20,19,31,22,8,32,25,17,4,10,3,28,14,26,15]","[38,338,308,88,357,98,328,118,288,268,198,318,178,218,168,258,18,347,188,148,78,128,248,208,228,278,8,158,68,28,138,108,58,298,238,48]","38","47","215.10609692614062","[215.10609692614062]","[168.10609692614062]","[168]","[210,210,30,300,120,210,30,120,120]","0","36","0","148.5080000477028","19.248999904608354","16","[[[""img/mask60.png""],[""img/mask28.png""],[""img/mask52.png""],[""img/mask55.png""],[""img/mask71.png""],[""img/mask93.png""],[""img/mask37.png""],[""img/mask60.png""],[""img/mask16.png""],[""img/mask51.png""],[""img/mask48.png""],[""img/mask37.png""],[""img/mask16.png""],[""img/mask11.png""],[""img/mask90.png""],[""img/mask81.png""],[""img/mask67.png""],[""img/mask62.png""],[""img/mask87.png""],[""img/mask27.png""],[""img/mask88.png""],[""img/mask90.png""],[""img/mask17.png""],[""img/mask71.png""],[""img/mask43.png""],[""img/mask11.png""],[""img/mask85.png""],[""img/mask51.png""],[""img/mask25.png""],[""img/mask71.png""],[""img/mask81.png""],[""img/mask54.png""],[""img/mask10.png""],[""img/mask78.png""],[""img/mask47.png""],[""img/mask60.png""]]]","","[30,9,0,2,5,21,13,33,18,11,7,23,35,27,6,29,34,16,1,24,12,20,19,31,22,8,32,25,17,4,10,3,28,14,26,15]","main","47","many-guess-6"
"","","","","","html-keyboard-response","47","282698","0.0-10.0-0.14","628778b9bd0dbcd8fa2eeb3a","640759fa512f630a2bdc333d","6408c178eaf41ce91ec0ece0","null","","null","","","","","","","","","","","","","","","","","","","fixation","",""
"","","","","","many-guess-6","48","288124","0.0-10.0-1.14-0.14","628778b9bd0dbcd8fa2eeb3a","640759fa512f630a2bdc333d","6408c178eaf41ce91ec0ece0","[3699.300000190735]","","","[14,17,0,4,22,26,2,32,27,12,13,23,21,34,10,16,8,18,9,24,35,15,31,5,1,25,7,33,29,30,20,3,28,11,6,19]","[282,202,123,212,113,152,172,322,63,352,23,222,142,242,342,53,312,292,182,93,272,332,252,43,13,132,83,3,33,232,192,73,162,262,302,103]","282","145","303.4805543125446","[303.4805543125446]","[158.4805543125446]","[159]","[300,30,210,210,120,120,210,30,300]","0","36","0","148.98399995232467","26.74200004769955","16","[[[""img/mask79.png""],[""img/mask99.png""],[""img/mask31.png""],[""img/mask45.png""],[""img/mask70.png""],[""img/mask31.png""],[""img/mask76.png""],[""img/mask97.png""],[""img/mask29.png""],[""img/mask52.png""],[""img/mask75.png""],[""img/mask44.png""],[""img/mask82.png""],[""img/mask69.png""],[""img/mask84.png""],[""img/mask45.png""],[""img/mask63.png""],[""img/mask18.png""],[""img/mask68.png""],[""img/mask1.png""],[""img/mask84.png""],[""img/mask30.png""],[""img/mask42.png""],[""img/mask24.png""],[""img/mask31.png""],[""img/mask83.png""],[""img/mask87.png""],[""img/mask21.png""],[""img/mask20.png""],[""img/mask44.png""],[""img/mask53.png""],[""img/mask66.png""],[""img/mask13.png""],[""img/mask61.png""],[""img/mask99.png""],[""img/mask92.png""]]]","","[14,17,0,4,22,26,2,32,27,12,13,23,21,34,10,16,8,18,9,24,35,15,31,5,1,25,7,33,29,30,20,3,28,11,6,19]","main","145","many-guess-6"
"","","","","","html-keyboard-response","49","288624","0.0-10.0-0.15","628778b9bd0dbcd8fa2eeb3a","640759fa512f630a2bdc333d","6408c178eaf41ce91ec0ece0","null","","null","","","","","","","","","","","","","","","","","","","fixation","",""
"","","","","","color-precision2","50","292261","0.0-10.0-1.15-0.15","628778b9bd0dbcd8fa2eeb3a","640759fa512f630a2bdc333d","6408c178eaf41ce91ec0ece0","[1336.5999999046326]","","","[24]","[305]","305","46","355.99442343028574","[355.99442343028574]","[309.99442343028574]","[309]","0","0","1","0","148.24800000002142","993.5489999999991","1000","[[[""img/mask32.png""]]]","","","main","46","color-precision2"
"","","","","","html-keyboard-response","51","292763","0.0-10.0-0.16","628778b9bd0dbcd8fa2eeb3a","640759fa512f630a2bdc333d","6408c178eaf41ce91ec0ece0","null","","null","","","","","","","","","","","","","","","","","","","fixation","",""
"","","","","","color-precision2","52","297211","0.0-10.0-1.16-0.16","628778b9bd0dbcd8fa2eeb3a","640759fa512f630a2bdc333d","6408c178eaf41ce91ec0ece0","[2086.399999856949]","","","[3]","[312]","312","351","316.2904462299823","[316.2904462299823]","[325.2904462299823]","[325]","0","0","1","0","148.6990000953665","992.6269999999786","1000","[[[""img/mask32.png""]]]","","","main","351","color-precision2"
"","","","","","html-keyboard-response","53","297713","0.0-10.0-0.17","628778b9bd0dbcd8fa2eeb3a","640759fa512f630a2bdc333d","6408c178eaf41ce91ec0ece0","null","","null","","","","","","","","","","","","","","","","","","","fixation","",""
"","","","","","many-guess-6","54","303308","0.0-10.0-1.17-0.17","628778b9bd0dbcd8fa2eeb3a","640759fa512f630a2bdc333d","6408c178eaf41ce91ec0ece0","[3882.7000000476837]","","","[12,6,23,20,26,29,34,0,19,7,32,17,27,3,16,22,11,35,24,31,28,13,15,1,4,5,10,8,9,25,18,2,21,14,33,30]","[328,29,178,238,99,208,168,288,248,358,158,258,129,9,188,49,59,19,69,138,348,268,218,148,119,308,338,79,298,198,39,109,228,278,89,318]","328","119","347.74301938066634","[347.74301938066634]","[228.74301938066634]","[228]","[120,30,210,300,210,300,30,300,120]","0","36","0","148.2670000953949","14.695000000006985","16","[[[""img/mask16.png""],[""img/mask73.png""],[""img/mask12.png""],[""img/mask97.png""],[""img/mask63.png""],[""img/mask76.png""],[""img/mask11.png""],[""img/mask75.png""],[""img/mask39.png""],[""img/mask83.png""],[""img/mask82.png""],[""img/mask46.png""],[""img/mask65.png""],[""img/mask88.png""],[""img/mask11.png""],[""img/mask5.png""],[""img/mask6.png""],[""img/mask69.png""],[""img/mask59.png""],[""img/mask89.png""],[""img/mask75.png""],[""img/mask26.png""],[""img/mask44.png""],[""img/mask53.png""],[""img/mask29.png""],[""img/mask41.png""],[""img/mask42.png""],[""img/mask91.png""],[""img/mask68.png""],[""img/mask20.png""],[""img/mask91.png""],[""img/mask42.png""],[""img/mask11.png""],[""img/mask31.png""],[""img/mask29.png""],[""img/mask74.png""]]]","","[12,6,23,20,26,29,34,0,19,7,32,17,27,3,16,22,11,35,24,31,28,13,15,1,4,5,10,8,9,25,18,2,21,14,33,30]","main","119","many-guess-6"
"","","","","","html-keyboard-response","55","303809","0.0-10.0-0.18","628778b9bd0dbcd8fa2eeb3a","640759fa512f630a2bdc333d","6408c178eaf41ce91ec0ece0","null","","null","","","","","","","","","","","","","","","","","","","fixation","",""
"","","","","","many-guess-6","56","307936","0.0-10.0-1.18-0.18","628778b9bd0dbcd8fa2eeb3a","640759fa512f630a2bdc333d","6408c178eaf41ce91ec0ece0","[2127.699999809265]","","","[16,21,34,18,23,7,0,30,5,13,8,1,35,17,15,20,29,11,27,32,6,3,2,26,14,28,10,25,33,24,19,4,22,31,9,12]","[7,117,286,266,306,276,246,127,346,137,87,37,147,216,97,27,206,356,186,156,336,326,77,67,166,107,236,196,226,296,57,47,176,316,256,17]","7","123","125.50600028290296","[125.50600028290296]","[2.50600028290296]","[2]","[210,300,300,300,30,120,120,30,210]","0","36","0","148.71300009539118","16.357000047690235","16","[[[""img/mask21.png""],[""img/mask13.png""],[""img/mask73.png""],[""img/mask61.png""],[""img/mask92.png""],[""img/mask48.png""],[""img/mask2.png""],[""img/mask39.png""],[""img/mask12.png""],[""img/mask24.png""],[""img/mask7.png""],[""img/mask34.png""],[""img/mask81.png""],[""img/mask34.png""],[""img/mask82.png""],[""img/mask94.png""],[""img/mask51.png""],[""img/mask65.png""],[""img/mask71.png""],[""img/mask58.png""],[""img/mask48.png""],[""img/mask26.png""],[""img/mask22.png""],[""img/mask34.png""],[""img/mask39.png""],[""img/mask5.png""],[""img/mask9.png""],[""img/mask69.png""],[""img/mask30.png""],[""img/mask37.png""],[""img/mask43.png""],[""img/mask97.png""],[""img/mask21.png""],[""img/mask46.png""],[""img/mask54.png""],[""img/mask32.png""]]]","","[16,21,34,18,23,7,0,30,5,13,8,1,35,17,15,20,29,11,27,32,6,3,2,26,14,28,10,25,33,24,19,4,22,31,9,12]","main","123","many-guess-6"
"","","","","","html-keyboard-response","57","313913","0.0-10.0-0.19","628778b9bd0dbcd8fa2eeb3a","640759fa512f630a2bdc333d","6408c178eaf41ce91ec0ece0","5976.099999904633","Wow! You've completed 20 out of 180 trials! </p> <p>  </p><p> Take a quick break, then press any key when you're ready to continue."," ","","","","","","","","","","","","","","","","","","","fixation","",""
"","","","","","color-precision2","58","319063","0.0-10.0-1.19-0.19","628778b9bd0dbcd8fa2eeb3a","640759fa512f630a2bdc333d","6408c178eaf41ce91ec0ece0","[1371.2000000476837]","","","[20]","[115]","115","309","62.11304215594923","[62.11304215594923]","[113.11304215594924]","[111]","0","0","1","0","147.9640000477084","996.2259999046219","1000","[[[""img/mask80.png""]]]","","","main","309","color-precision2"
"","","","","","html-keyboard-response","59","319565","0.0-10.0-0.20","628778b9bd0dbcd8fa2eeb3a","640759fa512f630a2bdc333d","6408c178eaf41ce91ec0ece0","null","","null","","","","","","","","","","","","","","","","","","","fixation","",""
"","","","","","color-precision2","60","322896","0.0-10.0-1.20-0.20","628778b9bd0dbcd8fa2eeb3a","640759fa512f630a2bdc333d","6408c178eaf41ce91ec0ece0","[1104.2999999523163]","","","[25]","[304]","304","358","307.78509207219327","[307.78509207219327]","[309.78509207219327]","[310]","0","0","1","0","149.1049999523093","998.7409999046358","1000","[[[""img/mask32.png""]]]","","","main","358","color-precision2"
"","","","","","html-keyboard-response","61","323397","0.0-10.0-0.21","628778b9bd0dbcd8fa2eeb3a","640759fa512f630a2bdc333d","6408c178eaf41ce91ec0ece0","null","","null","","","","","","","","","","","","","","","","","","","fixation","",""
"","","","","","many-guess-6","62","327348","0.0-10.0-1.21-0.21","628778b9bd0dbcd8fa2eeb3a","640759fa512f630a2bdc333d","6408c178eaf41ce91ec0ece0","[1856.3999998569489]","","","[19,27,18,25,24,28,5,0,23,9,35,30,8,34,4,7,22,13,10,14,32,26,20,31,3,11,17,12,2,6,33,29,21,1,16,15]","[226,16,206,116,196,315,325,76,216,276,166,236,86,266,306,186,36,126,296,66,56,96,26,106,246,46,176,345,6,146,156,256,335,286,355,136]","226","121","33.4643417877287","[33.4643417877287]","[272.4643417877287]","[271]","[300,300,30,30,210,30,120,30,30]","0","36","0","149.20499995234422","14.73599999997532","16","[[[""img/mask76.png""],[""img/mask73.png""],[""img/mask13.png""],[""img/mask24.png""],[""img/mask78.png""],[""img/mask1.png""],[""img/mask56.png""],[""img/mask6.png""],[""img/mask24.png""],[""img/mask55.png""],[""img/mask44.png""],[""img/mask49.png""],[""img/mask94.png""],[""img/mask42.png""],[""img/mask18.png""],[""img/mask25.png""],[""img/mask23.png""],[""img/mask88.png""],[""img/mask22.png""],[""img/mask99.png""],[""img/mask17.png""],[""img/mask64.png""],[""img/mask4.png""],[""img/mask12.png""],[""img/mask89.png""],[""img/mask69.png""],[""img/mask3.png""],[""img/mask82.png""],[""img/mask98.png""],[""img/mask14.png""],[""img/mask60.png""],[""img/mask30.png""],[""img/mask99.png""],[""img/mask21.png""],[""img/mask19.png""],[""img/mask9.png""]]]","","[19,27,18,25,24,28,5,0,23,9,35,30,8,34,4,7,22,13,10,14,32,26,20,31,3,11,17,12,2,6,33,29,21,1,16,15]","main","121","many-guess-6"
"","","","","","html-keyboard-response","63","327849","0.0-10.0-0.22","628778b9bd0dbcd8fa2eeb3a","640759fa512f630a2bdc333d","6408c178eaf41ce91ec0ece0","null","","null","","","","","","","","","","","","","","","","","","","fixation","",""
"","","","","","many-guess-6","64","331877","0.0-10.0-1.22-0.22","628778b9bd0dbcd8fa2eeb3a","640759fa512f630a2bdc333d","6408c178eaf41ce91ec0ece0","[2119.7999999523163]","","","[6,29,9,24,4,18,7,17,8,5,2,1,16,12,34,3,28,32,13,22,0,21,20,19,35,25,26,31,10,27,33,11,30,15,23,14]","[150,160,70,140,329,40,249,60,339,10,359,120,110,180,210,239,289,20,30,170,80,200,190,279,100,90,50,230,269,349,319,299,130,259,309,220]","150","205","196.8996654676826","[196.8996654676826]","[351.8996654676826]","[352]","[120,210,300,30,210,30,300,300,210]","0","36","0","149.09499999997206","21.563999904610682","16","[[[""img/mask15.png""],[""img/mask98.png""],[""img/mask25.png""],[""img/mask42.png""],[""img/mask56.png""],[""img/mask70.png""],[""img/mask79.png""],[""img/mask95.png""],[""img/mask79.png""],[""img/mask45.png""],[""img/mask94.png""],[""img/mask58.png""],[""img/mask51.png""],[""img/mask88.png""],[""img/mask89.png""],[""img/mask14.png""],[""img/mask25.png""],[""img/mask24.png""],[""img/mask92.png""],[""img/mask57.png""],[""img/mask24.png""],[""img/mask75.png""],[""img/mask49.png""],[""img/mask6.png""],[""img/mask2.png""],[""img/mask36.png""],[""img/mask50.png""],[""img/mask48.png""],[""img/mask40.png""],[""img/mask91.png""],[""img/mask4.png""],[""img/mask55.png""],[""img/mask60.png""],[""img/mask11.png""],[""img/mask88.png""],[""img/mask90.png""]]]","","[6,29,9,24,4,18,7,17,8,5,2,1,16,12,34,3,28,32,13,22,0,21,20,19,35,25,26,31,10,27,33,11,30,15,23,14]","main","205","many-guess-6"
"","","","","","html-keyboard-response","65","332378","0.0-10.0-0.23","628778b9bd0dbcd8fa2eeb3a","640759fa512f630a2bdc333d","6408c178eaf41ce91ec0ece0","null","","null","","","","","","","","","","","","","","","","","","","fixation","",""
"","","","","","color-precision2","66","336547","0.0-10.0-1.23-0.23","628778b9bd0dbcd8fa2eeb3a","640759fa512f630a2bdc333d","6408c178eaf41ce91ec0ece0","[1522.5999999046326]","","","[20]","[161]","161","300","97.31816361290592","[97.31816361290592]","[157.31816361290592]","[155]","0","0","1","0","147.23900009534555","997.0190000953735","1000","[[[""img/mask91.png""]]]","","","main","300","color-precision2"
"","","","","","html-keyboard-response","67","337048","0.0-10.0-0.24","628778b9bd0dbcd8fa2eeb3a","640759fa512f630a2bdc333d","6408c178eaf41ce91ec0ece0","null","","null","","","","","","","","","","","","","","","","","","","fixation","",""
"","","","","","color-precision2","68","340771","0.0-10.0-1.24-0.24","628778b9bd0dbcd8fa2eeb3a","640759fa512f630a2bdc333d","6408c178eaf41ce91ec0ece0","[1261.7999999523163]","","","[9]","[134]","134","325","108.98488840532002","[108.98488840532002]","[143.98488840532002]","[142]","0","0","1","0","148.652000095346","992.5370000000112","1000","[[[""img/mask92.png""]]]","","","main","325","color-precision2"
"","","","","","html-keyboard-response","69","341272","0.0-10.0-0.25","628778b9bd0dbcd8fa2eeb3a","640759fa512f630a2bdc333d","6408c178eaf41ce91ec0ece0","null","","null","","","","","","","","","","","","","","","","","","","fixation","",""
"","","","","","many-guess-6","70","344733","0.0-10.0-1.25-0.25","628778b9bd0dbcd8fa2eeb3a","640759fa512f630a2bdc333d","6408c178eaf41ce91ec0ece0","[1773]","","","[34,16,31,3,24,9,29,17,1,18,20,13,23,11,14,6,0,33,7,22,27,12,21,35,25,32,28,5,19,2,10,15,26,30,8,4]","[254,244,304,234,25,214,354,85,35,324,274,5,75,284,15,264,94,314,124,45,144,114,154,65,294,174,194,204,224,184,334,134,164,104,344,55]","254","339","13.325486841718268","[13.325486841718268]","[34.32548684171826]","[33]","[300,120,300,210,120,120,300,300,120]","0","36","0","148.20200009539258","23.62400000001071","16","[[[""img/mask8.png""],[""img/mask45.png""],[""img/mask100.png""],[""img/mask67.png""],[""img/mask82.png""],[""img/mask73.png""],[""img/mask16.png""],[""img/mask62.png""],[""img/mask93.png""],[""img/mask74.png""],[""img/mask17.png""],[""img/mask37.png""],[""img/mask20.png""],[""img/mask29.png""],[""img/mask67.png""],[""img/mask69.png""],[""img/mask15.png""],[""img/mask42.png""],[""img/mask94.png""],[""img/mask17.png""],[""img/mask91.png""],[""img/mask24.png""],[""img/mask99.png""],[""img/mask35.png""],[""img/mask39.png""],[""img/mask38.png""],[""img/mask54.png""],[""img/mask53.png""],[""img/mask58.png""],[""img/mask79.png""],[""img/mask91.png""],[""img/mask83.png""],[""img/mask25.png""],[""img/mask55.png""],[""img/mask31.png""],[""img/mask9.png""]]]","","[34,16,31,3,24,9,29,17,1,18,20,13,23,11,14,6,0,33,7,22,27,12,21,35,25,32,28,5,19,2,10,15,26,30,8,4]","main","339","many-guess-6"
"","","","","","html-keyboard-response","71","345234","0.0-10.0-0.26","628778b9bd0dbcd8fa2eeb3a","640759fa512f630a2bdc333d","6408c178eaf41ce91ec0ece0","null","","null","","","","","","","","","","","","","","","","","","","fixation","",""
"","","","","","many-guess-6","72","349076","0.0-10.0-1.26-0.26","628778b9bd0dbcd8fa2eeb3a","640759fa512f630a2bdc333d","6408c178eaf41ce91ec0ece0","[1617.2000000476837]","","","[7,18,21,24,33,1,6,35,31,16,4,23,22,0,3,15,26,5,14,34,11,25,17,13,20,10,32,8,30,27,12,29,9,2,28,19]","[115,185,255,155,16,125,165,265,275,315,225,65,245,45,345,175,325,85,305,75,135,6,26,145,195,95,295,235,335,55,205,355,105,215,285,35]","115","182","247.47061712512505","[247.47061712512505]","[65.47061712512505]","[66]","[30,210,300,210,210,300,300,210,30]","0","36","0","148.0550000476651","10.735999904631171","16","[[[""img/mask44.png""],[""img/mask21.png""],[""img/mask80.png""],[""img/mask16.png""],[""img/mask72.png""],[""img/mask27.png""],[""img/mask20.png""],[""img/mask24.png""],[""img/mask20.png""],[""img/mask22.png""],[""img/mask63.png""],[""img/mask1.png""],[""img/mask20.png""],[""img/mask91.png""],[""img/mask39.png""],[""img/mask10.png""],[""img/mask49.png""],[""img/mask11.png""],[""img/mask15.png""],[""img/mask92.png""],[""img/mask11.png""],[""img/mask44.png""],[""img/mask40.png""],[""img/mask49.png""],[""img/mask26.png""],[""img/mask54.png""],[""img/mask67.png""],[""img/mask99.png""],[""img/mask28.png""],[""img/mask24.png""],[""img/mask83.png""],[""img/mask51.png""],[""img/mask9.png""],[""img/mask89.png""],[""img/mask58.png""],[""img/mask42.png""]]]","","[7,18,21,24,33,1,6,35,31,16,4,23,22,0,3,15,26,5,14,34,11,25,17,13,20,10,32,8,30,27,12,29,9,2,28,19]","main","182","many-guess-6"
"","","","","","html-keyboard-response","73","349577","0.0-10.0-0.27","628778b9bd0dbcd8fa2eeb3a","640759fa512f630a2bdc333d","6408c178eaf41ce91ec0ece0","null","","null","","","","","","","","","","","","","","","","","","","fixation","",""
"","","","","","many-guess-6","74","352816","0.0-10.0-1.27-0.27","628778b9bd0dbcd8fa2eeb3a","640759fa512f630a2bdc333d","6408c178eaf41ce91ec0ece0","[1856.6000001430511]","","","[1,26,27,24,23,0,31,12,9,10,33,34,8,15,2,14,21,16,28,30,4,7,6,13,11,3,20,19,18,35,25,29,17,32,5,22]","[78,108,347,8,168,58,337,28,118,188,98,48,327,308,298,198,218,258,288,178,278,238,18,208,318,158,138,228,148,68,38,248,128,268,88,357]","78","189","207.52319576505252","[207.52319576505252]","[18.52319576505252]","[18]","[210,210,210,210,120,300,120,210,300]","0","36","0","148.30900009535253","15.835999904607888","16","[[[""img/mask19.png""],[""img/mask41.png""],[""img/mask68.png""],[""img/mask64.png""],[""img/mask34.png""],[""img/mask9.png""],[""img/mask21.png""],[""img/mask46.png""],[""img/mask93.png""],[""img/mask100.png""],[""img/mask48.png""],[""img/mask4.png""],[""img/mask88.png""],[""img/mask100.png""],[""img/mask28.png""],[""img/mask88.png""],[""img/mask28.png""],[""img/mask79.png""],[""img/mask88.png""],[""img/mask26.png""],[""img/mask13.png""],[""img/mask35.png""],[""img/mask34.png""],[""img/mask71.png""],[""img/mask63.png""],[""img/mask98.png""],[""img/mask43.png""],[""img/mask10.png""],[""img/mask13.png""],[""img/mask51.png""],[""img/mask100.png""],[""img/mask46.png""],[""img/mask55.png""],[""img/mask89.png""],[""img/mask39.png""],[""img/mask85.png""]]]","","[1,26,27,24,23,0,31,12,9,10,33,34,8,15,2,14,21,16,28,30,4,7,6,13,11,3,20,19,18,35,25,29,17,32,5,22]","main","189","many-guess-6"
"","","","","","html-keyboard-response","75","353318","0.0-10.0-0.28","628778b9bd0dbcd8fa2eeb3a","640759fa512f630a2bdc333d","6408c178eaf41ce91ec0ece0","null","","null","","","","","","","","","","","","","","","","","","","fixation","",""
"","","","","","color-precision2","76","358560","0.0-10.0-1.28-0.28","628778b9bd0dbcd8fa2eeb3a","640759fa512f630a2bdc333d","6408c178eaf41ce91ec0ece0","[1951.8000001907349]","","","[3]","[179]","179","26","203.33381190443603","[203.33381190443603]","[177.33381190443603]","[179]","0","0","1","0","147.97600000002421","993.6990000000224","1000","[[[""img/mask1.png""]]]","","","main","26","color-precision2"
"","","","","","html-keyboard-response","77","359061","0.0-10.0-0.29","628778b9bd0dbcd8fa2eeb3a","640759fa512f630a2bdc333d","6408c178eaf41ce91ec0ece0","null","","null","","","","","","","","","","","","","","","","","","","fixation","",""
"","","","","","color-precision2","78","364525","0.0-10.0-1.29-0.29","628778b9bd0dbcd8fa2eeb3a","640759fa512f630a2bdc333d","6408c178eaf41ce91ec0ece0","[2498.7000000476837]","","","[18]","[183]","183","143","316.98895275131963","[316.98895275131963]","[173.98895275131963]","[174]","0","0","1","0","147.88900004769675","1004.3540000953944","1000","[[[""img/mask2.png""]]]","","","main","143","color-precision2"
"","","","","","html-keyboard-response","79","365026","0.0-10.0-0.30","628778b9bd0dbcd8fa2eeb3a","640759fa512f630a2bdc333d","6408c178eaf41ce91ec0ece0","null","","null","","","","","","","","","","","","","","","","","","","fixation","",""
"","","","","","color-precision2","80","368720","0.0-10.0-1.30-0.30","628778b9bd0dbcd8fa2eeb3a","640759fa512f630a2bdc333d","6408c178eaf41ce91ec0ece0","[1178]","","","[28]","[155]","155","135","305.85354043281217","[305.85354043281217]","[170.85354043281217]","[171]","0","0","1","0","147.85300009534694","1000.2029999999795","1000","[[[""img/mask81.png""]]]","","","main","135","color-precision2"
"","","","","","html-keyboard-response","81","369222","0.0-10.0-0.31","628778b9bd0dbcd8fa2eeb3a","640759fa512f630a2bdc333d","6408c178eaf41ce91ec0ece0","null","","null","","","","","","","","","","","","","","","","","","","fixation","",""
"","","","","","color-precision2","82","373578","0.0-10.0-1.31-0.31","628778b9bd0dbcd8fa2eeb3a","640759fa512f630a2bdc333d","6408c178eaf41ce91ec0ece0","[1951.7999999523163]","","","[8]","[123]","123","8","126.91341066539809","[126.91341066539809]","[118.91341066539809]","[117]","0","0","1","0","149.22600009536836","999.6219999999739","1000","[[[""img/mask28.png""]]]","","","main","8","color-precision2"
"","","","","","html-keyboard-response","83","374079","0.0-10.0-0.32","628778b9bd0dbcd8fa2eeb3a","640759fa512f630a2bdc333d","6408c178eaf41ce91ec0ece0","null","","null","","","","","","","","","","","","","","","","","","","fixation","",""
"","","","","","many-guess-6","84","378205","0.0-10.0-1.32-0.32","628778b9bd0dbcd8fa2eeb3a","640759fa512f630a2bdc333d","6408c178eaf41ce91ec0ece0","[2728.100000143051]","","","[18,1,0,2,4,32,17,5,19,20,6,21,26,25,15,12,7,30,33,31,14,35,34,10,9,8,16,27,29,23,3,28,13,22,11,24]","[94,154,14,343,283,174,104,263,333,144,214,204,4,323,134,34,234,164,293,54,303,184,353,194,114,44,244,64,224,313,124,74,273,24,84,254]","94","129","311.0776884850361","[311.0776884850361]","[182.0776884850361]","[182]","[30,30,120,210,30,210,300,120,120]","0","36","0","149.26100009534275","15.804999904648867","16","[[[""img/mask16.png""],[""img/mask8.png""],[""img/mask54.png""],[""img/mask67.png""],[""img/mask98.png""],[""img/mask82.png""],[""img/mask3.png""],[""img/mask27.png""],[""img/mask57.png""],[""img/mask63.png""],[""img/mask9.png""],[""img/mask94.png""],[""img/mask5.png""],[""img/mask55.png""],[""img/mask75.png""],[""img/mask100.png""],[""img/mask49.png""],[""img/mask96.png""],[""img/mask37.png""],[""img/mask4.png""],[""img/mask64.png""],[""img/mask59.png""],[""img/mask84.png""],[""img/mask17.png""],[""img/mask51.png""],[""img/mask20.png""],[""img/mask14.png""],[""img/mask86.png""],[""img/mask83.png""],[""img/mask65.png""],[""img/mask50.png""],[""img/mask85.png""],[""img/mask73.png""],[""img/mask32.png""],[""img/mask8.png""],[""img/mask73.png""]]]","","[18,1,0,2,4,32,17,5,19,20,6,21,26,25,15,12,7,30,33,31,14,35,34,10,9,8,16,27,29,23,3,28,13,22,11,24]","main","129","many-guess-6"
"","","","","","html-keyboard-response","85","378711","0.0-10.0-0.33","628778b9bd0dbcd8fa2eeb3a","640759fa512f630a2bdc333d","6408c178eaf41ce91ec0ece0","null","","null","","","","","","","","","","","","","","","","","","","fixation","",""
"","","","","","color-precision2","86","382362","0.0-10.0-1.33-0.33","628778b9bd0dbcd8fa2eeb3a","640759fa512f630a2bdc333d","6408c178eaf41ce91ec0ece0","[954.1000001430511]","","","[31]","[308]","308","311","269.7051738088558","[269.7051738088558]","[318.7051738088558]","[319]","0","0","1","0","148.6059999522986","1004.1889999046107","1000","[[[""img/mask92.png""]]]","","","main","311","color-precision2"
"","","","","","html-keyboard-response","87","382865","0.0-10.0-0.34","628778b9bd0dbcd8fa2eeb3a","640759fa512f630a2bdc333d","6408c178eaf41ce91ec0ece0","null","","null","","","","","","","","","","","","","","","","","","","fixation","",""
"","","","","","color-precision2","88","386786","0.0-10.0-1.34-0.34","628778b9bd0dbcd8fa2eeb3a","640759fa512f630a2bdc333d","6408c178eaf41ce91ec0ece0","[1243.5]","","","[25]","[6]","6","186","198.34178061275492","[198.34178061275492]","[12.341780612754917]","[12]","0","0","1","0","148.90200004767394","995.4629999999888","1000","[[[""img/mask36.png""]]]","","","main","186","color-precision2"
"","","","","","html-keyboard-response","89","387288","0.0-10.0-0.35","628778b9bd0dbcd8fa2eeb3a","640759fa512f630a2bdc333d","6408c178eaf41ce91ec0ece0","null","","null","","","","","","","","","","","","","","","","","","","fixation","",""
"","","","","","many-guess-6","90","391692","0.0-10.0-1.35-0.35","628778b9bd0dbcd8fa2eeb3a","640759fa512f630a2bdc333d","6408c178eaf41ce91ec0ece0","[1815.6000001430511]","","","[15,26,1,11,34,35,3,2,9,0,24,23,27,4,12,30,20,21,28,19,10,29,33,31,22,13,17,5,18,6,25,7,16,8,14,32]","[213,13,223,273,183,133,113,143,282,292,33,83,63,253,243,332,153,123,163,263,322,53,312,43,233,193,103,342,352,173,3,203,302,93,73,23]","213","333","345.8526412022488","[345.8526412022488]","[12.852641202248776]","[13]","[300,300,210,120,30,120,120,210,120]","0","36","0","149.48000009538373","15.00399990461301","16","[[[""img/mask45.png""],[""img/mask68.png""],[""img/mask61.png""],[""img/mask5.png""],[""img/mask14.png""],[""img/mask5.png""],[""img/mask80.png""],[""img/mask96.png""],[""img/mask6.png""],[""img/mask63.png""],[""img/mask23.png""],[""img/mask58.png""],[""img/mask45.png""],[""img/mask21.png""],[""img/mask43.png""],[""img/mask40.png""],[""img/mask53.png""],[""img/mask29.png""],[""img/mask11.png""],[""img/mask82.png""],[""img/mask27.png""],[""img/mask52.png""],[""img/mask75.png""],[""img/mask58.png""],[""img/mask84.png""],[""img/mask24.png""],[""img/mask32.png""],[""img/mask91.png""],[""img/mask33.png""],[""img/mask70.png""],[""img/mask11.png""],[""img/mask53.png""],[""img/mask55.png""],[""img/mask71.png""],[""img/mask49.png""],[""img/mask41.png""]]]","","[15,26,1,11,34,35,3,2,9,0,24,23,27,4,12,30,20,21,28,19,10,29,33,31,22,13,17,5,18,6,25,7,16,8,14,32]","main","333","many-guess-6"
"","","","","","html-keyboard-response","91","392194","0.0-10.0-0.36","628778b9bd0dbcd8fa2eeb3a","640759fa512f630a2bdc333d","6408c178eaf41ce91ec0ece0","null","","null","","","","","","","","","","","","","","","","","","","fixation","",""
"","","","","","many-guess-6","92","395773","0.0-10.0-1.36-0.36","628778b9bd0dbcd8fa2eeb3a","640759fa512f630a2bdc333d","6408c178eaf41ce91ec0ece0","[2146.9000000953674]","","","[9,8,18,1,31,14,5,27,20,23,17,0,19,3,11,22,7,35,16,32,34,10,21,24,33,6,4,2,28,25,26,15,13,29,12,30]","[180,41,220,51,150,31,340,280,240,130,111,320,270,71,210,21,91,350,200,120,61,310,230,81,160,260,170,101,1,250,140,290,330,300,11,190]","180","202","83.39420173248506","[83.39420173248506]","[241.39420173248504]","[240]","[300,300,300,210,120,120,300,30,300]","0","36","0","148.5390000953921","17.961999999999534","16","[[[""img/mask51.png""],[""img/mask27.png""],[""img/mask9.png""],[""img/mask49.png""],[""img/mask80.png""],[""img/mask84.png""],[""img/mask86.png""],[""img/mask45.png""],[""img/mask86.png""],[""img/mask56.png""],[""img/mask39.png""],[""img/mask36.png""],[""img/mask37.png""],[""img/mask22.png""],[""img/mask52.png""],[""img/mask62.png""],[""img/mask64.png""],[""img/mask17.png""],[""img/mask72.png""],[""img/mask29.png""],[""img/mask5.png""],[""img/mask84.png""],[""img/mask60.png""],[""img/mask20.png""],[""img/mask95.png""],[""img/mask38.png""],[""img/mask30.png""],[""img/mask44.png""],[""img/mask83.png""],[""img/mask22.png""],[""img/mask46.png""],[""img/mask72.png""],[""img/mask85.png""],[""img/mask48.png""],[""img/mask76.png""],[""img/mask79.png""]]]","","[9,8,18,1,31,14,5,27,20,23,17,0,19,3,11,22,7,35,16,32,34,10,21,24,33,6,4,2,28,25,26,15,13,29,12,30]","main","202","many-guess-6"
"","","","","","html-keyboard-response","93","396274","0.0-10.0-0.37","628778b9bd0dbcd8fa2eeb3a","640759fa512f630a2bdc333d","6408c178eaf41ce91ec0ece0","null","","null","","","","","","","","","","","","","","","","","","","fixation","",""
"","","","","","many-guess-6","94","401101","0.0-10.0-1.37-0.37","628778b9bd0dbcd8fa2eeb3a","640759fa512f630a2bdc333d","6408c178eaf41ce91ec0ece0","[3009.2000000476837]","","","[14,25,31,26,30,10,16,32,34,18,21,35,12,24,8,15,6,23,19,22,33,28,5,11,7,9,0,13,4,17,20,2,29,27,1,3]","[158,168,28,308,288,218,48,38,298,148,8,258,178,128,357,88,268,337,327,208,68,317,58,248,228,18,138,347,108,118,78,198,278,188,238,98]","158","51","67.908563945158","[67.908563945158]","[16.908563945157994]","[15]","[210,120,120,30,300,300,30,30,120]","0","36","0","147.75800009537488","15.38200004765531","16","[[[""img/mask77.png""],[""img/mask56.png""],[""img/mask98.png""],[""img/mask34.png""],[""img/mask5.png""],[""img/mask33.png""],[""img/mask50.png""],[""img/mask96.png""],[""img/mask29.png""],[""img/mask97.png""],[""img/mask61.png""],[""img/mask79.png""],[""img/mask48.png""],[""img/mask54.png""],[""img/mask43.png""],[""img/mask73.png""],[""img/mask91.png""],[""img/mask98.png""],[""img/mask50.png""],[""img/mask19.png""],[""img/mask24.png""],[""img/mask4.png""],[""img/mask27.png""],[""img/mask26.png""],[""img/mask80.png""],[""img/mask25.png""],[""img/mask79.png""],[""img/mask95.png""],[""img/mask84.png""],[""img/mask21.png""],[""img/mask87.png""],[""img/mask4.png""],[""img/mask58.png""],[""img/mask51.png""],[""img/mask27.png""],[""img/mask42.png""]]]","","[14,25,31,26,30,10,16,32,34,18,21,35,12,24,8,15,6,23,19,22,33,28,5,11,7,9,0,13,4,17,20,2,29,27,1,3]","main","51","many-guess-6"
"","","","","","html-keyboard-response","95","401602","0.0-10.0-0.38","628778b9bd0dbcd8fa2eeb3a","640759fa512f630a2bdc333d","6408c178eaf41ce91ec0ece0","null","","null","","","","","","","","","","","","","","","","","","","fixation","",""
"","","","","","color-precision2","96","405188","0.0-10.0-1.38-0.38","628778b9bd0dbcd8fa2eeb3a","640759fa512f630a2bdc333d","6408c178eaf41ce91ec0ece0","[1161.9000000953674]","","","[22]","[76]","76","148","212.8742046056226","[212.8742046056226]","[64.8742046056226]","[64]","0","0","1","0","148.42200004769256","1008.1059999046265","1000","[[[""img/mask56.png""]]]","","","main","148","color-precision2"
"","","","","","html-keyboard-response","97","411730","0.0-10.0-0.39","628778b9bd0dbcd8fa2eeb3a","640759fa512f630a2bdc333d","6408c178eaf41ce91ec0ece0","6540.700000047684","Wow! You've completed 40 out of 180 trials! </p> <p>  </p><p> Take a quick break, then press any key when you're ready to continue."," ","","","","","","","","","","","","","","","","","","","fixation","",""
"","","","","","color-precision2","98","417090","0.0-10.0-1.39-0.39","628778b9bd0dbcd8fa2eeb3a","640759fa512f630a2bdc333d","6408c178eaf41ce91ec0ece0","[1429.4000000953674]","","","[30]","[262]","262","267","183.4914434681816","[183.4914434681816]","[276.4914434681816]","[276]","0","0","1","0","147.84999990463257","991.7170000476763","1000","[[[""img/mask17.png""]]]","","","main","267","color-precision2"
"","","","","","html-keyboard-response","99","417592","0.0-10.0-0.40","628778b9bd0dbcd8fa2eeb3a","640759fa512f630a2bdc333d","6408c178eaf41ce91ec0ece0","null","","null","","","","","","","","","","","","","","","","","","","fixation","",""
"","","","","","many-guess-6","100","421049","0.0-10.0-1.40-0.40","628778b9bd0dbcd8fa2eeb3a","640759fa512f630a2bdc333d","6408c178eaf41ce91ec0ece0","[1423.5]","","","[35,30,15,20,16,10,5,21,9,34,6,18,13,25,31,23,0,12,4,33,22,14,17,29,19,2,3,24,8,27,1,32,28,26,11,7]","[227,307,346,237,267,137,287,317,57,157,37,67,297,117,97,247,77,87,277,327,207,147,127,197,7,167,107,217,17,177,27,257,356,337,47,187]","227","223","67.79353242750554","[67.79353242750554]","[204.79353242750554]","[203]","[120,120,210,300,30,30,120,30,300]","0","36","0","148.44500000000698","11.39499990461627","16","[[[""img/mask19.png""],[""img/mask59.png""],[""img/mask65.png""],[""img/mask86.png""],[""img/mask36.png""],[""img/mask38.png""],[""img/mask23.png""],[""img/mask12.png""],[""img/mask86.png""],[""img/mask36.png""],[""img/mask93.png""],[""img/mask57.png""],[""img/mask85.png""],[""img/mask42.png""],[""img/mask92.png""],[""img/mask80.png""],[""img/mask88.png""],[""img/mask23.png""],[""img/mask2.png""],[""img/mask77.png""],[""img/mask98.png""],[""img/mask79.png""],[""img/mask84.png""],[""img/mask47.png""],[""img/mask7.png""],[""img/mask41.png""],[""img/mask4.png""],[""img/mask90.png""],[""img/mask92.png""],[""img/mask17.png""],[""img/mask3.png""],[""img/mask77.png""],[""img/mask49.png""],[""img/mask3.png""],[""img/mask52.png""],[""img/mask93.png""]]]","","[35,30,15,20,16,10,5,21,9,34,6,18,13,25,31,23,0,12,4,33,22,14,17,29,19,2,3,24,8,27,1,32,28,26,11,7]","main","223","many-guess-6"
"","","","","","html-keyboard-response","101","421550","0.0-10.0-0.41","628778b9bd0dbcd8fa2eeb3a","640759fa512f630a2bdc333d","6408c178eaf41ce91ec0ece0","null","","null","","","","","","","","","","","","","","","","","","","fixation","",""
"","","","","","color-precision2","102","424714","0.0-10.0-1.41-0.41","628778b9bd0dbcd8fa2eeb3a","640759fa512f630a2bdc333d","6408c178eaf41ce91ec0ece0","[553]","","","[23]","[324]","324","256","216.4139462184334","[216.4139462184334]","[320.4139462184334]","[320]","0","0","1","0","148.85100000002421","997.7489999046084","1000","[[[""img/mask63.png""]]]","","","main","256","color-precision2"
"","","","","","html-keyboard-response","103","425216","0.0-10.0-0.42","628778b9bd0dbcd8fa2eeb3a","640759fa512f630a2bdc333d","6408c178eaf41ce91ec0ece0","null","","null","","","","","","","","","","","","","","","","","","","fixation","",""
"","","","","","many-guess-6","104","428829","0.0-10.0-1.42-0.42","628778b9bd0dbcd8fa2eeb3a","640759fa512f630a2bdc333d","6408c178eaf41ce91ec0ece0","[1837.1000001430511]","","","[11,10,5,9,31,21,2,8,13,6,26,3,15,16,7,18,17,25,20,33,24,4,27,14,23,12,22,35,28,34,0,19,30,32,29,1]","[351,321,32,152,2,42,302,142,292,272,102,252,52,232,122,72,162,172,62,312,331,22,222,242,132,262,282,341,82,182,112,92,202,212,12,192]","351","338","303.6731609446815","[303.6731609446815]","[325.6731609446815]","[327]","[30,30,120,30,210,300,300,210,30]","0","36","0","148.58700009534368","23.071999999985565","16","[[[""img/mask40.png""],[""img/mask25.png""],[""img/mask22.png""],[""img/mask24.png""],[""img/mask52.png""],[""img/mask13.png""],[""img/mask43.png""],[""img/mask7.png""],[""img/mask1.png""],[""img/mask46.png""],[""img/mask92.png""],[""img/mask39.png""],[""img/mask89.png""],[""img/mask50.png""],[""img/mask85.png""],[""img/mask27.png""],[""img/mask35.png""],[""img/mask30.png""],[""img/mask53.png""],[""img/mask99.png""],[""img/mask86.png""],[""img/mask37.png""],[""img/mask87.png""],[""img/mask89.png""],[""img/mask85.png""],[""img/mask44.png""],[""img/mask82.png""],[""img/mask10.png""],[""img/mask94.png""],[""img/mask47.png""],[""img/mask64.png""],[""img/mask37.png""],[""img/mask37.png""],[""img/mask24.png""],[""img/mask20.png""],[""img/mask7.png""]]]","","[11,10,5,9,31,21,2,8,13,6,26,3,15,16,7,18,17,25,20,33,24,4,27,14,23,12,22,35,28,34,0,19,30,32,29,1]","main","338","many-guess-6"
"","","","","","html-keyboard-response","105","429331","0.0-10.0-0.43","628778b9bd0dbcd8fa2eeb3a","640759fa512f630a2bdc333d","6408c178eaf41ce91ec0ece0","null","","null","","","","","","","","","","","","","","","","","","","fixation","",""
"","","","","","color-precision2","106","432547","0.0-10.0-1.43-0.43","628778b9bd0dbcd8fa2eeb3a","640759fa512f630a2bdc333d","6408c178eaf41ce91ec0ece0","[788.0999999046326]","","","[11]","[31]","31","156","197.036342176146","[197.036342176146]","[41.03634217614601]","[40]","0","0","1","0","148.33700009534368","997.7339999999967","1000","[[[""img/mask71.png""]]]","","","main","156","color-precision2"
"","","","","","html-keyboard-response","107","433049","0.0-10.0-0.44","628778b9bd0dbcd8fa2eeb3a","640759fa512f630a2bdc333d","6408c178eaf41ce91ec0ece0","null","","null","","","","","","","","","","","","","","","","","","","fixation","",""
"","","","","","color-precision2","108","438859","0.0-10.0-1.44-0.44","628778b9bd0dbcd8fa2eeb3a","640759fa512f630a2bdc333d","6408c178eaf41ce91ec0ece0","[2300.100000143051]","","","[12]","[220]","220","80","303.47870113677743","[303.47870113677743]","[223.47870113677743]","[223]","0","0","1","0","148.23100004770095","999.7739999999758","1000","[[[""img/mask54.png""]]]","","","main","80","color-precision2"
"","","","","","html-keyboard-response","109","439361","0.0-10.0-0.45","628778b9bd0dbcd8fa2eeb3a","640759fa512f630a2bdc333d","6408c178eaf41ce91ec0ece0","null","","null","","","","","","","","","","","","","","","","","","","fixation","",""
"","","","","","color-precision2","110","443130","0.0-10.0-1.45-0.45","628778b9bd0dbcd8fa2eeb3a","640759fa512f630a2bdc333d","6408c178eaf41ce91ec0ece0","[1119.2999999523163]","","","[27]","[314]","314","175","134.21845280773474","[134.21845280773474]","[319.2184528077347]","[318]","0","0","1","0","148.14500000001863","997.9359999046428","1000","[[[""img/mask37.png""]]]","","","main","175","color-precision2"
"","","","","","html-keyboard-response","111","443631","0.0-10.0-0.46","628778b9bd0dbcd8fa2eeb3a","640759fa512f630a2bdc333d","6408c178eaf41ce91ec0ece0","null","","null","","","","","","","","","","","","","","","","","","","fixation","",""
"","","","","","color-precision2","112","447189","0.0-10.0-1.46-0.46","628778b9bd0dbcd8fa2eeb3a","640759fa512f630a2bdc333d","6408c178eaf41ce91ec0ece0","[1028.2999999523163]","","","[33]","[140]","140","237","18.216507658642552","[18.216507658642552]","[141.21650765864254]","[140]","0","0","1","0","149.3390000477084","997.9160000000265","1000","[[[""img/mask50.png""]]]","","","main","237","color-precision2"
"","","","","","html-keyboard-response","113","447691","0.0-10.0-0.47","628778b9bd0dbcd8fa2eeb3a","640759fa512f630a2bdc333d","6408c178eaf41ce91ec0ece0","null","","null","","","","","","","","","","","","","","","","","","","fixation","",""
"","","","","","color-precision2","114","451291","0.0-10.0-1.47-0.47","628778b9bd0dbcd8fa2eeb3a","640759fa512f630a2bdc333d","6408c178eaf41ce91ec0ece0","[981.4000000953674]","","","[15]","[260]","260","349","257.66303274852714","[257.66303274852714]","[268.66303274852714]","[269]","0","0","1","0","148.17499999998836","1002.8770000953809","1000","[[[""img/mask2.png""]]]","","","main","349","color-precision2"
"","","","","","html-keyboard-response","115","451792","0.0-10.0-0.48","628778b9bd0dbcd8fa2eeb3a","640759fa512f630a2bdc333d","6408c178eaf41ce91ec0ece0","null","","null","","","","","","","","","","","","","","","","","","","fixation","",""
"","","","","","color-precision2","116","456647","0.0-10.0-1.48-0.48","628778b9bd0dbcd8fa2eeb3a","640759fa512f630a2bdc333d","6408c178eaf41ce91ec0ece0","[1219.5999999046326]","","","[3]","[13]","13","255","238.94940898664663","[238.94940898664663]","[343.94940898664663]","[344]","0","0","1","0","148.90200000000186","1005.7139999999781","1000","[[[""img/mask47.png""]]]","","","main","255","color-precision2"
"","","","","","html-keyboard-response","117","457148","0.0-10.0-0.49","628778b9bd0dbcd8fa2eeb3a","640759fa512f630a2bdc333d","6408c178eaf41ce91ec0ece0","null","","null","","","","","","","","","","","","","","","","","","","fixation","",""
"","","","","","color-precision2","118","460345","0.0-10.0-1.49-0.49","628778b9bd0dbcd8fa2eeb3a","640759fa512f630a2bdc333d","6408c178eaf41ce91ec0ece0","[668.5999999046326]","","","[15]","[240]","240","249","131.94989207434344","[131.94989207434344]","[242.94989207434344]","[241]","0","0","1","0","149.21700004767627","1005.7779999999912","1000","[[[""img/mask66.png""]]]","","","main","249","color-precision2"
"","","","","","html-keyboard-response","119","460847","0.0-10.0-0.50","628778b9bd0dbcd8fa2eeb3a","640759fa512f630a2bdc333d","6408c178eaf41ce91ec0ece0","null","","null","","","","","","","","","","","","","","","","","","","fixation","",""
"","","","","","color-precision2","120","465052","0.0-10.0-1.50-0.50","628778b9bd0dbcd8fa2eeb3a","640759fa512f630a2bdc333d","6408c178eaf41ce91ec0ece0","[1708.1000001430511]","","","[30]","[212]","212","29","235.95035522270283","[235.95035522270283]","[206.95035522270283]","[207]","0","0","1","0","147.69599999999627","1001.49099999998","1000","[[[""img/mask89.png""]]]","","","main","29","color-precision2"
"","","","","","html-keyboard-response","121","465555","0.0-10.0-0.51","628778b9bd0dbcd8fa2eeb3a","640759fa512f630a2bdc333d","6408c178eaf41ce91ec0ece0","null","","null","","","","","","","","","","","","","","","","","","","fixation","",""
"","","","","","color-precision2","122","469577","0.0-10.0-1.51-0.51","628778b9bd0dbcd8fa2eeb3a","640759fa512f630a2bdc333d","6408c178eaf41ce91ec0ece0","[1568.2999999523163]","","","[3]","[119]","119","331","78.96167580203402","[78.96167580203402]","[107.96167580203402]","[106]","0","0","1","0","147.39299999998184","1003.1759999999776","1000","[[[""img/mask39.png""]]]","","","main","331","color-precision2"
"","","","","","html-keyboard-response","123","470078","0.0-10.0-0.52","628778b9bd0dbcd8fa2eeb3a","640759fa512f630a2bdc333d","6408c178eaf41ce91ec0ece0","null","","null","","","","","","","","","","","","","","","","","","","fixation","",""
"","","","","","many-guess-6","124","474501","0.0-10.0-1.52-0.52","628778b9bd0dbcd8fa2eeb3a","640759fa512f630a2bdc333d","6408c178eaf41ce91ec0ece0","[2891.4000000953674]","","","[29,13,23,28,6,24,34,31,19,21,9,25,10,2,18,32,16,1,8,12,35,22,0,27,3,17,4,15,7,33,5,11,20,14,30,26]","[248,58,287,158,18,98,208,317,138,307,277,218,327,78,168,198,188,178,297,48,238,267,68,337,258,28,128,148,357,8,38,118,88,108,228,347]","248","333","328.0588319005242","[328.0588319005242]","[355.0588319005242]","[355]","[210,300,120,300,120,120,120,30,210]","0","36","0","147.68600004765904","23.42699990462279","16","[[[""img/mask2.png""],[""img/mask45.png""],[""img/mask94.png""],[""img/mask57.png""],[""img/mask74.png""],[""img/mask2.png""],[""img/mask41.png""],[""img/mask47.png""],[""img/mask33.png""],[""img/mask81.png""],[""img/mask19.png""],[""img/mask4.png""],[""img/mask80.png""],[""img/mask16.png""],[""img/mask27.png""],[""img/mask61.png""],[""img/mask65.png""],[""img/mask77.png""],[""img/mask55.png""],[""img/mask50.png""],[""img/mask67.png""],[""img/mask33.png""],[""img/mask11.png""],[""img/mask57.png""],[""img/mask30.png""],[""img/mask36.png""],[""img/mask99.png""],[""img/mask2.png""],[""img/mask52.png""],[""img/mask66.png""],[""img/mask37.png""],[""img/mask30.png""],[""img/mask40.png""],[""img/mask4.png""],[""img/mask75.png""],[""img/mask9.png""]]]","","[29,13,23,28,6,24,34,31,19,21,9,25,10,2,18,32,16,1,8,12,35,22,0,27,3,17,4,15,7,33,5,11,20,14,30,26]","main","333","many-guess-6"
"","","","","","html-keyboard-response","125","475003","0.0-10.0-0.53","628778b9bd0dbcd8fa2eeb3a","640759fa512f630a2bdc333d","6408c178eaf41ce91ec0ece0","null","","null","","","","","","","","","","","","","","","","","","","fixation","",""
"","","","","","color-precision2","126","478212","0.0-10.0-1.53-0.53","628778b9bd0dbcd8fa2eeb3a","640759fa512f630a2bdc333d","6408c178eaf41ce91ec0ece0","[985.3999998569489]","","","[26]","[208]","208","349","180.5441798133676","[180.5441798133676]","[191.5441798133676]","[191]","0","0","1","0","149.3850000476814","1007.9899999999907","1000","[[[""img/mask73.png""]]]","","","main","349","color-precision2"
"","","","","","html-keyboard-response","127","478728","0.0-10.0-0.54","628778b9bd0dbcd8fa2eeb3a","640759fa512f630a2bdc333d","6408c178eaf41ce91ec0ece0","null","","null","","","","","","","","","","","","","","","","","","","fixation","",""
"","","","","","many-guess-6","128","484210","0.0-10.0-1.54-0.54","628778b9bd0dbcd8fa2eeb3a","640759fa512f630a2bdc333d","6408c178eaf41ce91ec0ece0","[3533.7000000476837]","","","[6,23,5,35,22,19,30,21,13,1,32,4,27,2,25,0,15,28,7,29,12,16,33,34,8,17,11,31,20,26,24,10,14,9,3,18]","[336,97,356,106,116,286,186,166,47,296,7,87,306,326,266,77,176,216,346,57,37,136,196,27,126,316,226,246,156,276,67,256,146,206,17,236]","336","321","4.6484338970534065","[4.6484338970534065]","[43.648433897053394]","[43]","[210,30,300,30,210,120,120,30,210]","0","36","0","148.7509999999893","8.20699990465073","16","[[[""img/mask44.png""],[""img/mask48.png""],[""img/mask23.png""],[""img/mask93.png""],[""img/mask4.png""],[""img/mask46.png""],[""img/mask5.png""],[""img/mask20.png""],[""img/mask94.png""],[""img/mask16.png""],[""img/mask2.png""],[""img/mask52.png""],[""img/mask65.png""],[""img/mask79.png""],[""img/mask13.png""],[""img/mask76.png""],[""img/mask67.png""],[""img/mask21.png""],[""img/mask2.png""],[""img/mask82.png""],[""img/mask99.png""],[""img/mask98.png""],[""img/mask1.png""],[""img/mask72.png""],[""img/mask75.png""],[""img/mask40.png""],[""img/mask44.png""],[""img/mask49.png""],[""img/mask38.png""],[""img/mask17.png""],[""img/mask65.png""],[""img/mask54.png""],[""img/mask63.png""],[""img/mask50.png""],[""img/mask37.png""],[""img/mask51.png""]]]","","[6,23,5,35,22,19,30,21,13,1,32,4,27,2,25,0,15,28,7,29,12,16,33,34,8,17,11,31,20,26,24,10,14,9,3,18]","main","321","many-guess-6"
"","","","","","html-keyboard-response","129","484711","0.0-10.0-0.55","628778b9bd0dbcd8fa2eeb3a","640759fa512f630a2bdc333d","6408c178eaf41ce91ec0ece0","null","","null","","","","","","","","","","","","","","","","","","","fixation","",""
"","","","","","many-guess-6","130","488697","0.0-10.0-1.55-0.55","628778b9bd0dbcd8fa2eeb3a","640759fa512f630a2bdc333d","6408c178eaf41ce91ec0ece0","[2503.7999999523163]","","","[3,22,7,11,26,9,16,32,13,25,10,2,17,1,18,23,12,6,27,8,34,0,31,5,28,24,15,35,30,20,14,19,29,33,21,4]","[260,310,81,130,230,200,140,31,290,340,180,61,41,160,111,300,21,190,320,240,11,280,101,71,210,350,150,220,120,91,170,250,1,330,270,51]","260","277","59.44953203660121","[59.44953203660121]","[142.44953203660123]","[141]","[120,210,300,210,300,210,30,300,30]","0","36","0","148.38700009539025","14.756000095396303","16","[[[""img/mask25.png""],[""img/mask69.png""],[""img/mask65.png""],[""img/mask33.png""],[""img/mask13.png""],[""img/mask52.png""],[""img/mask21.png""],[""img/mask81.png""],[""img/mask89.png""],[""img/mask89.png""],[""img/mask99.png""],[""img/mask57.png""],[""img/mask80.png""],[""img/mask54.png""],[""img/mask96.png""],[""img/mask54.png""],[""img/mask69.png""],[""img/mask98.png""],[""img/mask84.png""],[""img/mask53.png""],[""img/mask46.png""],[""img/mask54.png""],[""img/mask7.png""],[""img/mask44.png""],[""img/mask33.png""],[""img/mask5.png""],[""img/mask19.png""],[""img/mask97.png""],[""img/mask40.png""],[""img/mask45.png""],[""img/mask14.png""],[""img/mask17.png""],[""img/mask86.png""],[""img/mask93.png""],[""img/mask43.png""],[""img/mask15.png""]]]","","[3,22,7,11,26,9,16,32,13,25,10,2,17,1,18,23,12,6,27,8,34,0,31,5,28,24,15,35,30,20,14,19,29,33,21,4]","main","277","many-guess-6"
"","","","","","html-keyboard-response","131","489198","0.0-10.0-0.56","628778b9bd0dbcd8fa2eeb3a","640759fa512f630a2bdc333d","6408c178eaf41ce91ec0ece0","null","","null","","","","","","","","","","","","","","","","","","","fixation","",""
"","","","","","color-precision2","132","493324","0.0-10.0-1.56-0.56","628778b9bd0dbcd8fa2eeb3a","640759fa512f630a2bdc333d","6408c178eaf41ce91ec0ece0","[846.7999999523163]","","","[0]","[319]","319","166","122.9824910406504","[122.9824910406504]","[316.9824910406504]","[315]","0","0","1","0","148.6949999523349","1008.0500000953907","1000","[[[""img/mask98.png""]]]","","","main","166","color-precision2"
"","","","","","html-keyboard-response","133","493826","0.0-10.0-0.57","628778b9bd0dbcd8fa2eeb3a","640759fa512f630a2bdc333d","6408c178eaf41ce91ec0ece0","null","","null","","","","","","","","","","","","","","","","","","","fixation","",""
"","","","","","many-guess-6","134","497658","0.0-10.0-1.57-0.57","628778b9bd0dbcd8fa2eeb3a","640759fa512f630a2bdc333d","6408c178eaf41ce91ec0ece0","[1746.6999998092651]","","","[1,29,10,6,9,26,21,14,4,22,19,13,35,7,23,28,32,3,33,15,25,8,24,30,17,5,2,12,0,11,31,20,16,18,27,34]","[49,318,29,228,119,278,199,169,39,139,308,159,218,9,79,348,298,268,189,288,149,129,109,208,238,338,358,69,99,328,258,248,89,19,59,179]","49","349","51.85824797035692","[51.85824797035692]","[62.8582479703569]","[61]","[30,300,300,120,210,120,30,210,120]","0","36","0","148.20500009536045","21.635000000009313","16","[[[""img/mask21.png""],[""img/mask62.png""],[""img/mask74.png""],[""img/mask41.png""],[""img/mask29.png""],[""img/mask79.png""],[""img/mask77.png""],[""img/mask59.png""],[""img/mask98.png""],[""img/mask35.png""],[""img/mask88.png""],[""img/mask66.png""],[""img/mask10.png""],[""img/mask60.png""],[""img/mask54.png""],[""img/mask19.png""],[""img/mask7.png""],[""img/mask38.png""],[""img/mask73.png""],[""img/mask60.png""],[""img/mask56.png""],[""img/mask70.png""],[""img/mask99.png""],[""img/mask21.png""],[""img/mask13.png""],[""img/mask94.png""],[""img/mask58.png""],[""img/mask55.png""],[""img/mask4.png""],[""img/mask21.png""],[""img/mask62.png""],[""img/mask62.png""],[""img/mask74.png""],[""img/mask96.png""],[""img/mask30.png""],[""img/mask69.png""]]]","","[1,29,10,6,9,26,21,14,4,22,19,13,35,7,23,28,32,3,33,15,25,8,24,30,17,5,2,12,0,11,31,20,16,18,27,34]","main","349","many-guess-6"
"","","","","","html-keyboard-response","135","498160","0.0-10.0-0.58","628778b9bd0dbcd8fa2eeb3a","640759fa512f630a2bdc333d","6408c178eaf41ce91ec0ece0","null","","null","","","","","","","","","","","","","","","","","","","fixation","",""
"","","","","","color-precision2","136","501232","0.0-10.0-1.58-0.58","628778b9bd0dbcd8fa2eeb3a","640759fa512f630a2bdc333d","6408c178eaf41ce91ec0ece0","[720.8999998569489]","","","[32]","[79]","79","22","88.15405270481885","[88.15405270481885]","[66.15405270481885]","[65]","0","0","1","0","149.0310000476893","997.7509999046451","1000","[[[""img/mask98.png""]]]","","","main","22","color-precision2"
"","","","","","html-keyboard-response","137","503850","0.0-10.0-0.59","628778b9bd0dbcd8fa2eeb3a","640759fa512f630a2bdc333d","6408c178eaf41ce91ec0ece0","2617.399999856949","Wow! You've completed 60 out of 180 trials! </p> <p>  </p><p> Take a quick break, then press any key when you're ready to continue."," ","","","","","","","","","","","","","","","","","","","fixation","",""
"","","","","","color-precision2","138","510408","0.0-10.0-1.59-0.59","628778b9bd0dbcd8fa2eeb3a","640759fa512f630a2bdc333d","6408c178eaf41ce91ec0ece0","[2196.5]","","","[11]","[269]","269","122","35.56539979018812","[35.56539979018812]","[273.5653997901881]","[272]","0","0","1","0","147.6670000476879","995.7609999999986","1000","[[[""img/mask95.png""]]]","","","main","122","color-precision2"
"","","","","","html-keyboard-response","139","510909","0.0-10.0-0.60","628778b9bd0dbcd8fa2eeb3a","640759fa512f630a2bdc333d","6408c178eaf41ce91ec0ece0","null","","null","","","","","","","","","","","","","","","","","","","fixation","",""
"","","","","","many-guess-6","140","514617","0.0-10.0-1.60-0.60","628778b9bd0dbcd8fa2eeb3a","640759fa512f630a2bdc333d","6408c178eaf41ce91ec0ece0","[2156.7000000476837]","","","[5,28,17,11,34,2,0,8,6,14,25,27,9,13,21,24,3,4,12,35,30,18,19,29,22,32,15,31,26,16,1,10,20,7,23,33]","[23,3,62,162,52,192,332,212,72,222,202,242,122,292,282,232,252,172,112,132,322,312,13,102,82,43,262,272,352,33,152,342,142,302,182,92]","23","300","346.87513112206614","[346.87513112206614]","[46.875131122066136]","[46]","[210,120,300,210,120,120,120,210,120]","0","36","0","148.0969999046065","12.90799990465166","16","[[[""img/mask17.png""],[""img/mask60.png""],[""img/mask54.png""],[""img/mask13.png""],[""img/mask87.png""],[""img/mask38.png""],[""img/mask88.png""],[""img/mask56.png""],[""img/mask3.png""],[""img/mask37.png""],[""img/mask71.png""],[""img/mask29.png""],[""img/mask61.png""],[""img/mask22.png""],[""img/mask13.png""],[""img/mask29.png""],[""img/mask18.png""],[""img/mask84.png""],[""img/mask49.png""],[""img/mask34.png""],[""img/mask30.png""],[""img/mask79.png""],[""img/mask93.png""],[""img/mask27.png""],[""img/mask7.png""],[""img/mask93.png""],[""img/mask11.png""],[""img/mask35.png""],[""img/mask33.png""],[""img/mask97.png""],[""img/mask93.png""],[""img/mask32.png""],[""img/mask88.png""],[""img/mask90.png""],[""img/mask69.png""],[""img/mask83.png""]]]","","[5,28,17,11,34,2,0,8,6,14,25,27,9,13,21,24,3,4,12,35,30,18,19,29,22,32,15,31,26,16,1,10,20,7,23,33]","main","300","many-guess-6"
"","","","","","html-keyboard-response","141","515119","0.0-10.0-0.61","628778b9bd0dbcd8fa2eeb3a","640759fa512f630a2bdc333d","6408c178eaf41ce91ec0ece0","null","","null","","","","","","","","","","","","","","","","","","","fixation","",""
"","","","","","color-precision2","142","519014","0.0-10.0-1.61-0.61","628778b9bd0dbcd8fa2eeb3a","640759fa512f630a2bdc333d","6408c178eaf41ce91ec0ece0","[752.9000000953674]","","","[27]","[332]","332","287","247.25577473794854","[247.25577473794854]","[320.2557747379485]","[320]","0","0","1","0","148.2570000476553","1007.8580000000075","1000","[[[""img/mask68.png""]]]","","","main","287","color-precision2"
"","","","","","html-keyboard-response","143","519515","0.0-10.0-0.62","628778b9bd0dbcd8fa2eeb3a","640759fa512f630a2bdc333d","6408c178eaf41ce91ec0ece0","null","","null","","","","","","","","","","","","","","","","","","","fixation","",""
"","","","","","color-precision2","144","522448","0.0-10.0-1.62-0.62","628778b9bd0dbcd8fa2eeb3a","640759fa512f630a2bdc333d","6408c178eaf41ce91ec0ece0","[538.2999999523163]","","","[18]","[357]","357","353","323.25716205472435","[323.25716205472435]","[330.25716205472435]","[331]","0","0","1","0","149.54500009538606","1003.0259999046102","1000","[[[""img/mask63.png""]]]","","","main","353","color-precision2"
"","","","","","html-keyboard-response","145","522949","0.0-10.0-0.63","628778b9bd0dbcd8fa2eeb3a","640759fa512f630a2bdc333d","6408c178eaf41ce91ec0ece0","null","","null","","","","","","","","","","","","","","","","","","","fixation","",""
"","","","","","color-precision2","146","526615","0.0-10.0-1.63-0.63","628778b9bd0dbcd8fa2eeb3a","640759fa512f630a2bdc333d","6408c178eaf41ce91ec0ece0","[1038]","","","[9]","[86]","86","202","294.4839058297095","[294.4839058297095]","[92.4839058297095]","[93]","0","0","1","0","147.7670000953367","999.64300000004","1000","[[[""img/mask68.png""]]]","","","main","202","color-precision2"
"","","","","","html-keyboard-response","147","527116","0.0-10.0-0.64","628778b9bd0dbcd8fa2eeb3a","640759fa512f630a2bdc333d","6408c178eaf41ce91ec0ece0","null","","null","","","","","","","","","","","","","","","","","","","fixation","",""
"","","","","","color-precision2","148","530617","0.0-10.0-1.64-0.64","628778b9bd0dbcd8fa2eeb3a","640759fa512f630a2bdc333d","6408c178eaf41ce91ec0ece0","[1054.9000000953674]","","","[15]","[284]","284","142","61.18187011150085","[61.18187011150085]","[279.18187011150087]","[277]","0","0","1","0","149.4310000477126","993.030999999959","1000","[[[""img/mask89.png""]]]","","","main","142","color-precision2"
"","","","","","html-keyboard-response","149","531118","0.0-10.0-0.65","628778b9bd0dbcd8fa2eeb3a","640759fa512f630a2bdc333d","6408c178eaf41ce91ec0ece0","null","","null","","","","","","","","","","","","","","","","","","","fixation","",""
"","","","","","many-guess-6","150","535784","0.0-10.0-1.65-0.65","628778b9bd0dbcd8fa2eeb3a","640759fa512f630a2bdc333d","6408c178eaf41ce91ec0ece0","[2806.4000000953674]","","","[28,26,23,33,10,5,13,20,17,14,22,24,30,2,19,4,18,32,7,27,29,15,31,3,11,8,25,16,9,35,12,1,34,6,21,0]","[244,124,24,264,274,44,14,54,114,214,284,74,313,94,84,34,64,134,333,234,353,144,254,194,174,4,184,204,224,343,164,104,294,303,323,154]","244","262","78.82000340992373","[78.82000340992373]","[176.82000340992374]","[175]","[120,300,210,210,210,300,210,30,120]","0","36","0","148.23499995237216","13.89399990462698","16","[[[""img/mask40.png""],[""img/mask83.png""],[""img/mask91.png""],[""img/mask64.png""],[""img/mask21.png""],[""img/mask29.png""],[""img/mask42.png""],[""img/mask16.png""],[""img/mask65.png""],[""img/mask60.png""],[""img/mask15.png""],[""img/mask75.png""],[""img/mask30.png""],[""img/mask55.png""],[""img/mask39.png""],[""img/mask87.png""],[""img/mask13.png""],[""img/mask86.png""],[""img/mask95.png""],[""img/mask30.png""],[""img/mask41.png""],[""img/mask5.png""],[""img/mask89.png""],[""img/mask31.png""],[""img/mask32.png""],[""img/mask88.png""],[""img/mask70.png""],[""img/mask47.png""],[""img/mask3.png""],[""img/mask76.png""],[""img/mask89.png""],[""img/mask81.png""],[""img/mask32.png""],[""img/mask4.png""],[""img/mask71.png""],[""img/mask62.png""]]]","","[28,26,23,33,10,5,13,20,17,14,22,24,30,2,19,4,18,32,7,27,29,15,31,3,11,8,25,16,9,35,12,1,34,6,21,0]","main","262","many-guess-6"
"","","","","","html-keyboard-response","151","536286","0.0-10.0-0.66","628778b9bd0dbcd8fa2eeb3a","640759fa512f630a2bdc333d","6408c178eaf41ce91ec0ece0","null","","null","","","","","","","","","","","","","","","","","","","fixation","",""
"","","","","","color-precision2","152","539369","0.0-10.0-1.66-0.66","628778b9bd0dbcd8fa2eeb3a","640759fa512f630a2bdc333d","6408c178eaf41ce91ec0ece0","[807.2999999523163]","","","[34]","[211]","211","337","174.19746125011724","[174.19746125011724]","[197.19746125011724]","[196]","0","0","1","0","148.62199995236006","1005.1210000000428","1000","[[[""img/mask17.png""]]]","","","main","337","color-precision2"
"","","","","","html-keyboard-response","153","539871","0.0-10.0-0.67","628778b9bd0dbcd8fa2eeb3a","640759fa512f630a2bdc333d","6408c178eaf41ce91ec0ece0","null","","null","","","","","","","","","","","","","","","","","","","fixation","",""
"","","","","","many-guess-6","154","543471","0.0-10.0-1.67-0.67","628778b9bd0dbcd8fa2eeb3a","640759fa512f630a2bdc333d","6408c178eaf41ce91ec0ece0","[2076.800000190735]","","","[5,2,7,27,26,6,28,17,31,24,11,15,14,23,12,8,16,4,13,32,19,34,0,29,9,21,35,22,25,30,18,20,10,1,3,33]","[297,58,177,28,217,227,167,357,78,98,317,327,147,237,68,267,18,207,247,187,8,138,157,118,88,48,197,287,277,257,108,128,337,38,307,347]","297","151","344.9898848091651","[344.9898848091651]","[193.98988480916512]","[193]","[210,120,210,120,300,210,300,210,210]","0","36","0","149.21100000001024","8.51500000001397","16","[[[""img/mask62.png""],[""img/mask8.png""],[""img/mask90.png""],[""img/mask26.png""],[""img/mask65.png""],[""img/mask27.png""],[""img/mask50.png""],[""img/mask23.png""],[""img/mask7.png""],[""img/mask73.png""],[""img/mask76.png""],[""img/mask45.png""],[""img/mask98.png""],[""img/mask57.png""],[""img/mask52.png""],[""img/mask86.png""],[""img/mask44.png""],[""img/mask49.png""],[""img/mask93.png""],[""img/mask17.png""],[""img/mask71.png""],[""img/mask82.png""],[""img/mask5.png""],[""img/mask67.png""],[""img/mask5.png""],[""img/mask100.png""],[""img/mask61.png""],[""img/mask11.png""],[""img/mask29.png""],[""img/mask18.png""],[""img/mask24.png""],[""img/mask25.png""],[""img/mask63.png""],[""img/mask61.png""],[""img/mask10.png""],[""img/mask53.png""]]]","","[5,2,7,27,26,6,28,17,31,24,11,15,14,23,12,8,16,4,13,32,19,34,0,29,9,21,35,22,25,30,18,20,10,1,3,33]","main","151","many-guess-6"
"","","","","","html-keyboard-response","155","543973","0.0-10.0-0.68","628778b9bd0dbcd8fa2eeb3a","640759fa512f630a2bdc333d","6408c178eaf41ce91ec0ece0","null","","null","","","","","","","","","","","","","","","","","","","fixation","",""
"","","","","","color-precision2","156","548863","0.0-10.0-1.68-0.68","628778b9bd0dbcd8fa2eeb3a","640759fa512f630a2bdc333d","6408c178eaf41ce91ec0ece0","[2351.600000143051]","","","[33]","[210]","210","256","98.77593100027289","[98.77593100027289]","[202.7759310002729]","[201]","0","0","1","0","147.42799999995623","1004.2070000000531","1000","[[[""img/mask37.png""]]]","","","main","256","color-precision2"
"","","","","","html-keyboard-response","157","549365","0.0-10.0-0.69","628778b9bd0dbcd8fa2eeb3a","640759fa512f630a2bdc333d","6408c178eaf41ce91ec0ece0","null","","null","","","","","","","","","","","","","","","","","","","fixation","",""
"","","","","","many-guess-6","158","552485","0.0-10.0-1.69-0.69","628778b9bd0dbcd8fa2eeb3a","640759fa512f630a2bdc333d","6408c178eaf41ce91ec0ece0","[1690.7000000476837]","","","[23,3,32,25,26,17,2,30,6,12,15,29,28,22,4,11,31,33,10,13,1,5,34,18,9,14,24,16,35,0,21,19,8,20,27,7]","[154,15,254,234,274,224,214,5,304,174,25,144,55,194,95,105,204,244,75,344,334,184,264,85,324,294,45,124,354,284,164,114,134,65,35,314]","154","269","298.93859470660294","[298.93859470660294]","[29.93859470660294]","[31]","[300,300,30,300,120,120,210,120,30]","0","36","0","148.2560000953963","16.57800009532366","16","[[[""img/mask22.png""],[""img/mask61.png""],[""img/mask96.png""],[""img/mask23.png""],[""img/mask5.png""],[""img/mask90.png""],[""img/mask26.png""],[""img/mask94.png""],[""img/mask52.png""],[""img/mask37.png""],[""img/mask5.png""],[""img/mask59.png""],[""img/mask40.png""],[""img/mask5.png""],[""img/mask91.png""],[""img/mask59.png""],[""img/mask1.png""],[""img/mask99.png""],[""img/mask45.png""],[""img/mask21.png""],[""img/mask85.png""],[""img/mask80.png""],[""img/mask37.png""],[""img/mask64.png""],[""img/mask25.png""],[""img/mask72.png""],[""img/mask6.png""],[""img/mask38.png""],[""img/mask19.png""],[""img/mask49.png""],[""img/mask89.png""],[""img/mask27.png""],[""img/mask55.png""],[""img/mask42.png""],[""img/mask82.png""],[""img/mask88.png""]]]","","[23,3,32,25,26,17,2,30,6,12,15,29,28,22,4,11,31,33,10,13,1,5,34,18,9,14,24,16,35,0,21,19,8,20,27,7]","main","269","many-guess-6"
"","","","","","html-keyboard-response","159","552986","0.0-10.0-0.70","628778b9bd0dbcd8fa2eeb3a","640759fa512f630a2bdc333d","6408c178eaf41ce91ec0ece0","null","","null","","","","","","","","","","","","","","","","","","","fixation","",""
"","","","","","many-guess-6","160","555943","0.0-10.0-1.70-0.70","628778b9bd0dbcd8fa2eeb3a","640759fa512f630a2bdc333d","6408c178eaf41ce91ec0ece0","[1598.2000000476837]","","","[34,14,3,16,26,17,2,10,19,27,32,5,23,11,21,31,22,15,12,13,7,4,25,18,8,30,29,28,0,1,35,6,24,20,33,9]","[299,249,100,190,309,120,200,230,339,60,160,180,210,349,150,220,240,30,289,110,140,329,50,259,80,10,20,130,269,40,170,90,70,319,359,279]","299","191","48.4527047309934","[48.4527047309934]","[217.4527047309934]","[216]","[300,300,300,300,210,210,30,120,30]","0","36","0","149.2069999523228","8.736000000033528","16","[[[""img/mask60.png""],[""img/mask25.png""],[""img/mask44.png""],[""img/mask39.png""],[""img/mask22.png""],[""img/mask85.png""],[""img/mask55.png""],[""img/mask27.png""],[""img/mask85.png""],[""img/mask48.png""],[""img/mask22.png""],[""img/mask50.png""],[""img/mask77.png""],[""img/mask63.png""],[""img/mask100.png""],[""img/mask37.png""],[""img/mask12.png""],[""img/mask46.png""],[""img/mask84.png""],[""img/mask84.png""],[""img/mask53.png""],[""img/mask83.png""],[""img/mask80.png""],[""img/mask79.png""],[""img/mask41.png""],[""img/mask67.png""],[""img/mask43.png""],[""img/mask70.png""],[""img/mask94.png""],[""img/mask77.png""],[""img/mask13.png""],[""img/mask1.png""],[""img/mask32.png""],[""img/mask8.png""],[""img/mask38.png""],[""img/mask74.png""]]]","","[34,14,3,16,26,17,2,10,19,27,32,5,23,11,21,31,22,15,12,13,7,4,25,18,8,30,29,28,0,1,35,6,24,20,33,9]","main","191","many-guess-6"
"","","","","","html-keyboard-response","161","556445","0.0-10.0-0.71","628778b9bd0dbcd8fa2eeb3a","640759fa512f630a2bdc333d","6408c178eaf41ce91ec0ece0","null","","null","","","","","","","","","","","","","","","","","","","fixation","",""
"","","","","","many-guess-6","162","561041","0.0-10.0-1.71-0.71","628778b9bd0dbcd8fa2eeb3a","640759fa512f630a2bdc333d","6408c178eaf41ce91ec0ece0","[2530]","","","[11,32,7,26,28,2,5,19,10,3,24,35,17,20,9,18,12,25,15,29,30,6,16,8,22,1,13,0,34,23,21,31,14,4,27,33]","[129,49,258,228,198,69,358,238,318,19,268,178,158,29,278,99,328,188,348,59,9,89,138,148,119,79,308,338,168,39,248,288,218,298,208,109]","129","251","316.3739181543268","[316.3739181543268]","[65.37391815432682]","[65]","[120,210,210,30,120,210,120,300,210]","0","36","0","148.05000009539071","20.559999904595315","16","[[[""img/mask100.png""],[""img/mask7.png""],[""img/mask53.png""],[""img/mask34.png""],[""img/mask57.png""],[""img/mask42.png""],[""img/mask23.png""],[""img/mask75.png""],[""img/mask55.png""],[""img/mask1.png""],[""img/mask85.png""],[""img/mask5.png""],[""img/mask47.png""],[""img/mask7.png""],[""img/mask17.png""],[""img/mask41.png""],[""img/mask93.png""],[""img/mask92.png""],[""img/mask91.png""],[""img/mask20.png""],[""img/mask6.png""],[""img/mask97.png""],[""img/mask75.png""],[""img/mask97.png""],[""img/mask83.png""],[""img/mask13.png""],[""img/mask97.png""],[""img/mask56.png""],[""img/mask100.png""],[""img/mask93.png""],[""img/mask30.png""],[""img/mask48.png""],[""img/mask88.png""],[""img/mask58.png""],[""img/mask7.png""],[""img/mask93.png""]]]","","[11,32,7,26,28,2,5,19,10,3,24,35,17,20,9,18,12,25,15,29,30,6,16,8,22,1,13,0,34,23,21,31,14,4,27,33]","main","251","many-guess-6"
"","","","","","html-keyboard-response","163","561543","0.0-10.0-0.72","628778b9bd0dbcd8fa2eeb3a","640759fa512f630a2bdc333d","6408c178eaf41ce91ec0ece0","null","","null","","","","","","","","","","","","","","","","","","","fixation","",""
"","","","","","color-precision2","164","564888","0.0-10.0-1.72-0.72","628778b9bd0dbcd8fa2eeb3a","640759fa512f630a2bdc333d","6408c178eaf41ce91ec0ece0","[925.7000000476837]","","","[30]","[292]","292","92","15.1620329359875","[15.1620329359875]","[283.1620329359875]","[282]","0","0","1","0","148.97499995236285","1000.4279999999562","1000","[[[""img/mask81.png""]]]","","","main","92","color-precision2"
"","","","","","html-keyboard-response","165","565389","0.0-10.0-0.73","628778b9bd0dbcd8fa2eeb3a","640759fa512f630a2bdc333d","6408c178eaf41ce91ec0ece0","null","","null","","","","","","","","","","","","","","","","","","","fixation","",""
"","","","","","many-guess-6","166","569730","0.0-10.0-1.73-0.73","628778b9bd0dbcd8fa2eeb3a","640759fa512f630a2bdc333d","6408c178eaf41ce91ec0ece0","[2701.2999999523163]","","","[9,12,5,26,11,17,30,0,33,10,21,15,32,4,25,34,35,7,28,22,3,13,20,8,19,31,16,23,24,14,1,6,27,2,29,18]","[223,343,193,124,313,94,24,243,84,263,333,293,44,183,64,253,353,153,283,163,323,233,74,4,203,213,34,143,104,273,173,133,114,54,14,303]","223","257","67.73951416177373","[67.73951416177373]","[170.73951416177374]","[169]","[120,210,120,30,300,120,300,30,30]","0","36","0","148.695999952266","22.31999990460463","16","[[[""img/mask7.png""],[""img/mask51.png""],[""img/mask29.png""],[""img/mask36.png""],[""img/mask14.png""],[""img/mask89.png""],[""img/mask54.png""],[""img/mask71.png""],[""img/mask33.png""],[""img/mask35.png""],[""img/mask31.png""],[""img/mask44.png""],[""img/mask97.png""],[""img/mask70.png""],[""img/mask78.png""],[""img/mask99.png""],[""img/mask40.png""],[""img/mask39.png""],[""img/mask56.png""],[""img/mask48.png""],[""img/mask93.png""],[""img/mask14.png""],[""img/mask31.png""],[""img/mask82.png""],[""img/mask12.png""],[""img/mask25.png""],[""img/mask80.png""],[""img/mask44.png""],[""img/mask24.png""],[""img/mask93.png""],[""img/mask98.png""],[""img/mask55.png""],[""img/mask58.png""],[""img/mask62.png""],[""img/mask5.png""],[""img/mask64.png""]]]","","[9,12,5,26,11,17,30,0,33,10,21,15,32,4,25,34,35,7,28,22,3,13,20,8,19,31,16,23,24,14,1,6,27,2,29,18]","main","257","many-guess-6"
"","","","","","html-keyboard-response","167","570231","0.0-10.0-0.74","628778b9bd0dbcd8fa2eeb3a","640759fa512f630a2bdc333d","6408c178eaf41ce91ec0ece0","null","","null","","","","","","","","","","","","","","","","","","","fixation","",""
"","","","","","many-guess-6","168","574226","0.0-10.0-1.74-0.74","628778b9bd0dbcd8fa2eeb3a","640759fa512f630a2bdc333d","6408c178eaf41ce91ec0ece0","[2447.7000000476837]","","","[25,0,28,10,27,7,34,5,2,12,23,20,32,9,19,13,8,24,31,33,11,17,18,15,26,29,4,3,30,1,14,21,6,35,22,16]","[301,101,281,341,351,231,321,271,181,41,61,211,111,141,81,291,201,151,171,51,91,241,161,71,21,31,261,331,221,191,121,1,251,131,11,311]","301","110","20.088964654591944","[20.088964654591944]","[270.08896465459196]","[269]","[30,30,120,120,210,300,300,210,300]","0","36","0","147.66600004769862","17.382999904686585","16","[[[""img/mask35.png""],[""img/mask26.png""],[""img/mask78.png""],[""img/mask88.png""],[""img/mask60.png""],[""img/mask65.png""],[""img/mask96.png""],[""img/mask93.png""],[""img/mask70.png""],[""img/mask68.png""],[""img/mask51.png""],[""img/mask1.png""],[""img/mask89.png""],[""img/mask82.png""],[""img/mask81.png""],[""img/mask92.png""],[""img/mask88.png""],[""img/mask61.png""],[""img/mask62.png""],[""img/mask62.png""],[""img/mask83.png""],[""img/mask69.png""],[""img/mask73.png""],[""img/mask78.png""],[""img/mask2.png""],[""img/mask96.png""],[""img/mask32.png""],[""img/mask72.png""],[""img/mask22.png""],[""img/mask7.png""],[""img/mask56.png""],[""img/mask30.png""],[""img/mask33.png""],[""img/mask96.png""],[""img/mask79.png""],[""img/mask32.png""]]]","","[25,0,28,10,27,7,34,5,2,12,23,20,32,9,19,13,8,24,31,33,11,17,18,15,26,29,4,3,30,1,14,21,6,35,22,16]","main","110","many-guess-6"
"","","","","","html-keyboard-response","169","574727","0.0-10.0-0.75","628778b9bd0dbcd8fa2eeb3a","640759fa512f630a2bdc333d","6408c178eaf41ce91ec0ece0","null","","null","","","","","","","","","","","","","","","","","","","fixation","",""
"","","","","","color-precision2","170","578124","0.0-10.0-1.75-0.75","628778b9bd0dbcd8fa2eeb3a","640759fa512f630a2bdc333d","6408c178eaf41ce91ec0ece0","[712.2000000476837]","","","[9]","[63]","63","243","303.9473840010253","[303.9473840010253]","[60.947384001025284]","[63]","0","0","1","0","148.7780000953935","993.6539999999804","1000","[[[""img/mask52.png""]]]","","","main","243","color-precision2"
"","","","","","html-keyboard-response","171","578626","0.0-10.0-0.76","628778b9bd0dbcd8fa2eeb3a","640759fa512f630a2bdc333d","6408c178eaf41ce91ec0ece0","null","","null","","","","","","","","","","","","","","","","","","","fixation","",""
"","","","","","color-precision2","172","582058","0.0-10.0-1.76-0.76","628778b9bd0dbcd8fa2eeb3a","640759fa512f630a2bdc333d","6408c178eaf41ce91ec0ece0","[863.7000000476837]","","","[18]","[147]","147","349","148.35733348995714","[148.35733348995714]","[159.35733348995714]","[158]","0","0","1","0","148.12600009539165","998.1109999046894","1000","[[[""img/mask44.png""]]]","","","main","349","color-precision2"
"","","","","","html-keyboard-response","173","582559","0.0-10.0-0.77","628778b9bd0dbcd8fa2eeb3a","640759fa512f630a2bdc333d","6408c178eaf41ce91ec0ece0","null","","null","","","","","","","","","","","","","","","","","","","fixation","",""
"","","","","","many-guess-6","174","585614","0.0-10.0-1.77-0.77","628778b9bd0dbcd8fa2eeb3a","640759fa512f630a2bdc333d","6408c178eaf41ce91ec0ece0","[1770]","","","[2,10,9,35,29,22,32,19,14,24,33,0,17,21,28,20,18,13,31,7,34,26,30,16,11,6,27,23,3,1,5,25,15,12,8,4]","[117,326,157,57,336,306,196,87,127,137,356,276,67,256,236,346,206,37,187,226,47,266,296,147,27,286,77,246,167,316,216,97,107,7,17,177]","117","252","40.87723509024902","[40.87723509024902]","[148.87723509024903]","[147]","[120,210,120,30,300,120,30,30,120]","0","36","0","148.69400009536184","9.231999904615805","16","[[[""img/mask29.png""],[""img/mask82.png""],[""img/mask30.png""],[""img/mask30.png""],[""img/mask40.png""],[""img/mask79.png""],[""img/mask1.png""],[""img/mask17.png""],[""img/mask23.png""],[""img/mask47.png""],[""img/mask51.png""],[""img/mask49.png""],[""img/mask57.png""],[""img/mask87.png""],[""img/mask54.png""],[""img/mask37.png""],[""img/mask78.png""],[""img/mask50.png""],[""img/mask61.png""],[""img/mask62.png""],[""img/mask55.png""],[""img/mask28.png""],[""img/mask23.png""],[""img/mask41.png""],[""img/mask16.png""],[""img/mask25.png""],[""img/mask79.png""],[""img/mask12.png""],[""img/mask60.png""],[""img/mask94.png""],[""img/mask10.png""],[""img/mask15.png""],[""img/mask77.png""],[""img/mask50.png""],[""img/mask25.png""],[""img/mask14.png""]]]","","[2,10,9,35,29,22,32,19,14,24,33,0,17,21,28,20,18,13,31,7,34,26,30,16,11,6,27,23,3,1,5,25,15,12,8,4]","main","252","many-guess-6"
"","","","","","html-keyboard-response","175","586115","0.0-10.0-0.78","628778b9bd0dbcd8fa2eeb3a","640759fa512f630a2bdc333d","6408c178eaf41ce91ec0ece0","null","","null","","","","","","","","","","","","","","","","","","","fixation","",""
"","","","","","many-guess-6","176","590431","0.0-10.0-1.78-0.78","628778b9bd0dbcd8fa2eeb3a","640759fa512f630a2bdc333d","6408c178eaf41ce91ec0ece0","[2703.2000000476837]","","","[34,27,16,20,15,18,3,14,10,32,17,2,0,33,5,12,35,11,6,22,4,8,7,1,25,30,19,13,9,26,21,28,24,23,29,31]","[319,139,338,9,159,259,129,149,249,289,79,39,19,269,189,219,199,29,299,229,309,119,109,348,179,279,358,169,69,329,209,49,89,99,239,59]","319","204","206.01278568055875","[206.01278568055875]","[2.01278568055875]","[2]","[30,120,300,120,210,300,30,300,210]","0","36","0","148.20900000003166","20.646999904653057","16","[[[""img/mask67.png""],[""img/mask20.png""],[""img/mask59.png""],[""img/mask38.png""],[""img/mask65.png""],[""img/mask75.png""],[""img/mask47.png""],[""img/mask73.png""],[""img/mask99.png""],[""img/mask12.png""],[""img/mask48.png""],[""img/mask28.png""],[""img/mask37.png""],[""img/mask62.png""],[""img/mask33.png""],[""img/mask96.png""],[""img/mask54.png""],[""img/mask93.png""],[""img/mask77.png""],[""img/mask29.png""],[""img/mask83.png""],[""img/mask5.png""],[""img/mask52.png""],[""img/mask6.png""],[""img/mask86.png""],[""img/mask96.png""],[""img/mask87.png""],[""img/mask89.png""],[""img/mask37.png""],[""img/mask28.png""],[""img/mask82.png""],[""img/mask13.png""],[""img/mask79.png""],[""img/mask42.png""],[""img/mask91.png""],[""img/mask77.png""]]]","","[34,27,16,20,15,18,3,14,10,32,17,2,0,33,5,12,35,11,6,22,4,8,7,1,25,30,19,13,9,26,21,28,24,23,29,31]","main","204","many-guess-6"
"","","","","","html-keyboard-response","177","592956","0.0-10.0-0.79","628778b9bd0dbcd8fa2eeb3a","640759fa512f630a2bdc333d","6408c178eaf41ce91ec0ece0","2524.2999999523163","Wow! You've completed 80 out of 180 trials! </p> <p>  </p><p> Take a quick break, then press any key when you're ready to continue."," ","","","","","","","","","","","","","","","","","","","fixation","",""
"","","","","","many-guess-6","178","598619","0.0-10.0-1.79-0.79","628778b9bd0dbcd8fa2eeb3a","640759fa512f630a2bdc333d","6408c178eaf41ce91ec0ece0","[2124.5]","","","[28,8,31,1,32,5,34,19,22,6,25,13,26,0,14,24,4,27,2,16,10,20,29,9,7,21,15,30,35,18,3,11,12,23,17,33]","[164,124,65,5,174,324,184,334,294,25,244,354,114,234,314,214,224,264,344,154,104,45,284,35,144,55,95,304,15,134,85,75,204,194,274,254]","164","355","282.0950658584187","[282.0950658584187]","[287.0950658584187]","[287]","[30,120,120,300,210,210,120,30,30]","0","36","0","147.86300009535626","20.280999999959022","16","[[[""img/mask15.png""],[""img/mask52.png""],[""img/mask87.png""],[""img/mask83.png""],[""img/mask40.png""],[""img/mask77.png""],[""img/mask88.png""],[""img/mask62.png""],[""img/mask23.png""],[""img/mask34.png""],[""img/mask93.png""],[""img/mask19.png""],[""img/mask41.png""],[""img/mask57.png""],[""img/mask33.png""],[""img/mask19.png""],[""img/mask41.png""],[""img/mask10.png""],[""img/mask4.png""],[""img/mask92.png""],[""img/mask5.png""],[""img/mask22.png""],[""img/mask17.png""],[""img/mask58.png""],[""img/mask43.png""],[""img/mask42.png""],[""img/mask37.png""],[""img/mask20.png""],[""img/mask26.png""],[""img/mask32.png""],[""img/mask74.png""],[""img/mask4.png""],[""img/mask36.png""],[""img/mask53.png""],[""img/mask30.png""],[""img/mask23.png""]]]","","[28,8,31,1,32,5,34,19,22,6,25,13,26,0,14,24,4,27,2,16,10,20,29,9,7,21,15,30,35,18,3,11,12,23,17,33]","main","355","many-guess-6"
