"success","timeout","failed_images","failed_audio","failed_video","trial_type","trial_index","time_elapsed","internal_node_id","subject_id","study_id","session_id","rt","stimulus","response","position_of_items","colors_of_items","color_of_target","wheel_spin","response_angle","physical_response_angle","reported_color_angle","reported_color_discrete","locs","which_test","set_size","wheel_num_options","actual_mask_duration","actual_stim_duration","CMDispTime","maskArray","maskRotation","item_positions","task","randomSpinAmount","mainTask"
"true","false","[]","[]","[]","preload","0","5039","0.0-0.0","62d0a258e5efefa14eb29647","640759fa512f630a2bdc333d","64077ce8a83d6474d024a7ad","","","","","","","","","","","","","","","","","","","","","","","",""
"true","","","","","fullscreen","1","9506","0.0-1.0","62d0a258e5efefa14eb29647","640759fa512f630a2bdc333d","64077ce8a83d6474d024a7ad","","","","","","","","","","","","","","","","","","","","","","","",""
"","","","","","html-keyboard-response","2","16386","0.0-2.0","62d0a258e5efefa14eb29647","640759fa512f630a2bdc333d","64077ce8a83d6474d024a7ad","6874.800000011921","What a beautiful Tuesday to do some awesome science! </p> <p>  </p><p> </p>
    By completing this survey or questionnaire, you are consenting to be in this research study. </p>
    Your participation is voluntary and you can stop at any time.<p> [Press any key to continue] </p>","enter","","","","","","","","","","","","","","","","","","","","",""
"","","","","","html-keyboard-response","3","26398","0.0-3.0","62d0a258e5efefa14eb29647","640759fa512f630a2bdc333d","64077ce8a83d6474d024a7ad","null","
    <div style='width: 1000px;'>
    <div style='float: center;'><img src='img/TaskInstructions1.png'></img>
    </div>
    ","null","","","","","","","","","","","","","","","","","","","","",""
"","","","","","html-keyboard-response","4","35970","0.0-4.0","62d0a258e5efefa14eb29647","640759fa512f630a2bdc333d","64077ce8a83d6474d024a7ad","9567.600000023842","
    <div style='width: 1000px;'>
    <div style='float: center;'><img src='img/TaskInstructions1.png'></img>
    </div>
    "," ","","","","","","","","","","","","","","","","","","","","",""
"","","","","","html-keyboard-response","5","45989","0.0-5.0","62d0a258e5efefa14eb29647","640759fa512f630a2bdc333d","64077ce8a83d6474d024a7ad","null","
    <div style='width: 1000px;'>
    <div style='float: center;'><img src='img/TaskInstructions2.png'></img>
    </div>
    ","null","","","","","","","","","","","","","","","","","","","","",""
"","","","","","html-keyboard-response","6","75961","0.0-6.0","62d0a258e5efefa14eb29647","640759fa512f630a2bdc333d","64077ce8a83d6474d024a7ad","29968.5","
    <div style='width: 1000px;'>
    <div style='float: center;'><img src='img/TaskInstructions2.png'></img>
    </div>
    "," ","","","","","","","","","","","","","","","","","","","","",""
"","","","","","video-keyboard-response","7","103817","0.0-7.0","62d0a258e5efefa14eb29647","640759fa512f630a2bdc333d","64077ce8a83d6474d024a7ad","27829.899999976158","[""video/TaskInstructions3.mp4""]"," ","","","","","","","","","","","","","","","","","","","","",""
"","","","","","image-keyboard-response","8","118763","0.0-8.0-0.0","62d0a258e5efefa14eb29647","640759fa512f630a2bdc333d","64077ce8a83d6474d024a7ad","14935.600000023842","img/training1.png"," ","","","","","","","","","","","","","","","","","","","","",""
"","","","","","color-precision2","9","128613","0.0-8.0-1.0-0.0","62d0a258e5efefa14eb29647","640759fa512f630a2bdc333d","64077ce8a83d6474d024a7ad","[2409.5]","","","[13]","[34]","34","80","121.90352456336211","[121.90352456336211]","[41.90352456336211]","[40]","0","0","1","0","497.74400003577466","1003.4950000476965","1000","","","0","training","",""
"","","","","","image-keyboard-response","10","137722","0.0-8.0-0.1","62d0a258e5efefa14eb29647","640759fa512f630a2bdc333d","64077ce8a83d6474d024a7ad","9102.600000023842","img/training2.png"," ","","","","","","","","","","","","","","","","","","","","",""
"","","","","","many-guess-6","11","144260","0.0-8.0-1.1-0.1","62d0a258e5efefa14eb29647","640759fa512f630a2bdc333d","64077ce8a83d6474d024a7ad","[1369.1000000238419]","","","[30,10,29]","[69,242,314]","69","208","178.22560793077034","[178.22560793077034]","[330.22560793077037]","[329]","[210,30,30,210,300,300,210,300,30,300,210,210,300,300,300,210,30,300,300,120,300,120,210,120,300,120,120,300,30,120,120,120,30,120,300,300]","0","3","0","847.4810000357684","998.1909999999916","1000","[[[""img/mask9.png""],[""img/mask61.png""],[""img/mask40.png""]]]","","[30,10,29]","training","",""
"","","","","","image-keyboard-response","12","154997","0.0-8.0-0.2","62d0a258e5efefa14eb29647","640759fa512f630a2bdc333d","64077ce8a83d6474d024a7ad","10731.900000035763","img/training3.png"," ","","","","","","","","","","","","","","","","","","","","",""
"","","","","","[""many-guess-6""]","13","163780","0.0-8.0-1.2-0.2","62d0a258e5efefa14eb29647","640759fa512f630a2bdc333d","64077ce8a83d6474d024a7ad","[2762.300000011921]","","","[1,16,14,32,29]","[187,215,172,351,284]","187","340","163.07526421804005","[163.07526421804005]","[183.07526421804005]","[182]","[210,300,30,120,120,210,30,30,210,120,30,210,300,30,300,210,120,300,210,210,120,300,120,120,300,30,30,30,120,120,30,300,30,210,120,210]","0","5","0","498.13400002385606","495.10200002384954","500","[[[""img/mask62.png""],[""img/mask71.png""],[""img/mask25.png""],[""img/mask79.png""],[""img/mask95.png""]]]","","[1,16,14,32,29]","training","",""
"","","","","","image-keyboard-response","14","169614","0.0-8.0-0.3","62d0a258e5efefa14eb29647","640759fa512f630a2bdc333d","64077ce8a83d6474d024a7ad","5828.699999988079","img/training4.png"," ","","","","","","","","","","","","","","","","","","","","",""
"","","","","","[""many-guess-6""]","15","177004","0.0-8.0-1.3-0.3","62d0a258e5efefa14eb29647","640759fa512f630a2bdc333d","64077ce8a83d6474d024a7ad","[3740.100000023842]","","","[22,7,17,10,12,2,16,5,13,33]","[294,32,229,4,265,68,15,343,94,329]","294","293","333.45768288874757","[333.45768288874757]","[40.45768288874757]","[40]","[210,210,300,120,30,30,120,120,30,210,30,30,210,30,120,210,300,30,300,120,210,30,300,30,210,120,300,210,30,120,210,120,210,30,30,210]","0","10","0","131.63100004769512","131.05900002384442","132","[[[""img/mask100.png""],[""img/mask20.png""],[""img/mask94.png""],[""img/mask86.png""],[""img/mask32.png""],[""img/mask56.png""],[""img/mask31.png""],[""img/mask27.png""],[""img/mask68.png""],[""img/mask100.png""]]]","","[22,7,17,10,12,2,16,5,13,33]","training","",""
"","","","","","image-keyboard-response","16","185516","0.0-8.0-0.4","62d0a258e5efefa14eb29647","640759fa512f630a2bdc333d","64077ce8a83d6474d024a7ad","8503.100000023842","img/training5.png"," ","","","","","","","","","","","","","","","","","","","","",""
"","","","","","[""many-guess-6""]","17","191580","0.0-8.0-1.4-0.4","62d0a258e5efefa14eb29647","640759fa512f630a2bdc333d","64077ce8a83d6474d024a7ad","[2469]","","","[26,32,4,5,1,27,2,29,31,14,30,7,0,6,9,11,17,15,19,16,3,20,24,18,34,12,22,25,10,23,21,35,13,8,33,28]","[16,36,156,186,275,256,56,6,96,216,166,126,355,246,176,196,295,26,345,76,136,86,226,266,236,285,106,116,206,335,315,46,146,325,305,66]","16","39","359.14139904001985","[359.14139904001985]","[320.14139904001985]","[319]","[300,30,30,30,300,210,30,210,30,300,120,120,120,120,300,300,210,30,120,30,210,210,210,120,300,120,210,120,30,210,300,120,300,210,210,30]","0","36","0","181.45900001193513","17.19200001191348","16","[[[""img/mask90.png""],[""img/mask76.png""],[""img/mask71.png""],[""img/mask85.png""],[""img/mask75.png""],[""img/mask65.png""],[""img/mask90.png""],[""img/mask72.png""],[""img/mask22.png""],[""img/mask44.png""],[""img/mask94.png""],[""img/mask36.png""],[""img/mask16.png""],[""img/mask60.png""],[""img/mask99.png""],[""img/mask74.png""],[""img/mask38.png""],[""img/mask19.png""],[""img/mask29.png""],[""img/mask44.png""],[""img/mask47.png""],[""img/mask28.png""],[""img/mask39.png""],[""img/mask27.png""],[""img/mask23.png""],[""img/mask56.png""],[""img/mask11.png""],[""img/mask81.png""],[""img/mask3.png""],[""img/mask72.png""],[""img/mask100.png""],[""img/mask11.png""],[""img/mask90.png""],[""img/mask30.png""],[""img/mask56.png""],[""img/mask24.png""]]]","","[26,32,4,5,1,27,2,29,31,14,30,7,0,6,9,11,17,15,19,16,3,20,24,18,34,12,22,25,10,23,21,35,13,8,33,28]","training","",""
"","","","","","image-keyboard-response","18","196312","0.0-9.0","62d0a258e5efefa14eb29647","640759fa512f630a2bdc333d","64077ce8a83d6474d024a7ad","4725.199999988079","[""img/endTraining.png""]"," ","","","","","","","","","","","","","","","","","","","","",""
"","","","","","html-keyboard-response","19","196819","0.0-10.0-0.0","62d0a258e5efefa14eb29647","640759fa512f630a2bdc333d","64077ce8a83d6474d024a7ad","null","","null","","","","","","","","","","","","","","","","","","","fixation","",""
"","","","","","many-guess-6","20","202638","0.0-10.0-1.0-0.0","62d0a258e5efefa14eb29647","640759fa512f630a2bdc333d","64077ce8a83d6474d024a7ad","[3246.899999976158]","","","[7,17,10,0,25,15,29,2,24,1,3,19,14,34,35,16,33,32,8,13,6,27,30,26,31,23,4,22,18,9,28,20,5,12,11,21]","[66,335,86,275,176,236,345,16,325,96,76,146,295,305,216,36,206,6,56,265,126,226,186,355,315,116,136,26,166,246,196,255,106,156,285,46]","66","190","201.00602248851388","[201.00602248851388]","[11.006022488513878]","[10]","[120,210,210,30,120,30,30,210,120]","0","36","0","231.31600002382766","22.968000023829518","16","[[[""img/mask100.png""],[""img/mask43.png""],[""img/mask58.png""],[""img/mask19.png""],[""img/mask37.png""],[""img/mask23.png""],[""img/mask77.png""],[""img/mask95.png""],[""img/mask37.png""],[""img/mask54.png""],[""img/mask92.png""],[""img/mask78.png""],[""img/mask97.png""],[""img/mask49.png""],[""img/mask53.png""],[""img/mask55.png""],[""img/mask30.png""],[""img/mask49.png""],[""img/mask48.png""],[""img/mask48.png""],[""img/mask51.png""],[""img/mask73.png""],[""img/mask52.png""],[""img/mask46.png""],[""img/mask30.png""],[""img/mask96.png""],[""img/mask13.png""],[""img/mask68.png""],[""img/mask85.png""],[""img/mask43.png""],[""img/mask83.png""],[""img/mask47.png""],[""img/mask87.png""],[""img/mask81.png""],[""img/mask87.png""],[""img/mask73.png""]]]","","[7,17,10,0,25,15,29,2,24,1,3,19,14,34,35,16,33,32,8,13,6,27,30,26,31,23,4,22,18,9,28,20,5,12,11,21]","main","190","many-guess-6"
"","","","","","html-keyboard-response","21","203145","0.0-10.0-0.1","62d0a258e5efefa14eb29647","640759fa512f630a2bdc333d","64077ce8a83d6474d024a7ad","null","","null","","","","","","","","","","","","","","","","","","","fixation","",""
"","","","","","many-guess-6","22","209059","0.0-10.0-1.1-0.1","62d0a258e5efefa14eb29647","640759fa512f630a2bdc333d","64077ce8a83d6474d024a7ad","[2977.899999976158]","","","[4,1,19,15,9,23,7,35,3,17,30,12,29,2,13,11,26,27,34,31,28,21,8,5,16,14,18,24,22,33,0,32,20,25,10,6]","[116,196,246,216,286,316,26,336,96,66,126,226,236,276,6,346,206,146,296,46,326,176,306,16,56,106,36,156,136,166,186,355,86,266,76,256]","116","243","224.84165394856015","[224.84165394856015]","[341.8416539485602]","[342]","[30,300,120,300,300,120,30,30,30]","0","36","0","164.8150000476744","13.146999999997206","16","[[[""img/mask94.png""],[""img/mask11.png""],[""img/mask66.png""],[""img/mask20.png""],[""img/mask25.png""],[""img/mask92.png""],[""img/mask56.png""],[""img/mask63.png""],[""img/mask51.png""],[""img/mask30.png""],[""img/mask80.png""],[""img/mask95.png""],[""img/mask44.png""],[""img/mask67.png""],[""img/mask88.png""],[""img/mask73.png""],[""img/mask75.png""],[""img/mask91.png""],[""img/mask55.png""],[""img/mask5.png""],[""img/mask19.png""],[""img/mask19.png""],[""img/mask39.png""],[""img/mask14.png""],[""img/mask38.png""],[""img/mask30.png""],[""img/mask41.png""],[""img/mask86.png""],[""img/mask26.png""],[""img/mask19.png""],[""img/mask78.png""],[""img/mask53.png""],[""img/mask67.png""],[""img/mask50.png""],[""img/mask67.png""],[""img/mask72.png""]]]","","[4,1,19,15,9,23,7,35,3,17,30,12,29,2,13,11,26,27,34,31,28,21,8,5,16,14,18,24,22,33,0,32,20,25,10,6]","main","243","many-guess-6"
"","","","","","html-keyboard-response","23","209563","0.0-10.0-0.2","62d0a258e5efefa14eb29647","640759fa512f630a2bdc333d","64077ce8a83d6474d024a7ad","null","","null","","","","","","","","","","","","","","","","","","","fixation","",""
"","","","","","color-precision2","24","214194","0.0-10.0-1.2-0.2","62d0a258e5efefa14eb29647","640759fa512f630a2bdc333d","64077ce8a83d6474d024a7ad","[1142.8999999761581]","","","[4]","[41]","41","276","306.85367841686167","[306.85367841686167]","[30.85367841686167]","[31]","0","0","1","0","144.89300003575045","994.1560000357567","1000","[[[""img/mask88.png""]]]","","","main","276","color-precision2"
"","","","","","html-keyboard-response","25","214697","0.0-10.0-0.3","62d0a258e5efefa14eb29647","640759fa512f630a2bdc333d","64077ce8a83d6474d024a7ad","null","","null","","","","","","","","","","","","","","","","","","","fixation","",""
"","","","","","color-precision2","26","218913","0.0-10.0-1.3-0.3","62d0a258e5efefa14eb29647","640759fa512f630a2bdc333d","64077ce8a83d6474d024a7ad","[792.9000000357628]","","","[9]","[83]","83","36","126.1093654555355","[126.1093654555355]","[90.1093654555355]","[88]","0","0","1","0","144.24700000000303","995.2280000238388","1000","[[[""img/mask93.png""]]]","","","main","36","color-precision2"
"","","","","","html-keyboard-response","27","219416","0.0-10.0-0.4","62d0a258e5efefa14eb29647","640759fa512f630a2bdc333d","64077ce8a83d6474d024a7ad","null","","null","","","","","","","","","","","","","","","","","","","fixation","",""
"","","","","","many-guess-6","28","226546","0.0-10.0-1.4-0.4","62d0a258e5efefa14eb29647","640759fa512f630a2bdc333d","64077ce8a83d6474d024a7ad","[4549.099999964237]","","","[26,10,32,2,21,31,24,33,23,13,16,1,18,30,8,11,22,35,19,4,7,25,20,6,17,27,0,34,29,12,15,3,5,28,9,14]","[335,76,235,215,205,66,96,146,116,126,185,26,166,16,275,265,175,106,295,225,6,156,305,355,46,136,56,255,86,325,345,245,315,285,36,195]","335","11","44.56361515157924","[44.56361515157924]","[33.56361515157924]","[32]","[120,300,300,210,30,30,120,30,120]","0","36","0","147.40499999999884","22.498000011924887","16","[[[""img/mask93.png""],[""img/mask98.png""],[""img/mask71.png""],[""img/mask22.png""],[""img/mask90.png""],[""img/mask14.png""],[""img/mask74.png""],[""img/mask2.png""],[""img/mask68.png""],[""img/mask74.png""],[""img/mask25.png""],[""img/mask34.png""],[""img/mask61.png""],[""img/mask76.png""],[""img/mask53.png""],[""img/mask44.png""],[""img/mask91.png""],[""img/mask59.png""],[""img/mask32.png""],[""img/mask57.png""],[""img/mask82.png""],[""img/mask34.png""],[""img/mask93.png""],[""img/mask52.png""],[""img/mask86.png""],[""img/mask31.png""],[""img/mask23.png""],[""img/mask33.png""],[""img/mask88.png""],[""img/mask36.png""],[""img/mask40.png""],[""img/mask13.png""],[""img/mask84.png""],[""img/mask29.png""],[""img/mask98.png""],[""img/mask58.png""]]]","","[26,10,32,2,21,31,24,33,23,13,16,1,18,30,8,11,22,35,19,4,7,25,20,6,17,27,0,34,29,12,15,3,5,28,9,14]","main","11","many-guess-6"
"","","","","","html-keyboard-response","29","227059","0.0-10.0-0.5","62d0a258e5efefa14eb29647","640759fa512f630a2bdc333d","64077ce8a83d6474d024a7ad","null","","null","","","","","","","","","","","","","","","","","","","fixation","",""
"","","","","","color-precision2","30","232474","0.0-10.0-1.5-0.5","62d0a258e5efefa14eb29647","640759fa512f630a2bdc333d","64077ce8a83d6474d024a7ad","[1944.9000000357628]","","","[30]","[69]","69","312","44.46069123816449","[44.46069123816449]","[92.46069123816449]","[91]","0","0","1","0","148.00100001192186","997.288000011933","1000","[[[""img/mask49.png""]]]","","","main","312","color-precision2"
"","","","","","html-keyboard-response","31","232978","0.0-10.0-0.6","62d0a258e5efefa14eb29647","640759fa512f630a2bdc333d","64077ce8a83d6474d024a7ad","null","","null","","","","","","","","","","","","","","","","","","","fixation","",""
"","","","","","color-precision2","32","238811","0.0-10.0-1.6-0.6","62d0a258e5efefa14eb29647","640759fa512f630a2bdc333d","64077ce8a83d6474d024a7ad","[1763.199999988079]","","","[32]","[134]","134","55","190.04771750015743","[190.04771750015743]","[135.04771750015743]","[135]","0","0","1","0","144.25200004767976","994.7220000238449","1000","[[[""img/mask71.png""]]]","","","main","55","color-precision2"
"","","","","","html-keyboard-response","33","239314","0.0-10.0-0.7","62d0a258e5efefa14eb29647","640759fa512f630a2bdc333d","64077ce8a83d6474d024a7ad","null","","null","","","","","","","","","","","","","","","","","","","fixation","",""
"","","","","","many-guess-6","34","246649","0.0-10.0-1.7-0.7","62d0a258e5efefa14eb29647","640759fa512f630a2bdc333d","64077ce8a83d6474d024a7ad","[4792.099999964237]","","","[12,35,2,33,28,20,11,9,0,25,6,31,1,10,30,26,16,22,27,19,3,18,5,17,21,34,8,7,14,32,23,15,4,13,29,24]","[115,344,194,354,155,25,145,214,105,85,75,294,204,185,324,55,264,15,254,284,274,135,125,165,314,304,65,175,234,45,244,224,35,5,95,334]","115","195","231.70883902641336","[231.70883902641336]","[36.70883902641336]","[37]","[210,120,30,120,120,120,120,300,300]","0","36","0","148.4210000000021","9.148000011919066","16","[[[""img/mask46.png""],[""img/mask28.png""],[""img/mask40.png""],[""img/mask38.png""],[""img/mask63.png""],[""img/mask32.png""],[""img/mask28.png""],[""img/mask65.png""],[""img/mask29.png""],[""img/mask14.png""],[""img/mask22.png""],[""img/mask59.png""],[""img/mask65.png""],[""img/mask61.png""],[""img/mask14.png""],[""img/mask33.png""],[""img/mask11.png""],[""img/mask74.png""],[""img/mask29.png""],[""img/mask76.png""],[""img/mask46.png""],[""img/mask17.png""],[""img/mask16.png""],[""img/mask97.png""],[""img/mask74.png""],[""img/mask75.png""],[""img/mask69.png""],[""img/mask67.png""],[""img/mask89.png""],[""img/mask64.png""],[""img/mask74.png""],[""img/mask42.png""],[""img/mask19.png""],[""img/mask72.png""],[""img/mask44.png""],[""img/mask7.png""]]]","","[12,35,2,33,28,20,11,9,0,25,6,31,1,10,30,26,16,22,27,19,3,18,5,17,21,34,8,7,14,32,23,15,4,13,29,24]","main","195","many-guess-6"
"","","","","","html-keyboard-response","35","247153","0.0-10.0-0.8","62d0a258e5efefa14eb29647","640759fa512f630a2bdc333d","64077ce8a83d6474d024a7ad","null","","null","","","","","","","","","","","","","","","","","","","fixation","",""
"","","","","","color-precision2","36","252251","0.0-10.0-1.8-0.8","62d0a258e5efefa14eb29647","640759fa512f630a2bdc333d","64077ce8a83d6474d024a7ad","[1736.3999999761581]","","","[34]","[243]","243","301","175.4821433797774","[175.4821433797774]","[234.4821433797774]","[233]","0","0","1","0","145.70000000001164","997.1300000000047","1000","[[[""img/mask21.png""]]]","","","main","301","color-precision2"
"","","","","","html-keyboard-response","37","252756","0.0-10.0-0.9","62d0a258e5efefa14eb29647","640759fa512f630a2bdc333d","64077ce8a83d6474d024a7ad","null","","null","","","","","","","","","","","","","","","","","","","fixation","",""
"","","","","","many-guess-6","38","258601","0.0-10.0-1.9-0.9","62d0a258e5efefa14eb29647","640759fa512f630a2bdc333d","64077ce8a83d6474d024a7ad","[3681.899999976158]","","","[13,9,7,24,19,30,5,22,27,16,26,32,20,33,25,15,2,18,1,8,11,17,12,31,29,28,0,14,34,6,35,23,21,3,10,4]","[272,123,43,73,342,163,332,173,143,253,322,282,113,153,23,53,63,292,302,312,83,193,183,103,223,213,263,33,203,93,243,3,13,352,233,133]","272","349","145.34559214605852","[145.34559214605852]","[156.34559214605852]","[155]","[30,300,120,300,30,120,210,300,210]","0","36","0","132.1589999999851","32.00300003576558","16","[[[""img/mask4.png""],[""img/mask93.png""],[""img/mask41.png""],[""img/mask74.png""],[""img/mask86.png""],[""img/mask55.png""],[""img/mask35.png""],[""img/mask69.png""],[""img/mask80.png""],[""img/mask68.png""],[""img/mask60.png""],[""img/mask2.png""],[""img/mask10.png""],[""img/mask73.png""],[""img/mask81.png""],[""img/mask64.png""],[""img/mask54.png""],[""img/mask28.png""],[""img/mask37.png""],[""img/mask39.png""],[""img/mask62.png""],[""img/mask44.png""],[""img/mask99.png""],[""img/mask17.png""],[""img/mask93.png""],[""img/mask71.png""],[""img/mask44.png""],[""img/mask74.png""],[""img/mask85.png""],[""img/mask51.png""],[""img/mask84.png""],[""img/mask25.png""],[""img/mask76.png""],[""img/mask4.png""],[""img/mask76.png""],[""img/mask79.png""]]]","","[13,9,7,24,19,30,5,22,27,16,26,32,20,33,25,15,2,18,1,8,11,17,12,31,29,28,0,14,34,6,35,23,21,3,10,4]","main","349","many-guess-6"
"","","","","","html-keyboard-response","39","259106","0.0-10.0-0.10","62d0a258e5efefa14eb29647","640759fa512f630a2bdc333d","64077ce8a83d6474d024a7ad","null","","null","","","","","","","","","","","","","","","","","","","fixation","",""
"","","","","","color-precision2","40","264274","0.0-10.0-1.10-0.10","62d0a258e5efefa14eb29647","640759fa512f630a2bdc333d","64077ce8a83d6474d024a7ad","[1477.199999988079]","","","[12]","[324]","324","180","162.4596007171831","[162.4596007171831]","[342.4596007171831]","[341]","0","0","1","0","145.50400000001537","998.9520000238554","1000","[[[""img/mask28.png""]]]","","","main","180","color-precision2"
"","","","","","html-keyboard-response","41","264777","0.0-10.0-0.11","62d0a258e5efefa14eb29647","640759fa512f630a2bdc333d","64077ce8a83d6474d024a7ad","null","","null","","","","","","","","","","","","","","","","","","","fixation","",""
"","","","","","many-guess-6","42","270058","0.0-10.0-1.11-0.11","62d0a258e5efefa14eb29647","640759fa512f630a2bdc333d","64077ce8a83d6474d024a7ad","[2880]","","","[17,23,3,10,0,6,2,12,29,9,20,14,31,24,34,33,35,13,30,5,16,1,15,22,18,7,25,8,32,19,27,26,4,28,11,21]","[236,76,86,126,66,16,216,56,196,355,346,166,256,96,276,226,6,156,336,106,46,286,306,146,206,176,116,296,266,246,136,316,186,326,36,26]","236","59","57.849123307749814","[57.849123307749814]","[358.84912330774984]","[357]","[30,30,300,210,210,120,210,120,210]","0","36","0","150.37000004766742","10.150000011897646","16","[[[""img/mask5.png""],[""img/mask54.png""],[""img/mask47.png""],[""img/mask6.png""],[""img/mask28.png""],[""img/mask95.png""],[""img/mask5.png""],[""img/mask48.png""],[""img/mask3.png""],[""img/mask56.png""],[""img/mask34.png""],[""img/mask33.png""],[""img/mask26.png""],[""img/mask51.png""],[""img/mask65.png""],[""img/mask70.png""],[""img/mask51.png""],[""img/mask63.png""],[""img/mask14.png""],[""img/mask14.png""],[""img/mask73.png""],[""img/mask62.png""],[""img/mask61.png""],[""img/mask29.png""],[""img/mask38.png""],[""img/mask42.png""],[""img/mask74.png""],[""img/mask83.png""],[""img/mask43.png""],[""img/mask2.png""],[""img/mask63.png""],[""img/mask87.png""],[""img/mask29.png""],[""img/mask82.png""],[""img/mask98.png""],[""img/mask89.png""]]]","","[17,23,3,10,0,6,2,12,29,9,20,14,31,24,34,33,35,13,30,5,16,1,15,22,18,7,25,8,32,19,27,26,4,28,11,21]","main","59","many-guess-6"
"","","","","","html-keyboard-response","43","270561","0.0-10.0-0.12","62d0a258e5efefa14eb29647","640759fa512f630a2bdc333d","64077ce8a83d6474d024a7ad","null","","null","","","","","","","","","","","","","","","","","","","fixation","",""
"","","","","","color-precision2","44","275259","0.0-10.0-1.12-0.12","62d0a258e5efefa14eb29647","640759fa512f630a2bdc333d","64077ce8a83d6474d024a7ad","[914.4000000357628]","","","[0]","[326]","326","32","37.32140250861476","[37.32140250861476]","[5.32140250861476]","[4]","0","0","1","0","145.59800002386328","1006.2590000357595","1000","[[[""img/mask70.png""]]]","","","main","32","color-precision2"
"","","","","","html-keyboard-response","45","275763","0.0-10.0-0.13","62d0a258e5efefa14eb29647","640759fa512f630a2bdc333d","64077ce8a83d6474d024a7ad","null","","null","","","","","","","","","","","","","","","","","","","fixation","",""
"","","","","","color-precision2","46","280290","0.0-10.0-1.13-0.13","62d0a258e5efefa14eb29647","640759fa512f630a2bdc333d","64077ce8a83d6474d024a7ad","[1143.3999999761581]","","","[20]","[318]","318","192","150.11215422866124","[150.11215422866124]","[318.1121542286612]","[318]","0","0","1","0","144.954000000027","1003.6030000000028","1000","[[[""img/mask100.png""]]]","","","main","192","color-precision2"
"","","","","","html-keyboard-response","47","280793","0.0-10.0-0.14","62d0a258e5efefa14eb29647","640759fa512f630a2bdc333d","64077ce8a83d6474d024a7ad","null","","null","","","","","","","","","","","","","","","","","","","fixation","",""
"","","","","","many-guess-6","48","287243","0.0-10.0-1.14-0.14","62d0a258e5efefa14eb29647","640759fa512f630a2bdc333d","64077ce8a83d6474d024a7ad","[3149.2999999523163]","","","[12,32,24,28,5,6,0,9,13,31,2,34,3,26,21,10,14,27,11,7,25,17,33,16,8,35,18,1,22,19,4,23,30,29,15,20]","[228,337,248,317,18,28,277,218,327,257,347,287,98,307,58,8,148,48,68,198,128,357,108,238,78,178,208,38,158,118,188,138,297,267,168,88]","228","203","196.5282748928495","[196.5282748928495]","[353.5282748928495]","[353]","[300,300,30,30,120,210,300,210,120]","0","36","0","148.47500002384186","24.530000035767443","16","[[[""img/mask45.png""],[""img/mask16.png""],[""img/mask72.png""],[""img/mask98.png""],[""img/mask46.png""],[""img/mask65.png""],[""img/mask79.png""],[""img/mask54.png""],[""img/mask19.png""],[""img/mask26.png""],[""img/mask3.png""],[""img/mask93.png""],[""img/mask76.png""],[""img/mask3.png""],[""img/mask76.png""],[""img/mask40.png""],[""img/mask36.png""],[""img/mask30.png""],[""img/mask48.png""],[""img/mask51.png""],[""img/mask91.png""],[""img/mask16.png""],[""img/mask13.png""],[""img/mask56.png""],[""img/mask85.png""],[""img/mask3.png""],[""img/mask6.png""],[""img/mask31.png""],[""img/mask90.png""],[""img/mask69.png""],[""img/mask58.png""],[""img/mask3.png""],[""img/mask72.png""],[""img/mask56.png""],[""img/mask25.png""],[""img/mask64.png""]]]","","[12,32,24,28,5,6,0,9,13,31,2,34,3,26,21,10,14,27,11,7,25,17,33,16,8,35,18,1,22,19,4,23,30,29,15,20]","main","203","many-guess-6"
"","","","","","html-keyboard-response","49","287747","0.0-10.0-0.15","62d0a258e5efefa14eb29647","640759fa512f630a2bdc333d","64077ce8a83d6474d024a7ad","null","","null","","","","","","","","","","","","","","","","","","","fixation","",""
"","","","","","color-precision2","50","292836","0.0-10.0-1.15-0.15","62d0a258e5efefa14eb29647","640759fa512f630a2bdc333d","64077ce8a83d6474d024a7ad","[674.5]","","","[9]","[320]","320","45","46.258583766169764","[46.258583766169764]","[1.2585837661697639]","[0]","0","0","1","0","145.5350000357721","1001.2170000119368","1000","[[[""img/mask96.png""]]]","","","main","45","color-precision2"
"","","","","","html-keyboard-response","51","293339","0.0-10.0-0.16","62d0a258e5efefa14eb29647","640759fa512f630a2bdc333d","64077ce8a83d6474d024a7ad","null","","null","","","","","","","","","","","","","","","","","","","fixation","",""
"","","","","","color-precision2","52","297976","0.0-10.0-1.16-0.16","62d0a258e5efefa14eb29647","640759fa512f630a2bdc333d","64077ce8a83d6474d024a7ad","[1149.800000011921]","","","[1]","[291]","291","245","192.26945812498798","[192.26945812498798]","[307.269458124988]","[307]","0","0","1","0","148.21000004769303","998.0510000477079","1000","[[[""img/mask43.png""]]]","","","main","245","color-precision2"
"","","","","","html-keyboard-response","53","298489","0.0-10.0-0.17","62d0a258e5efefa14eb29647","640759fa512f630a2bdc333d","64077ce8a83d6474d024a7ad","null","","null","","","","","","","","","","","","","","","","","","","fixation","",""
"","","","","","color-precision2","54","303159","0.0-10.0-1.17-0.17","62d0a258e5efefa14eb29647","640759fa512f630a2bdc333d","64077ce8a83d6474d024a7ad","[591.4000000357628]","","","[19]","[15]","15","34","41.13888258983157","[41.13888258983157]","[7.138882589831567]","[5]","0","0","1","0","145.22100004769163","997.75","1000","[[[""img/mask29.png""]]]","","","main","34","color-precision2"
"","","","","","html-keyboard-response","55","303663","0.0-10.0-0.18","62d0a258e5efefa14eb29647","640759fa512f630a2bdc333d","64077ce8a83d6474d024a7ad","null","","null","","","","","","","","","","","","","","","","","","","fixation","",""
"","","","","","color-precision2","56","308376","0.0-10.0-1.18-0.18","62d0a258e5efefa14eb29647","640759fa512f630a2bdc333d","64077ce8a83d6474d024a7ad","[802.3999999761581]","","","[24]","[228]","228","71","310.8738425083713","[310.8738425083713]","[239.8738425083713]","[240]","0","0","1","0","145.00000002386514","996.1150000357884","1000","[[[""img/mask40.png""]]]","","","main","71","color-precision2"
"","","","","","html-keyboard-response","57","407224","0.0-10.0-0.19","62d0a258e5efefa14eb29647","640759fa512f630a2bdc333d","64077ce8a83d6474d024a7ad","98843.80000001192","Wow! You've completed 20 out of 180 trials! </p> <p>  </p><p> Take a quick break, then press any key when you're ready to continue."," ","","","","","","","","","","","","","","","","","","","fixation","",""
"","","","","","color-precision2","58","414347","0.0-10.0-1.19-0.19","62d0a258e5efefa14eb29647","640759fa512f630a2bdc333d","64077ce8a83d6474d024a7ad","[871.5]","","","[1]","[339]","339","322","298.4409897547098","[298.4409897547098]","[336.4409897547098]","[336]","0","0","1","0","147.60700001189252","1002.7210000000196","1000","[[[""img/mask1.png""]]]","","","main","322","color-precision2"
"","","","","","html-keyboard-response","59","414855","0.0-10.0-0.20","62d0a258e5efefa14eb29647","640759fa512f630a2bdc333d","64077ce8a83d6474d024a7ad","null","","null","","","","","","","","","","","","","","","","","","","fixation","",""
"","","","","","many-guess-6","60","419914","0.0-10.0-1.20-0.20","62d0a258e5efefa14eb29647","640759fa512f630a2bdc333d","64077ce8a83d6474d024a7ad","[3144.699999988079]","","","[26,25,4,31,14,23,7,6,5,11,35,18,15,1,8,13,22,20,24,30,10,32,0,29,3,33,28,21,34,17,12,19,16,2,27,9]","[221,111,131,300,31,51,320,181,61,41,251,310,290,330,241,81,201,340,161,1,21,350,101,261,211,141,71,151,121,231,11,281,171,91,271,191]","221","332","243.98652759669903","[243.98652759669903]","[271.98652759669903]","[272]","[30,210,210,300,30,210,120,300,210]","0","36","0","148.40100000001257","11.25","16","[[[""img/mask9.png""],[""img/mask7.png""],[""img/mask10.png""],[""img/mask63.png""],[""img/mask34.png""],[""img/mask28.png""],[""img/mask98.png""],[""img/mask61.png""],[""img/mask14.png""],[""img/mask11.png""],[""img/mask72.png""],[""img/mask89.png""],[""img/mask92.png""],[""img/mask86.png""],[""img/mask86.png""],[""img/mask78.png""],[""img/mask16.png""],[""img/mask95.png""],[""img/mask21.png""],[""img/mask79.png""],[""img/mask23.png""],[""img/mask76.png""],[""img/mask4.png""],[""img/mask44.png""],[""img/mask60.png""],[""img/mask7.png""],[""img/mask4.png""],[""img/mask39.png""],[""img/mask69.png""],[""img/mask95.png""],[""img/mask17.png""],[""img/mask10.png""],[""img/mask71.png""],[""img/mask18.png""],[""img/mask45.png""],[""img/mask64.png""]]]","","[26,25,4,31,14,23,7,6,5,11,35,18,15,1,8,13,22,20,24,30,10,32,0,29,3,33,28,21,34,17,12,19,16,2,27,9]","main","332","many-guess-6"
"","","","","","html-keyboard-response","61","420416","0.0-10.0-0.21","62d0a258e5efefa14eb29647","640759fa512f630a2bdc333d","64077ce8a83d6474d024a7ad","null","","null","","","","","","","","","","","","","","","","","","","fixation","",""
"","","","","","many-guess-6","62","425786","0.0-10.0-1.21-0.21","62d0a258e5efefa14eb29647","640759fa512f630a2bdc333d","64077ce8a83d6474d024a7ad","[2499.199999988079]","","","[0,28,15,8,20,14,30,21,29,9,25,4,27,23,7,5,32,35,11,26,33,34,6,13,12,3,19,16,10,2,24,18,1,31,17,22]","[329,159,10,279,289,339,69,309,239,349,249,209,99,139,299,119,189,59,49,29,149,319,79,359,19,219,179,129,259,39,89,229,269,169,199,109]","329","39","126.66521390989568","[126.66521390989568]","[87.66521390989568]","[86]","[30,210,30,300,30,300,120,300,300]","0","36","0","148.21500004769769","23.056000035780016","16","[[[""img/mask36.png""],[""img/mask17.png""],[""img/mask52.png""],[""img/mask95.png""],[""img/mask74.png""],[""img/mask79.png""],[""img/mask32.png""],[""img/mask56.png""],[""img/mask36.png""],[""img/mask7.png""],[""img/mask59.png""],[""img/mask66.png""],[""img/mask38.png""],[""img/mask13.png""],[""img/mask1.png""],[""img/mask80.png""],[""img/mask97.png""],[""img/mask25.png""],[""img/mask94.png""],[""img/mask91.png""],[""img/mask58.png""],[""img/mask88.png""],[""img/mask44.png""],[""img/mask54.png""],[""img/mask40.png""],[""img/mask51.png""],[""img/mask41.png""],[""img/mask17.png""],[""img/mask16.png""],[""img/mask4.png""],[""img/mask70.png""],[""img/mask24.png""],[""img/mask65.png""],[""img/mask20.png""],[""img/mask72.png""],[""img/mask60.png""]]]","","[0,28,15,8,20,14,30,21,29,9,25,4,27,23,7,5,32,35,11,26,33,34,6,13,12,3,19,16,10,2,24,18,1,31,17,22]","main","39","many-guess-6"
"","","","","","html-keyboard-response","63","426289","0.0-10.0-0.22","62d0a258e5efefa14eb29647","640759fa512f630a2bdc333d","64077ce8a83d6474d024a7ad","null","","null","","","","","","","","","","","","","","","","","","","fixation","",""
"","","","","","many-guess-6","64","430516","0.0-10.0-1.22-0.22","62d0a258e5efefa14eb29647","640759fa512f630a2bdc333d","64077ce8a83d6474d024a7ad","[2361.699999988079]","","","[10,22,34,23,8,29,33,7,19,25,2,9,1,17,14,18,35,26,6,3,21,11,16,31,28,12,5,0,13,4,27,30,20,15,24,32]","[190,250,160,101,330,140,340,350,220,260,230,51,240,61,121,81,310,11,320,280,31,21,170,270,1,150,130,91,180,290,300,71,210,41,200,111]","190","42","54.02524144983132","[54.02524144983132]","[12.02524144983132]","[10]","[120,30,30,30,120,120,120,30,300]","0","36","0","147.00300001190044","11.527000023867004","16","[[[""img/mask65.png""],[""img/mask31.png""],[""img/mask75.png""],[""img/mask29.png""],[""img/mask73.png""],[""img/mask79.png""],[""img/mask44.png""],[""img/mask92.png""],[""img/mask31.png""],[""img/mask8.png""],[""img/mask47.png""],[""img/mask32.png""],[""img/mask23.png""],[""img/mask20.png""],[""img/mask89.png""],[""img/mask71.png""],[""img/mask45.png""],[""img/mask56.png""],[""img/mask77.png""],[""img/mask48.png""],[""img/mask61.png""],[""img/mask48.png""],[""img/mask4.png""],[""img/mask6.png""],[""img/mask67.png""],[""img/mask100.png""],[""img/mask55.png""],[""img/mask36.png""],[""img/mask72.png""],[""img/mask3.png""],[""img/mask40.png""],[""img/mask18.png""],[""img/mask38.png""],[""img/mask35.png""],[""img/mask21.png""],[""img/mask96.png""]]]","","[10,22,34,23,8,29,33,7,19,25,2,9,1,17,14,18,35,26,6,3,21,11,16,31,28,12,5,0,13,4,27,30,20,15,24,32]","main","42","many-guess-6"
"","","","","","html-keyboard-response","65","431018","0.0-10.0-0.23","62d0a258e5efefa14eb29647","640759fa512f630a2bdc333d","64077ce8a83d6474d024a7ad","null","","null","","","","","","","","","","","","","","","","","","","fixation","",""
"","","","","","many-guess-6","66","436202","0.0-10.0-1.23-0.23","62d0a258e5efefa14eb29647","640759fa512f630a2bdc333d","64077ce8a83d6474d024a7ad","[3264.900000035763]","","","[4,35,26,11,1,12,21,8,2,28,32,6,22,10,3,17,7,5,0,27,15,9,19,20,33,18,25,29,24,31,34,14,16,23,30,13]","[279,209,70,259,189,50,269,159,10,60,30,149,110,179,80,129,329,90,219,100,40,169,249,359,20,139,299,349,289,199,339,119,319,239,309,229]","279","74","110.62435455923048","[110.62435455923048]","[36.62435455923048]","[35]","[300,210,210,30,30,300,120,210,120]","0","36","0","181.4070000119391","16.62699999997858","16","[[[""img/mask74.png""],[""img/mask27.png""],[""img/mask99.png""],[""img/mask93.png""],[""img/mask61.png""],[""img/mask48.png""],[""img/mask14.png""],[""img/mask49.png""],[""img/mask81.png""],[""img/mask70.png""],[""img/mask24.png""],[""img/mask83.png""],[""img/mask54.png""],[""img/mask45.png""],[""img/mask62.png""],[""img/mask29.png""],[""img/mask61.png""],[""img/mask22.png""],[""img/mask76.png""],[""img/mask81.png""],[""img/mask8.png""],[""img/mask57.png""],[""img/mask59.png""],[""img/mask47.png""],[""img/mask22.png""],[""img/mask89.png""],[""img/mask40.png""],[""img/mask36.png""],[""img/mask85.png""],[""img/mask78.png""],[""img/mask16.png""],[""img/mask66.png""],[""img/mask94.png""],[""img/mask57.png""],[""img/mask73.png""],[""img/mask97.png""]]]","","[4,35,26,11,1,12,21,8,2,28,32,6,22,10,3,17,7,5,0,27,15,9,19,20,33,18,25,29,24,31,34,14,16,23,30,13]","main","74","many-guess-6"
"","","","","","html-keyboard-response","67","436705","0.0-10.0-0.24","62d0a258e5efefa14eb29647","640759fa512f630a2bdc333d","64077ce8a83d6474d024a7ad","null","","null","","","","","","","","","","","","","","","","","","","fixation","",""
"","","","","","many-guess-6","68","441018","0.0-10.0-1.24-0.24","62d0a258e5efefa14eb29647","640759fa512f630a2bdc333d","64077ce8a83d6474d024a7ad","[2365.7000000476837]","","","[15,23,16,0,8,7,12,32,22,26,17,6,24,34,29,31,20,30,4,5,21,18,11,10,14,2,19,33,1,3,27,9,13,35,28,25]","[147,246,7,47,286,296,187,67,226,57,197,17,256,97,107,326,127,117,177,346,27,207,266,157,37,77,87,316,276,336,356,167,216,137,236,306]","147","328","63.51749157085749","[63.51749157085749]","[95.51749157085749]","[94]","[30,120,210,30,210,300,210,300,300]","0","36","0","147.80500002385816","18.109000035736244","16","[[[""img/mask39.png""],[""img/mask73.png""],[""img/mask13.png""],[""img/mask17.png""],[""img/mask6.png""],[""img/mask13.png""],[""img/mask25.png""],[""img/mask47.png""],[""img/mask39.png""],[""img/mask22.png""],[""img/mask66.png""],[""img/mask10.png""],[""img/mask77.png""],[""img/mask16.png""],[""img/mask78.png""],[""img/mask4.png""],[""img/mask67.png""],[""img/mask25.png""],[""img/mask29.png""],[""img/mask48.png""],[""img/mask96.png""],[""img/mask76.png""],[""img/mask71.png""],[""img/mask73.png""],[""img/mask75.png""],[""img/mask15.png""],[""img/mask24.png""],[""img/mask98.png""],[""img/mask26.png""],[""img/mask52.png""],[""img/mask58.png""],[""img/mask62.png""],[""img/mask11.png""],[""img/mask18.png""],[""img/mask89.png""],[""img/mask77.png""]]]","","[15,23,16,0,8,7,12,32,22,26,17,6,24,34,29,31,20,30,4,5,21,18,11,10,14,2,19,33,1,3,27,9,13,35,28,25]","main","328","many-guess-6"
"","","","","","html-keyboard-response","69","441522","0.0-10.0-0.25","62d0a258e5efefa14eb29647","640759fa512f630a2bdc333d","64077ce8a83d6474d024a7ad","null","","null","","","","","","","","","","","","","","","","","","","fixation","",""
"","","","","","color-precision2","70","445225","0.0-10.0-1.25-0.25","62d0a258e5efefa14eb29647","640759fa512f630a2bdc333d","64077ce8a83d6474d024a7ad","[671.3999999761581]","","","[10]","[32]","32","19","52.366302473783215","[52.366302473783215]","[33.366302473783215]","[32]","0","0","1","0","145.1920000477112","1001.0430000119377","1000","[[[""img/mask88.png""]]]","","","main","19","color-precision2"
"","","","","","html-keyboard-response","71","445730","0.0-10.0-0.26","62d0a258e5efefa14eb29647","640759fa512f630a2bdc333d","64077ce8a83d6474d024a7ad","null","","null","","","","","","","","","","","","","","","","","","","fixation","",""
"","","","","","color-precision2","72","448857","0.0-10.0-1.26-0.26","62d0a258e5efefa14eb29647","640759fa512f630a2bdc333d","64077ce8a83d6474d024a7ad","[486]","","","[19]","[221]","221","327","171.61530434975182","[171.61530434975182]","[204.61530434975182]","[204]","0","0","1","0","146.23300001194002","996.7239999999874","1000","[[[""img/mask7.png""]]]","","","main","327","color-precision2"
"","","","","","html-keyboard-response","73","449359","0.0-10.0-0.27","62d0a258e5efefa14eb29647","640759fa512f630a2bdc333d","64077ce8a83d6474d024a7ad","null","","null","","","","","","","","","","","","","","","","","","","fixation","",""
"","","","","","color-precision2","74","454314","0.0-10.0-1.27-0.27","62d0a258e5efefa14eb29647","640759fa512f630a2bdc333d","64077ce8a83d6474d024a7ad","[960.1999999880791]","","","[22]","[109]","109","17","125.27585824579072","[125.27585824579072]","[108.27585824579072]","[107]","0","0","1","0","146.0770000476623","1003.2340000119293","1000","[[[""img/mask85.png""]]]","","","main","17","color-precision2"
"","","","","","html-keyboard-response","75","454817","0.0-10.0-0.28","62d0a258e5efefa14eb29647","640759fa512f630a2bdc333d","64077ce8a83d6474d024a7ad","null","","null","","","","","","","","","","","","","","","","","","","fixation","",""
"","","","","","many-guess-6","76","458753","0.0-10.0-1.28-0.28","62d0a258e5efefa14eb29647","640759fa512f630a2bdc333d","64077ce8a83d6474d024a7ad","[1902.6000000238419]","","","[31,7,5,16,10,13,30,29,12,25,4,17,28,18,23,14,21,11,3,9,0,20,34,24,2,26,6,1,15,35,8,27,32,19,22,33]","[230,140,210,40,150,60,309,130,10,190,30,289,160,220,20,70,349,279,339,170,50,299,259,240,329,100,200,319,90,180,110,120,359,80,269,249]","230","177","44.75702499947821","[44.75702499947821]","[227.7570249994782]","[227]","[210,300,210,30,120,300,30,300,30]","0","36","0","148.30200004769722","22.678000000014435","16","[[[""img/mask46.png""],[""img/mask81.png""],[""img/mask62.png""],[""img/mask25.png""],[""img/mask3.png""],[""img/mask29.png""],[""img/mask17.png""],[""img/mask68.png""],[""img/mask26.png""],[""img/mask85.png""],[""img/mask11.png""],[""img/mask54.png""],[""img/mask99.png""],[""img/mask90.png""],[""img/mask86.png""],[""img/mask39.png""],[""img/mask8.png""],[""img/mask78.png""],[""img/mask38.png""],[""img/mask81.png""],[""img/mask90.png""],[""img/mask90.png""],[""img/mask89.png""],[""img/mask77.png""],[""img/mask75.png""],[""img/mask14.png""],[""img/mask73.png""],[""img/mask63.png""],[""img/mask40.png""],[""img/mask98.png""],[""img/mask54.png""],[""img/mask41.png""],[""img/mask29.png""],[""img/mask81.png""],[""img/mask83.png""],[""img/mask4.png""]]]","","[31,7,5,16,10,13,30,29,12,25,4,17,28,18,23,14,21,11,3,9,0,20,34,24,2,26,6,1,15,35,8,27,32,19,22,33]","main","177","many-guess-6"
"","","","","","html-keyboard-response","77","459256","0.0-10.0-0.29","62d0a258e5efefa14eb29647","640759fa512f630a2bdc333d","64077ce8a83d6474d024a7ad","null","","null","","","","","","","","","","","","","","","","","","","fixation","",""
"","","","","","many-guess-6","78","463531","0.0-10.0-1.29-0.29","62d0a258e5efefa14eb29647","640759fa512f630a2bdc333d","64077ce8a83d6474d024a7ad","[2468.199999988079]","","","[23,31,22,14,4,17,26,18,2,24,19,15,6,35,27,12,34,13,32,21,11,0,3,33,9,16,30,28,29,1,25,8,20,7,10,5]","[66,56,355,36,6,156,185,96,305,176,136,235,265,315,86,116,345,225,46,146,195,255,275,166,126,76,325,335,215,205,295,106,16,285,26,245]","66","261","58.94387085317208","[58.94387085317208]","[157.9438708531721]","[156]","[300,210,210,210,300,300,120,120,120]","0","36","0","144.50699999998324","9.07000004767906","16","[[[""img/mask25.png""],[""img/mask15.png""],[""img/mask53.png""],[""img/mask70.png""],[""img/mask3.png""],[""img/mask72.png""],[""img/mask68.png""],[""img/mask95.png""],[""img/mask88.png""],[""img/mask84.png""],[""img/mask76.png""],[""img/mask81.png""],[""img/mask75.png""],[""img/mask87.png""],[""img/mask22.png""],[""img/mask52.png""],[""img/mask20.png""],[""img/mask20.png""],[""img/mask10.png""],[""img/mask97.png""],[""img/mask36.png""],[""img/mask49.png""],[""img/mask87.png""],[""img/mask55.png""],[""img/mask66.png""],[""img/mask88.png""],[""img/mask88.png""],[""img/mask22.png""],[""img/mask61.png""],[""img/mask81.png""],[""img/mask81.png""],[""img/mask52.png""],[""img/mask85.png""],[""img/mask64.png""],[""img/mask7.png""],[""img/mask75.png""]]]","","[23,31,22,14,4,17,26,18,2,24,19,15,6,35,27,12,34,13,32,21,11,0,3,33,9,16,30,28,29,1,25,8,20,7,10,5]","main","261","many-guess-6"
"","","","","","html-keyboard-response","79","464035","0.0-10.0-0.30","62d0a258e5efefa14eb29647","640759fa512f630a2bdc333d","64077ce8a83d6474d024a7ad","null","","null","","","","","","","","","","","","","","","","","","","fixation","",""
"","","","","","color-precision2","80","468921","0.0-10.0-1.30-0.30","62d0a258e5efefa14eb29647","640759fa512f630a2bdc333d","64077ce8a83d6474d024a7ad","[1387.5999999642372]","","","[14]","[140]","140","27","176.02788923737498","[176.02788923737498]","[149.02788923737498]","[148]","0","0","1","0","146.85500002384651","1004.5460000477033","1000","[[[""img/mask16.png""]]]","","","main","27","color-precision2"
"","","","","","html-keyboard-response","81","469425","0.0-10.0-0.31","62d0a258e5efefa14eb29647","640759fa512f630a2bdc333d","64077ce8a83d6474d024a7ad","null","","null","","","","","","","","","","","","","","","","","","","fixation","",""
"","","","","","many-guess-6","82","473730","0.0-10.0-1.31-0.31","62d0a258e5efefa14eb29647","640759fa512f630a2bdc333d","64077ce8a83d6474d024a7ad","[2196]","","","[34,3,27,14,29,6,8,19,21,22,13,28,25,2,15,11,17,18,10,20,1,35,0,32,16,30,12,9,33,24,26,31,23,5,7,4]","[104,134,354,94,314,124,74,284,244,64,5,224,234,144,34,274,54,154,184,114,214,84,304,24,204,194,344,324,294,164,44,334,254,15,264,174]","104","208","41.995174440543956","[41.995174440543956]","[193.99517444054396]","[193]","[210,30,120,210,120,210,210,300,30]","0","36","0","148.80900000000838","13.381000011926517","16","[[[""img/mask61.png""],[""img/mask72.png""],[""img/mask20.png""],[""img/mask62.png""],[""img/mask63.png""],[""img/mask3.png""],[""img/mask13.png""],[""img/mask99.png""],[""img/mask73.png""],[""img/mask38.png""],[""img/mask54.png""],[""img/mask88.png""],[""img/mask95.png""],[""img/mask23.png""],[""img/mask62.png""],[""img/mask33.png""],[""img/mask65.png""],[""img/mask80.png""],[""img/mask84.png""],[""img/mask100.png""],[""img/mask5.png""],[""img/mask19.png""],[""img/mask31.png""],[""img/mask74.png""],[""img/mask63.png""],[""img/mask39.png""],[""img/mask87.png""],[""img/mask85.png""],[""img/mask74.png""],[""img/mask52.png""],[""img/mask55.png""],[""img/mask100.png""],[""img/mask99.png""],[""img/mask8.png""],[""img/mask47.png""],[""img/mask100.png""]]]","","[34,3,27,14,29,6,8,19,21,22,13,28,25,2,15,11,17,18,10,20,1,35,0,32,16,30,12,9,33,24,26,31,23,5,7,4]","main","208","many-guess-6"
"","","","","","html-keyboard-response","83","474233","0.0-10.0-0.32","62d0a258e5efefa14eb29647","640759fa512f630a2bdc333d","64077ce8a83d6474d024a7ad","null","","null","","","","","","","","","","","","","","","","","","","fixation","",""
"","","","","","color-precision2","84","478652","0.0-10.0-1.32-0.32","62d0a258e5efefa14eb29647","640759fa512f630a2bdc333d","64077ce8a83d6474d024a7ad","[849.5]","","","[2]","[239]","239","307","153.5958541584612","[153.5958541584612]","[206.5958541584612]","[205]","0","0","1","0","144.6010000476963","998.1930000357679","1000","[[[""img/mask31.png""]]]","","","main","307","color-precision2"
"","","","","","html-keyboard-response","85","479154","0.0-10.0-0.33","62d0a258e5efefa14eb29647","640759fa512f630a2bdc333d","64077ce8a83d6474d024a7ad","null","","null","","","","","","","","","","","","","","","","","","","fixation","",""
"","","","","","color-precision2","86","484488","0.0-10.0-1.33-0.33","62d0a258e5efefa14eb29647","640759fa512f630a2bdc333d","64077ce8a83d6474d024a7ad","[1536.699999988079]","","","[8]","[171]","171","84","276.7859116992969","[276.7859116992969]","[192.7859116992969]","[194]","0","0","1","0","145.06900004768977","996.1080000000075","1000","[[[""img/mask88.png""]]]","","","main","84","color-precision2"
"","","","","","html-keyboard-response","87","484990","0.0-10.0-0.34","62d0a258e5efefa14eb29647","640759fa512f630a2bdc333d","64077ce8a83d6474d024a7ad","null","","null","","","","","","","","","","","","","","","","","","","fixation","",""
"","","","","","color-precision2","88","488720","0.0-10.0-1.34-0.34","62d0a258e5efefa14eb29647","640759fa512f630a2bdc333d","64077ce8a83d6474d024a7ad","[354.5]","","","[18]","[184]","184","5","174.11746221787448","[174.11746221787448]","[169.11746221787448]","[168]","0","0","1","0","145.89899999997579","1002.185999999987","1000","[[[""img/mask49.png""]]]","","","main","5","color-precision2"
"","","","","","html-keyboard-response","89","489227","0.0-10.0-0.35","62d0a258e5efefa14eb29647","640759fa512f630a2bdc333d","64077ce8a83d6474d024a7ad","null","","null","","","","","","","","","","","","","","","","","","","fixation","",""
"","","","","","color-precision2","90","493440","0.0-10.0-1.35-0.35","62d0a258e5efefa14eb29647","640759fa512f630a2bdc333d","64077ce8a83d6474d024a7ad","[808.3000000119209]","","","[19]","[333]","333","22","12.123310752537108","[12.123310752537108]","[350.1233107525371]","[349]","0","0","1","0","146.8649999999907","1003.3819999999832","1000","[[[""img/mask59.png""]]]","","","main","22","color-precision2"
"","","","","","html-keyboard-response","91","493954","0.0-10.0-0.36","62d0a258e5efefa14eb29647","640759fa512f630a2bdc333d","64077ce8a83d6474d024a7ad","null","","null","","","","","","","","","","","","","","","","","","","fixation","",""
"","","","","","color-precision2","92","497907","0.0-10.0-1.36-0.36","62d0a258e5efefa14eb29647","640759fa512f630a2bdc333d","64077ce8a83d6474d024a7ad","[689.3999999761581]","","","[26]","[239]","239","40","260.7749351091267","[260.7749351091267]","[220.77493510912672]","[221]","0","0","1","0","143.83600004768232","1000.233000035747","1000","[[[""img/mask31.png""]]]","","","main","40","color-precision2"
"","","","","","html-keyboard-response","93","498414","0.0-10.0-0.37","62d0a258e5efefa14eb29647","640759fa512f630a2bdc333d","64077ce8a83d6474d024a7ad","null","","null","","","","","","","","","","","","","","","","","","","fixation","",""
"","","","","","color-precision2","94","502993","0.0-10.0-1.37-0.37","62d0a258e5efefa14eb29647","640759fa512f630a2bdc333d","64077ce8a83d6474d024a7ad","[960.8999999761581]","","","[7]","[203]","203","35","229.466847777864","[229.466847777864]","[194.466847777864]","[194]","0","0","1","0","155.28400002385024","980.6100000357837","1000","[[[""img/mask13.png""]]]","","","main","35","color-precision2"
"","","","","","html-keyboard-response","95","503505","0.0-10.0-0.38","62d0a258e5efefa14eb29647","640759fa512f630a2bdc333d","64077ce8a83d6474d024a7ad","null","","null","","","","","","","","","","","","","","","","","","","fixation","",""
"","","","","","color-precision2","96","507601","0.0-10.0-1.38-0.38","62d0a258e5efefa14eb29647","640759fa512f630a2bdc333d","64077ce8a83d6474d024a7ad","[1048.5]","","","[32]","[15]","15","210","198.8436954101196","[198.8436954101196]","[348.8436954101196]","[348]","0","0","1","0","144.1670000119484","1008.4970000119065","1000","[[[""img/mask100.png""]]]","","","main","210","color-precision2"
"","","","","","html-keyboard-response","97","511092","0.0-10.0-0.39","62d0a258e5efefa14eb29647","640759fa512f630a2bdc333d","64077ce8a83d6474d024a7ad","3488.600000023842","Wow! You've completed 40 out of 180 trials! </p> <p>  </p><p> Take a quick break, then press any key when you're ready to continue."," ","","","","","","","","","","","","","","","","","","","fixation","",""
"","","","","","many-guess-6","98","515753","0.0-10.0-1.39-0.39","62d0a258e5efefa14eb29647","640759fa512f630a2bdc333d","64077ce8a83d6474d024a7ad","[2147.199999988079]","","","[7,31,15,11,1,18,6,29,30,13,3,8,24,10,32,14,19,5,28,26,12,16,25,2,27,4,23,9,34,33,35,0,20,17,21,22]","[345,315,275,335,126,76,106,166,206,186,236,256,86,246,146,16,305,26,325,176,116,156,66,46,56,295,6,196,285,226,265,36,355,136,96,216]","345","34","53.37164510906534","[53.37164510906534]","[19.37164510906534]","[18]","[30,210,210,30,300,210,30,120,120]","0","36","0","148.37000002386048","8.501000035787001","16","[[[""img/mask61.png""],[""img/mask1.png""],[""img/mask27.png""],[""img/mask17.png""],[""img/mask81.png""],[""img/mask48.png""],[""img/mask89.png""],[""img/mask72.png""],[""img/mask13.png""],[""img/mask32.png""],[""img/mask41.png""],[""img/mask26.png""],[""img/mask60.png""],[""img/mask74.png""],[""img/mask54.png""],[""img/mask33.png""],[""img/mask95.png""],[""img/mask9.png""],[""img/mask52.png""],[""img/mask82.png""],[""img/mask49.png""],[""img/mask9.png""],[""img/mask3.png""],[""img/mask71.png""],[""img/mask83.png""],[""img/mask60.png""],[""img/mask76.png""],[""img/mask64.png""],[""img/mask79.png""],[""img/mask100.png""],[""img/mask66.png""],[""img/mask82.png""],[""img/mask10.png""],[""img/mask86.png""],[""img/mask32.png""],[""img/mask98.png""]]]","","[7,31,15,11,1,18,6,29,30,13,3,8,24,10,32,14,19,5,28,26,12,16,25,2,27,4,23,9,34,33,35,0,20,17,21,22]","main","34","many-guess-6"
"","","","","","html-keyboard-response","99","516271","0.0-10.0-0.40","62d0a258e5efefa14eb29647","640759fa512f630a2bdc333d","64077ce8a83d6474d024a7ad","null","","null","","","","","","","","","","","","","","","","","","","fixation","",""
"","","","","","color-precision2","100","520897","0.0-10.0-1.40-0.40","62d0a258e5efefa14eb29647","640759fa512f630a2bdc333d","64077ce8a83d6474d024a7ad","[1262.300000011921]","","","[12]","[7]","7","322","323.0749740749126","[323.0749740749126]","[1.074974074912575]","[1]","0","0","1","0","143.76100001193117","997.3940000119619","1000","[[[""img/mask74.png""]]]","","","main","322","color-precision2"
"","","","","","html-keyboard-response","101","521400","0.0-10.0-0.41","62d0a258e5efefa14eb29647","640759fa512f630a2bdc333d","64077ce8a83d6474d024a7ad","null","","null","","","","","","","","","","","","","","","","","","","fixation","",""
"","","","","","color-precision2","102","525688","0.0-10.0-1.41-0.41","62d0a258e5efefa14eb29647","640759fa512f630a2bdc333d","64077ce8a83d6474d024a7ad","[622.3000000119209]","","","[21]","[100]","100","149","242.6048456095573","[242.6048456095573]","[93.60484560955729]","[94]","0","0","1","0","146.86000003572553","995.4729999999981","1000","[[[""img/mask92.png""]]]","","","main","149","color-precision2"
"","","","","","html-keyboard-response","103","526196","0.0-10.0-0.42","62d0a258e5efefa14eb29647","640759fa512f630a2bdc333d","64077ce8a83d6474d024a7ad","null","","null","","","","","","","","","","","","","","","","","","","fixation","",""
"","","","","","many-guess-6","104","537761","0.0-10.0-1.42-0.42","62d0a258e5efefa14eb29647","640759fa512f630a2bdc333d","64077ce8a83d6474d024a7ad","[3447.900000035763]","","","[20,2,0,24,12,9,26,30,8,28,15,34,13,14,23,10,4,25,22,16,21,33,11,5,31,19,29,3,27,18,1,32,6,35,17,7]","[83,223,13,312,213,262,322,103,43,183,193,282,332,33,133,272,63,123,23,53,292,252,73,93,242,203,232,113,3,163,153,302,352,143,173,342]","83","37","132.34786786096274","[132.34786786096274]","[95.34786786096274]","[94]","[300,300,300,300,210,120,120,30,210]","0","36","0","148.2410000237869","10.236000035773031","16","[[[""img/mask25.png""],[""img/mask76.png""],[""img/mask31.png""],[""img/mask34.png""],[""img/mask10.png""],[""img/mask15.png""],[""img/mask38.png""],[""img/mask78.png""],[""img/mask77.png""],[""img/mask48.png""],[""img/mask84.png""],[""img/mask83.png""],[""img/mask55.png""],[""img/mask81.png""],[""img/mask30.png""],[""img/mask68.png""],[""img/mask2.png""],[""img/mask18.png""],[""img/mask19.png""],[""img/mask70.png""],[""img/mask46.png""],[""img/mask73.png""],[""img/mask96.png""],[""img/mask29.png""],[""img/mask27.png""],[""img/mask97.png""],[""img/mask10.png""],[""img/mask64.png""],[""img/mask7.png""],[""img/mask34.png""],[""img/mask38.png""],[""img/mask94.png""],[""img/mask52.png""],[""img/mask34.png""],[""img/mask47.png""],[""img/mask43.png""]]]","","[20,2,0,24,12,9,26,30,8,28,15,34,13,14,23,10,4,25,22,16,21,33,11,5,31,19,29,3,27,18,1,32,6,35,17,7]","main","37","many-guess-6"
"","","","","","html-keyboard-response","105","538277","0.0-10.0-0.43","62d0a258e5efefa14eb29647","640759fa512f630a2bdc333d","64077ce8a83d6474d024a7ad","null","","null","","","","","","","","","","","","","","","","","","","fixation","",""
"","","","","","color-precision2","106","559658","0.0-10.0-1.43-0.43","62d0a258e5efefa14eb29647","640759fa512f630a2bdc333d","64077ce8a83d6474d024a7ad","[427.30000001192093]","","","[9]","[206]","206","298","132.7985249591977","[132.7985249591977]","[194.7985249591977]","[193]","0","0","1","0","148.20000002381857","1006.3050000476651","1000","[[[""img/mask11.png""]]]","","","main","298","color-precision2"
"","","","","","html-keyboard-response","107","560161","0.0-10.0-0.44","62d0a258e5efefa14eb29647","640759fa512f630a2bdc333d","64077ce8a83d6474d024a7ad","null","","null","","","","","","","","","","","","","","","","","","","fixation","",""
"","","","","","color-precision2","108","573295","0.0-10.0-1.44-0.44","62d0a258e5efefa14eb29647","640759fa512f630a2bdc333d","64077ce8a83d6474d024a7ad","[9798.100000023842]","","","[11]","[46]","46","33","123.14554374900895","[123.14554374900895]","[90.14554374900895]","[88]","0","0","1","0","145.82100001187064","1005.5280000237981","1000","[[[""img/mask34.png""]]]","","","main","33","color-precision2"
"","","","","","html-keyboard-response","109","573800","0.0-10.0-0.45","62d0a258e5efefa14eb29647","640759fa512f630a2bdc333d","64077ce8a83d6474d024a7ad","null","","null","","","","","","","","","","","","","","","","","","","fixation","",""
"","","","","","color-precision2","110","577512","0.0-10.0-1.45-0.45","62d0a258e5efefa14eb29647","640759fa512f630a2bdc333d","64077ce8a83d6474d024a7ad","[384.89999997615814]","","","[25]","[344]","344","49","","[null]","[null]","[356]","0","0","1","0","146.67500004766043","998.7570000477135","1000","[[[""img/mask1.png""]]]","","","main","49","color-precision2"
"","","","","","html-keyboard-response","111","578015","0.0-10.0-0.46","62d0a258e5efefa14eb29647","640759fa512f630a2bdc333d","64077ce8a83d6474d024a7ad","null","","null","","","","","","","","","","","","","","","","","","","fixation","",""
"","","","","","many-guess-6","112","584033","0.0-10.0-1.46-0.46","62d0a258e5efefa14eb29647","640759fa512f630a2bdc333d","64077ce8a83d6474d024a7ad","[3533.399999976158]","","","[35,25,20,15,7,26,21,32,29,11,2,5,23,30,17,34,33,9,27,13,18,1,0,3,10,24,6,14,4,19,8,22,28,31,12,16]","[299,50,159,209,129,279,269,40,70,30,289,99,89,139,149,359,179,339,119,109,309,249,319,259,60,239,10,349,329,189,219,169,199,20,80,229]","299","284","63.389712475497916","[63.389712475497916]","[139.3897124754979]","[137]","[30,120,300,30,120,300,120,30,210]","0","36","0","148.49600002379157","31.113000047625974","16","[[[""img/mask52.png""],[""img/mask68.png""],[""img/mask67.png""],[""img/mask76.png""],[""img/mask79.png""],[""img/mask91.png""],[""img/mask2.png""],[""img/mask10.png""],[""img/mask35.png""],[""img/mask5.png""],[""img/mask72.png""],[""img/mask60.png""],[""img/mask17.png""],[""img/mask78.png""],[""img/mask75.png""],[""img/mask10.png""],[""img/mask94.png""],[""img/mask91.png""],[""img/mask64.png""],[""img/mask84.png""],[""img/mask92.png""],[""img/mask99.png""],[""img/mask17.png""],[""img/mask90.png""],[""img/mask99.png""],[""img/mask100.png""],[""img/mask28.png""],[""img/mask25.png""],[""img/mask35.png""],[""img/mask30.png""],[""img/mask11.png""],[""img/mask87.png""],[""img/mask24.png""],[""img/mask88.png""],[""img/mask79.png""],[""img/mask81.png""]]]","","[35,25,20,15,7,26,21,32,29,11,2,5,23,30,17,34,33,9,27,13,18,1,0,3,10,24,6,14,4,19,8,22,28,31,12,16]","main","284","many-guess-6"
"","","","","","html-keyboard-response","113","584537","0.0-10.0-0.47","62d0a258e5efefa14eb29647","640759fa512f630a2bdc333d","64077ce8a83d6474d024a7ad","null","","null","","","","","","","","","","","","","","","","","","","fixation","",""
"","","","","","many-guess-6","114","588217","0.0-10.0-1.47-0.47","62d0a258e5efefa14eb29647","640759fa512f630a2bdc333d","64077ce8a83d6474d024a7ad","[1772.3999999761581]","","","[24,25,1,21,6,26,9,27,28,0,23,4,29,20,33,22,17,12,5,11,13,32,18,31,35,14,19,2,10,34,30,3,7,15,16,8]","[48,267,68,38,127,187,337,167,207,317,257,227,347,197,157,137,88,8,277,307,108,18,357,247,237,78,58,28,177,98,147,297,287,327,217,118]","48","43","59.59810087468258","[59.59810087468258]","[16.59810087468258]","[15]","[210,30,300,210,210,120,30,120,30]","0","36","0","148.72100001189392","10.116000011912547","16","[[[""img/mask32.png""],[""img/mask6.png""],[""img/mask55.png""],[""img/mask50.png""],[""img/mask81.png""],[""img/mask82.png""],[""img/mask71.png""],[""img/mask32.png""],[""img/mask59.png""],[""img/mask94.png""],[""img/mask80.png""],[""img/mask55.png""],[""img/mask77.png""],[""img/mask71.png""],[""img/mask49.png""],[""img/mask79.png""],[""img/mask20.png""],[""img/mask100.png""],[""img/mask29.png""],[""img/mask66.png""],[""img/mask32.png""],[""img/mask55.png""],[""img/mask86.png""],[""img/mask18.png""],[""img/mask32.png""],[""img/mask64.png""],[""img/mask2.png""],[""img/mask65.png""],[""img/mask48.png""],[""img/mask57.png""],[""img/mask70.png""],[""img/mask65.png""],[""img/mask39.png""],[""img/mask29.png""],[""img/mask22.png""],[""img/mask79.png""]]]","","[24,25,1,21,6,26,9,27,28,0,23,4,29,20,33,22,17,12,5,11,13,32,18,31,35,14,19,2,10,34,30,3,7,15,16,8]","main","43","many-guess-6"
"","","","","","html-keyboard-response","115","588728","0.0-10.0-0.48","62d0a258e5efefa14eb29647","640759fa512f630a2bdc333d","64077ce8a83d6474d024a7ad","null","","null","","","","","","","","","","","","","","","","","","","fixation","",""
"","","","","","many-guess-6","116","593010","0.0-10.0-1.48-0.48","62d0a258e5efefa14eb29647","640759fa512f630a2bdc333d","64077ce8a83d6474d024a7ad","[1731.2000000476837]","","","[16,20,33,25,35,14,11,32,0,8,30,12,19,6,28,18,4,5,2,21,7,3,24,9,1,27,17,34,13,26,23,22,31,15,29,10]","[282,292,163,73,302,212,222,133,53,33,23,232,13,203,83,252,332,113,173,183,63,322,123,93,43,143,262,193,153,103,352,342,242,3,272,312]","282","263","57.23926376295779","[57.23926376295779]","[154.2392637629578]","[152]","[120,30,120,120,300,30,120,210,120]","0","36","0","148.14000000001397","23.5310000119498","16","[[[""img/mask46.png""],[""img/mask73.png""],[""img/mask78.png""],[""img/mask94.png""],[""img/mask83.png""],[""img/mask36.png""],[""img/mask92.png""],[""img/mask69.png""],[""img/mask32.png""],[""img/mask35.png""],[""img/mask79.png""],[""img/mask55.png""],[""img/mask97.png""],[""img/mask91.png""],[""img/mask40.png""],[""img/mask95.png""],[""img/mask63.png""],[""img/mask17.png""],[""img/mask4.png""],[""img/mask72.png""],[""img/mask8.png""],[""img/mask23.png""],[""img/mask65.png""],[""img/mask90.png""],[""img/mask2.png""],[""img/mask68.png""],[""img/mask95.png""],[""img/mask12.png""],[""img/mask31.png""],[""img/mask43.png""],[""img/mask73.png""],[""img/mask78.png""],[""img/mask43.png""],[""img/mask56.png""],[""img/mask90.png""],[""img/mask96.png""]]]","","[16,20,33,25,35,14,11,32,0,8,30,12,19,6,28,18,4,5,2,21,7,3,24,9,1,27,17,34,13,26,23,22,31,15,29,10]","main","263","many-guess-6"
"","","","","","html-keyboard-response","117","593513","0.0-10.0-0.49","62d0a258e5efefa14eb29647","640759fa512f630a2bdc333d","64077ce8a83d6474d024a7ad","null","","null","","","","","","","","","","","","","","","","","","","fixation","",""
"","","","","","many-guess-6","118","598265","0.0-10.0-1.49-0.49","62d0a258e5efefa14eb29647","640759fa512f630a2bdc333d","64077ce8a83d6474d024a7ad","[2870.399999976158]","","","[4,7,13,17,2,27,16,31,14,12,10,35,30,28,9,5,23,18,21,25,0,22,1,11,8,6,33,15,29,20,24,19,3,34,32,26]","[254,154,263,283,353,54,24,144,194,44,104,343,34,4,74,323,333,114,204,94,134,214,174,244,313,14,84,293,234,164,273,184,64,224,124,303]","254","0","141.3521896753312","[141.3521896753312]","[141.3521896753312]","[140]","[120,300,300,30,300,30,30,300,210]","0","36","0","148.03599999996368","15.729000000050291","16","[[[""img/mask1.png""],[""img/mask90.png""],[""img/mask52.png""],[""img/mask16.png""],[""img/mask63.png""],[""img/mask45.png""],[""img/mask81.png""],[""img/mask75.png""],[""img/mask16.png""],[""img/mask27.png""],[""img/mask11.png""],[""img/mask93.png""],[""img/mask62.png""],[""img/mask3.png""],[""img/mask48.png""],[""img/mask36.png""],[""img/mask24.png""],[""img/mask57.png""],[""img/mask86.png""],[""img/mask38.png""],[""img/mask25.png""],[""img/mask84.png""],[""img/mask10.png""],[""img/mask12.png""],[""img/mask60.png""],[""img/mask11.png""],[""img/mask7.png""],[""img/mask1.png""],[""img/mask56.png""],[""img/mask60.png""],[""img/mask100.png""],[""img/mask23.png""],[""img/mask32.png""],[""img/mask14.png""],[""img/mask84.png""],[""img/mask100.png""]]]","","[4,7,13,17,2,27,16,31,14,12,10,35,30,28,9,5,23,18,21,25,0,22,1,11,8,6,33,15,29,20,24,19,3,34,32,26]","main","0","many-guess-6"
"","","","","","html-keyboard-response","119","598768","0.0-10.0-0.50","62d0a258e5efefa14eb29647","640759fa512f630a2bdc333d","64077ce8a83d6474d024a7ad","null","","null","","","","","","","","","","","","","","","","","","","fixation","",""
"","","","","","many-guess-6","120","603945","0.0-10.0-1.50-0.50","62d0a258e5efefa14eb29647","640759fa512f630a2bdc333d","64077ce8a83d6474d024a7ad","[3167.300000011921]","","","[16,18,33,1,4,12,2,17,14,6,34,23,19,32,5,0,29,15,28,9,20,7,30,25,26,8,10,21,35,24,3,13,22,27,31,11]","[153,54,94,273,4,333,64,14,183,24,134,44,173,253,163,114,343,213,233,313,323,144,263,84,34,193,74,223,353,124,203,104,293,243,283,303]","153","9","116.14279152948491","[116.14279152948491]","[107.14279152948491]","[105]","[30,210,210,210,30,120,300,300,30]","0","36","0","147.97800004773308","19.235000047716312","16","[[[""img/mask53.png""],[""img/mask56.png""],[""img/mask63.png""],[""img/mask89.png""],[""img/mask70.png""],[""img/mask47.png""],[""img/mask23.png""],[""img/mask51.png""],[""img/mask51.png""],[""img/mask98.png""],[""img/mask90.png""],[""img/mask45.png""],[""img/mask96.png""],[""img/mask44.png""],[""img/mask64.png""],[""img/mask54.png""],[""img/mask62.png""],[""img/mask67.png""],[""img/mask53.png""],[""img/mask68.png""],[""img/mask2.png""],[""img/mask33.png""],[""img/mask65.png""],[""img/mask28.png""],[""img/mask8.png""],[""img/mask70.png""],[""img/mask64.png""],[""img/mask32.png""],[""img/mask29.png""],[""img/mask67.png""],[""img/mask42.png""],[""img/mask93.png""],[""img/mask85.png""],[""img/mask82.png""],[""img/mask54.png""],[""img/mask91.png""]]]","","[16,18,33,1,4,12,2,17,14,6,34,23,19,32,5,0,29,15,28,9,20,7,30,25,26,8,10,21,35,24,3,13,22,27,31,11]","main","9","many-guess-6"
"","","","","","html-keyboard-response","121","604449","0.0-10.0-0.51","62d0a258e5efefa14eb29647","640759fa512f630a2bdc333d","64077ce8a83d6474d024a7ad","null","","null","","","","","","","","","","","","","","","","","","","fixation","",""
"","","","","","many-guess-6","122","608707","0.0-10.0-1.51-0.51","62d0a258e5efefa14eb29647","640759fa512f630a2bdc333d","64077ce8a83d6474d024a7ad","[2311.199999988079]","","","[10,2,31,13,27,0,5,8,22,24,34,18,28,23,11,16,19,20,30,26,29,14,25,4,32,17,6,12,7,15,1,35,3,33,21,9]","[14,303,313,263,283,293,233,203,323,104,223,193,163,353,44,94,143,213,84,34,4,253,153,64,243,124,343,54,24,114,74,134,173,183,333,273]","14","66","114.91344264196431","[114.91344264196431]","[48.91344264196431]","[47]","[300,120,30,30,120,30,30,120,210]","0","36","0","148.8530000000028","8.784000035724603","16","[[[""img/mask66.png""],[""img/mask48.png""],[""img/mask13.png""],[""img/mask69.png""],[""img/mask2.png""],[""img/mask34.png""],[""img/mask95.png""],[""img/mask51.png""],[""img/mask99.png""],[""img/mask20.png""],[""img/mask30.png""],[""img/mask24.png""],[""img/mask43.png""],[""img/mask26.png""],[""img/mask89.png""],[""img/mask41.png""],[""img/mask26.png""],[""img/mask52.png""],[""img/mask53.png""],[""img/mask65.png""],[""img/mask67.png""],[""img/mask2.png""],[""img/mask56.png""],[""img/mask37.png""],[""img/mask85.png""],[""img/mask29.png""],[""img/mask71.png""],[""img/mask22.png""],[""img/mask65.png""],[""img/mask50.png""],[""img/mask92.png""],[""img/mask89.png""],[""img/mask54.png""],[""img/mask17.png""],[""img/mask48.png""],[""img/mask40.png""]]]","","[10,2,31,13,27,0,5,8,22,24,34,18,28,23,11,16,19,20,30,26,29,14,25,4,32,17,6,12,7,15,1,35,3,33,21,9]","main","66","many-guess-6"
"","","","","","html-keyboard-response","123","609211","0.0-10.0-0.52","62d0a258e5efefa14eb29647","640759fa512f630a2bdc333d","64077ce8a83d6474d024a7ad","null","","null","","","","","","","","","","","","","","","","","","","fixation","",""
"","","","","","color-precision2","124","613448","0.0-10.0-1.52-0.52","62d0a258e5efefa14eb29647","640759fa512f630a2bdc333d","64077ce8a83d6474d024a7ad","[978.6000000238419]","","","[29]","[195]","195","87","311.684032170113","[311.684032170113]","[224.68403217011303]","[225]","0","0","1","0","144.20700001192745","999.5620000000345","1000","[[[""img/mask78.png""]]]","","","main","87","color-precision2"
"","","","","","html-keyboard-response","125","613951","0.0-10.0-0.53","62d0a258e5efefa14eb29647","640759fa512f630a2bdc333d","64077ce8a83d6474d024a7ad","null","","null","","","","","","","","","","","","","","","","","","","fixation","",""
"","","","","","many-guess-6","126","618561","0.0-10.0-1.53-0.53","62d0a258e5efefa14eb29647","640759fa512f630a2bdc333d","64077ce8a83d6474d024a7ad","[2318.099999964237]","","","[7,17,16,24,1,30,9,32,35,13,6,10,5,14,20,19,8,29,27,12,34,31,0,18,21,15,33,25,22,28,11,4,23,3,26,2]","[123,263,323,313,183,34,24,14,353,223,54,93,133,44,343,173,333,243,4,283,74,84,213,233,103,193,303,253,113,203,143,64,163,293,273,153]","123","341","43.57283240490932","[43.57283240490932]","[62.57283240490932]","[61]","[120,300,210,300,300,300,300,210,30]","0","36","0","148.37899999995716","21.2470000119647","16","[[[""img/mask68.png""],[""img/mask13.png""],[""img/mask16.png""],[""img/mask60.png""],[""img/mask16.png""],[""img/mask99.png""],[""img/mask22.png""],[""img/mask84.png""],[""img/mask45.png""],[""img/mask9.png""],[""img/mask58.png""],[""img/mask100.png""],[""img/mask21.png""],[""img/mask98.png""],[""img/mask37.png""],[""img/mask94.png""],[""img/mask68.png""],[""img/mask71.png""],[""img/mask49.png""],[""img/mask71.png""],[""img/mask15.png""],[""img/mask15.png""],[""img/mask18.png""],[""img/mask78.png""],[""img/mask60.png""],[""img/mask59.png""],[""img/mask98.png""],[""img/mask23.png""],[""img/mask19.png""],[""img/mask33.png""],[""img/mask49.png""],[""img/mask52.png""],[""img/mask18.png""],[""img/mask58.png""],[""img/mask23.png""],[""img/mask5.png""]]]","","[7,17,16,24,1,30,9,32,35,13,6,10,5,14,20,19,8,29,27,12,34,31,0,18,21,15,33,25,22,28,11,4,23,3,26,2]","main","341","many-guess-6"
"","","","","","html-keyboard-response","127","619065","0.0-10.0-0.54","62d0a258e5efefa14eb29647","640759fa512f630a2bdc333d","64077ce8a83d6474d024a7ad","null","","null","","","","","","","","","","","","","","","","","","","fixation","",""
"","","","","","color-precision2","128","624416","0.0-10.0-1.54-0.54","62d0a258e5efefa14eb29647","640759fa512f630a2bdc333d","64077ce8a83d6474d024a7ad","[2023.5]","","","[25]","[259]","259","201","133.90561615485393","[133.90561615485393]","[292.90561615485393]","[291]","0","0","1","0","146.5110000000568","997.343000035733","1000","[[[""img/mask61.png""]]]","","","main","201","color-precision2"
"","","","","","html-keyboard-response","129","624923","0.0-10.0-0.55","62d0a258e5efefa14eb29647","640759fa512f630a2bdc333d","64077ce8a83d6474d024a7ad","null","","null","","","","","","","","","","","","","","","","","","","fixation","",""
"","","","","","many-guess-6","130","629725","0.0-10.0-1.55-0.55","62d0a258e5efefa14eb29647","640759fa512f630a2bdc333d","64077ce8a83d6474d024a7ad","[2162]","","","[17,32,25,33,16,27,19,9,10,29,23,8,13,0,5,28,26,1,14,3,20,11,22,30,21,6,18,4,15,12,7,34,24,31,2,35]","[54,214,4,293,34,224,64,303,104,244,44,174,313,14,204,134,84,323,283,184,124,144,114,164,343,254,333,234,274,94,264,24,154,74,194,353]","54","345","1.8144976207971835","[1.8144976207971835]","[16.81449762079717]","[16]","[300,210,30,300,210,210,210,300,210]","0","36","0","148.25000004773028","15.417000011890195","16","[[[""img/mask39.png""],[""img/mask69.png""],[""img/mask35.png""],[""img/mask24.png""],[""img/mask52.png""],[""img/mask4.png""],[""img/mask4.png""],[""img/mask35.png""],[""img/mask50.png""],[""img/mask30.png""],[""img/mask36.png""],[""img/mask19.png""],[""img/mask20.png""],[""img/mask100.png""],[""img/mask92.png""],[""img/mask30.png""],[""img/mask38.png""],[""img/mask80.png""],[""img/mask31.png""],[""img/mask97.png""],[""img/mask67.png""],[""img/mask36.png""],[""img/mask40.png""],[""img/mask23.png""],[""img/mask10.png""],[""img/mask15.png""],[""img/mask39.png""],[""img/mask50.png""],[""img/mask21.png""],[""img/mask18.png""],[""img/mask38.png""],[""img/mask22.png""],[""img/mask18.png""],[""img/mask9.png""],[""img/mask76.png""],[""img/mask88.png""]]]","","[17,32,25,33,16,27,19,9,10,29,23,8,13,0,5,28,26,1,14,3,20,11,22,30,21,6,18,4,15,12,7,34,24,31,2,35]","main","345","many-guess-6"
"","","","","","html-keyboard-response","131","630228","0.0-10.0-0.56","62d0a258e5efefa14eb29647","640759fa512f630a2bdc333d","64077ce8a83d6474d024a7ad","null","","null","","","","","","","","","","","","","","","","","","","fixation","",""
"","","","","","many-guess-6","132","635338","0.0-10.0-1.56-0.56","62d0a258e5efefa14eb29647","640759fa512f630a2bdc333d","64077ce8a83d6474d024a7ad","[2862.2999999523163]","","","[5,22,20,14,17,8,21,34,27,12,18,33,6,4,13,2,35,26,24,1,23,19,0,31,10,28,7,32,11,3,16,15,25,9,30,29]","[93,333,83,13,283,263,43,223,243,33,163,23,203,313,353,193,323,183,123,153,143,273,3,133,113,253,73,233,303,103,293,53,173,63,343,213]","93","88","246.29652414661547","[246.29652414661547]","[158.29652414661547]","[158]","[30,30,120,300,30,300,120,210,210]","0","36","0","148.55800001195166","19.413000035798177","16","[[[""img/mask12.png""],[""img/mask28.png""],[""img/mask25.png""],[""img/mask21.png""],[""img/mask9.png""],[""img/mask97.png""],[""img/mask27.png""],[""img/mask80.png""],[""img/mask50.png""],[""img/mask73.png""],[""img/mask92.png""],[""img/mask59.png""],[""img/mask75.png""],[""img/mask67.png""],[""img/mask59.png""],[""img/mask82.png""],[""img/mask19.png""],[""img/mask70.png""],[""img/mask8.png""],[""img/mask79.png""],[""img/mask99.png""],[""img/mask71.png""],[""img/mask42.png""],[""img/mask32.png""],[""img/mask88.png""],[""img/mask18.png""],[""img/mask50.png""],[""img/mask8.png""],[""img/mask19.png""],[""img/mask92.png""],[""img/mask48.png""],[""img/mask37.png""],[""img/mask88.png""],[""img/mask89.png""],[""img/mask79.png""],[""img/mask70.png""]]]","","[5,22,20,14,17,8,21,34,27,12,18,33,6,4,13,2,35,26,24,1,23,19,0,31,10,28,7,32,11,3,16,15,25,9,30,29]","main","88","many-guess-6"
"","","","","","html-keyboard-response","133","635851","0.0-10.0-0.57","62d0a258e5efefa14eb29647","640759fa512f630a2bdc333d","64077ce8a83d6474d024a7ad","null","","null","","","","","","","","","","","","","","","","","","","fixation","",""
"","","","","","many-guess-6","134","639924","0.0-10.0-1.57-0.57","62d0a258e5efefa14eb29647","640759fa512f630a2bdc333d","64077ce8a83d6474d024a7ad","[2212.800000011921]","","","[18,7,6,23,34,2,21,0,31,10,26,22,17,11,35,14,3,33,29,20,4,25,24,19,9,13,15,30,8,32,5,16,28,12,1,27]","[164,15,244,105,35,214,204,95,115,125,135,294,144,304,154,184,284,85,344,45,354,314,234,254,194,5,324,75,334,65,55,174,25,274,224,264]","164","226","312.380117757979","[312.380117757979]","[86.38011775797901]","[87]","[300,30,210,120,210,120,120,120,300]","0","36","0","148.02800002379809","22.242000023834407","16","[[[""img/mask66.png""],[""img/mask36.png""],[""img/mask74.png""],[""img/mask19.png""],[""img/mask83.png""],[""img/mask100.png""],[""img/mask25.png""],[""img/mask43.png""],[""img/mask27.png""],[""img/mask72.png""],[""img/mask15.png""],[""img/mask36.png""],[""img/mask19.png""],[""img/mask1.png""],[""img/mask33.png""],[""img/mask22.png""],[""img/mask85.png""],[""img/mask87.png""],[""img/mask77.png""],[""img/mask42.png""],[""img/mask69.png""],[""img/mask3.png""],[""img/mask51.png""],[""img/mask23.png""],[""img/mask70.png""],[""img/mask63.png""],[""img/mask16.png""],[""img/mask94.png""],[""img/mask35.png""],[""img/mask30.png""],[""img/mask82.png""],[""img/mask56.png""],[""img/mask20.png""],[""img/mask38.png""],[""img/mask47.png""],[""img/mask69.png""]]]","","[18,7,6,23,34,2,21,0,31,10,26,22,17,11,35,14,3,33,29,20,4,25,24,19,9,13,15,30,8,32,5,16,28,12,1,27]","main","226","many-guess-6"
"","","","","","html-keyboard-response","135","640426","0.0-10.0-0.58","62d0a258e5efefa14eb29647","640759fa512f630a2bdc333d","64077ce8a83d6474d024a7ad","null","","null","","","","","","","","","","","","","","","","","","","fixation","",""
"","","","","","many-guess-6","136","644722","0.0-10.0-1.58-0.58","62d0a258e5efefa14eb29647","640759fa512f630a2bdc333d","64077ce8a83d6474d024a7ad","[1895.1000000238419]","","","[20,35,4,12,29,16,6,19,23,0,2,32,3,22,5,30,14,26,18,33,9,17,15,28,8,24,25,21,10,13,27,34,31,7,11,1]","[160,71,270,11,210,300,340,310,31,21,200,61,190,250,330,141,350,280,320,121,240,51,230,151,41,91,170,131,81,260,220,290,101,111,180,1]","160","182","212.64597331789776","[212.64597331789776]","[30.645973317897756]","[30]","[210,300,300,120,30,210,210,210,30]","0","36","0","148.5940000237897","15.665000023785979","16","[[[""img/mask84.png""],[""img/mask87.png""],[""img/mask78.png""],[""img/mask64.png""],[""img/mask76.png""],[""img/mask19.png""],[""img/mask17.png""],[""img/mask66.png""],[""img/mask92.png""],[""img/mask94.png""],[""img/mask94.png""],[""img/mask67.png""],[""img/mask8.png""],[""img/mask23.png""],[""img/mask90.png""],[""img/mask97.png""],[""img/mask27.png""],[""img/mask45.png""],[""img/mask22.png""],[""img/mask34.png""],[""img/mask87.png""],[""img/mask6.png""],[""img/mask9.png""],[""img/mask69.png""],[""img/mask75.png""],[""img/mask50.png""],[""img/mask6.png""],[""img/mask97.png""],[""img/mask93.png""],[""img/mask58.png""],[""img/mask55.png""],[""img/mask40.png""],[""img/mask48.png""],[""img/mask95.png""],[""img/mask61.png""],[""img/mask14.png""]]]","","[20,35,4,12,29,16,6,19,23,0,2,32,3,22,5,30,14,26,18,33,9,17,15,28,8,24,25,21,10,13,27,34,31,7,11,1]","main","182","many-guess-6"
"","","","","","html-keyboard-response","137","651258","0.0-10.0-0.59","62d0a258e5efefa14eb29647","640759fa512f630a2bdc333d","64077ce8a83d6474d024a7ad","6532.299999952316","Wow! You've completed 60 out of 180 trials! </p> <p>  </p><p> Take a quick break, then press any key when you're ready to continue."," ","","","","","","","","","","","","","","","","","","","fixation","",""
"","","","","","many-guess-6","138","656625","0.0-10.0-1.59-0.59","62d0a258e5efefa14eb29647","640759fa512f630a2bdc333d","64077ce8a83d6474d024a7ad","[2100]","","","[28,33,30,1,3,8,17,13,35,16,4,19,26,10,12,18,11,34,32,24,31,9,14,20,5,0,2,7,15,23,21,22,29,25,27,6]","[42,211,331,351,102,181,132,2,171,201,22,72,12,321,82,231,62,191,221,281,152,341,162,52,241,311,122,92,301,112,261,32,142,291,271,251]","42","328","324.20593807912184","[324.20593807912184]","[356.20593807912184]","[357]","[210,210,120,210,30,120,210,120,120]","0","36","0","148.12300003576092","21.31900004763156","16","[[[""img/mask25.png""],[""img/mask66.png""],[""img/mask1.png""],[""img/mask17.png""],[""img/mask80.png""],[""img/mask83.png""],[""img/mask49.png""],[""img/mask91.png""],[""img/mask82.png""],[""img/mask9.png""],[""img/mask35.png""],[""img/mask1.png""],[""img/mask82.png""],[""img/mask16.png""],[""img/mask66.png""],[""img/mask86.png""],[""img/mask99.png""],[""img/mask49.png""],[""img/mask55.png""],[""img/mask95.png""],[""img/mask100.png""],[""img/mask39.png""],[""img/mask21.png""],[""img/mask57.png""],[""img/mask43.png""],[""img/mask73.png""],[""img/mask87.png""],[""img/mask65.png""],[""img/mask73.png""],[""img/mask76.png""],[""img/mask16.png""],[""img/mask99.png""],[""img/mask56.png""],[""img/mask31.png""],[""img/mask20.png""],[""img/mask95.png""]]]","","[28,33,30,1,3,8,17,13,35,16,4,19,26,10,12,18,11,34,32,24,31,9,14,20,5,0,2,7,15,23,21,22,29,25,27,6]","main","328","many-guess-6"
"","","","","","html-keyboard-response","139","657128","0.0-10.0-0.60","62d0a258e5efefa14eb29647","640759fa512f630a2bdc333d","64077ce8a83d6474d024a7ad","null","","null","","","","","","","","","","","","","","","","","","","fixation","",""
"","","","","","many-guess-6","140","662123","0.0-10.0-1.60-0.60","62d0a258e5efefa14eb29647","640759fa512f630a2bdc333d","64077ce8a83d6474d024a7ad","[3079.5]","","","[16,21,24,26,29,10,14,9,22,28,11,4,23,17,20,31,32,33,8,7,13,1,19,6,15,34,2,5,30,0,3,12,27,35,25,18]","[52,82,72,271,172,112,182,212,152,291,2,222,331,341,42,301,122,62,311,32,132,142,261,232,351,162,22,102,251,281,321,12,202,242,192,92]","52","247","45.46863118740564","[45.46863118740564]","[158.46863118740563]","[157]","[120,210,30,120,120,120,30,30,210]","0","36","0","147.88200004771352","12.322000023792498","16","[[[""img/mask54.png""],[""img/mask24.png""],[""img/mask76.png""],[""img/mask64.png""],[""img/mask67.png""],[""img/mask11.png""],[""img/mask65.png""],[""img/mask1.png""],[""img/mask41.png""],[""img/mask22.png""],[""img/mask15.png""],[""img/mask75.png""],[""img/mask32.png""],[""img/mask14.png""],[""img/mask33.png""],[""img/mask8.png""],[""img/mask46.png""],[""img/mask32.png""],[""img/mask67.png""],[""img/mask79.png""],[""img/mask62.png""],[""img/mask3.png""],[""img/mask28.png""],[""img/mask44.png""],[""img/mask82.png""],[""img/mask20.png""],[""img/mask74.png""],[""img/mask60.png""],[""img/mask99.png""],[""img/mask62.png""],[""img/mask17.png""],[""img/mask25.png""],[""img/mask99.png""],[""img/mask46.png""],[""img/mask7.png""],[""img/mask26.png""]]]","","[16,21,24,26,29,10,14,9,22,28,11,4,23,17,20,31,32,33,8,7,13,1,19,6,15,34,2,5,30,0,3,12,27,35,25,18]","main","247","many-guess-6"
"","","","","","html-keyboard-response","141","662626","0.0-10.0-0.61","62d0a258e5efefa14eb29647","640759fa512f630a2bdc333d","64077ce8a83d6474d024a7ad","null","","null","","","","","","","","","","","","","","","","","","","fixation","",""
"","","","","","color-precision2","142","666873","0.0-10.0-1.61-0.61","62d0a258e5efefa14eb29647","640759fa512f630a2bdc333d","64077ce8a83d6474d024a7ad","[912.3999999761581]","","","[24]","[340]","340","119","129.08191135376876","[129.08191135376876]","[10.08191135376876]","[9]","0","0","1","0","155.8070000000298","1001.5250000476371","1000","[[[""img/mask70.png""]]]","","","main","119","color-precision2"
"","","","","","html-keyboard-response","143","667377","0.0-10.0-0.62","62d0a258e5efefa14eb29647","640759fa512f630a2bdc333d","64077ce8a83d6474d024a7ad","null","","null","","","","","","","","","","","","","","","","","","","fixation","",""
"","","","","","many-guess-6","144","671786","0.0-10.0-1.62-0.62","62d0a258e5efefa14eb29647","640759fa512f630a2bdc333d","64077ce8a83d6474d024a7ad","[2461.199999988079]","","","[12,13,4,8,26,0,18,23,7,1,35,25,19,24,14,3,22,29,11,20,10,16,30,15,5,33,34,9,2,27,6,21,31,17,28,32]","[327,158,247,187,178,347,98,287,78,357,138,58,68,237,297,48,267,337,88,317,108,217,227,38,8,197,28,207,128,307,168,118,257,18,148,277]","327","156","137.90731116288467","[137.90731116288467]","[341.90731116288464]","[340]","[210,300,300,210,300,210,300,30,120]","0","36","0","148.21000003581867","15.883999999961816","16","[[[""img/mask40.png""],[""img/mask5.png""],[""img/mask45.png""],[""img/mask2.png""],[""img/mask20.png""],[""img/mask36.png""],[""img/mask81.png""],[""img/mask82.png""],[""img/mask81.png""],[""img/mask33.png""],[""img/mask92.png""],[""img/mask39.png""],[""img/mask70.png""],[""img/mask93.png""],[""img/mask9.png""],[""img/mask76.png""],[""img/mask27.png""],[""img/mask31.png""],[""img/mask2.png""],[""img/mask67.png""],[""img/mask64.png""],[""img/mask63.png""],[""img/mask8.png""],[""img/mask60.png""],[""img/mask4.png""],[""img/mask59.png""],[""img/mask19.png""],[""img/mask66.png""],[""img/mask76.png""],[""img/mask1.png""],[""img/mask24.png""],[""img/mask16.png""],[""img/mask45.png""],[""img/mask63.png""],[""img/mask17.png""],[""img/mask40.png""]]]","","[12,13,4,8,26,0,18,23,7,1,35,25,19,24,14,3,22,29,11,20,10,16,30,15,5,33,34,9,2,27,6,21,31,17,28,32]","main","156","many-guess-6"
"","","","","","html-keyboard-response","145","672290","0.0-10.0-0.63","62d0a258e5efefa14eb29647","640759fa512f630a2bdc333d","64077ce8a83d6474d024a7ad","null","","null","","","","","","","","","","","","","","","","","","","fixation","",""
"","","","","","color-precision2","146","676624","0.0-10.0-1.63-0.63","62d0a258e5efefa14eb29647","640759fa512f630a2bdc333d","64077ce8a83d6474d024a7ad","[1225.7999999523163]","","","[18]","[114]","114","243","0.8650822790652617","[0.8650822790652617]","[117.86508227906526]","[117]","0","0","1","0","148.27400001196656","993.1460000238148","1000","[[[""img/mask16.png""]]]","","","main","243","color-precision2"
"","","","","","html-keyboard-response","147","677128","0.0-10.0-0.64","62d0a258e5efefa14eb29647","640759fa512f630a2bdc333d","64077ce8a83d6474d024a7ad","null","","null","","","","","","","","","","","","","","","","","","","fixation","",""
"","","","","","many-guess-6","148","681281","0.0-10.0-1.64-0.64","62d0a258e5efefa14eb29647","640759fa512f630a2bdc333d","64077ce8a83d6474d024a7ad","[2257.399999976158]","","","[3,5,29,21,23,28,0,4,25,17,33,10,32,7,34,30,15,12,35,31,11,22,13,19,26,9,16,14,20,24,2,6,27,1,8,18]","[246,37,296,266,86,276,316,326,256,96,47,17,356,226,286,236,126,306,216,146,176,136,206,27,66,166,116,336,76,156,346,106,186,196,7,57]","246","221","187.50223429884483","[187.50223429884483]","[326.5022342988448]","[326]","[120,30,300,30,30,30,120,210,210]","0","36","0","147.80500003579073","16.990000023855828","16","[[[""img/mask87.png""],[""img/mask90.png""],[""img/mask56.png""],[""img/mask41.png""],[""img/mask23.png""],[""img/mask19.png""],[""img/mask9.png""],[""img/mask82.png""],[""img/mask63.png""],[""img/mask25.png""],[""img/mask66.png""],[""img/mask53.png""],[""img/mask88.png""],[""img/mask54.png""],[""img/mask17.png""],[""img/mask47.png""],[""img/mask46.png""],[""img/mask18.png""],[""img/mask44.png""],[""img/mask52.png""],[""img/mask42.png""],[""img/mask74.png""],[""img/mask55.png""],[""img/mask6.png""],[""img/mask85.png""],[""img/mask18.png""],[""img/mask99.png""],[""img/mask8.png""],[""img/mask88.png""],[""img/mask51.png""],[""img/mask30.png""],[""img/mask25.png""],[""img/mask64.png""],[""img/mask94.png""],[""img/mask60.png""],[""img/mask80.png""]]]","","[3,5,29,21,23,28,0,4,25,17,33,10,32,7,34,30,15,12,35,31,11,22,13,19,26,9,16,14,20,24,2,6,27,1,8,18]","main","221","many-guess-6"
"","","","","","html-keyboard-response","149","681785","0.0-10.0-0.65","62d0a258e5efefa14eb29647","640759fa512f630a2bdc333d","64077ce8a83d6474d024a7ad","null","","null","","","","","","","","","","","","","","","","","","","fixation","",""
"","","","","","many-guess-6","150","686592","0.0-10.0-1.65-0.65","62d0a258e5efefa14eb29647","640759fa512f630a2bdc333d","64077ce8a83d6474d024a7ad","[2086.099999964237]","","","[27,35,0,22,28,1,25,12,15,10,8,29,14,21,18,19,30,13,9,5,6,3,20,7,4,33,23,2,31,17,11,34,32,26,16,24]","[242,3,182,262,302,33,272,43,232,63,332,122,82,132,162,192,142,202,352,112,292,252,312,23,102,172,322,13,222,53,212,152,92,282,342,73]","242","180","302.7099339440048","[302.7099339440048]","[122.70993394400477]","[123]","[300,210,120,300,30,120,30,120,210]","0","36","0","145.30300002382137","23.81299999996554","16","[[[""img/mask15.png""],[""img/mask22.png""],[""img/mask70.png""],[""img/mask51.png""],[""img/mask53.png""],[""img/mask31.png""],[""img/mask29.png""],[""img/mask81.png""],[""img/mask96.png""],[""img/mask84.png""],[""img/mask47.png""],[""img/mask38.png""],[""img/mask64.png""],[""img/mask66.png""],[""img/mask95.png""],[""img/mask11.png""],[""img/mask6.png""],[""img/mask37.png""],[""img/mask49.png""],[""img/mask71.png""],[""img/mask34.png""],[""img/mask56.png""],[""img/mask3.png""],[""img/mask86.png""],[""img/mask31.png""],[""img/mask60.png""],[""img/mask38.png""],[""img/mask59.png""],[""img/mask8.png""],[""img/mask40.png""],[""img/mask2.png""],[""img/mask90.png""],[""img/mask100.png""],[""img/mask40.png""],[""img/mask5.png""],[""img/mask73.png""]]]","","[27,35,0,22,28,1,25,12,15,10,8,29,14,21,18,19,30,13,9,5,6,3,20,7,4,33,23,2,31,17,11,34,32,26,16,24]","main","180","many-guess-6"
"","","","","","html-keyboard-response","151","687096","0.0-10.0-0.66","62d0a258e5efefa14eb29647","640759fa512f630a2bdc333d","64077ce8a83d6474d024a7ad","null","","null","","","","","","","","","","","","","","","","","","","fixation","",""
"","","","","","color-precision2","152","691604","0.0-10.0-1.66-0.66","62d0a258e5efefa14eb29647","640759fa512f630a2bdc333d","64077ce8a83d6474d024a7ad","[1074.3999999761581]","","","[23]","[280]","280","235","181.9153470639434","[181.9153470639434]","[306.9153470639434]","[306]","0","0","1","0","144.54700003576","993.4010000119451","1000","[[[""img/mask31.png""]]]","","","main","235","color-precision2"
"","","","","","html-keyboard-response","153","692107","0.0-10.0-0.67","62d0a258e5efefa14eb29647","640759fa512f630a2bdc333d","64077ce8a83d6474d024a7ad","null","","null","","","","","","","","","","","","","","","","","","","fixation","",""
"","","","","","color-precision2","154","695992","0.0-10.0-1.67-0.67","62d0a258e5efefa14eb29647","640759fa512f630a2bdc333d","64077ce8a83d6474d024a7ad","[398.69999998807907]","","","[32]","[95]","95","51","139.62420803541988","[139.62420803541988]","[88.62420803541988]","[87]","0","0","1","0","148.13300002389587","994.208000011975","1000","[[[""img/mask54.png""]]]","","","main","51","color-precision2"
"","","","","","html-keyboard-response","155","696496","0.0-10.0-0.68","62d0a258e5efefa14eb29647","640759fa512f630a2bdc333d","64077ce8a83d6474d024a7ad","null","","null","","","","","","","","","","","","","","","","","","","fixation","",""
"","","","","","many-guess-6","156","701755","0.0-10.0-1.68-0.68","62d0a258e5efefa14eb29647","640759fa512f630a2bdc333d","64077ce8a83d6474d024a7ad","[2696.399999976158]","","","[28,31,21,30,33,18,19,35,15,7,2,5,12,20,24,32,16,29,17,26,27,6,9,34,3,11,1,8,10,0,25,22,4,23,14,13]","[304,284,175,254,85,75,274,95,204,15,115,314,135,234,155,195,165,65,294,125,35,45,354,344,55,244,324,214,334,185,224,5,145,264,25,105]","304","140","223.38618376076872","[223.38618376076872]","[83.38618376076872]","[83]","[210,210,120,210,30,30,120,210,120]","0","36","0","148.0799999999581","28.717000035801902","16","[[[""img/mask63.png""],[""img/mask24.png""],[""img/mask38.png""],[""img/mask62.png""],[""img/mask59.png""],[""img/mask21.png""],[""img/mask34.png""],[""img/mask26.png""],[""img/mask47.png""],[""img/mask71.png""],[""img/mask26.png""],[""img/mask4.png""],[""img/mask77.png""],[""img/mask63.png""],[""img/mask78.png""],[""img/mask48.png""],[""img/mask2.png""],[""img/mask25.png""],[""img/mask73.png""],[""img/mask63.png""],[""img/mask15.png""],[""img/mask46.png""],[""img/mask25.png""],[""img/mask79.png""],[""img/mask87.png""],[""img/mask21.png""],[""img/mask79.png""],[""img/mask72.png""],[""img/mask55.png""],[""img/mask64.png""],[""img/mask70.png""],[""img/mask75.png""],[""img/mask78.png""],[""img/mask31.png""],[""img/mask62.png""],[""img/mask78.png""]]]","","[28,31,21,30,33,18,19,35,15,7,2,5,12,20,24,32,16,29,17,26,27,6,9,34,3,11,1,8,10,0,25,22,4,23,14,13]","main","140","many-guess-6"
"","","","","","html-keyboard-response","157","702258","0.0-10.0-0.69","62d0a258e5efefa14eb29647","640759fa512f630a2bdc333d","64077ce8a83d6474d024a7ad","null","","null","","","","","","","","","","","","","","","","","","","fixation","",""
"","","","","","color-precision2","158","706418","0.0-10.0-1.69-0.69","62d0a258e5efefa14eb29647","640759fa512f630a2bdc333d","64077ce8a83d6474d024a7ad","[959.3000000119209]","","","[34]","[252]","252","234","128.42764556929652","[128.42764556929652]","[254.42764556929652]","[253]","0","0","1","0","145.80600002384745","1004.0130000000354","1000","[[[""img/mask6.png""]]]","","","main","234","color-precision2"
"","","","","","html-keyboard-response","159","706921","0.0-10.0-0.70","62d0a258e5efefa14eb29647","640759fa512f630a2bdc333d","64077ce8a83d6474d024a7ad","null","","null","","","","","","","","","","","","","","","","","","","fixation","",""
"","","","","","color-precision2","160","711050","0.0-10.0-1.70-0.70","62d0a258e5efefa14eb29647","640759fa512f630a2bdc333d","64077ce8a83d6474d024a7ad","[260]","","","[6]","[338]","338","56","","[null]","[null]","[344]","0","0","1","0","145.27300004765857","1007.137000023853","1000","[[[""img/mask76.png""]]]","","","main","56","color-precision2"
"","","","","","html-keyboard-response","161","711553","0.0-10.0-0.71","62d0a258e5efefa14eb29647","640759fa512f630a2bdc333d","64077ce8a83d6474d024a7ad","null","","null","","","","","","","","","","","","","","","","","","","fixation","",""
"","","","","","many-guess-6","162","715344","0.0-10.0-1.71-0.71","62d0a258e5efefa14eb29647","640759fa512f630a2bdc333d","64077ce8a83d6474d024a7ad","[1672.2999999523163]","","","[22,3,1,28,35,14,15,34,17,19,26,23,18,13,8,31,4,6,29,2,10,20,30,7,16,32,24,33,12,9,25,21,0,5,11,27]","[303,14,64,273,343,213,263,173,4,93,223,283,293,313,323,183,143,34,44,203,153,193,24,233,74,253,243,113,54,163,103,333,133,83,123,353]","303","187","211.15476022860744","[211.15476022860744]","[24.154760228607444]","[24]","[210,30,30,30,300,210,300,210,300]","0","36","0","148.47700004768558","8.918000023812056","16","[[[""img/mask66.png""],[""img/mask76.png""],[""img/mask34.png""],[""img/mask17.png""],[""img/mask54.png""],[""img/mask92.png""],[""img/mask67.png""],[""img/mask39.png""],[""img/mask48.png""],[""img/mask97.png""],[""img/mask61.png""],[""img/mask65.png""],[""img/mask11.png""],[""img/mask22.png""],[""img/mask88.png""],[""img/mask66.png""],[""img/mask56.png""],[""img/mask77.png""],[""img/mask18.png""],[""img/mask15.png""],[""img/mask21.png""],[""img/mask80.png""],[""img/mask64.png""],[""img/mask89.png""],[""img/mask54.png""],[""img/mask90.png""],[""img/mask71.png""],[""img/mask50.png""],[""img/mask86.png""],[""img/mask27.png""],[""img/mask2.png""],[""img/mask45.png""],[""img/mask92.png""],[""img/mask86.png""],[""img/mask88.png""],[""img/mask22.png""]]]","","[22,3,1,28,35,14,15,34,17,19,26,23,18,13,8,31,4,6,29,2,10,20,30,7,16,32,24,33,12,9,25,21,0,5,11,27]","main","187","many-guess-6"
"","","","","","html-keyboard-response","163","715847","0.0-10.0-0.72","62d0a258e5efefa14eb29647","640759fa512f630a2bdc333d","64077ce8a83d6474d024a7ad","null","","null","","","","","","","","","","","","","","","","","","","fixation","",""
"","","","","","many-guess-6","164","719947","0.0-10.0-1.72-0.72","62d0a258e5efefa14eb29647","640759fa512f630a2bdc333d","64077ce8a83d6474d024a7ad","[1905.699999988079]","","","[14,4,5,15,23,16,22,27,13,8,34,32,1,6,33,20,21,25,11,17,19,2,7,30,26,28,24,29,12,3,35,0,18,10,31,9]","[281,52,172,311,132,211,92,191,341,22,102,251,72,12,42,82,291,331,231,221,241,271,181,261,152,112,351,201,142,62,122,162,2,301,321,32]","281","51","131.30284903672123","[131.30284903672123]","[80.30284903672123]","[79]","[300,120,210,120,300,300,300,210,120]","0","36","0","148.16100004769396","22.20600001187995","16","[[[""img/mask70.png""],[""img/mask19.png""],[""img/mask10.png""],[""img/mask66.png""],[""img/mask38.png""],[""img/mask4.png""],[""img/mask72.png""],[""img/mask92.png""],[""img/mask13.png""],[""img/mask72.png""],[""img/mask8.png""],[""img/mask65.png""],[""img/mask81.png""],[""img/mask39.png""],[""img/mask13.png""],[""img/mask94.png""],[""img/mask86.png""],[""img/mask58.png""],[""img/mask69.png""],[""img/mask59.png""],[""img/mask15.png""],[""img/mask59.png""],[""img/mask22.png""],[""img/mask70.png""],[""img/mask12.png""],[""img/mask21.png""],[""img/mask31.png""],[""img/mask51.png""],[""img/mask6.png""],[""img/mask2.png""],[""img/mask64.png""],[""img/mask41.png""],[""img/mask57.png""],[""img/mask48.png""],[""img/mask70.png""],[""img/mask46.png""]]]","","[14,4,5,15,23,16,22,27,13,8,34,32,1,6,33,20,21,25,11,17,19,2,7,30,26,28,24,29,12,3,35,0,18,10,31,9]","main","51","many-guess-6"
"","","","","","html-keyboard-response","165","720451","0.0-10.0-0.73","62d0a258e5efefa14eb29647","640759fa512f630a2bdc333d","64077ce8a83d6474d024a7ad","null","","null","","","","","","","","","","","","","","","","","","","fixation","",""
"","","","","","color-precision2","166","724160","0.0-10.0-1.73-0.73","62d0a258e5efefa14eb29647","640759fa512f630a2bdc333d","64077ce8a83d6474d024a7ad","[622]","","","[22]","[279]","279","180","125.9041551129926","[125.9041551129926]","[305.9041551129926]","[304]","0","0","1","0","144.86800001189113","1008.4390000238782","1000","[[[""img/mask65.png""]]]","","","main","180","color-precision2"
"","","","","","html-keyboard-response","167","724662","0.0-10.0-0.74","62d0a258e5efefa14eb29647","640759fa512f630a2bdc333d","64077ce8a83d6474d024a7ad","null","","null","","","","","","","","","","","","","","","","","","","fixation","",""
"","","","","","color-precision2","168","728571","0.0-10.0-1.74-0.74","62d0a258e5efefa14eb29647","640759fa512f630a2bdc333d","64077ce8a83d6474d024a7ad","[1030]","","","[34]","[237]","237","1","198.19139110806634","[198.19139110806634]","[197.19139110806634]","[197]","0","0","1","0","143.28700004774146","1000.7150000119582","1000","[[[""img/mask38.png""]]]","","","main","1","color-precision2"
"","","","","","html-keyboard-response","169","729074","0.0-10.0-0.75","62d0a258e5efefa14eb29647","640759fa512f630a2bdc333d","64077ce8a83d6474d024a7ad","null","","null","","","","","","","","","","","","","","","","","","","fixation","",""
"","","","","","color-precision2","170","733473","0.0-10.0-1.75-0.75","62d0a258e5efefa14eb29647","640759fa512f630a2bdc333d","64077ce8a83d6474d024a7ad","[1451.300000011921]","","","[10]","[22]","22","73","121.71114965735937","[121.71114965735937]","[48.71114965735937]","[47]","0","0","1","0","145.08000002382323","993.5339999999851","1000","[[[""img/mask92.png""]]]","","","main","73","color-precision2"
"","","","","","html-keyboard-response","171","733975","0.0-10.0-0.76","62d0a258e5efefa14eb29647","640759fa512f630a2bdc333d","64077ce8a83d6474d024a7ad","null","","null","","","","","","","","","","","","","","","","","","","fixation","",""
"","","","","","color-precision2","172","737851","0.0-10.0-1.76-0.76","62d0a258e5efefa14eb29647","640759fa512f630a2bdc333d","64077ce8a83d6474d024a7ad","[817.2000000476837]","","","[7]","[179]","179","156","326.6936713103332","[326.6936713103332]","[170.69367131033317]","[170]","0","0","1","0","144.96700004767627","996.2110000000102","1000","[[[""img/mask71.png""]]]","","","main","156","color-precision2"
"","","","","","html-keyboard-response","173","738353","0.0-10.0-0.77","62d0a258e5efefa14eb29647","640759fa512f630a2bdc333d","64077ce8a83d6474d024a7ad","null","","null","","","","","","","","","","","","","","","","","","","fixation","",""
"","","","","","color-precision2","174","742018","0.0-10.0-1.77-0.77","62d0a258e5efefa14eb29647","640759fa512f630a2bdc333d","64077ce8a83d6474d024a7ad","[645.9000000357628]","","","[8]","[229]","229","194","37.66797796870256","[37.66797796870256]","[203.66797796870256]","[202]","0","0","1","0","144.3519999999553","1002.0260000238195","1000","[[[""img/mask84.png""]]]","","","main","194","color-precision2"
"","","","","","html-keyboard-response","175","742521","0.0-10.0-0.78","62d0a258e5efefa14eb29647","640759fa512f630a2bdc333d","64077ce8a83d6474d024a7ad","null","","null","","","","","","","","","","","","","","","","","","","fixation","",""
"","","","","","color-precision2","176","746218","0.0-10.0-1.78-0.78","62d0a258e5efefa14eb29647","640759fa512f630a2bdc333d","64077ce8a83d6474d024a7ad","[661.9000000357628]","","","[29]","[91]","91","15","122.46109518498729","[122.46109518498729]","[107.46109518498729]","[106]","0","0","1","0","148.2020000119228","1001.3130000119563","1000","[[[""img/mask3.png""]]]","","","main","15","color-precision2"
"","","","","","html-keyboard-response","177","749121","0.0-10.0-0.79","62d0a258e5efefa14eb29647","640759fa512f630a2bdc333d","64077ce8a83d6474d024a7ad","2900","Wow! You've completed 80 out of 180 trials! </p> <p>  </p><p> Take a quick break, then press any key when you're ready to continue."," ","","","","","","","","","","","","","","","","","","","fixation","",""
"","","","","","color-precision2","178","753585","0.0-10.0-1.79-0.79","62d0a258e5efefa14eb29647","640759fa512f630a2bdc333d","64077ce8a83d6474d024a7ad","[1262]","","","[21]","[327]","327","29","33.77964867195928","[33.77964867195928]","[4.779648671959279]","[3]","0","0","1","0","146.68800001195632","1000.9910000357777","1000","[[[""img/mask22.png""]]]","","","main","29","color-precision2"
"","","","","","html-keyboard-response","179","754088","0.0-10.0-0.80","62d0a258e5efefa14eb29647","640759fa512f630a2bdc333d","64077ce8a83d6474d024a7ad","null","","null","","","","","","","","","","","","","","","","","","","fixation","",""
