"success","timeout","failed_images","failed_audio","failed_video","trial_type","trial_index","time_elapsed","internal_node_id","subject_id","study_id","session_id","rt","stimulus","response","position_of_items","colors_of_items","color_of_target","wheel_spin","response_angle","physical_response_angle","reported_color_angle","reported_color_discrete","locs","which_test","set_size","wheel_num_options","actual_mask_duration","actual_stim_duration","CMDispTime","maskArray","maskRotation","item_positions","task","randomSpinAmount","mainTask"
"true","false","[]","[]","[]","preload","0","11332","0.0-0.0","630cc9747cb664e8a03c29f0","640759fa512f630a2bdc333d","6408c1777a67713c32f3fc79","","","","","","","","","","","","","","","","","","","","","","","",""
"true","","","","","fullscreen","1","48277","0.0-1.0","630cc9747cb664e8a03c29f0","640759fa512f630a2bdc333d","6408c1777a67713c32f3fc79","","","","","","","","","","","","","","","","","","","","","","","",""
"","","","","","html-keyboard-response","2","54143","0.0-2.0","630cc9747cb664e8a03c29f0","640759fa512f630a2bdc333d","6408c1777a67713c32f3fc79","5864.5","What a beautiful Wednesday to do some awesome science! </p> <p>  </p><p> </p>
    By completing this survey or questionnaire, you are consenting to be in this research study. </p>
    Your participation is voluntary and you can stop at any time.<p> [Press any key to continue] </p>"," ","","","","","","","","","","","","","","","","","","","","",""
"","","","","","html-keyboard-response","3","64145","0.0-3.0","630cc9747cb664e8a03c29f0","640759fa512f630a2bdc333d","6408c1777a67713c32f3fc79","null","
    <div style='width: 1000px;'>
    <div style='float: center;'><img src='img/TaskInstructions1.png'></img>
    </div>
    ","null","","","","","","","","","","","","","","","","","","","","",""
"","","","","","html-keyboard-response","4","65086","0.0-4.0","630cc9747cb664e8a03c29f0","640759fa512f630a2bdc333d","6408c1777a67713c32f3fc79","940.5","
    <div style='width: 1000px;'>
    <div style='float: center;'><img src='img/TaskInstructions1.png'></img>
    </div>
    "," ","","","","","","","","","","","","","","","","","","","","",""
"","","","","","html-keyboard-response","5","75088","0.0-5.0","630cc9747cb664e8a03c29f0","640759fa512f630a2bdc333d","6408c1777a67713c32f3fc79","null","
    <div style='width: 1000px;'>
    <div style='float: center;'><img src='img/TaskInstructions2.png'></img>
    </div>
    ","null","","","","","","","","","","","","","","","","","","","","",""
"","","","","","html-keyboard-response","6","88999","0.0-6.0","630cc9747cb664e8a03c29f0","640759fa512f630a2bdc333d","6408c1777a67713c32f3fc79","13909.900000572205","
    <div style='width: 1000px;'>
    <div style='float: center;'><img src='img/TaskInstructions2.png'></img>
    </div>
    "," ","","","","","","","","","","","","","","","","","","","","",""
"","","","","","video-keyboard-response","7","101319","0.0-7.0","630cc9747cb664e8a03c29f0","640759fa512f630a2bdc333d","6408c1777a67713c32f3fc79","12317.29999923706","[""video/TaskInstructions3.mp4""]"," ","","","","","","","","","","","","","","","","","","","","",""
"","","","","","image-keyboard-response","8","106782","0.0-8.0-0.0","630cc9747cb664e8a03c29f0","640759fa512f630a2bdc333d","6408c1777a67713c32f3fc79","5462.60000038147","img/training1.png"," ","","","","","","","","","","","","","","","","","","","","",""
"","","","","","color-precision2","9","116381","0.0-8.0-1.0-0.0","630cc9747cb664e8a03c29f0","640759fa512f630a2bdc333d","6408c1777a67713c32f3fc79","[4451.300000190735]","","","[21]","[250]","250","258","133.32675717874724","[133.32675717874724]","[235.32675717874724]","[234]","0","0","1","0","492.6269998092612","995.7079999999987","1000","","","0","training","",""
"","","","","","image-keyboard-response","10","129351","0.0-8.0-0.1","630cc9747cb664e8a03c29f0","640759fa512f630a2bdc333d","6408c1777a67713c32f3fc79","12968.400000572205","img/training2.png"," ","","","","","","","","","","","","","","","","","","","","",""
"","","","","","many-guess-6","11","138122","0.0-8.0-1.1-0.1","630cc9747cb664e8a03c29f0","640759fa512f630a2bdc333d","6408c1777a67713c32f3fc79","[4285.199999809265]","","","[27,4,1]","[231,146,220]","231","307","168.39430771943435","[168.39430771943435]","[221.39430771943435]","[220]","[120,120,300,300,30,210,300,210,210,300,300,210,30,30,30,30,120,300,300,120,210,300,210,30,300,120,30,300,210,210,120,30,30,30,210,120]","0","3","0","999.2109994277998","999.0769996185263","1000","[[[""img/mask30.png""],[""img/mask7.png""],[""img/mask38.png""]]]","","[27,4,1]","training","",""
"","","","","","image-keyboard-response","12","145095","0.0-8.0-0.2","630cc9747cb664e8a03c29f0","640759fa512f630a2bdc333d","6408c1777a67713c32f3fc79","6971.5","img/training3.png"," ","","","","","","","","","","","","","","","","","","","","",""
"","","","","","[""many-guess-6""]","13","150622","0.0-8.0-1.2-0.2","630cc9747cb664e8a03c29f0","640759fa512f630a2bdc333d","6408c1777a67713c32f3fc79","[2397.800000190735]","","","[5,10,16,12,1]","[36,224,93,162,187]","36","163","196.73319088383187","[196.73319088383187]","[33.73319088383187]","[33]","[120,300,120,30,210,30,210,30,120,30,30,300,210,210,210,30,30,300,300,210,300,120,300,120,210,210,210,30,210,300,120,210,210,300,30,300]","0","5","0","499.6700001907302","502.4800000000105","500","[[[""img/mask59.png""],[""img/mask73.png""],[""img/mask6.png""],[""img/mask69.png""],[""img/mask84.png""]]]","","[5,10,16,12,1]","training","",""
"","","","","","image-keyboard-response","14","155078","0.0-8.0-0.3","630cc9747cb664e8a03c29f0","640759fa512f630a2bdc333d","6408c1777a67713c32f3fc79","4455.200000762939","img/training4.png"," ","","","","","","","","","","","","","","","","","","","","",""
"","","","","","[""many-guess-6""]","15","161123","0.0-8.0-1.3-0.3","630cc9747cb664e8a03c29f0","640759fa512f630a2bdc333d","6408c1777a67713c32f3fc79","[3350.2999992370605]","","","[26,33,14,3,31,27,12,20,32,4]","[230,279,262,66,154,109,185,218,81,130]","230","201","76.8669732008485","[76.8669732008485]","[235.86697320084852]","[234]","[300,30,300,120,300,120,120,300,120,300,300,120,210,30,30,210,300,120,210,210,210,210,30,120,120,210,120,120,300,120,210,30,30,300,120,300]","0","10","0","131.3630000000121","133.54300019072252","132","[[[""img/mask27.png""],[""img/mask48.png""],[""img/mask22.png""],[""img/mask41.png""],[""img/mask44.png""],[""img/mask100.png""],[""img/mask40.png""],[""img/mask50.png""],[""img/mask22.png""],[""img/mask100.png""]]]","","[26,33,14,3,31,27,12,20,32,4]","training","",""
"","","","","","image-keyboard-response","16","168422","0.0-8.0-0.4","630cc9747cb664e8a03c29f0","640759fa512f630a2bdc333d","6408c1777a67713c32f3fc79","7298.300000190735","img/training5.png"," ","","","","","","","","","","","","","","","","","","","","",""
"","","","","","[""many-guess-6""]","17","175458","0.0-8.0-1.4-0.4","630cc9747cb664e8a03c29f0","640759fa512f630a2bdc333d","6408c1777a67713c32f3fc79","[3421.300000190735]","","","[0,1,31,24,13,4,15,17,8,7,10,34,25,5,28,29,19,11,6,32,2,22,3,21,9,12,30,33,18,27,26,20,14,35,23,16]","[289,359,70,329,319,100,20,10,130,299,90,349,150,199,239,50,269,209,219,110,309,40,249,160,179,189,60,279,80,30,259,140,120,169,229,339]","289","222","322.92250985850967","[322.92250985850967]","[100.92250985850967]","[101]","[30,210,30,300,120,120,120,120,300,300,210,120,30,300,30,300,120,30,120,120,120,210,120,120,30,300,300,300,120,120,300,300,210,120,300,300]","0","36","0","140.17699980927864","15.300999809260247","16","[[[""img/mask8.png""],[""img/mask93.png""],[""img/mask64.png""],[""img/mask54.png""],[""img/mask56.png""],[""img/mask8.png""],[""img/mask44.png""],[""img/mask9.png""],[""img/mask44.png""],[""img/mask27.png""],[""img/mask83.png""],[""img/mask25.png""],[""img/mask50.png""],[""img/mask100.png""],[""img/mask59.png""],[""img/mask68.png""],[""img/mask98.png""],[""img/mask99.png""],[""img/mask24.png""],[""img/mask42.png""],[""img/mask49.png""],[""img/mask36.png""],[""img/mask22.png""],[""img/mask47.png""],[""img/mask2.png""],[""img/mask17.png""],[""img/mask97.png""],[""img/mask82.png""],[""img/mask48.png""],[""img/mask43.png""],[""img/mask18.png""],[""img/mask57.png""],[""img/mask58.png""],[""img/mask14.png""],[""img/mask67.png""],[""img/mask28.png""]]]","","[0,1,31,24,13,4,15,17,8,7,10,34,25,5,28,29,19,11,6,32,2,22,3,21,9,12,30,33,18,27,26,20,14,35,23,16]","training","",""
"","","","","","image-keyboard-response","18","179520","0.0-9.0","630cc9747cb664e8a03c29f0","640759fa512f630a2bdc333d","6408c1777a67713c32f3fc79","4060.4000005722046","[""img/endTraining.png""]"," ","","","","","","","","","","","","","","","","","","","","",""
"","","","","","many-guess-6","19","183605","0.0-10.0-0.0-0.0","630cc9747cb664e8a03c29f0","640759fa512f630a2bdc333d","6408c1777a67713c32f3fc79","[2262.3999996185303]","","","[1,28,29,3,34,19,22,32,10,8,33,26,31,5,21,2,23,7,30,16,20,35,4,17,24,0,27,9,18,25,15,13,12,6,11,14]","[101,141,21,71,151,290,1,41,111,310,320,280,191,221,231,31,51,161,131,260,240,250,201,300,171,270,330,350,211,121,11,61,91,181,340,81]","101","53","174.89465615922998","[174.89465615922998]","[121.89465615922998]","[121]","[30,120,30,210,30,210,30,210,300]","0","36","0","148.66500019072555","14.78799961853656","16","[[[""img/mask22.png""],[""img/mask25.png""],[""img/mask45.png""],[""img/mask69.png""],[""img/mask29.png""],[""img/mask40.png""],[""img/mask41.png""],[""img/mask57.png""],[""img/mask45.png""],[""img/mask50.png""],[""img/mask3.png""],[""img/mask55.png""],[""img/mask91.png""],[""img/mask23.png""],[""img/mask5.png""],[""img/mask43.png""],[""img/mask66.png""],[""img/mask23.png""],[""img/mask91.png""],[""img/mask16.png""],[""img/mask42.png""],[""img/mask4.png""],[""img/mask77.png""],[""img/mask1.png""],[""img/mask42.png""],[""img/mask57.png""],[""img/mask84.png""],[""img/mask58.png""],[""img/mask80.png""],[""img/mask39.png""],[""img/mask35.png""],[""img/mask1.png""],[""img/mask8.png""],[""img/mask51.png""],[""img/mask17.png""],[""img/mask23.png""]]]","","[1,28,29,3,34,19,22,32,10,8,33,26,31,5,21,2,23,7,30,16,20,35,4,17,24,0,27,9,18,25,15,13,12,6,11,14]","main","53","many-guess-6"
"","","","","","html-keyboard-response","20","184106","0.0-10.0-1.0","630cc9747cb664e8a03c29f0","640759fa512f630a2bdc333d","6408c1777a67713c32f3fc79","null","","null","","","","","","","","","","","","","","","","","","","fixation","",""
"","","","","","color-precision2","21","188411","0.0-10.0-0.1-0.1","630cc9747cb664e8a03c29f0","640759fa512f630a2bdc333d","6408c1777a67713c32f3fc79","[1912.3999996185303]","","","[7]","[256]","256","224","121.12348714385674","[121.12348714385674]","[257.1234871438567]","[256]","0","0","1","0","155.7709998092614","995.5769999999902","1000","[[[""img/mask63.png""]]]","","","main","224","color-precision2"
"","","","","","html-keyboard-response","22","188912","0.0-10.0-1.1","630cc9747cb664e8a03c29f0","640759fa512f630a2bdc333d","6408c1777a67713c32f3fc79","null","","null","","","","","","","","","","","","","","","","","","","fixation","",""
"","","","","","color-precision2","23","193191","0.0-10.0-0.2-0.2","630cc9747cb664e8a03c29f0","640759fa512f630a2bdc333d","6408c1777a67713c32f3fc79","[1305.6999998092651]","","","[11]","[181]","181","21","194.80187918724923","[194.80187918724923]","[173.80187918724923]","[173]","0","0","1","0","148.53099961852422","993.5640001907304","1000","[[[""img/mask59.png""]]]","","","main","21","color-precision2"
"","","","","","html-keyboard-response","24","193692","0.0-10.0-1.2","630cc9747cb664e8a03c29f0","640759fa512f630a2bdc333d","6408c1777a67713c32f3fc79","null","","null","","","","","","","","","","","","","","","","","","","fixation","",""
"","","","","","many-guess-6","25","198661","0.0-10.0-0.3-0.3","630cc9747cb664e8a03c29f0","640759fa512f630a2bdc333d","6408c1777a67713c32f3fc79","[3472.3999996185303]","","","[27,23,4,19,8,25,31,33,17,15,5,14,32,16,18,11,22,29,0,13,12,1,7,30,35,34,28,10,3,24,9,6,20,21,26,2]","[3,192,33,352,282,42,152,172,332,342,262,322,122,222,162,52,23,272,292,72,232,112,102,92,242,62,302,13,252,132,182,312,212,202,142,82]","3","170","267.7400732105492","[267.7400732105492]","[97.74007321054921]","[98]","[300,120,30,210,30,30,300,210,210]","0","36","0","143.1129994278017","7.613000000012107","16","[[[""img/mask61.png""],[""img/mask23.png""],[""img/mask72.png""],[""img/mask42.png""],[""img/mask43.png""],[""img/mask99.png""],[""img/mask18.png""],[""img/mask36.png""],[""img/mask82.png""],[""img/mask10.png""],[""img/mask65.png""],[""img/mask100.png""],[""img/mask11.png""],[""img/mask35.png""],[""img/mask63.png""],[""img/mask83.png""],[""img/mask75.png""],[""img/mask43.png""],[""img/mask26.png""],[""img/mask13.png""],[""img/mask43.png""],[""img/mask99.png""],[""img/mask61.png""],[""img/mask15.png""],[""img/mask86.png""],[""img/mask2.png""],[""img/mask51.png""],[""img/mask58.png""],[""img/mask17.png""],[""img/mask87.png""],[""img/mask25.png""],[""img/mask65.png""],[""img/mask70.png""],[""img/mask71.png""],[""img/mask7.png""],[""img/mask6.png""]]]","","[27,23,4,19,8,25,31,33,17,15,5,14,32,16,18,11,22,29,0,13,12,1,7,30,35,34,28,10,3,24,9,6,20,21,26,2]","main","170","many-guess-6"
"","","","","","html-keyboard-response","26","199161","0.0-10.0-1.3","630cc9747cb664e8a03c29f0","640759fa512f630a2bdc333d","6408c1777a67713c32f3fc79","null","","null","","","","","","","","","","","","","","","","","","","fixation","",""
"","","","","","color-precision2","27","203661","0.0-10.0-0.4-0.4","630cc9747cb664e8a03c29f0","640759fa512f630a2bdc333d","6408c1777a67713c32f3fc79","[1274.6999998092651]","","","[17]","[160]","160","128","290.0247903013082","[290.0247903013082]","[162.0247903013082]","[162]","0","0","1","0","158.39399942778982","1007.9820001907356","1000","[[[""img/mask15.png""]]]","","","main","128","color-precision2"
"","","","","","html-keyboard-response","28","204162","0.0-10.0-1.4","630cc9747cb664e8a03c29f0","640759fa512f630a2bdc333d","6408c1777a67713c32f3fc79","null","","null","","","","","","","","","","","","","","","","","","","fixation","",""
"","","","","","color-precision2","29","207949","0.0-10.0-0.5-0.5","630cc9747cb664e8a03c29f0","640759fa512f630a2bdc333d","6408c1777a67713c32f3fc79","[1184.3999996185303]","","","[3]","[240]","240","152","18.486142698044766","[18.486142698044766]","[226.48614269804477]","[225]","0","0","1","0","146.12299980927492","1005.6809996185184","1000","[[[""img/mask51.png""]]]","","","main","152","color-precision2"
"","","","","","html-keyboard-response","30","208449","0.0-10.0-1.5","630cc9747cb664e8a03c29f0","640759fa512f630a2bdc333d","6408c1777a67713c32f3fc79","null","","null","","","","","","","","","","","","","","","","","","","fixation","",""
"","","","","","color-precision2","31","212121","0.0-10.0-0.6-0.6","630cc9747cb664e8a03c29f0","640759fa512f630a2bdc333d","6408c1777a67713c32f3fc79","[1136.6999998092651]","","","[21]","[121]","121","222","336.75589867109494","[336.75589867109494]","[114.75589867109494]","[114]","0","0","1","0","144.54999999998836","996.6959994277859","1000","[[[""img/mask100.png""]]]","","","main","222","color-precision2"
"","","","","","html-keyboard-response","32","212621","0.0-10.0-1.6","630cc9747cb664e8a03c29f0","640759fa512f630a2bdc333d","6408c1777a67713c32f3fc79","null","","null","","","","","","","","","","","","","","","","","","","fixation","",""
"","","","","","color-precision2","33","218301","0.0-10.0-0.7-0.7","630cc9747cb664e8a03c29f0","640759fa512f630a2bdc333d","6408c1777a67713c32f3fc79","[2378.5999994277954]","","","[18]","[89]","89","43","114.05244961885057","[114.05244961885057]","[71.05244961885057]","[69]","0","0","1","0","149.0010001907358","998.1379994277959","1000","[[[""img/mask25.png""]]]","","","main","43","color-precision2"
"","","","","","html-keyboard-response","34","218802","0.0-10.0-1.7","630cc9747cb664e8a03c29f0","640759fa512f630a2bdc333d","6408c1777a67713c32f3fc79","null","","null","","","","","","","","","","","","","","","","","","","fixation","",""
"","","","","","color-precision2","35","222286","0.0-10.0-0.8-0.8","630cc9747cb664e8a03c29f0","640759fa512f630a2bdc333d","6408c1777a67713c32f3fc79","[992.7000007629395]","","","[34]","[235]","235","328","202.27623099272446","[202.27623099272446]","[234.27623099272446]","[235]","0","0","1","0","149.8629996185191","1006.9839996185328","1000","[[[""img/mask41.png""]]]","","","main","328","color-precision2"
"","","","","","html-keyboard-response","36","222786","0.0-10.0-1.8","630cc9747cb664e8a03c29f0","640759fa512f630a2bdc333d","6408c1777a67713c32f3fc79","null","","null","","","","","","","","","","","","","","","","","","","fixation","",""
"","","","","","many-guess-6","37","228425","0.0-10.0-0.9-0.9","630cc9747cb664e8a03c29f0","640759fa512f630a2bdc333d","6408c1777a67713c32f3fc79","[3763.699999809265]","","","[35,27,13,4,20,17,15,29,7,25,18,16,8,1,12,24,19,3,6,34,14,5,10,11,28,0,21,9,22,2,26,33,23,30,32,31]","[3,212,133,163,63,342,182,153,232,282,222,292,202,73,192,113,23,53,242,13,322,332,33,252,93,83,103,143,123,173,43,352,302,262,272,312]","3","356","10.17910448901686","[10.17910448901686]","[14.17910448901688]","[13]","[120,210,300,300,30,210,300,210,210]","0","36","0","145.51899942778982","9.668999427784001","16","[[[""img/mask50.png""],[""img/mask16.png""],[""img/mask89.png""],[""img/mask23.png""],[""img/mask37.png""],[""img/mask45.png""],[""img/mask16.png""],[""img/mask39.png""],[""img/mask39.png""],[""img/mask100.png""],[""img/mask13.png""],[""img/mask38.png""],[""img/mask70.png""],[""img/mask49.png""],[""img/mask56.png""],[""img/mask4.png""],[""img/mask76.png""],[""img/mask7.png""],[""img/mask49.png""],[""img/mask76.png""],[""img/mask21.png""],[""img/mask91.png""],[""img/mask46.png""],[""img/mask12.png""],[""img/mask68.png""],[""img/mask36.png""],[""img/mask13.png""],[""img/mask18.png""],[""img/mask2.png""],[""img/mask29.png""],[""img/mask32.png""],[""img/mask41.png""],[""img/mask52.png""],[""img/mask9.png""],[""img/mask6.png""],[""img/mask8.png""]]]","","[35,27,13,4,20,17,15,29,7,25,18,16,8,1,12,24,19,3,6,34,14,5,10,11,28,0,21,9,22,2,26,33,23,30,32,31]","main","356","many-guess-6"
"","","","","","html-keyboard-response","38","228925","0.0-10.0-1.9","630cc9747cb664e8a03c29f0","640759fa512f630a2bdc333d","6408c1777a67713c32f3fc79","null","","null","","","","","","","","","","","","","","","","","","","fixation","",""
"","","","","","many-guess-6","39","233511","0.0-10.0-0.10-0.10","630cc9747cb664e8a03c29f0","640759fa512f630a2bdc333d","6408c1777a67713c32f3fc79","[3027.6000003814697]","","","[7,24,16,0,6,32,25,27,31,20,14,15,30,3,33,35,11,28,34,5,1,26,21,19,18,22,8,4,13,17,12,29,9,10,23,2]","[207,157,87,147,317,177,127,287,227,57,247,277,27,237,187,8,77,217,297,357,267,117,327,18,167,137,307,67,197,257,337,47,347,37,97,107]","207","67","140.53977800386298","[140.53977800386298]","[73.53977800386298]","[72]","[30,300,210,30,210,210,30,120,120]","0","36","0","148.6260001907358","14.589999427786097","16","[[[""img/mask82.png""],[""img/mask40.png""],[""img/mask50.png""],[""img/mask37.png""],[""img/mask4.png""],[""img/mask63.png""],[""img/mask74.png""],[""img/mask81.png""],[""img/mask75.png""],[""img/mask19.png""],[""img/mask59.png""],[""img/mask18.png""],[""img/mask21.png""],[""img/mask26.png""],[""img/mask24.png""],[""img/mask55.png""],[""img/mask41.png""],[""img/mask25.png""],[""img/mask38.png""],[""img/mask86.png""],[""img/mask65.png""],[""img/mask44.png""],[""img/mask97.png""],[""img/mask35.png""],[""img/mask87.png""],[""img/mask93.png""],[""img/mask48.png""],[""img/mask62.png""],[""img/mask20.png""],[""img/mask34.png""],[""img/mask52.png""],[""img/mask46.png""],[""img/mask97.png""],[""img/mask29.png""],[""img/mask67.png""],[""img/mask45.png""]]]","","[7,24,16,0,6,32,25,27,31,20,14,15,30,3,33,35,11,28,34,5,1,26,21,19,18,22,8,4,13,17,12,29,9,10,23,2]","main","67","many-guess-6"
"","","","","","html-keyboard-response","40","234026","0.0-10.0-1.10","630cc9747cb664e8a03c29f0","640759fa512f630a2bdc333d","6408c1777a67713c32f3fc79","null","","null","","","","","","","","","","","","","","","","","","","fixation","",""
"","","","","","many-guess-6","41","241269","0.0-10.0-0.11-0.11","630cc9747cb664e8a03c29f0","640759fa512f630a2bdc333d","6408c1777a67713c32f3fc79","[5312.199999809265]","","","[17,13,34,5,12,32,9,31,8,18,30,35,19,10,20,11,4,6,24,2,28,16,0,29,7,22,14,23,21,25,33,1,26,15,27,3]","[151,2,161,261,211,311,281,321,221,291,301,22,91,271,201,141,341,231,351,111,191,81,71,331,171,52,241,131,251,12,42,121,101,62,181,32]","151","183","1.9756177576921736","[1.9756177576921736]","[178.97561775769216]","[178]","[210,30,210,30,210,210,30,30,30]","0","36","0","149.65599942780682","10.872999999992317","16","[[[""img/mask63.png""],[""img/mask90.png""],[""img/mask2.png""],[""img/mask68.png""],[""img/mask21.png""],[""img/mask63.png""],[""img/mask45.png""],[""img/mask77.png""],[""img/mask30.png""],[""img/mask71.png""],[""img/mask23.png""],[""img/mask5.png""],[""img/mask12.png""],[""img/mask13.png""],[""img/mask16.png""],[""img/mask38.png""],[""img/mask99.png""],[""img/mask68.png""],[""img/mask52.png""],[""img/mask83.png""],[""img/mask25.png""],[""img/mask31.png""],[""img/mask89.png""],[""img/mask65.png""],[""img/mask63.png""],[""img/mask80.png""],[""img/mask95.png""],[""img/mask57.png""],[""img/mask3.png""],[""img/mask4.png""],[""img/mask1.png""],[""img/mask59.png""],[""img/mask16.png""],[""img/mask53.png""],[""img/mask66.png""],[""img/mask75.png""]]]","","[17,13,34,5,12,32,9,31,8,18,30,35,19,10,20,11,4,6,24,2,28,16,0,29,7,22,14,23,21,25,33,1,26,15,27,3]","main","183","many-guess-6"
"","","","","","html-keyboard-response","42","241770","0.0-10.0-1.11","630cc9747cb664e8a03c29f0","640759fa512f630a2bdc333d","6408c1777a67713c32f3fc79","null","","null","","","","","","","","","","","","","","","","","","","fixation","",""
"","","","","","many-guess-6","43","246815","0.0-10.0-0.12-0.12","630cc9747cb664e8a03c29f0","640759fa512f630a2bdc333d","6408c1777a67713c32f3fc79","[2887.199999809265]","","","[21,0,6,9,4,31,12,25,16,34,27,5,28,33,3,18,8,10,24,23,17,26,1,15,30,11,22,7,2,29,19,35,32,13,20,14]","[219,199,258,288,268,238,89,109,9,29,348,59,39,358,278,159,228,298,79,129,338,149,139,169,19,248,49,179,189,308,69,209,119,99,328,318]","219","117","333.55218442673856","[333.55218442673856]","[216.55218442673856]","[216]","[30,30,120,210,30,120,120,30,120]","0","36","0","147.56099961852306","22.053999427793315","16","[[[""img/mask67.png""],[""img/mask83.png""],[""img/mask58.png""],[""img/mask43.png""],[""img/mask94.png""],[""img/mask65.png""],[""img/mask38.png""],[""img/mask77.png""],[""img/mask54.png""],[""img/mask94.png""],[""img/mask79.png""],[""img/mask22.png""],[""img/mask27.png""],[""img/mask97.png""],[""img/mask23.png""],[""img/mask20.png""],[""img/mask39.png""],[""img/mask63.png""],[""img/mask11.png""],[""img/mask71.png""],[""img/mask25.png""],[""img/mask19.png""],[""img/mask25.png""],[""img/mask45.png""],[""img/mask78.png""],[""img/mask28.png""],[""img/mask17.png""],[""img/mask69.png""],[""img/mask3.png""],[""img/mask58.png""],[""img/mask23.png""],[""img/mask84.png""],[""img/mask51.png""],[""img/mask69.png""],[""img/mask9.png""],[""img/mask32.png""]]]","","[21,0,6,9,4,31,12,25,16,34,27,5,28,33,3,18,8,10,24,23,17,26,1,15,30,11,22,7,2,29,19,35,32,13,20,14]","main","117","many-guess-6"
"","","","","","html-keyboard-response","44","247316","0.0-10.0-1.12","630cc9747cb664e8a03c29f0","640759fa512f630a2bdc333d","6408c1777a67713c32f3fc79","null","","null","","","","","","","","","","","","","","","","","","","fixation","",""
"","","","","","color-precision2","45","251783","0.0-10.0-0.13-0.13","630cc9747cb664e8a03c29f0","640759fa512f630a2bdc333d","6408c1777a67713c32f3fc79","[1382.3999996185303]","","","[1]","[332]","332","77","42.19130146694114","[42.19130146694114]","[325.1913014669411]","[323]","0","0","1","0","150.07499980926514","1005.2630000000063","1000","[[[""img/mask5.png""]]]","","","main","77","color-precision2"
"","","","","","html-keyboard-response","46","252284","0.0-10.0-1.13","630cc9747cb664e8a03c29f0","640759fa512f630a2bdc333d","6408c1777a67713c32f3fc79","null","","null","","","","","","","","","","","","","","","","","","","fixation","",""
"","","","","","color-precision2","47","256033","0.0-10.0-0.14-0.14","630cc9747cb664e8a03c29f0","640759fa512f630a2bdc333d","6408c1777a67713c32f3fc79","[742.8000001907349]","","","[32]","[260]","260","201","102.0944529035859","[102.0944529035859]","[261.0944529035859]","[260]","0","0","1","0","147.7729994278052","1002.8999996185303","1000","[[[""img/mask52.png""]]]","","","main","201","color-precision2"
"","","","","","html-keyboard-response","48","256549","0.0-10.0-1.14","630cc9747cb664e8a03c29f0","640759fa512f630a2bdc333d","6408c1777a67713c32f3fc79","null","","null","","","","","","","","","","","","","","","","","","","fixation","",""
"","","","","","many-guess-6","49","261721","0.0-10.0-0.15-0.15","630cc9747cb664e8a03c29f0","640759fa512f630a2bdc333d","6408c1777a67713c32f3fc79","[3114.199999809265]","","","[20,34,16,6,5,3,23,21,4,18,9,28,12,22,13,35,17,7,8,33,25,11,24,19,27,26,1,2,15,0,10,31,32,30,29,14]","[304,164,35,284,25,135,105,125,314,324,174,204,45,294,224,354,15,334,274,244,145,55,115,75,5,184,85,214,264,194,234,65,344,254,155,95]","304","202","22.869138067864565","[22.869138067864565]","[180.86913806786455]","[180]","[210,210,210,120,300,300,30,210,120]","0","36","0","150.6610000000219","11.297000000020489","16","[[[""img/mask28.png""],[""img/mask95.png""],[""img/mask73.png""],[""img/mask47.png""],[""img/mask96.png""],[""img/mask79.png""],[""img/mask72.png""],[""img/mask80.png""],[""img/mask96.png""],[""img/mask88.png""],[""img/mask10.png""],[""img/mask84.png""],[""img/mask1.png""],[""img/mask33.png""],[""img/mask54.png""],[""img/mask17.png""],[""img/mask28.png""],[""img/mask85.png""],[""img/mask66.png""],[""img/mask85.png""],[""img/mask42.png""],[""img/mask60.png""],[""img/mask29.png""],[""img/mask91.png""],[""img/mask85.png""],[""img/mask74.png""],[""img/mask54.png""],[""img/mask57.png""],[""img/mask36.png""],[""img/mask45.png""],[""img/mask80.png""],[""img/mask24.png""],[""img/mask75.png""],[""img/mask56.png""],[""img/mask92.png""],[""img/mask32.png""]]]","","[20,34,16,6,5,3,23,21,4,18,9,28,12,22,13,35,17,7,8,33,25,11,24,19,27,26,1,2,15,0,10,31,32,30,29,14]","main","202","many-guess-6"
"","","","","","html-keyboard-response","50","262222","0.0-10.0-1.15","630cc9747cb664e8a03c29f0","640759fa512f630a2bdc333d","6408c1777a67713c32f3fc79","null","","null","","","","","","","","","","","","","","","","","","","fixation","",""
"","","","","","color-precision2","51","265675","0.0-10.0-0.16-0.16","630cc9747cb664e8a03c29f0","640759fa512f630a2bdc333d","6408c1777a67713c32f3fc79","[1129.8000001907349]","","","[8]","[240]","240","161","45.51234837375523","[45.51234837375523]","[244.51234837375523]","[243]","0","0","1","0","150.12999942782335","1004.2949994278024","1000","[[[""img/mask58.png""]]]","","","main","161","color-precision2"
"","","","","","html-keyboard-response","52","266189","0.0-10.0-1.16","630cc9747cb664e8a03c29f0","640759fa512f630a2bdc333d","6408c1777a67713c32f3fc79","null","","null","","","","","","","","","","","","","","","","","","","fixation","",""
"","","","","","color-precision2","53","270291","0.0-10.0-0.17-0.17","630cc9747cb664e8a03c29f0","640759fa512f630a2bdc333d","6408c1777a67713c32f3fc79","[1287.6000003814697]","","","[32]","[239]","239","206","85.39546894856636","[85.39546894856636]","[239.39546894856636]","[239]","0","0","1","0","153.8969998092507","999.00900000002","1000","[[[""img/mask8.png""]]]","","","main","206","color-precision2"
"","","","","","html-keyboard-response","54","270795","0.0-10.0-1.17","630cc9747cb664e8a03c29f0","640759fa512f630a2bdc333d","6408c1777a67713c32f3fc79","null","","null","","","","","","","","","","","","","","","","","","","fixation","",""
"","","","","","color-precision2","55","274065","0.0-10.0-0.18-0.18","630cc9747cb664e8a03c29f0","640759fa512f630a2bdc333d","6408c1777a67713c32f3fc79","[796.8000001907349]","","","[12]","[325]","325","283","243.29305330094815","[243.29305330094815]","[320.29305330094815]","[320]","0","0","1","0","149.79100019071484","998.1839994277689","1000","[[[""img/mask4.png""]]]","","","main","283","color-precision2"
"","","","","","html-keyboard-response","56","274566","0.0-10.0-1.18","630cc9747cb664e8a03c29f0","640759fa512f630a2bdc333d","6408c1777a67713c32f3fc79","null","","null","","","","","","","","","","","","","","","","","","","fixation","",""
"","","","","","color-precision2","57","278345","0.0-10.0-0.19-0.19","630cc9747cb664e8a03c29f0","640759fa512f630a2bdc333d","6408c1777a67713c32f3fc79","[840.3999996185303]","","","[8]","[337]","337","117","89.88048910410221","[89.88048910410221]","[332.8804891041022]","[331]","0","0","1","0","154.6479994278052","1006.3079998092726","1000","[[[""img/mask71.png""]]]","","","main","117","color-precision2"
"","","","","","html-keyboard-response","58","282071","0.0-10.0-1.19","630cc9747cb664e8a03c29f0","640759fa512f630a2bdc333d","6408c1777a67713c32f3fc79","3725.5","Wow! You've completed 20 out of 180 trials! </p> <p>  </p><p> Take a quick break, then press any key when you're ready to continue."," ","","","","","","","","","","","","","","","","","","","fixation","",""
"","","","","","many-guess-6","59","287259","0.0-10.0-0.20-0.20","630cc9747cb664e8a03c29f0","640759fa512f630a2bdc333d","6408c1777a67713c32f3fc79","[3310.9000005722046]","","","[2,27,3,12,35,22,13,8,20,25,9,10,29,0,11,21,1,31,30,26,28,17,33,34,5,18,23,6,19,32,14,16,4,7,24,15]","[154,343,274,44,264,333,224,204,54,353,34,124,134,214,94,184,254,64,323,164,234,4,284,24,74,114,194,303,174,14,313,244,294,144,104,84]","154","39","17.351481607364775","[17.351481607364775]","[338.3514816073648]","[337]","[300,120,300,210,30,300,210,300,210]","0","36","0","151.10999942780472","13.775999618519563","16","[[[""img/mask15.png""],[""img/mask48.png""],[""img/mask86.png""],[""img/mask35.png""],[""img/mask13.png""],[""img/mask28.png""],[""img/mask57.png""],[""img/mask71.png""],[""img/mask73.png""],[""img/mask65.png""],[""img/mask9.png""],[""img/mask30.png""],[""img/mask6.png""],[""img/mask39.png""],[""img/mask43.png""],[""img/mask85.png""],[""img/mask17.png""],[""img/mask74.png""],[""img/mask55.png""],[""img/mask24.png""],[""img/mask76.png""],[""img/mask24.png""],[""img/mask17.png""],[""img/mask24.png""],[""img/mask75.png""],[""img/mask25.png""],[""img/mask59.png""],[""img/mask57.png""],[""img/mask70.png""],[""img/mask30.png""],[""img/mask57.png""],[""img/mask5.png""],[""img/mask20.png""],[""img/mask45.png""],[""img/mask42.png""],[""img/mask1.png""]]]","","[2,27,3,12,35,22,13,8,20,25,9,10,29,0,11,21,1,31,30,26,28,17,33,34,5,18,23,6,19,32,14,16,4,7,24,15]","main","39","many-guess-6"
"","","","","","html-keyboard-response","60","287773","0.0-10.0-1.20","630cc9747cb664e8a03c29f0","640759fa512f630a2bdc333d","6408c1777a67713c32f3fc79","null","","null","","","","","","","","","","","","","","","","","","","fixation","",""
"","","","","","many-guess-6","61","295086","0.0-10.0-0.21-0.21","630cc9747cb664e8a03c29f0","640759fa512f630a2bdc333d","6408c1777a67713c32f3fc79","[5982.60000038147]","","","[0,13,35,4,21,3,6,23,11,27,24,22,15,10,31,34,33,2,5,1,28,7,29,19,20,9,18,32,8,16,14,25,30,26,12,17]","[80,289,50,100,140,20,60,120,70,309,249,269,30,259,110,90,279,179,199,150,229,329,40,349,10,209,299,130,169,189,339,319,359,219,239,160]","80","25","88.61230929871093","[88.61230929871093]","[63.612309298710926]","[62]","[30,30,300,300,210,300,210,120,300]","0","36","0","154.72099980927305","17.042999618512113","16","[[[""img/mask62.png""],[""img/mask29.png""],[""img/mask80.png""],[""img/mask7.png""],[""img/mask94.png""],[""img/mask77.png""],[""img/mask4.png""],[""img/mask96.png""],[""img/mask15.png""],[""img/mask52.png""],[""img/mask95.png""],[""img/mask50.png""],[""img/mask29.png""],[""img/mask36.png""],[""img/mask29.png""],[""img/mask39.png""],[""img/mask58.png""],[""img/mask76.png""],[""img/mask89.png""],[""img/mask13.png""],[""img/mask52.png""],[""img/mask14.png""],[""img/mask14.png""],[""img/mask21.png""],[""img/mask74.png""],[""img/mask8.png""],[""img/mask27.png""],[""img/mask34.png""],[""img/mask85.png""],[""img/mask94.png""],[""img/mask42.png""],[""img/mask78.png""],[""img/mask62.png""],[""img/mask38.png""],[""img/mask59.png""],[""img/mask46.png""]]]","","[0,13,35,4,21,3,6,23,11,27,24,22,15,10,31,34,33,2,5,1,28,7,29,19,20,9,18,32,8,16,14,25,30,26,12,17]","main","25","many-guess-6"
"","","","","","html-keyboard-response","62","295588","0.0-10.0-1.21","630cc9747cb664e8a03c29f0","640759fa512f630a2bdc333d","6408c1777a67713c32f3fc79","null","","null","","","","","","","","","","","","","","","","","","","fixation","",""
"","","","","","many-guess-6","63","300908","0.0-10.0-0.22-0.22","630cc9747cb664e8a03c29f0","640759fa512f630a2bdc333d","6408c1777a67713c32f3fc79","[2970]","","","[7,29,33,3,1,4,6,22,2,8,20,9,24,19,32,28,11,34,17,26,21,18,16,5,23,35,13,25,30,0,15,31,12,14,10,27]","[13,142,252,43,172,282,322,302,102,332,202,342,162,352,222,92,192,63,122,83,292,132,262,152,73,53,23,242,232,33,272,3,312,112,212,182]","13","191","72.63095241619409","[72.63095241619409]","[241.63095241619408]","[240]","[30,30,120,120,210,30,300,30,210]","0","36","0","148.3410000000149","19.32500000001164","16","[[[""img/mask66.png""],[""img/mask85.png""],[""img/mask16.png""],[""img/mask32.png""],[""img/mask1.png""],[""img/mask27.png""],[""img/mask98.png""],[""img/mask10.png""],[""img/mask98.png""],[""img/mask23.png""],[""img/mask65.png""],[""img/mask27.png""],[""img/mask82.png""],[""img/mask88.png""],[""img/mask77.png""],[""img/mask9.png""],[""img/mask65.png""],[""img/mask1.png""],[""img/mask49.png""],[""img/mask69.png""],[""img/mask60.png""],[""img/mask93.png""],[""img/mask29.png""],[""img/mask12.png""],[""img/mask57.png""],[""img/mask80.png""],[""img/mask98.png""],[""img/mask34.png""],[""img/mask90.png""],[""img/mask71.png""],[""img/mask24.png""],[""img/mask66.png""],[""img/mask92.png""],[""img/mask10.png""],[""img/mask92.png""],[""img/mask90.png""]]]","","[7,29,33,3,1,4,6,22,2,8,20,9,24,19,32,28,11,34,17,26,21,18,16,5,23,35,13,25,30,0,15,31,12,14,10,27]","main","191","many-guess-6"
"","","","","","html-keyboard-response","64","301410","0.0-10.0-1.22","630cc9747cb664e8a03c29f0","640759fa512f630a2bdc333d","6408c1777a67713c32f3fc79","null","","null","","","","","","","","","","","","","","","","","","","fixation","",""
"","","","","","many-guess-6","65","304750","0.0-10.0-0.23-0.23","630cc9747cb664e8a03c29f0","640759fa512f630a2bdc333d","6408c1777a67713c32f3fc79","[1907.6999998092651]","","","[4,29,22,8,7,33,26,1,3,2,9,35,18,32,0,24,34,12,16,6,21,20,31,11,27,25,17,10,23,19,14,30,15,5,13,28]","[326,147,276,87,356,286,37,196,27,57,346,17,306,117,7,137,176,166,296,226,216,97,266,206,107,256,316,77,246,336,186,127,67,47,236,157]","326","140","263.7170922700907","[263.7170922700907]","[123.71709227009069]","[124]","[120,300,120,210,210,210,30,120,210]","0","36","0","148.98599961854052","17.902999427809846","16","[[[""img/mask92.png""],[""img/mask59.png""],[""img/mask60.png""],[""img/mask15.png""],[""img/mask21.png""],[""img/mask28.png""],[""img/mask4.png""],[""img/mask85.png""],[""img/mask28.png""],[""img/mask88.png""],[""img/mask50.png""],[""img/mask88.png""],[""img/mask40.png""],[""img/mask18.png""],[""img/mask27.png""],[""img/mask58.png""],[""img/mask56.png""],[""img/mask50.png""],[""img/mask94.png""],[""img/mask36.png""],[""img/mask62.png""],[""img/mask57.png""],[""img/mask98.png""],[""img/mask3.png""],[""img/mask41.png""],[""img/mask37.png""],[""img/mask33.png""],[""img/mask82.png""],[""img/mask84.png""],[""img/mask43.png""],[""img/mask83.png""],[""img/mask4.png""],[""img/mask12.png""],[""img/mask29.png""],[""img/mask22.png""],[""img/mask19.png""]]]","","[4,29,22,8,7,33,26,1,3,2,9,35,18,32,0,24,34,12,16,6,21,20,31,11,27,25,17,10,23,19,14,30,15,5,13,28]","main","140","many-guess-6"
"","","","","","html-keyboard-response","66","305251","0.0-10.0-1.23","630cc9747cb664e8a03c29f0","640759fa512f630a2bdc333d","6408c1777a67713c32f3fc79","null","","null","","","","","","","","","","","","","","","","","","","fixation","",""
"","","","","","many-guess-6","67","310071","0.0-10.0-0.24-0.24","630cc9747cb664e8a03c29f0","640759fa512f630a2bdc333d","6408c1777a67713c32f3fc79","[3275.3999996185303]","","","[14,26,13,5,21,22,31,12,17,9,4,6,28,10,29,20,30,1,8,24,7,15,35,18,27,16,11,19,3,34,25,2,33,23,32,0]","[125,95,135,204,314,145,344,55,105,234,224,194,334,155,75,25,244,175,324,294,354,115,184,304,284,264,274,85,35,165,45,214,65,5,254,15]","125","16","100.85691986143335","[100.85691986143335]","[84.85691986143335]","[83]","[210,300,300,120,30,300,120,300,120]","0","36","0","149.35499942780007","17.144999427779112","16","[[[""img/mask11.png""],[""img/mask11.png""],[""img/mask40.png""],[""img/mask44.png""],[""img/mask86.png""],[""img/mask58.png""],[""img/mask35.png""],[""img/mask94.png""],[""img/mask74.png""],[""img/mask68.png""],[""img/mask98.png""],[""img/mask18.png""],[""img/mask13.png""],[""img/mask4.png""],[""img/mask12.png""],[""img/mask29.png""],[""img/mask43.png""],[""img/mask22.png""],[""img/mask44.png""],[""img/mask88.png""],[""img/mask29.png""],[""img/mask6.png""],[""img/mask10.png""],[""img/mask33.png""],[""img/mask21.png""],[""img/mask38.png""],[""img/mask11.png""],[""img/mask19.png""],[""img/mask1.png""],[""img/mask59.png""],[""img/mask96.png""],[""img/mask68.png""],[""img/mask60.png""],[""img/mask92.png""],[""img/mask20.png""],[""img/mask57.png""]]]","","[14,26,13,5,21,22,31,12,17,9,4,6,28,10,29,20,30,1,8,24,7,15,35,18,27,16,11,19,3,34,25,2,33,23,32,0]","main","16","many-guess-6"
"","","","","","html-keyboard-response","68","310573","0.0-10.0-1.24","630cc9747cb664e8a03c29f0","640759fa512f630a2bdc333d","6408c1777a67713c32f3fc79","null","","null","","","","","","","","","","","","","","","","","","","fixation","",""
"","","","","","color-precision2","69","316954","0.0-10.0-0.25-0.25","630cc9747cb664e8a03c29f0","640759fa512f630a2bdc333d","6408c1777a67713c32f3fc79","[669.6999998092651]","","","[7]","[96]","96","331","61.497001672505355","[61.497001672505355]","[90.49700167250535]","[89]","0","0","1","0","154.6589998092386","1004.3729998092749","1000","[[[""img/mask60.png""]]]","","","main","331","color-precision2"
"","","","","","html-keyboard-response","70","317456","0.0-10.0-1.25","630cc9747cb664e8a03c29f0","640759fa512f630a2bdc333d","6408c1777a67713c32f3fc79","null","","null","","","","","","","","","","","","","","","","","","","fixation","",""
"","","","","","many-guess-6","71","321570","0.0-10.0-0.26-0.26","630cc9747cb664e8a03c29f0","640759fa512f630a2bdc333d","6408c1777a67713c32f3fc79","[2791.199999809265]","","","[17,20,32,33,23,25,19,7,13,26,15,14,8,3,18,9,30,35,10,6,2,1,29,11,27,21,4,22,12,24,28,34,0,31,5,16]","[312,83,153,123,103,233,113,133,143,33,302,322,342,213,63,272,332,253,352,262,173,203,43,73,183,3,23,13,243,282,93,53,163,292,193,223]","312","169","145.77683960104443","[145.77683960104443]","[336.77683960104446]","[336]","[300,120,30,30,120,210,30,30,120]","0","36","0","154.8979999999865","22.179999999993015","16","[[[""img/mask2.png""],[""img/mask67.png""],[""img/mask6.png""],[""img/mask45.png""],[""img/mask75.png""],[""img/mask24.png""],[""img/mask10.png""],[""img/mask26.png""],[""img/mask50.png""],[""img/mask77.png""],[""img/mask96.png""],[""img/mask16.png""],[""img/mask65.png""],[""img/mask42.png""],[""img/mask52.png""],[""img/mask3.png""],[""img/mask52.png""],[""img/mask2.png""],[""img/mask10.png""],[""img/mask2.png""],[""img/mask78.png""],[""img/mask32.png""],[""img/mask85.png""],[""img/mask27.png""],[""img/mask15.png""],[""img/mask37.png""],[""img/mask100.png""],[""img/mask32.png""],[""img/mask27.png""],[""img/mask36.png""],[""img/mask17.png""],[""img/mask41.png""],[""img/mask90.png""],[""img/mask76.png""],[""img/mask92.png""],[""img/mask58.png""]]]","","[17,20,32,33,23,25,19,7,13,26,15,14,8,3,18,9,30,35,10,6,2,1,29,11,27,21,4,22,12,24,28,34,0,31,5,16]","main","169","many-guess-6"
"","","","","","html-keyboard-response","72","322072","0.0-10.0-1.26","630cc9747cb664e8a03c29f0","640759fa512f630a2bdc333d","6408c1777a67713c32f3fc79","null","","null","","","","","","","","","","","","","","","","","","","fixation","",""
"","","","","","many-guess-6","73","327414","0.0-10.0-0.27-0.27","630cc9747cb664e8a03c29f0","640759fa512f630a2bdc333d","6408c1777a67713c32f3fc79","[3402.1000003814697]","","","[3,1,17,28,20,13,32,8,26,16,4,34,11,18,2,21,31,27,6,35,19,14,7,25,15,30,22,0,9,24,33,12,5,23,29,10]","[352,233,133,283,263,3,323,43,273,93,253,123,113,213,193,13,63,53,83,243,163,103,173,313,183,303,73,203,343,33,293,153,333,23,143,223]","352","2","74.70163152709533","[74.70163152709533]","[72.70163152709533]","[71]","[300,30,30,210,120,210,210,210,210]","0","36","0","143.01499942777446","11.972000000008848","16","[[[""img/mask2.png""],[""img/mask55.png""],[""img/mask89.png""],[""img/mask17.png""],[""img/mask59.png""],[""img/mask64.png""],[""img/mask62.png""],[""img/mask75.png""],[""img/mask26.png""],[""img/mask100.png""],[""img/mask82.png""],[""img/mask35.png""],[""img/mask67.png""],[""img/mask30.png""],[""img/mask71.png""],[""img/mask13.png""],[""img/mask8.png""],[""img/mask61.png""],[""img/mask46.png""],[""img/mask65.png""],[""img/mask36.png""],[""img/mask20.png""],[""img/mask34.png""],[""img/mask67.png""],[""img/mask96.png""],[""img/mask73.png""],[""img/mask58.png""],[""img/mask6.png""],[""img/mask11.png""],[""img/mask11.png""],[""img/mask59.png""],[""img/mask42.png""],[""img/mask92.png""],[""img/mask34.png""],[""img/mask70.png""],[""img/mask83.png""]]]","","[3,1,17,28,20,13,32,8,26,16,4,34,11,18,2,21,31,27,6,35,19,14,7,25,15,30,22,0,9,24,33,12,5,23,29,10]","main","2","many-guess-6"
"","","","","","html-keyboard-response","74","327915","0.0-10.0-1.27","630cc9747cb664e8a03c29f0","640759fa512f630a2bdc333d","6408c1777a67713c32f3fc79","null","","null","","","","","","","","","","","","","","","","","","","fixation","",""
"","","","","","many-guess-6","75","332250","0.0-10.0-0.28-0.28","630cc9747cb664e8a03c29f0","640759fa512f630a2bdc333d","6408c1777a67713c32f3fc79","[2916.2999992370605]","","","[21,20,18,19,34,0,3,6,32,8,1,24,25,30,11,28,2,7,14,31,9,35,12,33,26,10,16,5,17,22,15,13,23,4,29,27]","[159,328,99,39,129,188,278,89,49,338,208,149,19,318,139,119,228,358,59,288,248,238,178,348,69,308,218,109,29,9,79,258,268,198,298,169]","159","238","245.92012908748833","[245.92012908748833]","[7.920129087488334]","[8]","[30,300,210,30,120,120,30,120,30]","0","36","0","152.24599961854983","8.690999427810311","16","[[[""img/mask83.png""],[""img/mask60.png""],[""img/mask4.png""],[""img/mask52.png""],[""img/mask94.png""],[""img/mask52.png""],[""img/mask87.png""],[""img/mask32.png""],[""img/mask24.png""],[""img/mask73.png""],[""img/mask51.png""],[""img/mask34.png""],[""img/mask22.png""],[""img/mask86.png""],[""img/mask23.png""],[""img/mask42.png""],[""img/mask74.png""],[""img/mask49.png""],[""img/mask47.png""],[""img/mask48.png""],[""img/mask92.png""],[""img/mask55.png""],[""img/mask89.png""],[""img/mask75.png""],[""img/mask90.png""],[""img/mask94.png""],[""img/mask63.png""],[""img/mask53.png""],[""img/mask65.png""],[""img/mask98.png""],[""img/mask17.png""],[""img/mask6.png""],[""img/mask50.png""],[""img/mask61.png""],[""img/mask92.png""],[""img/mask70.png""]]]","","[21,20,18,19,34,0,3,6,32,8,1,24,25,30,11,28,2,7,14,31,9,35,12,33,26,10,16,5,17,22,15,13,23,4,29,27]","main","238","many-guess-6"
"","","","","","html-keyboard-response","76","332761","0.0-10.0-1.28","630cc9747cb664e8a03c29f0","640759fa512f630a2bdc333d","6408c1777a67713c32f3fc79","null","","null","","","","","","","","","","","","","","","","","","","fixation","",""
"","","","","","many-guess-6","77","337452","0.0-10.0-0.29-0.29","630cc9747cb664e8a03c29f0","640759fa512f630a2bdc333d","6408c1777a67713c32f3fc79","[3151.5999994277954]","","","[1,18,25,31,9,4,21,28,13,22,17,35,26,7,20,24,15,14,29,10,34,5,23,3,11,30,8,6,0,32,27,16,2,12,19,33]","[299,189,109,129,199,209,119,20,259,229,339,70,159,349,329,89,139,179,219,289,359,99,249,309,149,10,319,40,80,239,60,169,30,279,50,269]","299","154","226.76936452412406","[226.76936452412406]","[72.76936452412406]","[73]","[210,30,120,30,300,300,210,30,300]","0","36","0","147.51999980927212","10.922999427770264","16","[[[""img/mask99.png""],[""img/mask97.png""],[""img/mask82.png""],[""img/mask22.png""],[""img/mask65.png""],[""img/mask67.png""],[""img/mask25.png""],[""img/mask15.png""],[""img/mask61.png""],[""img/mask96.png""],[""img/mask82.png""],[""img/mask66.png""],[""img/mask50.png""],[""img/mask32.png""],[""img/mask61.png""],[""img/mask68.png""],[""img/mask3.png""],[""img/mask34.png""],[""img/mask97.png""],[""img/mask82.png""],[""img/mask38.png""],[""img/mask35.png""],[""img/mask42.png""],[""img/mask80.png""],[""img/mask4.png""],[""img/mask47.png""],[""img/mask24.png""],[""img/mask53.png""],[""img/mask21.png""],[""img/mask23.png""],[""img/mask89.png""],[""img/mask64.png""],[""img/mask21.png""],[""img/mask24.png""],[""img/mask54.png""],[""img/mask78.png""]]]","","[1,18,25,31,9,4,21,28,13,22,17,35,26,7,20,24,15,14,29,10,34,5,23,3,11,30,8,6,0,32,27,16,2,12,19,33]","main","154","many-guess-6"
"","","","","","html-keyboard-response","78","337963","0.0-10.0-1.29","630cc9747cb664e8a03c29f0","640759fa512f630a2bdc333d","6408c1777a67713c32f3fc79","null","","null","","","","","","","","","","","","","","","","","","","fixation","",""
"","","","","","color-precision2","79","341235","0.0-10.0-0.30-0.30","630cc9747cb664e8a03c29f0","640759fa512f630a2bdc333d","6408c1777a67713c32f3fc79","[1043.6000003814697]","","","[7]","[79]","79","57","129.37342834436203","[129.37342834436203]","[72.37342834436203]","[71]","0","0","1","0","150.96799980924698","1007.1129998092656","1000","[[[""img/mask43.png""]]]","","","main","57","color-precision2"
"","","","","","html-keyboard-response","80","341748","0.0-10.0-1.30","630cc9747cb664e8a03c29f0","640759fa512f630a2bdc333d","6408c1777a67713c32f3fc79","null","","null","","","","","","","","","","","","","","","","","","","fixation","",""
"","","","","","many-guess-6","81","348664","0.0-10.0-0.31-0.31","630cc9747cb664e8a03c29f0","640759fa512f630a2bdc333d","6408c1777a67713c32f3fc79","[5322.5]","","","[20,25,17,30,4,32,34,9,10,31,19,11,7,21,1,3,24,33,18,28,14,26,8,23,5,6,12,2,27,0,15,35,29,16,22,13]","[245,275,65,125,265,255,355,115,335,85,55,175,325,155,6,225,45,105,135,35,215,95,195,205,185,295,235,285,305,26,165,315,345,75,16,145]","245","75","265.7227756175436","[265.7227756175436]","[190.72277561754362]","[191]","[300,120,300,30,300,30,120,210,300]","0","36","0","147.18999961850932","20.431999618536793","16","[[[""img/mask36.png""],[""img/mask40.png""],[""img/mask74.png""],[""img/mask17.png""],[""img/mask3.png""],[""img/mask49.png""],[""img/mask96.png""],[""img/mask89.png""],[""img/mask4.png""],[""img/mask10.png""],[""img/mask62.png""],[""img/mask22.png""],[""img/mask29.png""],[""img/mask37.png""],[""img/mask96.png""],[""img/mask59.png""],[""img/mask20.png""],[""img/mask77.png""],[""img/mask15.png""],[""img/mask78.png""],[""img/mask6.png""],[""img/mask66.png""],[""img/mask2.png""],[""img/mask66.png""],[""img/mask81.png""],[""img/mask17.png""],[""img/mask27.png""],[""img/mask29.png""],[""img/mask53.png""],[""img/mask14.png""],[""img/mask38.png""],[""img/mask30.png""],[""img/mask68.png""],[""img/mask34.png""],[""img/mask42.png""],[""img/mask67.png""]]]","","[20,25,17,30,4,32,34,9,10,31,19,11,7,21,1,3,24,33,18,28,14,26,8,23,5,6,12,2,27,0,15,35,29,16,22,13]","main","75","many-guess-6"
"","","","","","html-keyboard-response","82","349168","0.0-10.0-1.31","630cc9747cb664e8a03c29f0","640759fa512f630a2bdc333d","6408c1777a67713c32f3fc79","null","","null","","","","","","","","","","","","","","","","","","","fixation","",""
"","","","","","color-precision2","83","352649","0.0-10.0-0.32-0.32","630cc9747cb664e8a03c29f0","640759fa512f630a2bdc333d","6408c1777a67713c32f3fc79","[881.3999996185303]","","","[8]","[196]","196","136","336.81224847613476","[336.81224847613476]","[200.81224847613476]","[200]","0","0","1","0","150.28200019075302","991.8829996185377","1000","[[[""img/mask95.png""]]]","","","main","136","color-precision2"
"","","","","","html-keyboard-response","84","353159","0.0-10.0-1.32","630cc9747cb664e8a03c29f0","640759fa512f630a2bdc333d","6408c1777a67713c32f3fc79","null","","null","","","","","","","","","","","","","","","","","","","fixation","",""
"","","","","","color-precision2","85","356250","0.0-10.0-0.33-0.33","630cc9747cb664e8a03c29f0","640759fa512f630a2bdc333d","6408c1777a67713c32f3fc79","[652.5]","","","[1]","[80]","80","199","280.27289941131534","[280.27289941131534]","[81.27289941131534]","[81]","0","0","1","0","143.508999618527","998.000999427808","1000","[[[""img/mask83.png""]]]","","","main","199","color-precision2"
"","","","","","html-keyboard-response","86","356751","0.0-10.0-1.33","630cc9747cb664e8a03c29f0","640759fa512f630a2bdc333d","6408c1777a67713c32f3fc79","null","","null","","","","","","","","","","","","","","","","","","","fixation","",""
"","","","","","color-precision2","87","359530","0.0-10.0-0.34-0.34","630cc9747cb664e8a03c29f0","640759fa512f630a2bdc333d","6408c1777a67713c32f3fc79","[507.80000019073486]","","","[15]","[199]","199","53","249.68757022038636","[249.68757022038636]","[196.68757022038636]","[199]","0","0","1","0","146.9649994277861","992.8400000000256","1000","[[[""img/mask65.png""]]]","","","main","53","color-precision2"
"","","","","","html-keyboard-response","88","360041","0.0-10.0-1.34","630cc9747cb664e8a03c29f0","640759fa512f630a2bdc333d","6408c1777a67713c32f3fc79","null","","null","","","","","","","","","","","","","","","","","","","fixation","",""
"","","","","","color-precision2","89","362976","0.0-10.0-0.35-0.35","630cc9747cb664e8a03c29f0","640759fa512f630a2bdc333d","6408c1777a67713c32f3fc79","[635.8999996185303]","","","[13]","[129]","129","164","299.06463834871505","[299.06463834871505]","[135.06463834871505]","[135]","0","0","1","0","148.36599980929168","992.4629994278075","1000","[[[""img/mask31.png""]]]","","","main","164","color-precision2"
"","","","","","html-keyboard-response","90","363477","0.0-10.0-1.35","630cc9747cb664e8a03c29f0","640759fa512f630a2bdc333d","6408c1777a67713c32f3fc79","null","","null","","","","","","","","","","","","","","","","","","","fixation","",""
"","","","","","many-guess-6","91","368797","0.0-10.0-0.36-0.36","630cc9747cb664e8a03c29f0","640759fa512f630a2bdc333d","6408c1777a67713c32f3fc79","[4157.10000038147]","","","[32,34,25,28,26,22,20,13,17,4,27,31,24,11,14,23,1,19,9,5,15,29,16,8,6,2,30,18,35,21,10,3,7,12,33,0]","[326,147,87,167,97,306,27,57,236,117,47,296,37,77,256,226,7,266,127,187,276,177,17,346,216,286,246,336,107,197,206,67,356,316,137,157]","326","50","25.2543995324999","[25.2543995324999]","[335.2543995324999]","[334]","[300,30,300,120,30,210,210,210,210]","0","36","0","141.4090001907316","19.30499942781171","16","[[[""img/mask31.png""],[""img/mask22.png""],[""img/mask81.png""],[""img/mask12.png""],[""img/mask74.png""],[""img/mask64.png""],[""img/mask65.png""],[""img/mask1.png""],[""img/mask59.png""],[""img/mask75.png""],[""img/mask93.png""],[""img/mask43.png""],[""img/mask4.png""],[""img/mask62.png""],[""img/mask95.png""],[""img/mask65.png""],[""img/mask24.png""],[""img/mask22.png""],[""img/mask96.png""],[""img/mask91.png""],[""img/mask74.png""],[""img/mask55.png""],[""img/mask11.png""],[""img/mask42.png""],[""img/mask52.png""],[""img/mask65.png""],[""img/mask44.png""],[""img/mask12.png""],[""img/mask12.png""],[""img/mask39.png""],[""img/mask3.png""],[""img/mask17.png""],[""img/mask4.png""],[""img/mask44.png""],[""img/mask14.png""],[""img/mask9.png""]]]","","[32,34,25,28,26,22,20,13,17,4,27,31,24,11,14,23,1,19,9,5,15,29,16,8,6,2,30,18,35,21,10,3,7,12,33,0]","main","50","many-guess-6"
"","","","","","html-keyboard-response","92","369298","0.0-10.0-1.36","630cc9747cb664e8a03c29f0","640759fa512f630a2bdc333d","6408c1777a67713c32f3fc79","null","","null","","","","","","","","","","","","","","","","","","","fixation","",""
"","","","","","many-guess-6","93","375920","0.0-10.0-0.37-0.37","630cc9747cb664e8a03c29f0","640759fa512f630a2bdc333d","6408c1777a67713c32f3fc79","[4337.199999809265]","","","[20,13,26,33,9,6,15,24,2,0,19,4,12,1,34,30,3,16,23,18,8,7,14,5,22,21,10,32,35,31,27,29,25,17,28,11]","[148,228,168,278,9,48,218,78,39,248,88,348,178,98,238,258,108,58,138,318,358,338,288,308,128,198,19,298,29,208,158,118,68,188,328,268]","148","311","271.50254521114954","[271.50254521114954]","[320.50254521114954]","[321]","[300,30,300,120,210,30,120,30,120]","0","36","0","150.28899980924325","23.28499999997439","16","[[[""img/mask51.png""],[""img/mask54.png""],[""img/mask31.png""],[""img/mask18.png""],[""img/mask95.png""],[""img/mask78.png""],[""img/mask25.png""],[""img/mask88.png""],[""img/mask48.png""],[""img/mask79.png""],[""img/mask2.png""],[""img/mask80.png""],[""img/mask78.png""],[""img/mask47.png""],[""img/mask43.png""],[""img/mask74.png""],[""img/mask98.png""],[""img/mask36.png""],[""img/mask25.png""],[""img/mask63.png""],[""img/mask64.png""],[""img/mask10.png""],[""img/mask73.png""],[""img/mask82.png""],[""img/mask97.png""],[""img/mask58.png""],[""img/mask64.png""],[""img/mask64.png""],[""img/mask47.png""],[""img/mask26.png""],[""img/mask57.png""],[""img/mask72.png""],[""img/mask59.png""],[""img/mask3.png""],[""img/mask6.png""],[""img/mask80.png""]]]","","[20,13,26,33,9,6,15,24,2,0,19,4,12,1,34,30,3,16,23,18,8,7,14,5,22,21,10,32,35,31,27,29,25,17,28,11]","main","311","many-guess-6"
"","","","","","html-keyboard-response","94","376422","0.0-10.0-1.37","630cc9747cb664e8a03c29f0","640759fa512f630a2bdc333d","6408c1777a67713c32f3fc79","null","","null","","","","","","","","","","","","","","","","","","","fixation","",""
"","","","","","many-guess-6","95","383412","0.0-10.0-0.38-0.38","630cc9747cb664e8a03c29f0","640759fa512f630a2bdc333d","6408c1777a67713c32f3fc79","[4924.60000038147]","","","[19,7,10,34,5,13,8,11,32,22,15,12,24,14,33,28,31,1,30,21,3,26,6,20,35,27,29,2,4,25,0,9,18,17,23,16]","[315,155,185,235,355,105,85,135,115,46,255,285,55,36,265,125,305,205,175,245,225,335,65,16,26,6,95,275,345,295,165,195,75,215,145,325]","315","79","334.7675167529944","[334.7675167529944]","[255.76751675299442]","[255]","[300,30,210,210,120,30,300,120,120]","0","36","0","147.42199980927398","7.8950000000186265","16","[[[""img/mask97.png""],[""img/mask46.png""],[""img/mask37.png""],[""img/mask10.png""],[""img/mask86.png""],[""img/mask81.png""],[""img/mask67.png""],[""img/mask81.png""],[""img/mask100.png""],[""img/mask99.png""],[""img/mask24.png""],[""img/mask48.png""],[""img/mask42.png""],[""img/mask38.png""],[""img/mask64.png""],[""img/mask26.png""],[""img/mask14.png""],[""img/mask33.png""],[""img/mask36.png""],[""img/mask45.png""],[""img/mask69.png""],[""img/mask99.png""],[""img/mask52.png""],[""img/mask71.png""],[""img/mask32.png""],[""img/mask31.png""],[""img/mask73.png""],[""img/mask26.png""],[""img/mask97.png""],[""img/mask67.png""],[""img/mask50.png""],[""img/mask58.png""],[""img/mask44.png""],[""img/mask47.png""],[""img/mask41.png""],[""img/mask64.png""]]]","","[19,7,10,34,5,13,8,11,32,22,15,12,24,14,33,28,31,1,30,21,3,26,6,20,35,27,29,2,4,25,0,9,18,17,23,16]","main","79","many-guess-6"
"","","","","","html-keyboard-response","96","383913","0.0-10.0-1.38","630cc9747cb664e8a03c29f0","640759fa512f630a2bdc333d","6408c1777a67713c32f3fc79","null","","null","","","","","","","","","","","","","","","","","","","fixation","",""
"","","","","","many-guess-6","97","387928","0.0-10.0-0.39-0.39","630cc9747cb664e8a03c29f0","640759fa512f630a2bdc333d","6408c1777a67713c32f3fc79","[2519.0999994277954]","","","[34,16,9,29,25,10,12,14,3,13,21,4,11,6,35,28,7,0,32,18,1,24,5,17,27,8,22,15,2,30,23,33,31,19,26,20]","[293,103,3,83,352,63,113,193,53,13,73,313,273,243,143,203,323,123,23,283,93,263,253,223,213,163,153,43,342,133,183,33,173,233,332,303]","293","23","322.97740667336603","[322.97740667336603]","[299.97740667336603]","[300]","[30,210,120,120,210,300,30,120,120]","0","36","0","147.8049994278117","18.588999809289817","16","[[[""img/mask25.png""],[""img/mask18.png""],[""img/mask41.png""],[""img/mask22.png""],[""img/mask90.png""],[""img/mask19.png""],[""img/mask50.png""],[""img/mask36.png""],[""img/mask45.png""],[""img/mask15.png""],[""img/mask75.png""],[""img/mask16.png""],[""img/mask86.png""],[""img/mask77.png""],[""img/mask13.png""],[""img/mask23.png""],[""img/mask78.png""],[""img/mask8.png""],[""img/mask12.png""],[""img/mask46.png""],[""img/mask36.png""],[""img/mask80.png""],[""img/mask66.png""],[""img/mask53.png""],[""img/mask91.png""],[""img/mask95.png""],[""img/mask46.png""],[""img/mask99.png""],[""img/mask26.png""],[""img/mask80.png""],[""img/mask16.png""],[""img/mask99.png""],[""img/mask62.png""],[""img/mask98.png""],[""img/mask74.png""],[""img/mask82.png""]]]","","[34,16,9,29,25,10,12,14,3,13,21,4,11,6,35,28,7,0,32,18,1,24,5,17,27,8,22,15,2,30,23,33,31,19,26,20]","main","23","many-guess-6"
"","","","","","html-keyboard-response","98","390910","0.0-10.0-1.39","630cc9747cb664e8a03c29f0","640759fa512f630a2bdc333d","6408c1777a67713c32f3fc79","2981.5999994277954","Wow! You've completed 40 out of 180 trials! </p> <p>  </p><p> Take a quick break, then press any key when you're ready to continue."," ","","","","","","","","","","","","","","","","","","","fixation","",""
"","","","","","many-guess-6","99","396498","0.0-10.0-0.40-0.40","630cc9747cb664e8a03c29f0","640759fa512f630a2bdc333d","6408c1777a67713c32f3fc79","[2294.1000003814697]","","","[33,18,31,1,30,0,35,25,11,24,9,5,12,15,29,32,19,27,22,14,21,28,3,2,16,13,10,7,23,8,34,4,20,26,17,6]","[150,200,160,50,329,269,80,289,239,110,30,90,319,130,140,210,259,299,70,339,60,120,40,170,190,100,219,180,10,309,279,249,359,20,229,349]","150","315","19.02749444889035","[19.02749444889035]","[64.02749444889037]","[63]","[300,300,210,30,300,30,30,120,120]","0","36","0","152.67300019075628","18.003000190714374","16","[[[""img/mask15.png""],[""img/mask13.png""],[""img/mask78.png""],[""img/mask14.png""],[""img/mask45.png""],[""img/mask59.png""],[""img/mask16.png""],[""img/mask74.png""],[""img/mask26.png""],[""img/mask89.png""],[""img/mask74.png""],[""img/mask91.png""],[""img/mask80.png""],[""img/mask75.png""],[""img/mask50.png""],[""img/mask5.png""],[""img/mask79.png""],[""img/mask61.png""],[""img/mask39.png""],[""img/mask13.png""],[""img/mask52.png""],[""img/mask98.png""],[""img/mask34.png""],[""img/mask20.png""],[""img/mask95.png""],[""img/mask99.png""],[""img/mask43.png""],[""img/mask56.png""],[""img/mask8.png""],[""img/mask18.png""],[""img/mask10.png""],[""img/mask35.png""],[""img/mask20.png""],[""img/mask21.png""],[""img/mask55.png""],[""img/mask81.png""]]]","","[33,18,31,1,30,0,35,25,11,24,9,5,12,15,29,32,19,27,22,14,21,28,3,2,16,13,10,7,23,8,34,4,20,26,17,6]","main","315","many-guess-6"
"","","","","","html-keyboard-response","100","396999","0.0-10.0-1.40","630cc9747cb664e8a03c29f0","640759fa512f630a2bdc333d","6408c1777a67713c32f3fc79","null","","null","","","","","","","","","","","","","","","","","","","fixation","",""
"","","","","","many-guess-6","101","400006","0.0-10.0-0.41-0.41","630cc9747cb664e8a03c29f0","640759fa512f630a2bdc333d","6408c1777a67713c32f3fc79","[1701.6999998092651]","","","[25,24,31,13,3,14,8,30,18,27,5,2,35,17,0,4,33,16,15,29,34,26,7,22,23,28,10,19,32,11,20,1,9,21,6,12]","[30,169,359,239,269,129,80,119,349,319,159,209,279,249,40,259,189,109,90,60,299,179,289,309,50,20,329,229,100,339,70,199,219,10,149,139]","30","106","47.26468238736021","[47.26468238736021]","[301.2646823873602]","[300]","[30,30,120,30,210,300,300,210,30]","0","36","0","146.90399980929215","9.167999618512113","16","[[[""img/mask98.png""],[""img/mask37.png""],[""img/mask60.png""],[""img/mask16.png""],[""img/mask17.png""],[""img/mask99.png""],[""img/mask47.png""],[""img/mask12.png""],[""img/mask78.png""],[""img/mask25.png""],[""img/mask54.png""],[""img/mask78.png""],[""img/mask58.png""],[""img/mask2.png""],[""img/mask20.png""],[""img/mask39.png""],[""img/mask4.png""],[""img/mask20.png""],[""img/mask17.png""],[""img/mask52.png""],[""img/mask82.png""],[""img/mask90.png""],[""img/mask24.png""],[""img/mask81.png""],[""img/mask46.png""],[""img/mask91.png""],[""img/mask37.png""],[""img/mask86.png""],[""img/mask52.png""],[""img/mask57.png""],[""img/mask100.png""],[""img/mask17.png""],[""img/mask26.png""],[""img/mask97.png""],[""img/mask32.png""],[""img/mask48.png""]]]","","[25,24,31,13,3,14,8,30,18,27,5,2,35,17,0,4,33,16,15,29,34,26,7,22,23,28,10,19,32,11,20,1,9,21,6,12]","main","106","many-guess-6"
"","","","","","html-keyboard-response","102","400507","0.0-10.0-1.41","630cc9747cb664e8a03c29f0","640759fa512f630a2bdc333d","6408c1777a67713c32f3fc79","null","","null","","","","","","","","","","","","","","","","","","","fixation","",""
"","","","","","color-precision2","103","403327","0.0-10.0-0.42-0.42","630cc9747cb664e8a03c29f0","640759fa512f630a2bdc333d","6408c1777a67713c32f3fc79","[609.6000003814697]","","","[3]","[200]","200","48","246.2173292159509","[246.2173292159509]","[198.2173292159509]","[200]","0","0","1","0","156.35600000002887","996.5150001907605","1000","[[[""img/mask22.png""]]]","","","main","48","color-precision2"
"","","","","","html-keyboard-response","104","403832","0.0-10.0-1.42","630cc9747cb664e8a03c29f0","640759fa512f630a2bdc333d","6408c1777a67713c32f3fc79","null","","null","","","","","","","","","","","","","","","","","","","fixation","",""
"","","","","","color-precision2","105","407711","0.0-10.0-0.43-0.43","630cc9747cb664e8a03c29f0","640759fa512f630a2bdc333d","6408c1777a67713c32f3fc79","[1096.5]","","","[31]","[300]","300","88","31.144226451539048","[31.144226451539048]","[303.14422645153905]","[302]","0","0","1","0","152.61599980929168","1005.5879998092423","1000","[[[""img/mask22.png""]]]","","","main","88","color-precision2"
"","","","","","html-keyboard-response","106","408211","0.0-10.0-1.43","630cc9747cb664e8a03c29f0","640759fa512f630a2bdc333d","6408c1777a67713c32f3fc79","null","","null","","","","","","","","","","","","","","","","","","","fixation","",""
"","","","","","color-precision2","107","411366","0.0-10.0-0.44-0.44","630cc9747cb664e8a03c29f0","640759fa512f630a2bdc333d","6408c1777a67713c32f3fc79","[652.5]","","","[10]","[243]","243","16","257.30044550970075","[257.30044550970075]","[241.30044550970075]","[243]","0","0","1","0","148.25599980924744","996.0979996185051","1000","[[[""img/mask21.png""]]]","","","main","16","color-precision2"
"","","","","","html-keyboard-response","108","411867","0.0-10.0-1.44","630cc9747cb664e8a03c29f0","640759fa512f630a2bdc333d","6408c1777a67713c32f3fc79","null","","null","","","","","","","","","","","","","","","","","","","fixation","",""
"","","","","","many-guess-6","109","416560","0.0-10.0-0.45-0.45","630cc9747cb664e8a03c29f0","640759fa512f630a2bdc333d","6408c1777a67713c32f3fc79","[2944.699999809265]","","","[10,9,34,28,26,13,30,8,5,25,12,22,6,21,27,23,15,19,0,20,32,14,33,17,2,16,31,1,7,24,18,11,4,29,35,3]","[101,320,1,300,270,340,180,11,61,21,111,41,350,81,260,140,121,51,160,190,210,170,150,230,71,91,200,31,220,290,280,330,310,240,130,250]","101","197","267.05546949987666","[267.05546949987666]","[70.05546949987666]","[70]","[210,120,120,30,120,210,120,210,120]","0","36","0","147.4309999999823","21.12499961850699","16","[[[""img/mask5.png""],[""img/mask59.png""],[""img/mask46.png""],[""img/mask85.png""],[""img/mask37.png""],[""img/mask33.png""],[""img/mask90.png""],[""img/mask57.png""],[""img/mask46.png""],[""img/mask61.png""],[""img/mask94.png""],[""img/mask94.png""],[""img/mask31.png""],[""img/mask48.png""],[""img/mask27.png""],[""img/mask92.png""],[""img/mask16.png""],[""img/mask15.png""],[""img/mask97.png""],[""img/mask20.png""],[""img/mask20.png""],[""img/mask48.png""],[""img/mask26.png""],[""img/mask85.png""],[""img/mask6.png""],[""img/mask72.png""],[""img/mask17.png""],[""img/mask9.png""],[""img/mask47.png""],[""img/mask33.png""],[""img/mask87.png""],[""img/mask93.png""],[""img/mask78.png""],[""img/mask47.png""],[""img/mask25.png""],[""img/mask80.png""]]]","","[10,9,34,28,26,13,30,8,5,25,12,22,6,21,27,23,15,19,0,20,32,14,33,17,2,16,31,1,7,24,18,11,4,29,35,3]","main","197","many-guess-6"
"","","","","","html-keyboard-response","110","417061","0.0-10.0-1.45","630cc9747cb664e8a03c29f0","640759fa512f630a2bdc333d","6408c1777a67713c32f3fc79","null","","null","","","","","","","","","","","","","","","","","","","fixation","",""
"","","","","","color-precision2","111","420680","0.0-10.0-0.46-0.46","630cc9747cb664e8a03c29f0","640759fa512f630a2bdc333d","6408c1777a67713c32f3fc79","[1309.5]","","","[14]","[104]","104","109","213.64081288160767","[213.64081288160767]","[104.64081288160767]","[104]","0","0","1","0","148.04699942778097","996.1639999999898","1000","[[[""img/mask99.png""]]]","","","main","109","color-precision2"
"","","","","","html-keyboard-response","112","421181","0.0-10.0-1.46","630cc9747cb664e8a03c29f0","640759fa512f630a2bdc333d","6408c1777a67713c32f3fc79","null","","null","","","","","","","","","","","","","","","","","","","fixation","",""
"","","","","","many-guess-6","113","426700","0.0-10.0-0.47-0.47","630cc9747cb664e8a03c29f0","640759fa512f630a2bdc333d","6408c1777a67713c32f3fc79","[4259.599999427795]","","","[5,9,1,7,28,13,17,14,2,6,32,20,34,22,33,21,11,15,3,24,8,10,25,23,19,26,35,18,16,0,27,30,4,12,29,31]","[290,250,350,181,330,260,111,191,161,51,280,141,151,310,340,211,21,81,240,131,1,221,61,41,230,320,91,101,71,11,31,171,300,121,270,201]","290","337","354.4976897241273","[354.4976897241273]","[17.497689724127326]","[17]","[120,210,30,120,30,120,30,210,30]","0","36","0","149.68499942781636","16.55399942782242","16","[[[""img/mask59.png""],[""img/mask15.png""],[""img/mask80.png""],[""img/mask86.png""],[""img/mask53.png""],[""img/mask54.png""],[""img/mask56.png""],[""img/mask86.png""],[""img/mask61.png""],[""img/mask81.png""],[""img/mask65.png""],[""img/mask31.png""],[""img/mask85.png""],[""img/mask33.png""],[""img/mask49.png""],[""img/mask27.png""],[""img/mask99.png""],[""img/mask74.png""],[""img/mask80.png""],[""img/mask32.png""],[""img/mask73.png""],[""img/mask7.png""],[""img/mask16.png""],[""img/mask33.png""],[""img/mask48.png""],[""img/mask87.png""],[""img/mask2.png""],[""img/mask35.png""],[""img/mask40.png""],[""img/mask34.png""],[""img/mask90.png""],[""img/mask38.png""],[""img/mask17.png""],[""img/mask85.png""],[""img/mask22.png""],[""img/mask25.png""]]]","","[5,9,1,7,28,13,17,14,2,6,32,20,34,22,33,21,11,15,3,24,8,10,25,23,19,26,35,18,16,0,27,30,4,12,29,31]","main","337","many-guess-6"
"","","","","","html-keyboard-response","114","427206","0.0-10.0-1.47","630cc9747cb664e8a03c29f0","640759fa512f630a2bdc333d","6408c1777a67713c32f3fc79","null","","null","","","","","","","","","","","","","","","","","","","fixation","",""
"","","","","","color-precision2","115","431794","0.0-10.0-0.48-0.48","630cc9747cb664e8a03c29f0","640759fa512f630a2bdc333d","6408c1777a67713c32f3fc79","[1278]","","","[15]","[22]","22","137","154.8507523303067","[154.8507523303067]","[17.850752330306705]","[16]","0","0","1","0","147.74799980927492","1008.2529994277866","1000","[[[""img/mask46.png""]]]","","","main","137","color-precision2"
"","","","","","html-keyboard-response","116","432300","0.0-10.0-1.48","630cc9747cb664e8a03c29f0","640759fa512f630a2bdc333d","6408c1777a67713c32f3fc79","null","","null","","","","","","","","","","","","","","","","","","","fixation","",""
"","","","","","color-precision2","117","435500","0.0-10.0-0.49-0.49","630cc9747cb664e8a03c29f0","640759fa512f630a2bdc333d","6408c1777a67713c32f3fc79","[733.8999996185303]","","","[33]","[12]","12","148","154.7997933345817","[154.7997933345817]","[6.799793334581693]","[5]","0","0","1","0","150.29199980926933","1002.8240000000224","1000","[[[""img/mask33.png""]]]","","","main","148","color-precision2"
"","","","","","html-keyboard-response","118","436011","0.0-10.0-1.49","630cc9747cb664e8a03c29f0","640759fa512f630a2bdc333d","6408c1777a67713c32f3fc79","null","","null","","","","","","","","","","","","","","","","","","","fixation","",""
"","","","","","color-precision2","119","439216","0.0-10.0-0.50-0.50","630cc9747cb664e8a03c29f0","640759fa512f630a2bdc333d","6408c1777a67713c32f3fc79","[596.5]","","","[28]","[243]","243","11","256.5559179483761","[256.5559179483761]","[245.55591794837608]","[246]","0","0","1","0","155.5340001907316","994.3409996185219","1000","[[[""img/mask17.png""]]]","","","main","11","color-precision2"
"","","","","","html-keyboard-response","120","439724","0.0-10.0-1.50","630cc9747cb664e8a03c29f0","640759fa512f630a2bdc333d","6408c1777a67713c32f3fc79","null","","null","","","","","","","","","","","","","","","","","","","fixation","",""
"","","","","","color-precision2","121","442856","0.0-10.0-0.51-0.51","630cc9747cb664e8a03c29f0","640759fa512f630a2bdc333d","6408c1777a67713c32f3fc79","[799.8000001907349]","","","[25]","[356]","356","179","160.9717738789156","[160.9717738789156]","[341.9717738789156]","[341]","0","0","1","0","148.56499961850932","1007.8249998092651","1000","[[[""img/mask38.png""]]]","","","main","179","color-precision2"
"","","","","","html-keyboard-response","122","443368","0.0-10.0-1.51","630cc9747cb664e8a03c29f0","640759fa512f630a2bdc333d","6408c1777a67713c32f3fc79","null","","null","","","","","","","","","","","","","","","","","","","fixation","",""
"","","","","","color-precision2","123","446528","0.0-10.0-0.52-0.52","630cc9747cb664e8a03c29f0","640759fa512f630a2bdc333d","6408c1777a67713c32f3fc79","[861]","","","[11]","[288]","288","69","9.560470643813526","[9.560470643813526]","[300.5604706438135]","[300]","0","0","1","0","154.5109996185056","1001.4519994278089","1000","[[[""img/mask22.png""]]]","","","main","69","color-precision2"
"","","","","","html-keyboard-response","124","447044","0.0-10.0-1.52","630cc9747cb664e8a03c29f0","640759fa512f630a2bdc333d","6408c1777a67713c32f3fc79","null","","null","","","","","","","","","","","","","","","","","","","fixation","",""
"","","","","","color-precision2","125","449840","0.0-10.0-0.53-0.53","630cc9747cb664e8a03c29f0","640759fa512f630a2bdc333d","6408c1777a67713c32f3fc79","[342.19999980926514]","","","[4]","[80]","80","225","301.9434040320446","[301.9434040320446]","[76.94340403204461]","[77]","0","0","1","0","151.08099961851258","1004.4929998092703","1000","[[[""img/mask42.png""]]]","","","main","225","color-precision2"
"","","","","","html-keyboard-response","126","450341","0.0-10.0-1.53","630cc9747cb664e8a03c29f0","640759fa512f630a2bdc333d","6408c1777a67713c32f3fc79","null","","null","","","","","","","","","","","","","","","","","","","fixation","",""
"","","","","","color-precision2","127","453848","0.0-10.0-0.54-0.54","630cc9747cb664e8a03c29f0","640759fa512f630a2bdc333d","6408c1777a67713c32f3fc79","[1155.4000005722046]","","","[30]","[211]","211","225","73.38604544955105","[73.38604544955105]","[208.38604544955103]","[206]","0","0","1","0","144.20100000000093","995.0279998092446","1000","[[[""img/mask75.png""]]]","","","main","225","color-precision2"
"","","","","","html-keyboard-response","128","454349","0.0-10.0-1.54","630cc9747cb664e8a03c29f0","640759fa512f630a2bdc333d","6408c1777a67713c32f3fc79","null","","null","","","","","","","","","","","","","","","","","","","fixation","",""
"","","","","","color-precision2","129","457834","0.0-10.0-0.55-0.55","630cc9747cb664e8a03c29f0","640759fa512f630a2bdc333d","6408c1777a67713c32f3fc79","[932.3000001907349]","","","[31]","[113]","113","260","11.645760049352312","[11.645760049352312]","[111.6457600493523]","[111]","0","0","1","0","144.14000019076047","997.2969996185275","1000","[[[""img/mask31.png""]]]","","","main","260","color-precision2"
"","","","","","html-keyboard-response","130","458344","0.0-10.0-1.55","630cc9747cb664e8a03c29f0","640759fa512f630a2bdc333d","6408c1777a67713c32f3fc79","null","","null","","","","","","","","","","","","","","","","","","","fixation","",""
"","","","","","color-precision2","131","461770","0.0-10.0-0.56-0.56","630cc9747cb664e8a03c29f0","640759fa512f630a2bdc333d","6408c1777a67713c32f3fc79","[1276.2000007629395]","","","[11]","[113]","113","43","157.13384697870208","[157.13384697870208]","[114.13384697870208]","[113]","0","0","1","0","153.6599996185396","991.9490000000224","1000","[[[""img/mask77.png""]]]","","","main","43","color-precision2"
"","","","","","html-keyboard-response","132","462275","0.0-10.0-1.56","630cc9747cb664e8a03c29f0","640759fa512f630a2bdc333d","6408c1777a67713c32f3fc79","null","","null","","","","","","","","","","","","","","","","","","","fixation","",""
"","","","","","many-guess-6","133","465732","0.0-10.0-0.57-0.57","630cc9747cb664e8a03c29f0","640759fa512f630a2bdc333d","6408c1777a67713c32f3fc79","[2242.5]","","","[22,25,32,1,14,35,8,11,31,18,2,28,7,6,17,34,23,21,0,10,4,9,13,20,5,30,19,12,3,27,16,29,33,24,15,26]","[351,162,112,72,22,132,12,152,172,262,52,32,142,192,232,182,62,82,292,202,312,122,92,331,2,242,42,272,341,222,212,102,302,282,321,252]","351","181","293.55398875815473","[293.55398875815473]","[112.55398875815473]","[113]","[120,300,120,210,120,210,300,300,30]","0","36","0","147.59899961855263","18.783999427803792","16","[[[""img/mask9.png""],[""img/mask71.png""],[""img/mask71.png""],[""img/mask87.png""],[""img/mask24.png""],[""img/mask31.png""],[""img/mask24.png""],[""img/mask73.png""],[""img/mask18.png""],[""img/mask65.png""],[""img/mask19.png""],[""img/mask18.png""],[""img/mask43.png""],[""img/mask3.png""],[""img/mask27.png""],[""img/mask39.png""],[""img/mask93.png""],[""img/mask17.png""],[""img/mask60.png""],[""img/mask17.png""],[""img/mask62.png""],[""img/mask30.png""],[""img/mask100.png""],[""img/mask57.png""],[""img/mask43.png""],[""img/mask74.png""],[""img/mask89.png""],[""img/mask54.png""],[""img/mask52.png""],[""img/mask26.png""],[""img/mask47.png""],[""img/mask74.png""],[""img/mask40.png""],[""img/mask57.png""],[""img/mask99.png""],[""img/mask51.png""]]]","","[22,25,32,1,14,35,8,11,31,18,2,28,7,6,17,34,23,21,0,10,4,9,13,20,5,30,19,12,3,27,16,29,33,24,15,26]","main","181","many-guess-6"
"","","","","","html-keyboard-response","134","466237","0.0-10.0-1.57","630cc9747cb664e8a03c29f0","640759fa512f630a2bdc333d","6408c1777a67713c32f3fc79","null","","null","","","","","","","","","","","","","","","","","","","fixation","",""
"","","","","","many-guess-6","135","470449","0.0-10.0-0.58-0.58","630cc9747cb664e8a03c29f0","640759fa512f630a2bdc333d","6408c1777a67713c32f3fc79","[2954.800000190735]","","","[19,14,18,13,27,29,12,23,5,20,16,1,24,31,2,26,9,0,10,32,4,6,21,3,7,17,15,22,35,8,34,30,11,28,33,25]","[33,53,272,292,212,262,302,122,202,332,242,132,232,93,162,152,342,3,13,322,73,112,192,142,222,352,103,282,172,252,23,43,182,312,63,83]","33","155","303.5940854504867","[303.5940854504867]","[148.59408545048672]","[149]","[300,120,300,300,300,300,300,30,300]","0","36","0","149.39399999997113","21.371000190731138","16","[[[""img/mask69.png""],[""img/mask30.png""],[""img/mask42.png""],[""img/mask12.png""],[""img/mask93.png""],[""img/mask20.png""],[""img/mask51.png""],[""img/mask26.png""],[""img/mask76.png""],[""img/mask49.png""],[""img/mask35.png""],[""img/mask9.png""],[""img/mask93.png""],[""img/mask55.png""],[""img/mask17.png""],[""img/mask63.png""],[""img/mask60.png""],[""img/mask53.png""],[""img/mask32.png""],[""img/mask6.png""],[""img/mask33.png""],[""img/mask58.png""],[""img/mask85.png""],[""img/mask70.png""],[""img/mask64.png""],[""img/mask16.png""],[""img/mask65.png""],[""img/mask34.png""],[""img/mask72.png""],[""img/mask8.png""],[""img/mask27.png""],[""img/mask50.png""],[""img/mask89.png""],[""img/mask53.png""],[""img/mask99.png""],[""img/mask34.png""]]]","","[19,14,18,13,27,29,12,23,5,20,16,1,24,31,2,26,9,0,10,32,4,6,21,3,7,17,15,22,35,8,34,30,11,28,33,25]","main","155","many-guess-6"
"","","","","","html-keyboard-response","136","470951","0.0-10.0-1.58","630cc9747cb664e8a03c29f0","640759fa512f630a2bdc333d","6408c1777a67713c32f3fc79","null","","null","","","","","","","","","","","","","","","","","","","fixation","",""
"","","","","","color-precision2","137","474081","0.0-10.0-0.59-0.59","630cc9747cb664e8a03c29f0","640759fa512f630a2bdc333d","6408c1777a67713c32f3fc79","[901.0999994277954]","","","[29]","[279]","279","97","32.45994645985631","[32.45994645985631]","[295.4599464598563]","[294]","0","0","1","0","148.82500000001164","1008.2289998092456","1000","[[[""img/mask68.png""]]]","","","main","97","color-precision2"
"","","","","","html-keyboard-response","138","476061","0.0-10.0-1.59","630cc9747cb664e8a03c29f0","640759fa512f630a2bdc333d","6408c1777a67713c32f3fc79","1980.0999994277954","Wow! You've completed 60 out of 180 trials! </p> <p>  </p><p> Take a quick break, then press any key when you're ready to continue."," ","","","","","","","","","","","","","","","","","","","fixation","",""
"","","","","","color-precision2","139","479293","0.0-10.0-0.60-0.60","630cc9747cb664e8a03c29f0","640759fa512f630a2bdc333d","6408c1777a67713c32f3fc79","[533.6000003814697]","","","[17]","[287]","287","260","183.7033820270518","[183.7033820270518]","[283.7033820270518]","[283]","0","0","1","0","156.3169996185461","994.5590001907549","1000","[[[""img/mask54.png""]]]","","","main","260","color-precision2"
"","","","","","html-keyboard-response","140","479803","0.0-10.0-1.60","630cc9747cb664e8a03c29f0","640759fa512f630a2bdc333d","6408c1777a67713c32f3fc79","null","","null","","","","","","","","","","","","","","","","","","","fixation","",""
"","","","","","color-precision2","141","482893","0.0-10.0-0.61-0.61","630cc9747cb664e8a03c29f0","640759fa512f630a2bdc333d","6408c1777a67713c32f3fc79","[838.7999992370605]","","","[12]","[352]","352","300","279.2329466193969","[279.2329466193969]","[339.2329466193969]","[339]","0","0","1","0","154.58600019075675","1000.7850001907209","1000","[[[""img/mask30.png""]]]","","","main","300","color-precision2"
"","","","","","html-keyboard-response","142","483397","0.0-10.0-1.61","630cc9747cb664e8a03c29f0","640759fa512f630a2bdc333d","6408c1777a67713c32f3fc79","null","","null","","","","","","","","","","","","","","","","","","","fixation","",""
"","","","","","many-guess-6","143","488506","0.0-10.0-0.62-0.62","630cc9747cb664e8a03c29f0","640759fa512f630a2bdc333d","6408c1777a67713c32f3fc79","[3898.800000190735]","","","[31,7,28,6,12,20,30,9,13,19,34,35,33,1,27,21,11,18,10,22,2,16,8,29,24,4,3,0,17,14,26,5,23,32,25,15]","[292,212,311,82,321,152,162,302,172,2,142,72,282,252,122,192,272,102,132,351,32,232,22,42,331,62,12,52,242,341,92,112,182,202,222,262]","292","173","221.64363623980586","[221.64363623980586]","[48.64363623980586]","[48]","[300,210,210,210,210,300,210,30,120]","0","36","0","145.97299942781683","11.4989996185177","16","[[[""img/mask47.png""],[""img/mask18.png""],[""img/mask21.png""],[""img/mask71.png""],[""img/mask41.png""],[""img/mask12.png""],[""img/mask87.png""],[""img/mask56.png""],[""img/mask48.png""],[""img/mask33.png""],[""img/mask78.png""],[""img/mask91.png""],[""img/mask74.png""],[""img/mask93.png""],[""img/mask96.png""],[""img/mask17.png""],[""img/mask1.png""],[""img/mask74.png""],[""img/mask72.png""],[""img/mask4.png""],[""img/mask38.png""],[""img/mask56.png""],[""img/mask67.png""],[""img/mask85.png""],[""img/mask15.png""],[""img/mask25.png""],[""img/mask25.png""],[""img/mask9.png""],[""img/mask32.png""],[""img/mask50.png""],[""img/mask21.png""],[""img/mask42.png""],[""img/mask3.png""],[""img/mask82.png""],[""img/mask8.png""],[""img/mask43.png""]]]","","[31,7,28,6,12,20,30,9,13,19,34,35,33,1,27,21,11,18,10,22,2,16,8,29,24,4,3,0,17,14,26,5,23,32,25,15]","main","173","many-guess-6"
"","","","","","html-keyboard-response","144","489008","0.0-10.0-1.62","630cc9747cb664e8a03c29f0","640759fa512f630a2bdc333d","6408c1777a67713c32f3fc79","null","","null","","","","","","","","","","","","","","","","","","","fixation","",""
"","","","","","color-precision2","145","492130","0.0-10.0-0.63-0.63","630cc9747cb664e8a03c29f0","640759fa512f630a2bdc333d","6408c1777a67713c32f3fc79","[617.6000003814697]","","","[19]","[193]","193","156","341.8278257954645","[341.8278257954645]","[185.8278257954645]","[185]","0","0","1","0","146.57199942780426","998.5580001907074","1000","[[[""img/mask45.png""]]]","","","main","156","color-precision2"
"","","","","","html-keyboard-response","146","492631","0.0-10.0-1.63","630cc9747cb664e8a03c29f0","640759fa512f630a2bdc333d","6408c1777a67713c32f3fc79","null","","null","","","","","","","","","","","","","","","","","","","fixation","",""
"","","","","","many-guess-6","147","499621","0.0-10.0-0.64-0.64","630cc9747cb664e8a03c29f0","640759fa512f630a2bdc333d","6408c1777a67713c32f3fc79","[5523.199999809265]","","","[16,17,32,24,18,29,30,3,27,26,28,19,1,4,7,15,25,31,33,8,6,13,14,11,5,21,10,23,9,2,12,0,34,35,20,22]","[35,174,314,65,274,204,294,184,194,15,134,164,154,304,144,74,84,114,264,324,104,94,55,224,354,254,234,214,244,344,25,5,284,334,45,124]","35","224","168.3979183733188","[168.3979183733188]","[304.3979183733188]","[303]","[300,210,120,120,120,120,210,30,120]","0","36","0","147.88799980928889","18.238999809254892","16","[[[""img/mask45.png""],[""img/mask20.png""],[""img/mask83.png""],[""img/mask21.png""],[""img/mask83.png""],[""img/mask42.png""],[""img/mask52.png""],[""img/mask11.png""],[""img/mask98.png""],[""img/mask58.png""],[""img/mask66.png""],[""img/mask19.png""],[""img/mask59.png""],[""img/mask61.png""],[""img/mask55.png""],[""img/mask65.png""],[""img/mask96.png""],[""img/mask72.png""],[""img/mask58.png""],[""img/mask2.png""],[""img/mask90.png""],[""img/mask50.png""],[""img/mask84.png""],[""img/mask27.png""],[""img/mask85.png""],[""img/mask88.png""],[""img/mask76.png""],[""img/mask28.png""],[""img/mask84.png""],[""img/mask65.png""],[""img/mask72.png""],[""img/mask58.png""],[""img/mask23.png""],[""img/mask83.png""],[""img/mask32.png""],[""img/mask62.png""]]]","","[16,17,32,24,18,29,30,3,27,26,28,19,1,4,7,15,25,31,33,8,6,13,14,11,5,21,10,23,9,2,12,0,34,35,20,22]","main","224","many-guess-6"
"","","","","","html-keyboard-response","148","500123","0.0-10.0-1.64","630cc9747cb664e8a03c29f0","640759fa512f630a2bdc333d","6408c1777a67713c32f3fc79","null","","null","","","","","","","","","","","","","","","","","","","fixation","",""
"","","","","","color-precision2","149","504150","0.0-10.0-0.65-0.65","630cc9747cb664e8a03c29f0","640759fa512f630a2bdc333d","6408c1777a67713c32f3fc79","[1278.1999998092651]","","","[17]","[223]","223","257","104.62808941455219","[104.62808941455219]","[207.6280894145522]","[206]","0","0","1","0","144.30999999999767","992.0600001907442","1000","[[[""img/mask55.png""]]]","","","main","257","color-precision2"
"","","","","","html-keyboard-response","150","504659","0.0-10.0-1.65","630cc9747cb664e8a03c29f0","640759fa512f630a2bdc333d","6408c1777a67713c32f3fc79","null","","null","","","","","","","","","","","","","","","","","","","fixation","",""
"","","","","","color-precision2","151","507770","0.0-10.0-0.66-0.66","630cc9747cb664e8a03c29f0","640759fa512f630a2bdc333d","6408c1777a67713c32f3fc79","[944.4000005722046]","","","[32]","[88]","88","302","30.35946845579876","[30.35946845579876]","[88.35946845579878]","[88]","0","0","1","0","149.7599998092628","1005.7669994278112","1000","[[[""img/mask29.png""]]]","","","main","302","color-precision2"
"","","","","","html-keyboard-response","152","508279","0.0-10.0-1.66","630cc9747cb664e8a03c29f0","640759fa512f630a2bdc333d","6408c1777a67713c32f3fc79","null","","null","","","","","","","","","","","","","","","","","","","fixation","",""
"","","","","","many-guess-6","153","513357","0.0-10.0-0.67-0.67","630cc9747cb664e8a03c29f0","640759fa512f630a2bdc333d","6408c1777a67713c32f3fc79","[3529.800000190735]","","","[27,7,29,25,19,1,23,0,26,34,31,32,3,13,9,8,15,2,24,21,5,28,4,17,22,10,20,16,35,30,18,11,6,14,33,12]","[241,101,121,231,261,11,271,350,1,111,61,131,141,191,171,221,331,301,181,71,91,211,151,161,31,21,321,341,51,41,291,201,311,281,251,81]","241","190","25.194595474000597","[25.194595474000597]","[195.1945954740006]","[194]","[300,210,210,210,300,120,210,120,120]","0","36","0","148.68999980925582","11.299999427807052","16","[[[""img/mask1.png""],[""img/mask80.png""],[""img/mask8.png""],[""img/mask47.png""],[""img/mask56.png""],[""img/mask51.png""],[""img/mask21.png""],[""img/mask98.png""],[""img/mask2.png""],[""img/mask38.png""],[""img/mask62.png""],[""img/mask17.png""],[""img/mask37.png""],[""img/mask44.png""],[""img/mask47.png""],[""img/mask88.png""],[""img/mask29.png""],[""img/mask87.png""],[""img/mask98.png""],[""img/mask38.png""],[""img/mask52.png""],[""img/mask67.png""],[""img/mask73.png""],[""img/mask90.png""],[""img/mask7.png""],[""img/mask27.png""],[""img/mask52.png""],[""img/mask50.png""],[""img/mask16.png""],[""img/mask56.png""],[""img/mask87.png""],[""img/mask52.png""],[""img/mask19.png""],[""img/mask85.png""],[""img/mask77.png""],[""img/mask45.png""]]]","","[27,7,29,25,19,1,23,0,26,34,31,32,3,13,9,8,15,2,24,21,5,28,4,17,22,10,20,16,35,30,18,11,6,14,33,12]","main","190","many-guess-6"
"","","","","","html-keyboard-response","154","513864","0.0-10.0-1.67","630cc9747cb664e8a03c29f0","640759fa512f630a2bdc333d","6408c1777a67713c32f3fc79","null","","null","","","","","","","","","","","","","","","","","","","fixation","",""
"","","","","","color-precision2","155","516901","0.0-10.0-0.68-0.68","630cc9747cb664e8a03c29f0","640759fa512f630a2bdc333d","6408c1777a67713c32f3fc79","[785.7999992370605]","","","[21]","[106]","106","31","141.56790095809774","[141.56790095809774]","[110.56790095809774]","[109]","0","0","1","0","156.17899980931543","997.9249998092419","1000","[[[""img/mask94.png""]]]","","","main","31","color-precision2"
"","","","","","html-keyboard-response","156","517412","0.0-10.0-1.68","630cc9747cb664e8a03c29f0","640759fa512f630a2bdc333d","6408c1777a67713c32f3fc79","null","","null","","","","","","","","","","","","","","","","","","","fixation","",""
"","","","","","many-guess-6","157","522042","0.0-10.0-0.69-0.69","630cc9747cb664e8a03c29f0","640759fa512f630a2bdc333d","6408c1777a67713c32f3fc79","[2322.3999996185303]","","","[1,26,32,28,20,30,18,13,15,22,29,21,17,25,0,3,6,27,31,23,14,34,2,8,11,9,12,7,10,33,4,16,35,5,24,19]","[344,124,164,334,184,234,34,5,324,94,264,84,15,214,114,24,204,54,104,304,174,64,254,44,294,134,194,154,314,244,284,144,74,224,354,274]","344","356","230.87088043332292","[230.87088043332292]","[234.87088043332292]","[235]","[30,300,210,30,120,120,120,210,30]","0","36","0","147.04999942774884","18.376000190735795","16","[[[""img/mask40.png""],[""img/mask69.png""],[""img/mask93.png""],[""img/mask70.png""],[""img/mask17.png""],[""img/mask5.png""],[""img/mask16.png""],[""img/mask1.png""],[""img/mask67.png""],[""img/mask40.png""],[""img/mask41.png""],[""img/mask51.png""],[""img/mask19.png""],[""img/mask77.png""],[""img/mask29.png""],[""img/mask8.png""],[""img/mask34.png""],[""img/mask79.png""],[""img/mask61.png""],[""img/mask48.png""],[""img/mask27.png""],[""img/mask17.png""],[""img/mask96.png""],[""img/mask41.png""],[""img/mask55.png""],[""img/mask23.png""],[""img/mask18.png""],[""img/mask94.png""],[""img/mask96.png""],[""img/mask11.png""],[""img/mask60.png""],[""img/mask86.png""],[""img/mask17.png""],[""img/mask47.png""],[""img/mask63.png""],[""img/mask45.png""]]]","","[1,26,32,28,20,30,18,13,15,22,29,21,17,25,0,3,6,27,31,23,14,34,2,8,11,9,12,7,10,33,4,16,35,5,24,19]","main","356","many-guess-6"
"","","","","","html-keyboard-response","158","522556","0.0-10.0-1.69","630cc9747cb664e8a03c29f0","640759fa512f630a2bdc333d","6408c1777a67713c32f3fc79","null","","null","","","","","","","","","","","","","","","","","","","fixation","",""
"","","","","","color-precision2","159","525861","0.0-10.0-0.70-0.70","630cc9747cb664e8a03c29f0","640759fa512f630a2bdc333d","6408c1777a67713c32f3fc79","[888.2999992370605]","","","[16]","[152]","152","350","143.76471103013856","[143.76471103013856]","[153.76471103013856]","[153]","0","0","1","0","148.0130001907237","1004.1310001907405","1000","[[[""img/mask88.png""]]]","","","main","350","color-precision2"
"","","","","","html-keyboard-response","160","526370","0.0-10.0-1.70","630cc9747cb664e8a03c29f0","640759fa512f630a2bdc333d","6408c1777a67713c32f3fc79","null","","null","","","","","","","","","","","","","","","","","","","fixation","",""
"","","","","","many-guess-6","161","530574","0.0-10.0-0.71-0.71","630cc9747cb664e8a03c29f0","640759fa512f630a2bdc333d","6408c1777a67713c32f3fc79","[2698.4000005722046]","","","[17,20,0,7,15,28,23,3,1,33,14,26,19,11,5,8,29,35,10,9,31,12,16,30,27,21,22,6,24,18,4,2,32,34,13,25]","[256,266,196,276,206,286,246,56,36,316,146,66,236,226,76,296,6,326,336,136,356,46,126,186,306,346,216,166,156,176,116,86,16,96,106,26]","256","60","72.66509294101726","[72.66509294101726]","[12.665092941017264]","[11]","[120,210,30,210,120,30,30,30,210]","0","36","0","144.99299980921205","16.25499942782335","16","[[[""img/mask18.png""],[""img/mask42.png""],[""img/mask2.png""],[""img/mask52.png""],[""img/mask34.png""],[""img/mask5.png""],[""img/mask50.png""],[""img/mask92.png""],[""img/mask98.png""],[""img/mask44.png""],[""img/mask37.png""],[""img/mask16.png""],[""img/mask87.png""],[""img/mask56.png""],[""img/mask11.png""],[""img/mask31.png""],[""img/mask42.png""],[""img/mask77.png""],[""img/mask54.png""],[""img/mask91.png""],[""img/mask51.png""],[""img/mask88.png""],[""img/mask77.png""],[""img/mask62.png""],[""img/mask37.png""],[""img/mask52.png""],[""img/mask92.png""],[""img/mask70.png""],[""img/mask99.png""],[""img/mask50.png""],[""img/mask8.png""],[""img/mask89.png""],[""img/mask44.png""],[""img/mask3.png""],[""img/mask22.png""],[""img/mask79.png""]]]","","[17,20,0,7,15,28,23,3,1,33,14,26,19,11,5,8,29,35,10,9,31,12,16,30,27,21,22,6,24,18,4,2,32,34,13,25]","main","60","many-guess-6"
"","","","","","html-keyboard-response","162","531085","0.0-10.0-1.71","630cc9747cb664e8a03c29f0","640759fa512f630a2bdc333d","6408c1777a67713c32f3fc79","null","","null","","","","","","","","","","","","","","","","","","","fixation","",""
"","","","","","many-guess-6","163","534636","0.0-10.0-0.72-0.72","630cc9747cb664e8a03c29f0","640759fa512f630a2bdc333d","6408c1777a67713c32f3fc79","[1833.8000001907349]","","","[32,2,28,27,24,14,20,6,4,34,3,9,31,13,15,16,1,22,17,19,35,18,26,8,33,10,5,0,23,29,21,11,12,7,30,25]","[331,91,141,32,261,72,131,22,111,341,161,241,42,171,351,52,311,191,231,62,2,211,101,81,251,291,181,301,321,201,271,151,121,281,221,12]","331","332","289.04373253927656","[289.04373253927656]","[317.04373253927656]","[317]","[120,210,210,120,120,30,300,30,30]","0","36","0","153.4200001907302","13.161999809322879","16","[[[""img/mask57.png""],[""img/mask25.png""],[""img/mask83.png""],[""img/mask92.png""],[""img/mask53.png""],[""img/mask50.png""],[""img/mask31.png""],[""img/mask36.png""],[""img/mask56.png""],[""img/mask7.png""],[""img/mask77.png""],[""img/mask51.png""],[""img/mask90.png""],[""img/mask41.png""],[""img/mask96.png""],[""img/mask42.png""],[""img/mask28.png""],[""img/mask62.png""],[""img/mask78.png""],[""img/mask10.png""],[""img/mask51.png""],[""img/mask12.png""],[""img/mask92.png""],[""img/mask69.png""],[""img/mask92.png""],[""img/mask91.png""],[""img/mask40.png""],[""img/mask94.png""],[""img/mask38.png""],[""img/mask66.png""],[""img/mask92.png""],[""img/mask97.png""],[""img/mask96.png""],[""img/mask71.png""],[""img/mask32.png""],[""img/mask96.png""]]]","","[32,2,28,27,24,14,20,6,4,34,3,9,31,13,15,16,1,22,17,19,35,18,26,8,33,10,5,0,23,29,21,11,12,7,30,25]","main","332","many-guess-6"
"","","","","","html-keyboard-response","164","535137","0.0-10.0-1.72","630cc9747cb664e8a03c29f0","640759fa512f630a2bdc333d","6408c1777a67713c32f3fc79","null","","null","","","","","","","","","","","","","","","","","","","fixation","",""
"","","","","","many-guess-6","165","539275","0.0-10.0-0.73-0.73","630cc9747cb664e8a03c29f0","640759fa512f630a2bdc333d","6408c1777a67713c32f3fc79","[2341]","","","[2,20,19,16,8,29,24,11,10,0,12,13,34,17,23,32,35,22,1,5,26,3,15,28,4,7,25,9,18,21,6,27,30,31,33,14]","[48,217,267,257,327,197,38,347,237,157,127,317,227,167,277,177,147,307,87,77,28,58,18,207,137,8,68,357,117,187,107,337,247,97,287,297]","48","196","165.5688383732522","[165.5688383732522]","[329.5688383732522]","[328]","[30,300,120,210,210,30,120,120,300]","0","36","0","146.1009994278429","28.039000190678053","16","[[[""img/mask82.png""],[""img/mask3.png""],[""img/mask41.png""],[""img/mask43.png""],[""img/mask9.png""],[""img/mask49.png""],[""img/mask16.png""],[""img/mask20.png""],[""img/mask77.png""],[""img/mask5.png""],[""img/mask61.png""],[""img/mask87.png""],[""img/mask17.png""],[""img/mask40.png""],[""img/mask49.png""],[""img/mask57.png""],[""img/mask67.png""],[""img/mask41.png""],[""img/mask86.png""],[""img/mask56.png""],[""img/mask70.png""],[""img/mask100.png""],[""img/mask3.png""],[""img/mask10.png""],[""img/mask46.png""],[""img/mask36.png""],[""img/mask67.png""],[""img/mask16.png""],[""img/mask5.png""],[""img/mask67.png""],[""img/mask40.png""],[""img/mask27.png""],[""img/mask42.png""],[""img/mask87.png""],[""img/mask69.png""],[""img/mask75.png""]]]","","[2,20,19,16,8,29,24,11,10,0,12,13,34,17,23,32,35,22,1,5,26,3,15,28,4,7,25,9,18,21,6,27,30,31,33,14]","main","196","many-guess-6"
"","","","","","html-keyboard-response","166","539776","0.0-10.0-1.73","630cc9747cb664e8a03c29f0","640759fa512f630a2bdc333d","6408c1777a67713c32f3fc79","null","","null","","","","","","","","","","","","","","","","","","","fixation","",""
"","","","","","many-guess-6","167","547033","0.0-10.0-0.74-0.74","630cc9747cb664e8a03c29f0","640759fa512f630a2bdc333d","6408c1777a67713c32f3fc79","[5363.700000762939]","","","[3,2,10,19,31,34,32,29,12,23,20,30,6,21,7,17,25,1,13,11,18,9,8,0,27,15,4,33,28,16,26,14,24,5,35,22]","[72,302,312,92,3,152,292,282,142,192,332,272,53,112,23,262,102,33,182,172,132,82,322,122,162,252,63,43,212,13,352,342,222,242,202,232]","72","184","238.66498735067114","[238.66498735067114]","[54.66498735067114]","[54]","[30,30,210,210,120,300,300,30,30]","0","36","0","143.8069994278485","8.007000190787949","16","[[[""img/mask4.png""],[""img/mask41.png""],[""img/mask27.png""],[""img/mask8.png""],[""img/mask25.png""],[""img/mask66.png""],[""img/mask76.png""],[""img/mask50.png""],[""img/mask43.png""],[""img/mask49.png""],[""img/mask34.png""],[""img/mask81.png""],[""img/mask58.png""],[""img/mask14.png""],[""img/mask78.png""],[""img/mask47.png""],[""img/mask26.png""],[""img/mask3.png""],[""img/mask3.png""],[""img/mask11.png""],[""img/mask67.png""],[""img/mask94.png""],[""img/mask11.png""],[""img/mask57.png""],[""img/mask80.png""],[""img/mask12.png""],[""img/mask17.png""],[""img/mask43.png""],[""img/mask61.png""],[""img/mask34.png""],[""img/mask60.png""],[""img/mask28.png""],[""img/mask16.png""],[""img/mask86.png""],[""img/mask37.png""],[""img/mask64.png""]]]","","[3,2,10,19,31,34,32,29,12,23,20,30,6,21,7,17,25,1,13,11,18,9,8,0,27,15,4,33,28,16,26,14,24,5,35,22]","main","184","many-guess-6"
"","","","","","html-keyboard-response","168","547535","0.0-10.0-1.74","630cc9747cb664e8a03c29f0","640759fa512f630a2bdc333d","6408c1777a67713c32f3fc79","null","","null","","","","","","","","","","","","","","","","","","","fixation","",""
"","","","","","many-guess-6","169","552730","0.0-10.0-0.75-0.75","630cc9747cb664e8a03c29f0","640759fa512f630a2bdc333d","6408c1777a67713c32f3fc79","[3704.199999809265]","","","[33,10,31,12,24,32,23,14,25,21,11,22,7,19,5,3,2,34,17,28,29,9,20,27,1,0,16,30,18,4,13,15,6,8,26,35]","[183,93,333,353,163,113,14,293,73,44,303,103,123,233,343,273,263,253,24,34,64,143,323,54,223,283,313,83,243,173,133,203,153,4,213,193]","183","244","1.2579415995818164","[1.2579415995818164]","[117.25794159958181]","[117]","[120,30,120,30,30,210,30,210,210]","0","36","0","148.21799999999348","11.642999809235334","16","[[[""img/mask20.png""],[""img/mask46.png""],[""img/mask79.png""],[""img/mask26.png""],[""img/mask10.png""],[""img/mask55.png""],[""img/mask94.png""],[""img/mask22.png""],[""img/mask79.png""],[""img/mask94.png""],[""img/mask90.png""],[""img/mask20.png""],[""img/mask39.png""],[""img/mask63.png""],[""img/mask14.png""],[""img/mask52.png""],[""img/mask35.png""],[""img/mask13.png""],[""img/mask87.png""],[""img/mask32.png""],[""img/mask45.png""],[""img/mask10.png""],[""img/mask94.png""],[""img/mask61.png""],[""img/mask14.png""],[""img/mask84.png""],[""img/mask27.png""],[""img/mask37.png""],[""img/mask29.png""],[""img/mask9.png""],[""img/mask36.png""],[""img/mask40.png""],[""img/mask26.png""],[""img/mask30.png""],[""img/mask76.png""],[""img/mask97.png""]]]","","[33,10,31,12,24,32,23,14,25,21,11,22,7,19,5,3,2,34,17,28,29,9,20,27,1,0,16,30,18,4,13,15,6,8,26,35]","main","244","many-guess-6"
"","","","","","html-keyboard-response","170","553232","0.0-10.0-1.75","630cc9747cb664e8a03c29f0","640759fa512f630a2bdc333d","6408c1777a67713c32f3fc79","null","","null","","","","","","","","","","","","","","","","","","","fixation","",""
"","","","","","color-precision2","171","556611","0.0-10.0-0.76-0.76","630cc9747cb664e8a03c29f0","640759fa512f630a2bdc333d","6408c1777a67713c32f3fc79","[745.1000003814697]","","","[8]","[211]","211","333","172.45310604641688","[172.45310604641688]","[199.45310604641688]","[198]","0","0","1","0","148.46800019068178","994.366999427788","1000","[[[""img/mask56.png""]]]","","","main","333","color-precision2"
"","","","","","html-keyboard-response","172","557117","0.0-10.0-1.76","630cc9747cb664e8a03c29f0","640759fa512f630a2bdc333d","6408c1777a67713c32f3fc79","null","","null","","","","","","","","","","","","","","","","","","","fixation","",""
"","","","","","color-precision2","173","559751","0.0-10.0-0.77-0.77","630cc9747cb664e8a03c29f0","640759fa512f630a2bdc333d","6408c1777a67713c32f3fc79","[381.9000005722046]","","","[21]","[218]","218","79","289.65411790441374","[289.65411790441374]","[210.65411790441374]","[211]","0","0","1","0","149.5100000000093","991.8409998092102","1000","[[[""img/mask1.png""]]]","","","main","79","color-precision2"
"","","","","","html-keyboard-response","174","560258","0.0-10.0-1.77","630cc9747cb664e8a03c29f0","640759fa512f630a2bdc333d","6408c1777a67713c32f3fc79","null","","null","","","","","","","","","","","","","","","","","","","fixation","",""
"","","","","","many-guess-6","175","567767","0.0-10.0-0.78-0.78","630cc9747cb664e8a03c29f0","640759fa512f630a2bdc333d","6408c1777a67713c32f3fc79","[5679.800000190735]","","","[0,20,27,1,10,17,22,31,3,28,30,18,29,34,8,19,24,35,15,25,5,16,23,2,11,14,33,21,7,4,13,26,32,6,12,9]","[104,294,353,214,14,24,234,84,304,274,44,204,114,64,4,34,254,333,54,244,94,314,164,154,284,74,264,174,144,224,184,124,134,343,194,324]","104","175","248.0231632715247","[248.0231632715247]","[73.02316327152471]","[73]","[300,30,300,300,300,300,30,210,210]","0","36","0","148.22100019070785","16.767999618547037","16","[[[""img/mask38.png""],[""img/mask98.png""],[""img/mask1.png""],[""img/mask23.png""],[""img/mask7.png""],[""img/mask84.png""],[""img/mask11.png""],[""img/mask25.png""],[""img/mask94.png""],[""img/mask52.png""],[""img/mask6.png""],[""img/mask85.png""],[""img/mask5.png""],[""img/mask74.png""],[""img/mask11.png""],[""img/mask4.png""],[""img/mask73.png""],[""img/mask24.png""],[""img/mask72.png""],[""img/mask15.png""],[""img/mask92.png""],[""img/mask44.png""],[""img/mask68.png""],[""img/mask66.png""],[""img/mask2.png""],[""img/mask26.png""],[""img/mask18.png""],[""img/mask98.png""],[""img/mask70.png""],[""img/mask33.png""],[""img/mask19.png""],[""img/mask84.png""],[""img/mask43.png""],[""img/mask81.png""],[""img/mask74.png""],[""img/mask96.png""]]]","","[0,20,27,1,10,17,22,31,3,28,30,18,29,34,8,19,24,35,15,25,5,16,23,2,11,14,33,21,7,4,13,26,32,6,12,9]","main","175","many-guess-6"
