"success","timeout","failed_images","failed_audio","failed_video","trial_type","trial_index","time_elapsed","internal_node_id","subject_id","study_id","session_id","rt","stimulus","response","position_of_items","colors_of_items","color_of_target","wheel_spin","response_angle","physical_response_angle","reported_color_angle","reported_color_discrete","locs","which_test","set_size","wheel_num_options","actual_mask_duration","actual_stim_duration","CMDispTime","maskArray","maskRotation","item_positions","task","randomSpinAmount","mainTask"
"true","false","[]","[]","[]","preload","0","9748","0.0-0.0","633259075c2d3571332bdae7","640759fa512f630a2bdc333d","6408c1745d0b650d0d0ddc56","","","","","","","","","","","","","","","","","","","","","","","",""
"true","","","","","fullscreen","1","13302","0.0-1.0","633259075c2d3571332bdae7","640759fa512f630a2bdc333d","6408c1745d0b650d0d0ddc56","","","","","","","","","","","","","","","","","","","","","","","",""
"","","","","","html-keyboard-response","2","20239","0.0-2.0","633259075c2d3571332bdae7","640759fa512f630a2bdc333d","6408c1745d0b650d0d0ddc56","6936.600000023842","What a beautiful Wednesday to do some awesome science! </p> <p>  </p><p> </p>
    By completing this survey or questionnaire, you are consenting to be in this research study. </p>
    Your participation is voluntary and you can stop at any time.<p> [Press any key to continue] </p>"," ","","","","","","","","","","","","","","","","","","","","",""
"","","","","","html-keyboard-response","3","30252","0.0-3.0","633259075c2d3571332bdae7","640759fa512f630a2bdc333d","6408c1745d0b650d0d0ddc56","null","
    <div style='width: 1000px;'>
    <div style='float: center;'><img src='img/TaskInstructions1.png'></img>
    </div>
    ","null","","","","","","","","","","","","","","","","","","","","",""
"","","","","","html-keyboard-response","4","31905","0.0-4.0","633259075c2d3571332bdae7","640759fa512f630a2bdc333d","6408c1745d0b650d0d0ddc56","1653.3999999761581","
    <div style='width: 1000px;'>
    <div style='float: center;'><img src='img/TaskInstructions1.png'></img>
    </div>
    "," ","","","","","","","","","","","","","","","","","","","","",""
"","","","","","html-keyboard-response","5","41914","0.0-5.0","633259075c2d3571332bdae7","640759fa512f630a2bdc333d","6408c1745d0b650d0d0ddc56","null","
    <div style='width: 1000px;'>
    <div style='float: center;'><img src='img/TaskInstructions2.png'></img>
    </div>
    ","null","","","","","","","","","","","","","","","","","","","","",""
"","","","","","html-keyboard-response","6","56065","0.0-6.0","633259075c2d3571332bdae7","640759fa512f630a2bdc333d","6408c1745d0b650d0d0ddc56","14150.5","
    <div style='width: 1000px;'>
    <div style='float: center;'><img src='img/TaskInstructions2.png'></img>
    </div>
    "," ","","","","","","","","","","","","","","","","","","","","",""
"","","","","","video-keyboard-response","7","66709","0.0-7.0","633259075c2d3571332bdae7","640759fa512f630a2bdc333d","6408c1745d0b650d0d0ddc56","10642.5","[""video/TaskInstructions3.mp4""]"," ","","","","","","","","","","","","","","","","","","","","",""
"","","","","","image-keyboard-response","8","75190","0.0-8.0-0.0","633259075c2d3571332bdae7","640759fa512f630a2bdc333d","6408c1745d0b650d0d0ddc56","8480.699999928474","img/training1.png"," ","","","","","","","","","","","","","","","","","","","","",""
"","","","","","color-precision2","9","86421","0.0-8.0-1.0-0.0","633259075c2d3571332bdae7","640759fa512f630a2bdc333d","6408c1745d0b650d0d0ddc56","[4743.200000047684]","","","[25]","[166]","166","141","302.5638154534143","[302.5638154534143]","[161.5638154534143]","[162]","0","0","1","0","494.57600004768756","999.8650000000052","1000","","","0","training","",""
"","","","","","image-keyboard-response","10","93757","0.0-8.0-0.1","633259075c2d3571332bdae7","640759fa512f630a2bdc333d","6408c1745d0b650d0d0ddc56","7335.5","img/training2.png"," ","","","","","","","","","","","","","","","","","","","","",""
"","","","","","many-guess-6","11","101293","0.0-8.0-1.1-0.1","633259075c2d3571332bdae7","640759fa512f630a2bdc333d","6408c1745d0b650d0d0ddc56","[2969.2999999523163]","","","[7,16,19]","[158,229,137]","158","52","223.14545986346246","[223.14545986346246]","[171.14545986346246]","[171]","[210,210,300,30,120,120,210,30,120,120,300,300,210,210,210,210,30,210,210,210,210,210,210,120,30,210,210,30,120,30,30,210,30,120,210,210]","0","3","0","1001.0600000238483","1003.7079999761627","1000","[[[""img/mask62.png""],[""img/mask70.png""],[""img/mask39.png""]]]","","[7,16,19]","training","",""
"","","","","","image-keyboard-response","12","108706","0.0-8.0-0.2","633259075c2d3571332bdae7","640759fa512f630a2bdc333d","6408c1745d0b650d0d0ddc56","7412.699999928474","img/training3.png"," ","","","","","","","","","","","","","","","","","","","","",""
"","","","","","[""many-guess-6""]","13","114412","0.0-8.0-1.2-0.2","633259075c2d3571332bdae7","640759fa512f630a2bdc333d","6408c1745d0b650d0d0ddc56","[2187.6999999284744]","","","[17,6,30,11,5]","[256,193,240,347,283]","256","272","189.16797438906391","[189.16797438906391]","[277.16797438906394]","[276]","[30,30,210,30,300,300,30,30,120,120,300,30,300,120,210,210,210,210,300,210,300,30,210,210,300,120,120,210,120,120,30,120,120,120,120,300]","0","5","0","494.650999976162","502.455999976155","500","[[[""img/mask84.png""],[""img/mask57.png""],[""img/mask79.png""],[""img/mask13.png""],[""img/mask76.png""]]]","","[17,6,30,11,5]","training","",""
"","","","","","image-keyboard-response","14","119086","0.0-8.0-0.3","633259075c2d3571332bdae7","640759fa512f630a2bdc333d","6408c1745d0b650d0d0ddc56","4673.200000047684","img/training4.png"," ","","","","","","","","","","","","","","","","","","","","",""
"","","","","","[""many-guess-6""]","15","124549","0.0-8.0-1.3-0.3","633259075c2d3571332bdae7","640759fa512f630a2bdc333d","6408c1745d0b650d0d0ddc56","[2864.7000000476837]","","","[25,16,13,18,15,24,32,11,12,31]","[164,153,22,119,42,353,73,98,186,339]","164","50","30.80229557740195","[30.80229557740195]","[340.80229557740194]","[339]","[210,210,210,30,120,300,30,210,210,30,210,120,120,300,210,300,30,30,210,210,120,300,30,30,120,120,120,120,210,120,210,210,300,30,30,210]","0","10","0","129.3560000476864","133.31500002383837","132","[[[""img/mask5.png""],[""img/mask65.png""],[""img/mask52.png""],[""img/mask76.png""],[""img/mask40.png""],[""img/mask87.png""],[""img/mask33.png""],[""img/mask1.png""],[""img/mask6.png""],[""img/mask25.png""]]]","","[25,16,13,18,15,24,32,11,12,31]","training","",""
"","","","","","image-keyboard-response","16","130280","0.0-8.0-0.4","633259075c2d3571332bdae7","640759fa512f630a2bdc333d","6408c1745d0b650d0d0ddc56","5730.199999928474","img/training5.png"," ","","","","","","","","","","","","","","","","","","","","",""
"","","","","","[""many-guess-6""]","17","135548","0.0-8.0-1.4-0.4","633259075c2d3571332bdae7","640759fa512f630a2bdc333d","6408c1745d0b650d0d0ddc56","[2848.899999976158]","","","[3,32,16,4,12,13,27,29,28,34,21,15,2,6,11,7,30,19,33,25,10,35,18,26,5,9,8,1,24,22,20,14,23,31,0,17]","[277,78,108,307,337,317,58,217,157,207,327,8,347,148,267,118,227,98,287,38,48,167,88,187,28,247,177,237,297,138,18,128,197,357,257,68]","277","47","181.36023483499272","[181.36023483499272]","[134.36023483499272]","[133]","[210,30,30,300,210,300,300,120,300,300,120,210,300,300,30,210,120,300,210,300,30,30,30,30,300,30,30,300,300,300,210,30,120,30,120,300]","0","36","0","127.63399999999092","19.76699999999255","16","[[[""img/mask57.png""],[""img/mask68.png""],[""img/mask17.png""],[""img/mask3.png""],[""img/mask12.png""],[""img/mask4.png""],[""img/mask50.png""],[""img/mask34.png""],[""img/mask99.png""],[""img/mask87.png""],[""img/mask52.png""],[""img/mask79.png""],[""img/mask71.png""],[""img/mask7.png""],[""img/mask53.png""],[""img/mask27.png""],[""img/mask4.png""],[""img/mask17.png""],[""img/mask65.png""],[""img/mask91.png""],[""img/mask96.png""],[""img/mask31.png""],[""img/mask99.png""],[""img/mask12.png""],[""img/mask76.png""],[""img/mask18.png""],[""img/mask39.png""],[""img/mask75.png""],[""img/mask30.png""],[""img/mask28.png""],[""img/mask33.png""],[""img/mask70.png""],[""img/mask2.png""],[""img/mask93.png""],[""img/mask17.png""],[""img/mask12.png""]]]","","[3,32,16,4,12,13,27,29,28,34,21,15,2,6,11,7,30,19,33,25,10,35,18,26,5,9,8,1,24,22,20,14,23,31,0,17]","training","",""
"","","","","","image-keyboard-response","18","139489","0.0-9.0","633259075c2d3571332bdae7","640759fa512f630a2bdc333d","6408c1745d0b650d0d0ddc56","3939.7000000476837","[""img/endTraining.png""]"," ","","","","","","","","","","","","","","","","","","","","",""
"","","","","","many-guess-6","19","143684","0.0-10.0-0.0-0.0","633259075c2d3571332bdae7","640759fa512f630a2bdc333d","6408c1745d0b650d0d0ddc56","[2432.2000000476837]","","","[8,34,22,10,15,4,20,28,30,3,18,17,14,23,1,11,26,6,16,21,25,33,27,24,35,31,5,0,12,32,9,13,2,7,19,29]","[318,128,298,108,188,168,98,208,118,278,198,348,49,138,178,268,258,88,158,19,68,228,358,328,288,238,39,78,308,9,248,338,59,29,148,218]","318","15","262.78728105029506","[262.78728105029506]","[247.78728105029506]","[248]","[30,300,30,120,300,120,120,30,30]","0","36","0","152.91000002383953","14.266999976156512","16","[[[""img/mask37.png""],[""img/mask31.png""],[""img/mask23.png""],[""img/mask10.png""],[""img/mask1.png""],[""img/mask2.png""],[""img/mask45.png""],[""img/mask35.png""],[""img/mask26.png""],[""img/mask49.png""],[""img/mask68.png""],[""img/mask1.png""],[""img/mask45.png""],[""img/mask40.png""],[""img/mask71.png""],[""img/mask49.png""],[""img/mask44.png""],[""img/mask58.png""],[""img/mask83.png""],[""img/mask99.png""],[""img/mask94.png""],[""img/mask1.png""],[""img/mask97.png""],[""img/mask96.png""],[""img/mask9.png""],[""img/mask41.png""],[""img/mask38.png""],[""img/mask75.png""],[""img/mask56.png""],[""img/mask56.png""],[""img/mask80.png""],[""img/mask71.png""],[""img/mask9.png""],[""img/mask29.png""],[""img/mask67.png""],[""img/mask64.png""]]]","","[8,34,22,10,15,4,20,28,30,3,18,17,14,23,1,11,26,6,16,21,25,33,27,24,35,31,5,0,12,32,9,13,2,7,19,29]","main","15","many-guess-6"
"","","","","","html-keyboard-response","20","144185","0.0-10.0-1.0","633259075c2d3571332bdae7","640759fa512f630a2bdc333d","6408c1745d0b650d0d0ddc56","null","","null","","","","","","","","","","","","","","","","","","","fixation","",""
"","","","","","many-guess-6","21","148341","0.0-10.0-0.1-0.1","633259075c2d3571332bdae7","640759fa512f630a2bdc333d","6408c1745d0b650d0d0ddc56","[2458.399999976158]","","","[34,14,3,12,20,18,25,7,24,11,17,6,9,15,26,23,16,19,28,27,35,5,10,13,2,21,32,33,0,22,8,4,1,31,30,29]","[30,40,280,180,140,80,50,349,60,359,260,319,20,329,250,90,100,200,120,150,240,190,130,299,290,160,110,220,309,10,270,170,339,70,230,210]","30","114","26.88529369625932","[26.88529369625932]","[272.88529369625934]","[272]","[300,120,210,210,300,210,30,30,210]","0","36","0","152.83200004769606","10.850000047677895","16","[[[""img/mask90.png""],[""img/mask42.png""],[""img/mask57.png""],[""img/mask27.png""],[""img/mask26.png""],[""img/mask88.png""],[""img/mask47.png""],[""img/mask11.png""],[""img/mask2.png""],[""img/mask19.png""],[""img/mask22.png""],[""img/mask12.png""],[""img/mask92.png""],[""img/mask34.png""],[""img/mask49.png""],[""img/mask73.png""],[""img/mask27.png""],[""img/mask66.png""],[""img/mask52.png""],[""img/mask22.png""],[""img/mask53.png""],[""img/mask87.png""],[""img/mask32.png""],[""img/mask50.png""],[""img/mask100.png""],[""img/mask37.png""],[""img/mask81.png""],[""img/mask32.png""],[""img/mask42.png""],[""img/mask42.png""],[""img/mask17.png""],[""img/mask26.png""],[""img/mask48.png""],[""img/mask72.png""],[""img/mask10.png""],[""img/mask64.png""]]]","","[34,14,3,12,20,18,25,7,24,11,17,6,9,15,26,23,16,19,28,27,35,5,10,13,2,21,32,33,0,22,8,4,1,31,30,29]","main","114","many-guess-6"
"","","","","","html-keyboard-response","22","148842","0.0-10.0-1.1","633259075c2d3571332bdae7","640759fa512f630a2bdc333d","6408c1745d0b650d0d0ddc56","null","","null","","","","","","","","","","","","","","","","","","","fixation","",""
"","","","","","color-precision2","23","155837","0.0-10.0-0.2-0.2","633259075c2d3571332bdae7","640759fa512f630a2bdc333d","6408c1745d0b650d0d0ddc56","[2108.399999976158]","","","[2]","[168]","168","183","341.60344147252334","[341.60344147252334]","[158.60344147252334]","[158]","0","0","1","0","152.8559999523277","1003.6259999761533","1000","[[[""img/mask68.png""]]]","","","main","183","color-precision2"
"","","","","","html-keyboard-response","24","156339","0.0-10.0-1.2","633259075c2d3571332bdae7","640759fa512f630a2bdc333d","6408c1745d0b650d0d0ddc56","null","","null","","","","","","","","","","","","","","","","","","","fixation","",""
"","","","","","color-precision2","25","161125","0.0-10.0-0.3-0.3","633259075c2d3571332bdae7","640759fa512f630a2bdc333d","6408c1745d0b650d0d0ddc56","[1777]","","","[31]","[201]","201","146","352.80269564160153","[352.80269564160153]","[206.80269564160153]","[206]","0","0","1","0","151.3549999523093","997.3469999523077","1000","[[[""img/mask78.png""]]]","","","main","146","color-precision2"
"","","","","","html-keyboard-response","26","161626","0.0-10.0-1.3","633259075c2d3571332bdae7","640759fa512f630a2bdc333d","6408c1745d0b650d0d0ddc56","null","","null","","","","","","","","","","","","","","","","","","","fixation","",""
"","","","","","color-precision2","27","166292","0.0-10.0-0.4-0.4","633259075c2d3571332bdae7","640759fa512f630a2bdc333d","6408c1745d0b650d0d0ddc56","[2279.7999999523163]","","","[8]","[346]","346","189","169.34164064760677","[169.34164064760677]","[340.34164064760677]","[339]","0","0","1","0","152.996999976167","997.4749999523046","1000","[[[""img/mask96.png""]]]","","","main","189","color-precision2"
"","","","","","html-keyboard-response","28","166794","0.0-10.0-1.4","633259075c2d3571332bdae7","640759fa512f630a2bdc333d","6408c1745d0b650d0d0ddc56","null","","null","","","","","","","","","","","","","","","","","","","fixation","",""
"","","","","","many-guess-6","29","170708","0.0-10.0-0.5-0.5","633259075c2d3571332bdae7","640759fa512f630a2bdc333d","6408c1745d0b650d0d0ddc56","[2430.8000000715256]","","","[3,5,8,9,27,16,31,22,12,21,6,35,10,19,2,11,14,24,17,18,34,33,32,13,1,25,29,4,7,28,0,23,26,15,30,20]","[273,183,193,13,103,133,23,283,123,323,113,93,213,143,53,73,43,83,313,303,333,63,173,3,233,33,243,163,203,352,293,223,342,253,153,263]","273","19","268.1552887704987","[268.1552887704987]","[249.15528877049871]","[249]","[300,300,30,120,210,30,120,300,300]","0","36","0","152.90100004768465","11.158999952313025","16","[[[""img/mask80.png""],[""img/mask36.png""],[""img/mask36.png""],[""img/mask23.png""],[""img/mask21.png""],[""img/mask76.png""],[""img/mask96.png""],[""img/mask22.png""],[""img/mask55.png""],[""img/mask61.png""],[""img/mask32.png""],[""img/mask59.png""],[""img/mask36.png""],[""img/mask39.png""],[""img/mask44.png""],[""img/mask36.png""],[""img/mask18.png""],[""img/mask70.png""],[""img/mask54.png""],[""img/mask20.png""],[""img/mask97.png""],[""img/mask55.png""],[""img/mask81.png""],[""img/mask9.png""],[""img/mask61.png""],[""img/mask55.png""],[""img/mask5.png""],[""img/mask40.png""],[""img/mask8.png""],[""img/mask79.png""],[""img/mask7.png""],[""img/mask79.png""],[""img/mask61.png""],[""img/mask47.png""],[""img/mask19.png""],[""img/mask82.png""]]]","","[3,5,8,9,27,16,31,22,12,21,6,35,10,19,2,11,14,24,17,18,34,33,32,13,1,25,29,4,7,28,0,23,26,15,30,20]","main","19","many-guess-6"
"","","","","","html-keyboard-response","30","171210","0.0-10.0-1.5","633259075c2d3571332bdae7","640759fa512f630a2bdc333d","6408c1745d0b650d0d0ddc56","null","","null","","","","","","","","","","","","","","","","","","","fixation","",""
"","","","","","many-guess-6","31","176036","0.0-10.0-0.6-0.6","633259075c2d3571332bdae7","640759fa512f630a2bdc333d","6408c1745d0b650d0d0ddc56","[3341.2000000476837]","","","[22,24,8,2,5,17,27,18,26,1,7,35,14,34,0,20,10,19,15,28,33,29,25,30,16,13,9,21,11,3,4,31,6,32,12,23]","[54,113,24,213,123,223,133,203,183,233,353,323,104,84,313,263,74,253,163,94,143,333,193,343,273,64,173,283,14,44,34,293,4,243,303,153]","54","311","182.29524621682725","[182.29524621682725]","[231.29524621682725]","[231]","[30,300,210,120,120,30,120,210,210]","0","36","0","152.97799997616676","11.1520000238379","16","[[[""img/mask73.png""],[""img/mask49.png""],[""img/mask22.png""],[""img/mask33.png""],[""img/mask6.png""],[""img/mask37.png""],[""img/mask48.png""],[""img/mask4.png""],[""img/mask77.png""],[""img/mask91.png""],[""img/mask57.png""],[""img/mask28.png""],[""img/mask29.png""],[""img/mask37.png""],[""img/mask41.png""],[""img/mask65.png""],[""img/mask32.png""],[""img/mask23.png""],[""img/mask40.png""],[""img/mask25.png""],[""img/mask62.png""],[""img/mask97.png""],[""img/mask51.png""],[""img/mask15.png""],[""img/mask49.png""],[""img/mask95.png""],[""img/mask53.png""],[""img/mask83.png""],[""img/mask10.png""],[""img/mask45.png""],[""img/mask51.png""],[""img/mask77.png""],[""img/mask27.png""],[""img/mask64.png""],[""img/mask59.png""],[""img/mask56.png""]]]","","[22,24,8,2,5,17,27,18,26,1,7,35,14,34,0,20,10,19,15,28,33,29,25,30,16,13,9,21,11,3,4,31,6,32,12,23]","main","311","many-guess-6"
"","","","","","html-keyboard-response","32","176537","0.0-10.0-1.6","633259075c2d3571332bdae7","640759fa512f630a2bdc333d","6408c1745d0b650d0d0ddc56","null","","null","","","","","","","","","","","","","","","","","","","fixation","",""
"","","","","","color-precision2","33","180461","0.0-10.0-0.7-0.7","633259075c2d3571332bdae7","640759fa512f630a2bdc333d","6408c1745d0b650d0d0ddc56","[1097.8999999761581]","","","[1]","[35]","35","266","291.9653483708886","[291.9653483708886]","[25.96534837088859]","[26]","0","0","1","0","152.9549999999872","994.8119999523042","1000","[[[""img/mask14.png""]]]","","","main","266","color-precision2"
"","","","","","html-keyboard-response","34","180962","0.0-10.0-1.7","633259075c2d3571332bdae7","640759fa512f630a2bdc333d","6408c1745d0b650d0d0ddc56","null","","null","","","","","","","","","","","","","","","","","","","fixation","",""
"","","","","","many-guess-6","35","185685","0.0-10.0-0.8-0.8","633259075c2d3571332bdae7","640759fa512f630a2bdc333d","6408c1745d0b650d0d0ddc56","[3341]","","","[29,24,6,34,28,20,35,30,18,8,11,27,15,10,22,2,1,12,13,19,17,16,23,21,25,26,9,0,7,3,33,4,14,32,31,5]","[59,88,248,238,148,158,218,108,178,9,19,128,49,358,348,79,318,39,288,29,228,338,278,188,298,208,328,268,258,118,69,98,138,198,308,168]","59","154","142.41787945678504","[142.41787945678504]","[348.41787945678504]","[347]","[210,30,210,120,210,300,30,300,30]","0","36","0","152.76699995232048","14.249000047682784","16","[[[""img/mask83.png""],[""img/mask15.png""],[""img/mask98.png""],[""img/mask55.png""],[""img/mask13.png""],[""img/mask76.png""],[""img/mask45.png""],[""img/mask68.png""],[""img/mask4.png""],[""img/mask35.png""],[""img/mask36.png""],[""img/mask67.png""],[""img/mask80.png""],[""img/mask29.png""],[""img/mask18.png""],[""img/mask69.png""],[""img/mask37.png""],[""img/mask37.png""],[""img/mask89.png""],[""img/mask24.png""],[""img/mask4.png""],[""img/mask43.png""],[""img/mask43.png""],[""img/mask41.png""],[""img/mask91.png""],[""img/mask96.png""],[""img/mask60.png""],[""img/mask100.png""],[""img/mask74.png""],[""img/mask58.png""],[""img/mask73.png""],[""img/mask37.png""],[""img/mask62.png""],[""img/mask90.png""],[""img/mask27.png""],[""img/mask77.png""]]]","","[29,24,6,34,28,20,35,30,18,8,11,27,15,10,22,2,1,12,13,19,17,16,23,21,25,26,9,0,7,3,33,4,14,32,31,5]","main","154","many-guess-6"
"","","","","","html-keyboard-response","36","186187","0.0-10.0-1.8","633259075c2d3571332bdae7","640759fa512f630a2bdc333d","6408c1745d0b650d0d0ddc56","null","","null","","","","","","","","","","","","","","","","","","","fixation","",""
"","","","","","color-precision2","37","190180","0.0-10.0-0.9-0.9","633259075c2d3571332bdae7","640759fa512f630a2bdc333d","6408c1745d0b650d0d0ddc56","[1416.1000000238419]","","","[6]","[16]","16","210","221.64363623980586","[221.64363623980586]","[11.643636239805858]","[11]","0","0","1","0","152.86199997615768","999","1000","[[[""img/mask70.png""]]]","","","main","210","color-precision2"
"","","","","","html-keyboard-response","38","190682","0.0-10.0-1.9","633259075c2d3571332bdae7","640759fa512f630a2bdc333d","6408c1745d0b650d0d0ddc56","null","","null","","","","","","","","","","","","","","","","","","","fixation","",""
"","","","","","color-precision2","39","195292","0.0-10.0-0.10-0.10","633259075c2d3571332bdae7","640759fa512f630a2bdc333d","6408c1745d0b650d0d0ddc56","[2228.3000000715256]","","","[18]","[172]","172","107","278.6005396837209","[278.6005396837209]","[171.6005396837209]","[172]","0","0","1","0","152.8690000238421","1003.1090000476979","1000","[[[""img/mask90.png""]]]","","","main","107","color-precision2"
"","","","","","html-keyboard-response","40","195805","0.0-10.0-1.10","633259075c2d3571332bdae7","640759fa512f630a2bdc333d","6408c1745d0b650d0d0ddc56","null","","null","","","","","","","","","","","","","","","","","","","fixation","",""
"","","","","","many-guess-6","41","200948","0.0-10.0-0.11-0.11","633259075c2d3571332bdae7","640759fa512f630a2bdc333d","6408c1745d0b650d0d0ddc56","[2901]","","","[16,30,4,26,23,9,8,5,21,33,12,10,6,13,35,22,0,28,24,15,27,32,17,20,31,34,14,3,18,11,25,7,29,2,19,1]","[84,284,154,324,294,344,353,74,114,34,224,64,244,304,124,314,254,104,164,54,214,334,94,174,194,234,14,274,184,264,134,4,24,204,144,44]","84","103","174.01485615640493","[174.01485615640493]","[71.01485615640493]","[70]","[210,120,210,120,300,120,210,30,120]","0","36","0","152.9569999523228","11.336000047682319","16","[[[""img/mask83.png""],[""img/mask72.png""],[""img/mask66.png""],[""img/mask6.png""],[""img/mask58.png""],[""img/mask87.png""],[""img/mask82.png""],[""img/mask61.png""],[""img/mask31.png""],[""img/mask60.png""],[""img/mask70.png""],[""img/mask40.png""],[""img/mask58.png""],[""img/mask26.png""],[""img/mask17.png""],[""img/mask33.png""],[""img/mask30.png""],[""img/mask75.png""],[""img/mask39.png""],[""img/mask80.png""],[""img/mask49.png""],[""img/mask74.png""],[""img/mask64.png""],[""img/mask98.png""],[""img/mask62.png""],[""img/mask22.png""],[""img/mask52.png""],[""img/mask31.png""],[""img/mask19.png""],[""img/mask83.png""],[""img/mask82.png""],[""img/mask7.png""],[""img/mask31.png""],[""img/mask16.png""],[""img/mask25.png""],[""img/mask17.png""]]]","","[16,30,4,26,23,9,8,5,21,33,12,10,6,13,35,22,0,28,24,15,27,32,17,20,31,34,14,3,18,11,25,7,29,2,19,1]","main","103","many-guess-6"
"","","","","","html-keyboard-response","42","201450","0.0-10.0-1.11","633259075c2d3571332bdae7","640759fa512f630a2bdc333d","6408c1745d0b650d0d0ddc56","null","","null","","","","","","","","","","","","","","","","","","","fixation","",""
"","","","","","color-precision2","43","207037","0.0-10.0-0.12-0.12","633259075c2d3571332bdae7","640759fa512f630a2bdc333d","6408c1745d0b650d0d0ddc56","[2039.2999999523163]","","","[20]","[260]","260","182","86.80101596762086","[86.80101596762086]","[264.80101596762086]","[263]","0","0","1","0","152.93800004769582","1000.5219999523251","1000","[[[""img/mask76.png""]]]","","","main","182","color-precision2"
"","","","","","html-keyboard-response","44","207538","0.0-10.0-1.12","633259075c2d3571332bdae7","640759fa512f630a2bdc333d","6408c1745d0b650d0d0ddc56","null","","null","","","","","","","","","","","","","","","","","","","fixation","",""
"","","","","","many-guess-6","45","213140","0.0-10.0-0.13-0.13","633259075c2d3571332bdae7","640759fa512f630a2bdc333d","6408c1745d0b650d0d0ddc56","[4160.5]","","","[21,13,34,6,32,16,3,2,5,29,4,1,20,14,27,7,25,35,26,18,28,17,11,9,31,8,30,19,10,22,33,15,23,24,12,0]","[319,329,50,60,80,160,30,10,299,199,110,130,359,209,249,180,190,20,40,140,170,309,70,239,90,229,219,150,349,339,100,279,289,269,120,259]","319","236","311.31614215394785","[311.31614215394785]","[75.31614215394785]","[75]","[300,120,300,30,210,30,210,120,120]","0","36","0","152.88899997615954","21.37900004768744","16","[[[""img/mask60.png""],[""img/mask60.png""],[""img/mask88.png""],[""img/mask25.png""],[""img/mask80.png""],[""img/mask100.png""],[""img/mask21.png""],[""img/mask35.png""],[""img/mask21.png""],[""img/mask24.png""],[""img/mask100.png""],[""img/mask46.png""],[""img/mask6.png""],[""img/mask95.png""],[""img/mask39.png""],[""img/mask76.png""],[""img/mask34.png""],[""img/mask27.png""],[""img/mask10.png""],[""img/mask90.png""],[""img/mask30.png""],[""img/mask77.png""],[""img/mask8.png""],[""img/mask12.png""],[""img/mask33.png""],[""img/mask53.png""],[""img/mask69.png""],[""img/mask62.png""],[""img/mask62.png""],[""img/mask68.png""],[""img/mask48.png""],[""img/mask41.png""],[""img/mask4.png""],[""img/mask66.png""],[""img/mask28.png""],[""img/mask96.png""]]]","","[21,13,34,6,32,16,3,2,5,29,4,1,20,14,27,7,25,35,26,18,28,17,11,9,31,8,30,19,10,22,33,15,23,24,12,0]","main","236","many-guess-6"
"","","","","","html-keyboard-response","46","213640","0.0-10.0-1.13","633259075c2d3571332bdae7","640759fa512f630a2bdc333d","6408c1745d0b650d0d0ddc56","null","","null","","","","","","","","","","","","","","","","","","","fixation","",""
"","","","","","color-precision2","47","217052","0.0-10.0-0.14-0.14","633259075c2d3571332bdae7","640759fa512f630a2bdc333d","6408c1745d0b650d0d0ddc56","[980.8999999761581]","","","[5]","[196]","196","186","34.54819128438345","[34.54819128438345]","[208.54819128438345]","[208]","0","0","1","0","152.7639999523235","997.0849999999919","1000","[[[""img/mask93.png""]]]","","","main","186","color-precision2"
"","","","","","html-keyboard-response","48","217553","0.0-10.0-1.14","633259075c2d3571332bdae7","640759fa512f630a2bdc333d","6408c1745d0b650d0d0ddc56","null","","null","","","","","","","","","","","","","","","","","","","fixation","",""
"","","","","","color-precision2","49","220740","0.0-10.0-0.15-0.15","633259075c2d3571332bdae7","640759fa512f630a2bdc333d","6408c1745d0b650d0d0ddc56","[875.1000000238419]","","","[20]","[71]","71","275","345.7516108900141","[345.7516108900141]","[70.75161089001409]","[71]","0","0","1","0","152.96400002384325","998.9130000000005","1000","[[[""img/mask80.png""]]]","","","main","275","color-precision2"
"","","","","","html-keyboard-response","50","221241","0.0-10.0-1.15","633259075c2d3571332bdae7","640759fa512f630a2bdc333d","6408c1745d0b650d0d0ddc56","null","","null","","","","","","","","","","","","","","","","","","","fixation","",""
"","","","","","color-precision2","51","224652","0.0-10.0-0.16-0.16","633259075c2d3571332bdae7","640759fa512f630a2bdc333d","6408c1745d0b650d0d0ddc56","[1088.3999999761581]","","","[6]","[121]","121","312","72.43649064910605","[72.43649064910605]","[120.43649064910605]","[119]","0","0","1","0","152.86199997615768","998.6969999999856","1000","[[[""img/mask59.png""]]]","","","main","312","color-precision2"
"","","","","","html-keyboard-response","52","225153","0.0-10.0-1.16","633259075c2d3571332bdae7","640759fa512f630a2bdc333d","6408c1745d0b650d0d0ddc56","null","","null","","","","","","","","","","","","","","","","","","","fixation","",""
"","","","","","color-precision2","53","227996","0.0-10.0-0.17-0.17","633259075c2d3571332bdae7","640759fa512f630a2bdc333d","6408c1745d0b650d0d0ddc56","[650.5999999046326]","","","[27]","[168]","168","173","341.64856959315085","[341.64856959315085]","[168.64856959315085]","[168]","0","0","1","0","152.73000002384651","999.3010000000068","1000","[[[""img/mask8.png""]]]","","","main","173","color-precision2"
"","","","","","html-keyboard-response","54","228498","0.0-10.0-1.17","633259075c2d3571332bdae7","640759fa512f630a2bdc333d","6408c1745d0b650d0d0ddc56","null","","null","","","","","","","","","","","","","","","","","","","fixation","",""
"","","","","","color-precision2","55","231868","0.0-10.0-0.18-0.18","633259075c2d3571332bdae7","640759fa512f630a2bdc333d","6408c1745d0b650d0d0ddc56","[1212.1999999284744]","","","[24]","[148]","148","358","147.5498838643834","[147.5498838643834]","[149.5498838643834]","[148]","0","0","1","0","152.94599997616024","999.3669999523263","1000","[[[""img/mask79.png""]]]","","","main","358","color-precision2"
"","","","","","html-keyboard-response","56","232370","0.0-10.0-1.18","633259075c2d3571332bdae7","640759fa512f630a2bdc333d","6408c1745d0b650d0d0ddc56","null","","null","","","","","","","","","","","","","","","","","","","fixation","",""
"","","","","","color-precision2","57","235829","0.0-10.0-0.19-0.19","633259075c2d3571332bdae7","640759fa512f630a2bdc333d","6408c1745d0b650d0d0ddc56","[1285.2000000476837]","","","[13]","[131]","131","84","209.1525318859037","[209.1525318859037]","[125.1525318859037]","[125]","0","0","1","0","153.0269999523298","1001.8850000476814","1000","[[[""img/mask6.png""]]]","","","main","84","color-precision2"
"","","","","","html-keyboard-response","58","247075","0.0-10.0-1.19","633259075c2d3571332bdae7","640759fa512f630a2bdc333d","6408c1745d0b650d0d0ddc56","11245.200000047684","Wow! You've completed 20 out of 180 trials! </p> <p>  </p><p> Take a quick break, then press any key when you're ready to continue."," ","","","","","","","","","","","","","","","","","","","fixation","",""
"","","","","","many-guess-6","59","251644","0.0-10.0-0.20-0.20","633259075c2d3571332bdae7","640759fa512f630a2bdc333d","6408c1745d0b650d0d0ddc56","[2410.2999999523163]","","","[25,10,29,11,16,1,26,9,4,22,14,2,3,31,32,28,23,35,15,6,13,34,33,5,18,19,17,0,30,21,12,8,7,24,20,27]","[112,321,82,341,311,192,142,152,32,12,62,351,331,72,262,252,52,102,2,222,272,162,232,92,301,132,22,291,202,212,42,182,122,242,281,172]","112","349","69.95192935001498","[69.95192935001498]","[80.951929350015]","[79]","[300,120,210,120,300,120,120,300,30]","0","36","0","152.8670000238344","16.027000047673937","16","[[[""img/mask12.png""],[""img/mask1.png""],[""img/mask78.png""],[""img/mask12.png""],[""img/mask12.png""],[""img/mask15.png""],[""img/mask43.png""],[""img/mask60.png""],[""img/mask41.png""],[""img/mask83.png""],[""img/mask63.png""],[""img/mask1.png""],[""img/mask75.png""],[""img/mask74.png""],[""img/mask46.png""],[""img/mask6.png""],[""img/mask94.png""],[""img/mask53.png""],[""img/mask70.png""],[""img/mask1.png""],[""img/mask65.png""],[""img/mask80.png""],[""img/mask72.png""],[""img/mask38.png""],[""img/mask59.png""],[""img/mask63.png""],[""img/mask43.png""],[""img/mask81.png""],[""img/mask69.png""],[""img/mask100.png""],[""img/mask26.png""],[""img/mask15.png""],[""img/mask89.png""],[""img/mask96.png""],[""img/mask50.png""],[""img/mask13.png""]]]","","[25,10,29,11,16,1,26,9,4,22,14,2,3,31,32,28,23,35,15,6,13,34,33,5,18,19,17,0,30,21,12,8,7,24,20,27]","main","349","many-guess-6"
"","","","","","html-keyboard-response","60","252146","0.0-10.0-1.20","633259075c2d3571332bdae7","640759fa512f630a2bdc333d","6408c1745d0b650d0d0ddc56","null","","null","","","","","","","","","","","","","","","","","","","fixation","",""
"","","","","","many-guess-6","61","255708","0.0-10.0-0.21-0.21","633259075c2d3571332bdae7","640759fa512f630a2bdc333d","6408c1745d0b650d0d0ddc56","[2115.399999976158]","","","[3,31,13,15,18,2,9,1,10,14,7,30,0,32,26,5,34,12,27,33,29,4,22,8,20,21,16,28,25,35,19,17,6,23,11,24]","[255,175,195,36,265,116,6,355,96,136,46,225,16,275,235,215,245,315,56,165,295,66,86,325,155,26,305,126,285,335,106,205,185,146,76,345]","255","321","269.0094747801854","[269.0094747801854]","[308.0094747801854]","[308]","[210,300,30,120,30,300,210,300,300]","0","36","0","151.38099995232187","11.827000023855362","16","[[[""img/mask46.png""],[""img/mask11.png""],[""img/mask99.png""],[""img/mask34.png""],[""img/mask94.png""],[""img/mask91.png""],[""img/mask23.png""],[""img/mask55.png""],[""img/mask5.png""],[""img/mask75.png""],[""img/mask15.png""],[""img/mask60.png""],[""img/mask42.png""],[""img/mask40.png""],[""img/mask61.png""],[""img/mask34.png""],[""img/mask68.png""],[""img/mask62.png""],[""img/mask78.png""],[""img/mask50.png""],[""img/mask20.png""],[""img/mask5.png""],[""img/mask62.png""],[""img/mask30.png""],[""img/mask49.png""],[""img/mask94.png""],[""img/mask46.png""],[""img/mask86.png""],[""img/mask6.png""],[""img/mask80.png""],[""img/mask87.png""],[""img/mask71.png""],[""img/mask52.png""],[""img/mask40.png""],[""img/mask56.png""],[""img/mask7.png""]]]","","[3,31,13,15,18,2,9,1,10,14,7,30,0,32,26,5,34,12,27,33,29,4,22,8,20,21,16,28,25,35,19,17,6,23,11,24]","main","321","many-guess-6"
"","","","","","html-keyboard-response","62","256210","0.0-10.0-1.21","633259075c2d3571332bdae7","640759fa512f630a2bdc333d","6408c1745d0b650d0d0ddc56","null","","null","","","","","","","","","","","","","","","","","","","fixation","",""
"","","","","","color-precision2","63","259692","0.0-10.0-0.22-0.22","633259075c2d3571332bdae7","640759fa512f630a2bdc333d","6408c1745d0b650d0d0ddc56","[750.7999999523163]","","","[33]","[311]","311","237","186.10850701240574","[186.10850701240574]","[309.10850701240577]","[308]","0","0","1","0","152.7179999523214","1001.7240000238526","1000","[[[""img/mask51.png""]]]","","","main","237","color-precision2"
"","","","","","html-keyboard-response","64","260193","0.0-10.0-1.22","633259075c2d3571332bdae7","640759fa512f630a2bdc333d","6408c1745d0b650d0d0ddc56","null","","null","","","","","","","","","","","","","","","","","","","fixation","",""
"","","","","","many-guess-6","65","265900","0.0-10.0-0.23-0.23","633259075c2d3571332bdae7","640759fa512f630a2bdc333d","6408c1745d0b650d0d0ddc56","[4531.800000071526]","","","[12,2,27,35,24,34,18,8,0,13,20,9,4,30,11,3,23,1,29,33,6,15,10,14,19,21,28,7,25,17,26,32,31,16,22,5]","[10,199,80,349,100,319,170,359,70,299,209,60,50,339,120,189,239,309,229,130,329,180,150,140,289,249,90,160,40,219,259,20,279,110,269,30]","10","196","227.3389607966515","[227.3389607966515]","[31.33896079665149]","[31]","[30,300,120,210,210,210,30,120,120]","0","36","0","152.902000023867","10.544000047666486","16","[[[""img/mask67.png""],[""img/mask71.png""],[""img/mask19.png""],[""img/mask1.png""],[""img/mask83.png""],[""img/mask49.png""],[""img/mask87.png""],[""img/mask26.png""],[""img/mask34.png""],[""img/mask33.png""],[""img/mask96.png""],[""img/mask45.png""],[""img/mask54.png""],[""img/mask37.png""],[""img/mask27.png""],[""img/mask65.png""],[""img/mask92.png""],[""img/mask61.png""],[""img/mask41.png""],[""img/mask47.png""],[""img/mask45.png""],[""img/mask86.png""],[""img/mask6.png""],[""img/mask97.png""],[""img/mask11.png""],[""img/mask79.png""],[""img/mask54.png""],[""img/mask33.png""],[""img/mask96.png""],[""img/mask85.png""],[""img/mask88.png""],[""img/mask85.png""],[""img/mask48.png""],[""img/mask6.png""],[""img/mask58.png""],[""img/mask11.png""]]]","","[12,2,27,35,24,34,18,8,0,13,20,9,4,30,11,3,23,1,29,33,6,15,10,14,19,21,28,7,25,17,26,32,31,16,22,5]","main","196","many-guess-6"
"","","","","","html-keyboard-response","66","266401","0.0-10.0-1.23","633259075c2d3571332bdae7","640759fa512f630a2bdc333d","6408c1745d0b650d0d0ddc56","null","","null","","","","","","","","","","","","","","","","","","","fixation","",""
"","","","","","many-guess-6","67","270124","0.0-10.0-0.24-0.24","633259075c2d3571332bdae7","640759fa512f630a2bdc333d","6408c1745d0b650d0d0ddc56","[2288.3000000715256]","","","[16,17,4,1,12,21,2,3,24,23,14,6,9,27,19,18,30,31,25,8,15,29,0,13,32,7,11,33,22,35,10,34,5,28,20,26]","[95,225,105,235,15,275,135,215,35,115,85,25,255,315,185,355,325,345,205,75,125,265,195,285,55,145,155,335,65,165,45,245,175,295,6,305]","95","306","345.1804026215233","[345.1804026215233]","[39.180402621523285]","[39]","[210,30,120,30,30,300,120,120,210]","0","36","0","152.65299995231908","20.183000023826025","16","[[[""img/mask10.png""],[""img/mask26.png""],[""img/mask36.png""],[""img/mask45.png""],[""img/mask11.png""],[""img/mask3.png""],[""img/mask15.png""],[""img/mask56.png""],[""img/mask63.png""],[""img/mask57.png""],[""img/mask2.png""],[""img/mask12.png""],[""img/mask69.png""],[""img/mask34.png""],[""img/mask78.png""],[""img/mask76.png""],[""img/mask23.png""],[""img/mask32.png""],[""img/mask86.png""],[""img/mask70.png""],[""img/mask64.png""],[""img/mask67.png""],[""img/mask63.png""],[""img/mask57.png""],[""img/mask47.png""],[""img/mask60.png""],[""img/mask88.png""],[""img/mask2.png""],[""img/mask35.png""],[""img/mask1.png""],[""img/mask98.png""],[""img/mask26.png""],[""img/mask66.png""],[""img/mask98.png""],[""img/mask7.png""],[""img/mask45.png""]]]","","[16,17,4,1,12,21,2,3,24,23,14,6,9,27,19,18,30,31,25,8,15,29,0,13,32,7,11,33,22,35,10,34,5,28,20,26]","main","306","many-guess-6"
"","","","","","html-keyboard-response","68","270626","0.0-10.0-1.24","633259075c2d3571332bdae7","640759fa512f630a2bdc333d","6408c1745d0b650d0d0ddc56","null","","null","","","","","","","","","","","","","","","","","","","fixation","",""
"","","","","","many-guess-6","69","274117","0.0-10.0-0.25-0.25","633259075c2d3571332bdae7","640759fa512f630a2bdc333d","6408c1745d0b650d0d0ddc56","[2169.5]","","","[18,5,19,24,13,2,7,9,22,28,12,34,11,15,32,6,17,27,35,31,4,16,26,8,1,21,29,0,33,3,25,20,10,30,23,14]","[152,322,62,132,112,202,312,82,282,262,3,352,33,292,222,122,192,23,232,302,272,162,172,332,72,242,92,212,102,182,43,52,252,13,142,342]","152","227","288.72512309773845","[288.72512309773845]","[61.72512309773845]","[62]","[210,300,300,120,210,120,30,210,120]","0","36","0","152.92700000002515","16.51800002384698","16","[[[""img/mask10.png""],[""img/mask85.png""],[""img/mask82.png""],[""img/mask37.png""],[""img/mask10.png""],[""img/mask78.png""],[""img/mask20.png""],[""img/mask84.png""],[""img/mask3.png""],[""img/mask16.png""],[""img/mask60.png""],[""img/mask72.png""],[""img/mask51.png""],[""img/mask91.png""],[""img/mask48.png""],[""img/mask72.png""],[""img/mask43.png""],[""img/mask18.png""],[""img/mask7.png""],[""img/mask93.png""],[""img/mask68.png""],[""img/mask22.png""],[""img/mask50.png""],[""img/mask1.png""],[""img/mask90.png""],[""img/mask52.png""],[""img/mask72.png""],[""img/mask11.png""],[""img/mask42.png""],[""img/mask76.png""],[""img/mask33.png""],[""img/mask98.png""],[""img/mask75.png""],[""img/mask11.png""],[""img/mask80.png""],[""img/mask32.png""]]]","","[18,5,19,24,13,2,7,9,22,28,12,34,11,15,32,6,17,27,35,31,4,16,26,8,1,21,29,0,33,3,25,20,10,30,23,14]","main","227","many-guess-6"
"","","","","","html-keyboard-response","70","274619","0.0-10.0-1.25","633259075c2d3571332bdae7","640759fa512f630a2bdc333d","6408c1745d0b650d0d0ddc56","null","","null","","","","","","","","","","","","","","","","","","","fixation","",""
"","","","","","many-guess-6","71","278764","0.0-10.0-0.26-0.26","633259075c2d3571332bdae7","640759fa512f630a2bdc333d","6408c1745d0b650d0d0ddc56","[2681.600000023842]","","","[19,10,30,34,18,32,5,22,23,11,26,9,33,14,2,12,0,8,16,6,7,15,20,17,3,28,29,27,21,1,24,35,25,31,4,13]","[185,215,345,285,275,145,335,46,115,56,325,235,355,125,255,295,245,75,6,165,135,315,155,65,85,225,26,95,105,195,36,205,175,305,265,16]","185","128","61.30556409418873","[61.30556409418873]","[293.30556409418875]","[291]","[30,120,300,30,210,300,30,300,300]","0","36","0","152.78899995231768","18.348999952315353","16","[[[""img/mask15.png""],[""img/mask71.png""],[""img/mask84.png""],[""img/mask77.png""],[""img/mask61.png""],[""img/mask96.png""],[""img/mask60.png""],[""img/mask50.png""],[""img/mask67.png""],[""img/mask95.png""],[""img/mask8.png""],[""img/mask78.png""],[""img/mask16.png""],[""img/mask22.png""],[""img/mask7.png""],[""img/mask80.png""],[""img/mask5.png""],[""img/mask65.png""],[""img/mask8.png""],[""img/mask20.png""],[""img/mask4.png""],[""img/mask51.png""],[""img/mask96.png""],[""img/mask30.png""],[""img/mask58.png""],[""img/mask54.png""],[""img/mask85.png""],[""img/mask73.png""],[""img/mask28.png""],[""img/mask24.png""],[""img/mask4.png""],[""img/mask70.png""],[""img/mask84.png""],[""img/mask27.png""],[""img/mask20.png""],[""img/mask81.png""]]]","","[19,10,30,34,18,32,5,22,23,11,26,9,33,14,2,12,0,8,16,6,7,15,20,17,3,28,29,27,21,1,24,35,25,31,4,13]","main","128","many-guess-6"
"","","","","","html-keyboard-response","72","279265","0.0-10.0-1.26","633259075c2d3571332bdae7","640759fa512f630a2bdc333d","6408c1745d0b650d0d0ddc56","null","","null","","","","","","","","","","","","","","","","","","","fixation","",""
"","","","","","many-guess-6","73","282829","0.0-10.0-0.27-0.27","633259075c2d3571332bdae7","640759fa512f630a2bdc333d","6408c1745d0b650d0d0ddc56","[2210.7000000476837]","","","[13,20,4,22,15,25,35,31,3,16,28,2,7,21,9,27,8,19,10,30,33,14,29,5,26,23,18,32,24,6,17,12,0,34,11,1]","[212,172,32,311,132,62,92,301,252,12,152,42,102,82,351,192,262,112,331,2,162,182,22,122,242,52,202,232,142,291,222,341,72,272,321,281]","212","43","306.5975310110264","[306.5975310110264]","[263.5975310110264]","[264]","[300,300,30,120,120,30,210,210,30]","0","36","0","152.84999995230464","18.135000023816247","16","[[[""img/mask41.png""],[""img/mask4.png""],[""img/mask80.png""],[""img/mask86.png""],[""img/mask78.png""],[""img/mask25.png""],[""img/mask71.png""],[""img/mask87.png""],[""img/mask81.png""],[""img/mask57.png""],[""img/mask75.png""],[""img/mask14.png""],[""img/mask99.png""],[""img/mask76.png""],[""img/mask36.png""],[""img/mask30.png""],[""img/mask47.png""],[""img/mask88.png""],[""img/mask48.png""],[""img/mask45.png""],[""img/mask85.png""],[""img/mask51.png""],[""img/mask75.png""],[""img/mask93.png""],[""img/mask90.png""],[""img/mask90.png""],[""img/mask39.png""],[""img/mask31.png""],[""img/mask50.png""],[""img/mask32.png""],[""img/mask98.png""],[""img/mask60.png""],[""img/mask4.png""],[""img/mask53.png""],[""img/mask2.png""],[""img/mask43.png""]]]","","[13,20,4,22,15,25,35,31,3,16,28,2,7,21,9,27,8,19,10,30,33,14,29,5,26,23,18,32,24,6,17,12,0,34,11,1]","main","43","many-guess-6"
"","","","","","html-keyboard-response","74","283329","0.0-10.0-1.27","633259075c2d3571332bdae7","640759fa512f630a2bdc333d","6408c1745d0b650d0d0ddc56","null","","null","","","","","","","","","","","","","","","","","","","fixation","",""
"","","","","","many-guess-6","75","287100","0.0-10.0-0.28-0.28","633259075c2d3571332bdae7","640759fa512f630a2bdc333d","6408c1745d0b650d0d0ddc56","[1946.7999999523163]","","","[30,14,12,25,15,27,7,9,34,2,33,13,26,29,0,21,23,8,20,17,5,28,4,6,18,10,16,32,1,31,24,3,19,35,22,11]","[47,306,166,27,296,266,57,37,116,176,196,286,17,206,276,226,7,156,316,146,186,336,256,326,107,356,216,126,77,246,67,346,87,236,136,97]","47","219","183.37326590212933","[183.37326590212933]","[324.37326590212933]","[324]","[30,210,120,210,300,300,210,300,300]","0","36","0","153.00099997618236","17.88000004767673","16","[[[""img/mask45.png""],[""img/mask98.png""],[""img/mask83.png""],[""img/mask50.png""],[""img/mask80.png""],[""img/mask2.png""],[""img/mask50.png""],[""img/mask53.png""],[""img/mask61.png""],[""img/mask87.png""],[""img/mask96.png""],[""img/mask13.png""],[""img/mask69.png""],[""img/mask98.png""],[""img/mask65.png""],[""img/mask84.png""],[""img/mask89.png""],[""img/mask13.png""],[""img/mask87.png""],[""img/mask16.png""],[""img/mask76.png""],[""img/mask2.png""],[""img/mask20.png""],[""img/mask56.png""],[""img/mask46.png""],[""img/mask5.png""],[""img/mask8.png""],[""img/mask55.png""],[""img/mask55.png""],[""img/mask2.png""],[""img/mask27.png""],[""img/mask80.png""],[""img/mask32.png""],[""img/mask29.png""],[""img/mask31.png""],[""img/mask38.png""]]]","","[30,14,12,25,15,27,7,9,34,2,33,13,26,29,0,21,23,8,20,17,5,28,4,6,18,10,16,32,1,31,24,3,19,35,22,11]","main","219","many-guess-6"
"","","","","","html-keyboard-response","76","287601","0.0-10.0-1.28","633259075c2d3571332bdae7","640759fa512f630a2bdc333d","6408c1745d0b650d0d0ddc56","null","","null","","","","","","","","","","","","","","","","","","","fixation","",""
"","","","","","color-precision2","77","290852","0.0-10.0-0.29-0.29","633259075c2d3571332bdae7","640759fa512f630a2bdc333d","6408c1745d0b650d0d0ddc56","[904]","","","[5]","[48]","48","266","306.77050234781683","[306.77050234781683]","[40.77050234781683]","[41]","0","0","1","0","152.92800002382137","996.0380000238656","1000","[[[""img/mask96.png""]]]","","","main","266","color-precision2"
"","","","","","html-keyboard-response","78","291354","0.0-10.0-1.29","633259075c2d3571332bdae7","640759fa512f630a2bdc333d","6408c1745d0b650d0d0ddc56","null","","null","","","","","","","","","","","","","","","","","","","fixation","",""
"","","","","","color-precision2","79","294268","0.0-10.0-0.30-0.30","633259075c2d3571332bdae7","640759fa512f630a2bdc333d","6408c1745d0b650d0d0ddc56","[844.5]","","","[6]","[250]","250","21","276.39760304949846","[276.39760304949846]","[255.39760304949846]","[256]","0","0","1","0","152.86600004771026","1003.164999999979","1000","[[[""img/mask95.png""]]]","","","main","21","color-precision2"
"","","","","","html-keyboard-response","80","294781","0.0-10.0-1.30","633259075c2d3571332bdae7","640759fa512f630a2bdc333d","6408c1745d0b650d0d0ddc56","null","","null","","","","","","","","","","","","","","","","","","","fixation","",""
"","","","","","color-precision2","81","297773","0.0-10.0-0.31-0.31","633259075c2d3571332bdae7","640759fa512f630a2bdc333d","6408c1745d0b650d0d0ddc56","[367.5]","","","[10]","[200]","200","323","158.43580899684926","[158.43580899684926]","[195.43580899684926]","[194]","0","0","1","0","152.6959999523242","1000.3929999523098","1000","[[[""img/mask37.png""]]]","","","main","323","color-precision2"
"","","","","","html-keyboard-response","82","298275","0.0-10.0-1.31","633259075c2d3571332bdae7","640759fa512f630a2bdc333d","6408c1745d0b650d0d0ddc56","null","","null","","","","","","","","","","","","","","","","","","","fixation","",""
"","","","","","color-precision2","83","301276","0.0-10.0-0.32-0.32","633259075c2d3571332bdae7","640759fa512f630a2bdc333d","6408c1745d0b650d0d0ddc56","[619.1999999284744]","","","[2]","[357]","357","55","55.97369493412318","[55.97369493412318]","[0.9736949341231806]","[359]","0","0","1","0","153.11300002381904","1002.8749999761349","1000","[[[""img/mask71.png""]]]","","","main","55","color-precision2"
"","","","","","html-keyboard-response","84","301777","0.0-10.0-1.32","633259075c2d3571332bdae7","640759fa512f630a2bdc333d","6408c1745d0b650d0d0ddc56","null","","null","","","","","","","","","","","","","","","","","","","fixation","",""
"","","","","","color-precision2","85","304452","0.0-10.0-0.33-0.33","633259075c2d3571332bdae7","640759fa512f630a2bdc333d","6408c1745d0b650d0d0ddc56","[520.2000000476837]","","","[26]","[129]","129","346","128.2488865458634","[128.2488865458634]","[142.2488865458634]","[141]","0","0","1","0","152.8349999761558","995.0770000238554","1000","[[[""img/mask90.png""]]]","","","main","346","color-precision2"
"","","","","","html-keyboard-response","86","304954","0.0-10.0-1.33","633259075c2d3571332bdae7","640759fa512f630a2bdc333d","6408c1745d0b650d0d0ddc56","null","","null","","","","","","","","","","","","","","","","","","","fixation","",""
"","","","","","color-precision2","87","307572","0.0-10.0-0.34-0.34","633259075c2d3571332bdae7","640759fa512f630a2bdc333d","6408c1745d0b650d0d0ddc56","[624.4000000953674]","","","[33]","[18]","18","133","149.89118760934878","[149.89118760934878]","[16.891187609348776]","[15]","0","0","1","0","152.70799997617723","1004.7639999761595","1000","[[[""img/mask64.png""]]]","","","main","133","color-precision2"
"","","","","","html-keyboard-response","88","308074","0.0-10.0-1.34","633259075c2d3571332bdae7","640759fa512f630a2bdc333d","6408c1745d0b650d0d0ddc56","null","","null","","","","","","","","","","","","","","","","","","","fixation","",""
"","","","","","many-guess-6","89","312133","0.0-10.0-0.35-0.35","633259075c2d3571332bdae7","640759fa512f630a2bdc333d","6408c1745d0b650d0d0ddc56","[2876.3000000715256]","","","[23,13,0,18,2,3,32,30,11,15,34,21,6,12,27,9,24,17,14,10,7,8,29,31,1,28,33,19,16,25,35,5,22,26,20,4]","[58,317,238,78,128,48,248,228,347,18,287,357,148,307,108,188,28,98,38,168,297,118,337,88,218,68,8,258,327,208,277,138,198,158,267,178]","58","303","192.50985465456372","[192.50985465456372]","[249.50985465456372]","[249]","[300,30,120,120,120,120,300,300,30]","0","36","0","152.88199999998324","20.77399995230371","16","[[[""img/mask89.png""],[""img/mask15.png""],[""img/mask4.png""],[""img/mask86.png""],[""img/mask86.png""],[""img/mask24.png""],[""img/mask84.png""],[""img/mask43.png""],[""img/mask77.png""],[""img/mask28.png""],[""img/mask33.png""],[""img/mask13.png""],[""img/mask65.png""],[""img/mask59.png""],[""img/mask100.png""],[""img/mask43.png""],[""img/mask95.png""],[""img/mask18.png""],[""img/mask10.png""],[""img/mask64.png""],[""img/mask18.png""],[""img/mask95.png""],[""img/mask83.png""],[""img/mask97.png""],[""img/mask53.png""],[""img/mask55.png""],[""img/mask51.png""],[""img/mask96.png""],[""img/mask19.png""],[""img/mask74.png""],[""img/mask9.png""],[""img/mask41.png""],[""img/mask41.png""],[""img/mask86.png""],[""img/mask64.png""],[""img/mask35.png""]]]","","[23,13,0,18,2,3,32,30,11,15,34,21,6,12,27,9,24,17,14,10,7,8,29,31,1,28,33,19,16,25,35,5,22,26,20,4]","main","303","many-guess-6"
"","","","","","html-keyboard-response","90","312634","0.0-10.0-1.35","633259075c2d3571332bdae7","640759fa512f630a2bdc333d","6408c1745d0b650d0d0ddc56","null","","null","","","","","","","","","","","","","","","","","","","fixation","",""
"","","","","","color-precision2","91","316060","0.0-10.0-0.36-0.36","633259075c2d3571332bdae7","640759fa512f630a2bdc333d","6408c1745d0b650d0d0ddc56","[582.9000000953674]","","","[6]","[126]","126","123","261.6682649943023","[261.6682649943023]","[138.66826499430232]","[140]","0","0","1","0","151.83799995231675","1003.8790000476874","1000","[[[""img/mask3.png""]]]","","","main","123","color-precision2"
"","","","","","html-keyboard-response","92","316561","0.0-10.0-1.36","633259075c2d3571332bdae7","640759fa512f630a2bdc333d","6408c1745d0b650d0d0ddc56","null","","null","","","","","","","","","","","","","","","","","","","fixation","",""
"","","","","","color-precision2","93","318940","0.0-10.0-0.37-0.37","633259075c2d3571332bdae7","640759fa512f630a2bdc333d","6408c1745d0b650d0d0ddc56","[247.20000004768372]","","","[4]","[35]","35","261","279.39592280400575","[279.39592280400575]","[18.39592280400575]","[19]","0","0","1","0","152.8850000476814","1001.0829999523121","1000","[[[""img/mask81.png""]]]","","","main","261","color-precision2"
"","","","","","html-keyboard-response","94","319442","0.0-10.0-1.37","633259075c2d3571332bdae7","640759fa512f630a2bdc333d","6408c1745d0b650d0d0ddc56","null","","null","","","","","","","","","","","","","","","","","","","fixation","",""
"","","","","","many-guess-6","95","323180","0.0-10.0-0.38-0.38","633259075c2d3571332bdae7","640759fa512f630a2bdc333d","6408c1745d0b650d0d0ddc56","[2625.2999999523163]","","","[25,30,18,1,7,16,32,17,14,2,24,20,10,8,12,3,28,35,13,22,29,27,0,11,31,15,34,4,26,9,23,21,6,19,5,33]","[145,125,345,45,15,165,255,95,225,315,115,305,295,275,335,215,5,265,195,75,85,185,55,175,205,235,285,65,25,325,155,355,105,135,245,35]","145","87","339.6748135054833","[339.6748135054833]","[252.6748135054833]","[253]","[120,30,300,120,30,210,210,300,210]","0","36","0","152.87399995233864","20.989999976183753","16","[[[""img/mask86.png""],[""img/mask45.png""],[""img/mask87.png""],[""img/mask36.png""],[""img/mask77.png""],[""img/mask76.png""],[""img/mask2.png""],[""img/mask67.png""],[""img/mask48.png""],[""img/mask38.png""],[""img/mask14.png""],[""img/mask83.png""],[""img/mask32.png""],[""img/mask79.png""],[""img/mask62.png""],[""img/mask62.png""],[""img/mask64.png""],[""img/mask8.png""],[""img/mask57.png""],[""img/mask93.png""],[""img/mask40.png""],[""img/mask4.png""],[""img/mask80.png""],[""img/mask67.png""],[""img/mask97.png""],[""img/mask30.png""],[""img/mask43.png""],[""img/mask33.png""],[""img/mask40.png""],[""img/mask11.png""],[""img/mask24.png""],[""img/mask75.png""],[""img/mask27.png""],[""img/mask95.png""],[""img/mask22.png""],[""img/mask70.png""]]]","","[25,30,18,1,7,16,32,17,14,2,24,20,10,8,12,3,28,35,13,22,29,27,0,11,31,15,34,4,26,9,23,21,6,19,5,33]","main","87","many-guess-6"
"","","","","","html-keyboard-response","96","323681","0.0-10.0-1.38","633259075c2d3571332bdae7","640759fa512f630a2bdc333d","6408c1745d0b650d0d0ddc56","null","","null","","","","","","","","","","","","","","","","","","","fixation","",""
"","","","","","many-guess-6","97","327916","0.0-10.0-0.39-0.39","633259075c2d3571332bdae7","640759fa512f630a2bdc333d","6408c1745d0b650d0d0ddc56","[2508.1999999284744]","","","[14,24,29,15,6,31,8,4,22,23,12,9,17,28,20,32,25,35,2,34,1,3,7,26,18,21,30,13,16,19,0,27,10,5,11,33]","[232,291,22,212,341,182,52,172,162,271,192,202,311,132,42,92,112,261,351,252,281,102,242,32,222,72,62,152,301,82,142,331,122,12,321,2]","232","313","58.64663473576026","[58.64663473576026]","[105.64663473576024]","[104]","[120,30,210,30,210,210,120,120,210]","0","36","0","152.8460000238265","11.852000000013504","16","[[[""img/mask33.png""],[""img/mask97.png""],[""img/mask93.png""],[""img/mask14.png""],[""img/mask27.png""],[""img/mask81.png""],[""img/mask67.png""],[""img/mask51.png""],[""img/mask10.png""],[""img/mask20.png""],[""img/mask93.png""],[""img/mask50.png""],[""img/mask29.png""],[""img/mask90.png""],[""img/mask17.png""],[""img/mask3.png""],[""img/mask27.png""],[""img/mask43.png""],[""img/mask88.png""],[""img/mask20.png""],[""img/mask22.png""],[""img/mask99.png""],[""img/mask12.png""],[""img/mask39.png""],[""img/mask8.png""],[""img/mask29.png""],[""img/mask30.png""],[""img/mask4.png""],[""img/mask93.png""],[""img/mask63.png""],[""img/mask14.png""],[""img/mask59.png""],[""img/mask40.png""],[""img/mask93.png""],[""img/mask2.png""],[""img/mask1.png""]]]","","[14,24,29,15,6,31,8,4,22,23,12,9,17,28,20,32,25,35,2,34,1,3,7,26,18,21,30,13,16,19,0,27,10,5,11,33]","main","313","many-guess-6"
"","","","","","html-keyboard-response","98","331278","0.0-10.0-1.39","633259075c2d3571332bdae7","640759fa512f630a2bdc333d","6408c1745d0b650d0d0ddc56","3361.8000000715256","Wow! You've completed 40 out of 180 trials! </p> <p>  </p><p> Take a quick break, then press any key when you're ready to continue.","0","","","","","","","","","","","","","","","","","","","fixation","",""
"","","","","","many-guess-6","99","341068","0.0-10.0-0.40-0.40","633259075c2d3571332bdae7","640759fa512f630a2bdc333d","6408c1745d0b650d0d0ddc56","[2017.8000000715256]","","","[34,10,9,17,19,1,32,28,4,15,16,30,6,25,27,7,8,35,0,23,20,14,21,2,29,13,26,22,33,3,11,12,24,31,5,18]","[280,11,340,161,240,1,300,81,320,270,181,211,101,310,250,260,141,171,111,151,290,41,31,131,51,330,71,91,191,201,231,350,221,121,21,61]","280","250","178.35221087287835","[178.35221087287835]","[288.35221087287835]","[287]","[210,120,120,120,120,210,300,210,120]","0","36","0","152.76100002386374","15.150999952340499","16","[[[""img/mask19.png""],[""img/mask93.png""],[""img/mask27.png""],[""img/mask17.png""],[""img/mask93.png""],[""img/mask63.png""],[""img/mask70.png""],[""img/mask73.png""],[""img/mask17.png""],[""img/mask60.png""],[""img/mask40.png""],[""img/mask61.png""],[""img/mask76.png""],[""img/mask74.png""],[""img/mask87.png""],[""img/mask17.png""],[""img/mask6.png""],[""img/mask59.png""],[""img/mask22.png""],[""img/mask56.png""],[""img/mask28.png""],[""img/mask37.png""],[""img/mask24.png""],[""img/mask16.png""],[""img/mask4.png""],[""img/mask35.png""],[""img/mask66.png""],[""img/mask8.png""],[""img/mask3.png""],[""img/mask48.png""],[""img/mask25.png""],[""img/mask48.png""],[""img/mask95.png""],[""img/mask53.png""],[""img/mask7.png""],[""img/mask24.png""]]]","","[34,10,9,17,19,1,32,28,4,15,16,30,6,25,27,7,8,35,0,23,20,14,21,2,29,13,26,22,33,3,11,12,24,31,5,18]","main","250","many-guess-6"
"","","","","","html-keyboard-response","100","341574","0.0-10.0-1.40","633259075c2d3571332bdae7","640759fa512f630a2bdc333d","6408c1745d0b650d0d0ddc56","null","","null","","","","","","","","","","","","","","","","","","","fixation","",""
"","","","","","many-guess-6","101","345700","0.0-10.0-0.41-0.41","633259075c2d3571332bdae7","640759fa512f630a2bdc333d","6408c1745d0b650d0d0ddc56","[2632.5]","","","[9,34,10,11,27,28,8,4,0,17,19,25,30,21,16,29,31,32,33,2,23,20,22,5,24,14,6,3,13,18,26,15,7,12,35,1]","[240,101,51,130,21,41,31,111,170,260,290,320,61,120,350,11,91,300,150,230,81,280,1,310,340,210,220,270,190,330,160,140,200,250,180,71]","240","133","343.172820991376","[343.172820991376]","[210.172820991376]","[210]","[210,30,30,300,120,300,210,210,30]","0","36","0","152.8219999523135","14.49900000001071","16","[[[""img/mask43.png""],[""img/mask56.png""],[""img/mask15.png""],[""img/mask73.png""],[""img/mask50.png""],[""img/mask20.png""],[""img/mask9.png""],[""img/mask28.png""],[""img/mask58.png""],[""img/mask17.png""],[""img/mask77.png""],[""img/mask22.png""],[""img/mask85.png""],[""img/mask4.png""],[""img/mask2.png""],[""img/mask1.png""],[""img/mask14.png""],[""img/mask47.png""],[""img/mask50.png""],[""img/mask20.png""],[""img/mask96.png""],[""img/mask89.png""],[""img/mask34.png""],[""img/mask79.png""],[""img/mask8.png""],[""img/mask12.png""],[""img/mask11.png""],[""img/mask7.png""],[""img/mask56.png""],[""img/mask49.png""],[""img/mask73.png""],[""img/mask44.png""],[""img/mask47.png""],[""img/mask69.png""],[""img/mask41.png""],[""img/mask17.png""]]]","","[9,34,10,11,27,28,8,4,0,17,19,25,30,21,16,29,31,32,33,2,23,20,22,5,24,14,6,3,13,18,26,15,7,12,35,1]","main","133","many-guess-6"
"","","","","","html-keyboard-response","102","346201","0.0-10.0-1.41","633259075c2d3571332bdae7","640759fa512f630a2bdc333d","6408c1745d0b650d0d0ddc56","null","","null","","","","","","","","","","","","","","","","","","","fixation","",""
"","","","","","many-guess-6","103","351508","0.0-10.0-0.42-0.42","633259075c2d3571332bdae7","640759fa512f630a2bdc333d","6408c1745d0b650d0d0ddc56","[3940.2999999523163]","","","[35,18,30,29,34,25,13,14,0,10,17,19,21,8,15,28,23,31,5,32,9,1,27,26,3,22,33,24,7,2,12,11,16,6,20,4]","[89,278,19,198,348,358,258,138,178,128,318,188,9,208,308,29,218,238,328,49,79,168,268,338,298,248,228,109,69,119,148,59,39,99,158,288]","89","23","126.44124701227406","[126.44124701227406]","[103.44124701227406]","[102]","[300,210,120,300,120,30,120,30,210]","0","36","0","153.04199995234376","13.621999952301849","16","[[[""img/mask26.png""],[""img/mask12.png""],[""img/mask78.png""],[""img/mask75.png""],[""img/mask86.png""],[""img/mask24.png""],[""img/mask8.png""],[""img/mask44.png""],[""img/mask1.png""],[""img/mask28.png""],[""img/mask46.png""],[""img/mask87.png""],[""img/mask37.png""],[""img/mask2.png""],[""img/mask63.png""],[""img/mask71.png""],[""img/mask65.png""],[""img/mask88.png""],[""img/mask57.png""],[""img/mask21.png""],[""img/mask6.png""],[""img/mask48.png""],[""img/mask94.png""],[""img/mask18.png""],[""img/mask86.png""],[""img/mask86.png""],[""img/mask94.png""],[""img/mask65.png""],[""img/mask8.png""],[""img/mask28.png""],[""img/mask37.png""],[""img/mask75.png""],[""img/mask58.png""],[""img/mask31.png""],[""img/mask96.png""],[""img/mask75.png""]]]","","[35,18,30,29,34,25,13,14,0,10,17,19,21,8,15,28,23,31,5,32,9,1,27,26,3,22,33,24,7,2,12,11,16,6,20,4]","main","23","many-guess-6"
"","","","","","html-keyboard-response","104","352008","0.0-10.0-1.42","633259075c2d3571332bdae7","640759fa512f630a2bdc333d","6408c1745d0b650d0d0ddc56","null","","null","","","","","","","","","","","","","","","","","","","fixation","",""
"","","","","","color-precision2","105","355084","0.0-10.0-0.43-0.43","633259075c2d3571332bdae7","640759fa512f630a2bdc333d","6408c1745d0b650d0d0ddc56","[542.1000000238419]","","","[3]","[208]","208","326","183.13344815825562","[183.13344815825562]","[217.13344815825562]","[216]","0","0","1","0","152.9120000238181","998.4810000238358","1000","[[[""img/mask93.png""]]]","","","main","326","color-precision2"
"","","","","","html-keyboard-response","106","355585","0.0-10.0-1.43","633259075c2d3571332bdae7","640759fa512f630a2bdc333d","6408c1745d0b650d0d0ddc56","null","","null","","","","","","","","","","","","","","","","","","","fixation","",""
"","","","","","color-precision2","107","358268","0.0-10.0-0.44-0.44","633259075c2d3571332bdae7","640759fa512f630a2bdc333d","6408c1745d0b650d0d0ddc56","[309.8000000715256]","","","[21]","[260]","260","54","321.9260835975935","[321.9260835975935]","[267.9260835975935]","[268]","0","0","1","0","152.94200002384605","996.8890000238316","1000","[[[""img/mask47.png""]]]","","","main","54","color-precision2"
"","","","","","html-keyboard-response","108","358769","0.0-10.0-1.44","633259075c2d3571332bdae7","640759fa512f630a2bdc333d","6408c1745d0b650d0d0ddc56","null","","null","","","","","","","","","","","","","","","","","","","fixation","",""
"","","","","","color-precision2","109","361412","0.0-10.0-0.45-0.45","633259075c2d3571332bdae7","640759fa512f630a2bdc333d","6408c1745d0b650d0d0ddc56","[367.2000000476837]","","","[28]","[236]","236","17","261.8116606419202","[261.8116606419202]","[244.81166064192018]","[245]","0","0","1","0","152.96200002386468","1004.9200000238488","1000","[[[""img/mask49.png""]]]","","","main","17","color-precision2"
"","","","","","html-keyboard-response","110","361914","0.0-10.0-1.45","633259075c2d3571332bdae7","640759fa512f630a2bdc333d","6408c1745d0b650d0d0ddc56","null","","null","","","","","","","","","","","","","","","","","","","fixation","",""
"","","","","","many-guess-6","111","365692","0.0-10.0-0.46-0.46","633259075c2d3571332bdae7","640759fa512f630a2bdc333d","6408c1745d0b650d0d0ddc56","[2562.5]","","","[6,34,7,5,0,35,23,22,9,13,2,30,31,33,17,20,24,10,3,19,25,15,29,1,14,21,18,27,28,26,12,32,11,8,16,4]","[193,203,352,253,213,243,133,273,233,283,43,3,263,93,312,163,23,332,173,342,103,153,183,13,143,33,73,113,302,53,123,223,293,63,83,322]","193","221","228.6217111462291","[228.6217111462291]","[7.621711146229103]","[8]","[30,120,120,300,300,30,300,120,300]","0","36","0","152.94599997613113","13.657000023813453","16","[[[""img/mask8.png""],[""img/mask47.png""],[""img/mask22.png""],[""img/mask15.png""],[""img/mask54.png""],[""img/mask25.png""],[""img/mask23.png""],[""img/mask54.png""],[""img/mask35.png""],[""img/mask83.png""],[""img/mask66.png""],[""img/mask60.png""],[""img/mask41.png""],[""img/mask86.png""],[""img/mask22.png""],[""img/mask87.png""],[""img/mask50.png""],[""img/mask18.png""],[""img/mask88.png""],[""img/mask80.png""],[""img/mask27.png""],[""img/mask22.png""],[""img/mask42.png""],[""img/mask21.png""],[""img/mask28.png""],[""img/mask31.png""],[""img/mask58.png""],[""img/mask44.png""],[""img/mask75.png""],[""img/mask47.png""],[""img/mask84.png""],[""img/mask73.png""],[""img/mask32.png""],[""img/mask95.png""],[""img/mask9.png""],[""img/mask48.png""]]]","","[6,34,7,5,0,35,23,22,9,13,2,30,31,33,17,20,24,10,3,19,25,15,29,1,14,21,18,27,28,26,12,32,11,8,16,4]","main","221","many-guess-6"
"","","","","","html-keyboard-response","112","366193","0.0-10.0-1.46","633259075c2d3571332bdae7","640759fa512f630a2bdc333d","6408c1745d0b650d0d0ddc56","null","","null","","","","","","","","","","","","","","","","","","","fixation","",""
"","","","","","color-precision2","113","368964","0.0-10.0-0.47-0.47","633259075c2d3571332bdae7","640759fa512f630a2bdc333d","6408c1745d0b650d0d0ddc56","[438.5]","","","[10]","[186]","186","275","84.0109670068997","[84.0109670068997]","[169.0109670068997]","[167]","0","0","1","0","152.92499997618143","997.8119999523042","1000","[[[""img/mask38.png""]]]","","","main","275","color-precision2"
"","","","","","html-keyboard-response","114","369466","0.0-10.0-1.47","633259075c2d3571332bdae7","640759fa512f630a2bdc333d","6408c1745d0b650d0d0ddc56","null","","null","","","","","","","","","","","","","","","","","","","fixation","",""
"","","","","","color-precision2","115","372037","0.0-10.0-0.48-0.48","633259075c2d3571332bdae7","640759fa512f630a2bdc333d","6408c1745d0b650d0d0ddc56","[365.10000002384186]","","","[28]","[103]","103","236","344.63911860047085","[344.63911860047085]","[108.63911860047085]","[108]","0","0","1","0","152.94299997616326","1005.5489999761339","1000","[[[""img/mask44.png""]]]","","","main","236","color-precision2"
"","","","","","html-keyboard-response","116","372538","0.0-10.0-1.48","633259075c2d3571332bdae7","640759fa512f630a2bdc333d","6408c1745d0b650d0d0ddc56","null","","null","","","","","","","","","","","","","","","","","","","fixation","",""
"","","","","","color-precision2","117","375548","0.0-10.0-0.49-0.49","633259075c2d3571332bdae7","640759fa512f630a2bdc333d","6408c1745d0b650d0d0ddc56","[838.1000000238419]","","","[29]","[111]","111","287","35.44948047598629","[35.44948047598629]","[108.44948047598629]","[107]","0","0","1","0","152.8979999999865","996.2029999523074","1000","[[[""img/mask27.png""]]]","","","main","287","color-precision2"
"","","","","","html-keyboard-response","118","376050","0.0-10.0-1.49","633259075c2d3571332bdae7","640759fa512f630a2bdc333d","6408c1745d0b650d0d0ddc56","null","","null","","","","","","","","","","","","","","","","","","","fixation","",""
"","","","","","many-guess-6","119","379396","0.0-10.0-0.50-0.50","633259075c2d3571332bdae7","640759fa512f630a2bdc333d","6408c1745d0b650d0d0ddc56","[2235.399999976158]","","","[11,9,10,26,13,27,15,34,17,23,20,29,35,22,4,7,30,21,12,5,1,19,3,18,16,2,25,6,33,32,0,8,31,14,24,28]","[126,335,245,6,305,86,66,186,46,255,285,355,16,295,156,146,96,315,26,36,116,226,206,345,136,265,106,196,235,275,166,56,76,176,216,325]","126","71","268.2913995923657","[268.2913995923657]","[197.29139959236568]","[197]","[210,210,120,120,30,300,120,300,30]","0","36","0","152.95300002384465","12.06700004771119","16","[[[""img/mask65.png""],[""img/mask67.png""],[""img/mask32.png""],[""img/mask15.png""],[""img/mask90.png""],[""img/mask65.png""],[""img/mask95.png""],[""img/mask93.png""],[""img/mask46.png""],[""img/mask52.png""],[""img/mask77.png""],[""img/mask23.png""],[""img/mask1.png""],[""img/mask49.png""],[""img/mask46.png""],[""img/mask65.png""],[""img/mask71.png""],[""img/mask29.png""],[""img/mask94.png""],[""img/mask8.png""],[""img/mask82.png""],[""img/mask68.png""],[""img/mask5.png""],[""img/mask1.png""],[""img/mask7.png""],[""img/mask2.png""],[""img/mask41.png""],[""img/mask19.png""],[""img/mask6.png""],[""img/mask17.png""],[""img/mask49.png""],[""img/mask49.png""],[""img/mask3.png""],[""img/mask66.png""],[""img/mask92.png""],[""img/mask17.png""]]]","","[11,9,10,26,13,27,15,34,17,23,20,29,35,22,4,7,30,21,12,5,1,19,3,18,16,2,25,6,33,32,0,8,31,14,24,28]","main","71","many-guess-6"
"","","","","","html-keyboard-response","120","379897","0.0-10.0-1.50","633259075c2d3571332bdae7","640759fa512f630a2bdc333d","6408c1745d0b650d0d0ddc56","null","","null","","","","","","","","","","","","","","","","","","","fixation","",""
"","","","","","many-guess-6","121","383117","0.0-10.0-0.51-0.51","633259075c2d3571332bdae7","640759fa512f630a2bdc333d","6408c1745d0b650d0d0ddc56","[1809.6999999284744]","","","[4,1,29,30,16,0,13,3,23,17,8,25,31,28,19,32,35,7,34,11,21,12,22,15,2,9,5,24,20,27,14,18,6,33,10,26]","[312,322,172,43,63,222,123,133,342,272,212,182,332,352,23,83,13,33,282,73,153,252,292,53,143,302,242,262,192,93,162,232,202,113,103,3]","312","236","172.6760189268622","[172.6760189268622]","[296.6760189268622]","[296]","[30,300,120,30,210,120,30,300,300]","0","36","0","152.8439999523107","13.44500004767906","16","[[[""img/mask37.png""],[""img/mask78.png""],[""img/mask15.png""],[""img/mask76.png""],[""img/mask54.png""],[""img/mask65.png""],[""img/mask98.png""],[""img/mask84.png""],[""img/mask53.png""],[""img/mask86.png""],[""img/mask48.png""],[""img/mask57.png""],[""img/mask13.png""],[""img/mask11.png""],[""img/mask86.png""],[""img/mask1.png""],[""img/mask41.png""],[""img/mask74.png""],[""img/mask16.png""],[""img/mask65.png""],[""img/mask30.png""],[""img/mask1.png""],[""img/mask77.png""],[""img/mask10.png""],[""img/mask20.png""],[""img/mask30.png""],[""img/mask14.png""],[""img/mask94.png""],[""img/mask42.png""],[""img/mask44.png""],[""img/mask18.png""],[""img/mask53.png""],[""img/mask10.png""],[""img/mask19.png""],[""img/mask82.png""],[""img/mask13.png""]]]","","[4,1,29,30,16,0,13,3,23,17,8,25,31,28,19,32,35,7,34,11,21,12,22,15,2,9,5,24,20,27,14,18,6,33,10,26]","main","236","many-guess-6"
"","","","","","html-keyboard-response","122","383629","0.0-10.0-1.51","633259075c2d3571332bdae7","640759fa512f630a2bdc333d","6408c1745d0b650d0d0ddc56","null","","null","","","","","","","","","","","","","","","","","","","fixation","",""
"","","","","","color-precision2","123","386724","0.0-10.0-0.52-0.52","633259075c2d3571332bdae7","640759fa512f630a2bdc333d","6408c1745d0b650d0d0ddc56","[763.2000000476837]","","","[12]","[226]","226","349","222.64957580397288","[222.64957580397288]","[233.64957580397288]","[233]","0","0","1","0","151.32199997617863","997.3989999523037","1000","[[[""img/mask84.png""]]]","","","main","349","color-precision2"
"","","","","","html-keyboard-response","124","387225","0.0-10.0-1.52","633259075c2d3571332bdae7","640759fa512f630a2bdc333d","6408c1745d0b650d0d0ddc56","null","","null","","","","","","","","","","","","","","","","","","","fixation","",""
"","","","","","many-guess-6","125","390844","0.0-10.0-0.53-0.53","633259075c2d3571332bdae7","640759fa512f630a2bdc333d","6408c1745d0b650d0d0ddc56","[2067.5]","","","[14,34,21,33,4,10,18,15,3,19,7,29,17,9,35,8,26,5,23,6,2,27,22,20,30,1,28,13,24,12,31,16,25,0,11,32]","[295,85,155,65,285,334,165,205,235,5,185,344,265,135,324,225,75,275,35,255,354,195,125,25,55,15,115,45,305,175,145,215,95,314,245,105]","295","276","287.06258293094834","[287.06258293094834]","[11.062582930948338]","[11]","[300,30,300,210,120,210,120,30,210]","0","36","0","152.94199995230883","17.9839999761316","16","[[[""img/mask34.png""],[""img/mask55.png""],[""img/mask95.png""],[""img/mask33.png""],[""img/mask5.png""],[""img/mask94.png""],[""img/mask95.png""],[""img/mask89.png""],[""img/mask77.png""],[""img/mask57.png""],[""img/mask86.png""],[""img/mask20.png""],[""img/mask44.png""],[""img/mask73.png""],[""img/mask56.png""],[""img/mask50.png""],[""img/mask28.png""],[""img/mask77.png""],[""img/mask8.png""],[""img/mask98.png""],[""img/mask82.png""],[""img/mask24.png""],[""img/mask39.png""],[""img/mask78.png""],[""img/mask59.png""],[""img/mask48.png""],[""img/mask8.png""],[""img/mask85.png""],[""img/mask57.png""],[""img/mask82.png""],[""img/mask77.png""],[""img/mask9.png""],[""img/mask58.png""],[""img/mask58.png""],[""img/mask65.png""],[""img/mask74.png""]]]","","[14,34,21,33,4,10,18,15,3,19,7,29,17,9,35,8,26,5,23,6,2,27,22,20,30,1,28,13,24,12,31,16,25,0,11,32]","main","276","many-guess-6"
"","","","","","html-keyboard-response","126","391345","0.0-10.0-1.53","633259075c2d3571332bdae7","640759fa512f630a2bdc333d","6408c1745d0b650d0d0ddc56","null","","null","","","","","","","","","","","","","","","","","","","fixation","",""
"","","","","","color-precision2","127","394860","0.0-10.0-0.54-0.54","633259075c2d3571332bdae7","640759fa512f630a2bdc333d","6408c1745d0b650d0d0ddc56","[770.2999999523163]","","","[1]","[112]","112","31","133.14764047283322","[133.14764047283322]","[102.14764047283322]","[100]","0","0","1","0","153.02099997614278","1001.8090000238153","1000","[[[""img/mask93.png""]]]","","","main","31","color-precision2"
"","","","","","html-keyboard-response","128","395361","0.0-10.0-1.54","633259075c2d3571332bdae7","640759fa512f630a2bdc333d","6408c1745d0b650d0d0ddc56","null","","null","","","","","","","","","","","","","","","","","","","fixation","",""
"","","","","","many-guess-6","129","400485","0.0-10.0-0.55-0.55","633259075c2d3571332bdae7","640759fa512f630a2bdc333d","6408c1745d0b650d0d0ddc56","[3826.8000000715256]","","","[3,11,0,7,27,25,14,29,1,5,28,22,16,17,10,30,34,12,35,8,32,4,13,18,15,26,23,9,2,33,31,6,21,24,19,20]","[199,269,149,279,40,259,30,169,119,90,289,80,50,209,329,249,339,239,60,159,299,70,109,219,309,319,129,10,179,139,229,349,189,20,359,99]","199","7","246.09019121102176","[246.09019121102176]","[239.09019121102176]","[239]","[120,30,210,30,300,30,120,30,210]","0","36","0","152.89600000000792","16.867999976151623","16","[[[""img/mask8.png""],[""img/mask80.png""],[""img/mask55.png""],[""img/mask5.png""],[""img/mask50.png""],[""img/mask24.png""],[""img/mask90.png""],[""img/mask37.png""],[""img/mask43.png""],[""img/mask57.png""],[""img/mask7.png""],[""img/mask64.png""],[""img/mask85.png""],[""img/mask71.png""],[""img/mask86.png""],[""img/mask75.png""],[""img/mask59.png""],[""img/mask82.png""],[""img/mask16.png""],[""img/mask45.png""],[""img/mask90.png""],[""img/mask83.png""],[""img/mask92.png""],[""img/mask2.png""],[""img/mask28.png""],[""img/mask17.png""],[""img/mask46.png""],[""img/mask33.png""],[""img/mask97.png""],[""img/mask94.png""],[""img/mask85.png""],[""img/mask31.png""],[""img/mask10.png""],[""img/mask29.png""],[""img/mask14.png""],[""img/mask74.png""]]]","","[3,11,0,7,27,25,14,29,1,5,28,22,16,17,10,30,34,12,35,8,32,4,13,18,15,26,23,9,2,33,31,6,21,24,19,20]","main","7","many-guess-6"
"","","","","","html-keyboard-response","130","400985","0.0-10.0-1.55","633259075c2d3571332bdae7","640759fa512f630a2bdc333d","6408c1745d0b650d0d0ddc56","null","","null","","","","","","","","","","","","","","","","","","","fixation","",""
"","","","","","color-precision2","131","403772","0.0-10.0-0.56-0.56","633259075c2d3571332bdae7","640759fa512f630a2bdc333d","6408c1745d0b650d0d0ddc56","[423]","","","[7]","[227]","227","180","44.40462925745309","[44.40462925745309]","[224.40462925745308]","[223]","0","0","1","0","152.9350000238628","999.5840000477037","1000","[[[""img/mask77.png""]]]","","","main","180","color-precision2"
"","","","","","html-keyboard-response","132","404281","0.0-10.0-1.56","633259075c2d3571332bdae7","640759fa512f630a2bdc333d","6408c1745d0b650d0d0ddc56","null","","null","","","","","","","","","","","","","","","","","","","fixation","",""
"","","","","","many-guess-6","133","407612","0.0-10.0-0.57-0.57","633259075c2d3571332bdae7","640759fa512f630a2bdc333d","6408c1745d0b650d0d0ddc56","[2142.2999999523163]","","","[8,19,5,10,28,0,20,32,13,31,26,14,27,24,21,17,7,23,9,2,16,12,35,4,34,22,33,30,25,6,29,3,1,15,11,18]","[157,206,216,276,296,137,57,87,306,196,176,326,226,166,246,117,37,186,67,17,336,27,107,147,316,7,97,256,346,77,356,47,266,286,236,127]","157","173","179.0293085225707","[179.0293085225707]","[6.0293085225706875]","[5]","[210,30,30,210,300,210,210,30,30]","0","36","0","152.8560000238358","10.128999952343293","16","[[[""img/mask9.png""],[""img/mask59.png""],[""img/mask80.png""],[""img/mask45.png""],[""img/mask52.png""],[""img/mask60.png""],[""img/mask92.png""],[""img/mask15.png""],[""img/mask4.png""],[""img/mask6.png""],[""img/mask97.png""],[""img/mask56.png""],[""img/mask45.png""],[""img/mask10.png""],[""img/mask29.png""],[""img/mask63.png""],[""img/mask72.png""],[""img/mask95.png""],[""img/mask25.png""],[""img/mask86.png""],[""img/mask32.png""],[""img/mask61.png""],[""img/mask9.png""],[""img/mask5.png""],[""img/mask25.png""],[""img/mask45.png""],[""img/mask83.png""],[""img/mask83.png""],[""img/mask23.png""],[""img/mask50.png""],[""img/mask29.png""],[""img/mask17.png""],[""img/mask90.png""],[""img/mask89.png""],[""img/mask89.png""],[""img/mask32.png""]]]","","[8,19,5,10,28,0,20,32,13,31,26,14,27,24,21,17,7,23,9,2,16,12,35,4,34,22,33,30,25,6,29,3,1,15,11,18]","main","173","many-guess-6"
"","","","","","html-keyboard-response","134","408114","0.0-10.0-1.57","633259075c2d3571332bdae7","640759fa512f630a2bdc333d","6408c1745d0b650d0d0ddc56","null","","null","","","","","","","","","","","","","","","","","","","fixation","",""
"","","","","","many-guess-6","135","411356","0.0-10.0-0.58-0.58","633259075c2d3571332bdae7","640759fa512f630a2bdc333d","6408c1745d0b650d0d0ddc56","[1928.2999999523163]","","","[11,17,10,22,13,1,34,12,30,26,21,0,29,23,33,15,7,5,3,19,35,16,14,20,18,8,2,25,32,4,27,9,6,28,31,24]","[121,310,31,171,111,41,270,300,330,141,151,250,350,91,200,21,220,161,131,191,230,320,71,210,81,181,51,260,240,290,61,11,101,280,1,340]","121","148","50.71602759342309","[50.71602759342309]","[262.71602759342306]","[261]","[210,210,120,300,210,300,30,300,300]","0","36","0","152.98699995229254","14.163000000000466","16","[[[""img/mask58.png""],[""img/mask94.png""],[""img/mask75.png""],[""img/mask37.png""],[""img/mask78.png""],[""img/mask96.png""],[""img/mask50.png""],[""img/mask28.png""],[""img/mask9.png""],[""img/mask57.png""],[""img/mask57.png""],[""img/mask28.png""],[""img/mask50.png""],[""img/mask52.png""],[""img/mask12.png""],[""img/mask79.png""],[""img/mask98.png""],[""img/mask62.png""],[""img/mask17.png""],[""img/mask45.png""],[""img/mask51.png""],[""img/mask87.png""],[""img/mask41.png""],[""img/mask11.png""],[""img/mask78.png""],[""img/mask53.png""],[""img/mask49.png""],[""img/mask6.png""],[""img/mask74.png""],[""img/mask92.png""],[""img/mask16.png""],[""img/mask82.png""],[""img/mask44.png""],[""img/mask76.png""],[""img/mask58.png""],[""img/mask72.png""]]]","","[11,17,10,22,13,1,34,12,30,26,21,0,29,23,33,15,7,5,3,19,35,16,14,20,18,8,2,25,32,4,27,9,6,28,31,24]","main","148","many-guess-6"
"","","","","","html-keyboard-response","136","411863","0.0-10.0-1.58","633259075c2d3571332bdae7","640759fa512f630a2bdc333d","6408c1745d0b650d0d0ddc56","null","","null","","","","","","","","","","","","","","","","","","","fixation","",""
"","","","","","many-guess-6","137","415756","0.0-10.0-0.59-0.59","633259075c2d3571332bdae7","640759fa512f630a2bdc333d","6408c1745d0b650d0d0ddc56","[2523.0999999046326]","","","[12,11,10,33,4,7,19,25,0,18,21,27,13,15,6,26,31,2,35,8,3,20,5,16,34,28,23,17,29,9,14,1,32,24,30,22]","[101,241,91,321,311,161,281,111,151,291,71,181,42,251,171,221,201,61,121,351,22,231,12,331,131,261,32,81,141,271,301,2,191,51,341,211]","101","327","248.33534109712076","[248.33534109712076]","[281.33534109712076]","[281]","[120,210,300,120,30,210,210,300,300]","0","36","0","153.02300004765857","16.90799999999581","16","[[[""img/mask85.png""],[""img/mask49.png""],[""img/mask7.png""],[""img/mask44.png""],[""img/mask96.png""],[""img/mask45.png""],[""img/mask100.png""],[""img/mask22.png""],[""img/mask22.png""],[""img/mask69.png""],[""img/mask92.png""],[""img/mask2.png""],[""img/mask18.png""],[""img/mask89.png""],[""img/mask7.png""],[""img/mask54.png""],[""img/mask65.png""],[""img/mask48.png""],[""img/mask91.png""],[""img/mask58.png""],[""img/mask25.png""],[""img/mask36.png""],[""img/mask46.png""],[""img/mask54.png""],[""img/mask76.png""],[""img/mask5.png""],[""img/mask41.png""],[""img/mask38.png""],[""img/mask44.png""],[""img/mask60.png""],[""img/mask93.png""],[""img/mask85.png""],[""img/mask27.png""],[""img/mask90.png""],[""img/mask39.png""],[""img/mask80.png""]]]","","[12,11,10,33,4,7,19,25,0,18,21,27,13,15,6,26,31,2,35,8,3,20,5,16,34,28,23,17,29,9,14,1,32,24,30,22]","main","327","many-guess-6"
"","","","","","html-keyboard-response","138","555816","0.0-10.0-1.59","633259075c2d3571332bdae7","640759fa512f630a2bdc333d","6408c1745d0b650d0d0ddc56","140059.5","Wow! You've completed 60 out of 180 trials! </p> <p>  </p><p> Take a quick break, then press any key when you're ready to continue.","0","","","","","","","","","","","","","","","","","","","fixation","",""
"","","","","","many-guess-6","139","560396","0.0-10.0-0.60-0.60","633259075c2d3571332bdae7","640759fa512f630a2bdc333d","6408c1745d0b650d0d0ddc56","[2295.399999976158]","","","[35,4,14,13,25,29,22,10,28,21,19,0,12,30,5,1,15,33,17,27,26,31,16,11,6,3,20,8,18,34,2,7,24,23,32,9]","[152,132,42,102,182,92,122,22,52,211,12,291,261,321,301,351,72,112,162,231,341,172,241,32,62,142,331,251,271,192,82,221,202,311,2,281]","152","210","226.26762381528718","[226.26762381528718]","[16.26762381528718]","[16]","[30,120,300,120,210,300,300,300,120]","0","36","0","153.02399999997579","15.315999952261336","16","[[[""img/mask4.png""],[""img/mask1.png""],[""img/mask99.png""],[""img/mask65.png""],[""img/mask94.png""],[""img/mask95.png""],[""img/mask72.png""],[""img/mask98.png""],[""img/mask60.png""],[""img/mask76.png""],[""img/mask18.png""],[""img/mask46.png""],[""img/mask43.png""],[""img/mask49.png""],[""img/mask55.png""],[""img/mask17.png""],[""img/mask39.png""],[""img/mask59.png""],[""img/mask47.png""],[""img/mask36.png""],[""img/mask44.png""],[""img/mask47.png""],[""img/mask22.png""],[""img/mask26.png""],[""img/mask50.png""],[""img/mask67.png""],[""img/mask60.png""],[""img/mask60.png""],[""img/mask77.png""],[""img/mask61.png""],[""img/mask70.png""],[""img/mask55.png""],[""img/mask6.png""],[""img/mask13.png""],[""img/mask39.png""],[""img/mask82.png""]]]","","[35,4,14,13,25,29,22,10,28,21,19,0,12,30,5,1,15,33,17,27,26,31,16,11,6,3,20,8,18,34,2,7,24,23,32,9]","main","210","many-guess-6"
"","","","","","html-keyboard-response","140","560898","0.0-10.0-1.60","633259075c2d3571332bdae7","640759fa512f630a2bdc333d","6408c1745d0b650d0d0ddc56","null","","null","","","","","","","","","","","","","","","","","","","fixation","",""
"","","","","","many-guess-6","141","564963","0.0-10.0-0.61-0.61","633259075c2d3571332bdae7","640759fa512f630a2bdc333d","6408c1745d0b650d0d0ddc56","[2763.7999999523163]","","","[1,12,28,23,14,25,5,35,32,27,16,26,10,9,20,0,34,3,2,8,31,21,18,11,19,7,17,22,13,30,33,4,15,6,29,24]","[184,214,303,164,204,263,144,54,74,343,323,293,84,224,34,313,64,114,24,94,273,4,283,234,44,134,194,154,124,14,253,104,244,353,174,333]","184","257","329.2902260943833","[329.2902260943833]","[72.29022609438329]","[72]","[300,120,300,120,300,30,210,300,30]","0","36","0","153.04299995233305","20.81400000001304","16","[[[""img/mask62.png""],[""img/mask30.png""],[""img/mask84.png""],[""img/mask23.png""],[""img/mask19.png""],[""img/mask46.png""],[""img/mask15.png""],[""img/mask4.png""],[""img/mask12.png""],[""img/mask21.png""],[""img/mask86.png""],[""img/mask6.png""],[""img/mask9.png""],[""img/mask65.png""],[""img/mask88.png""],[""img/mask92.png""],[""img/mask49.png""],[""img/mask78.png""],[""img/mask21.png""],[""img/mask10.png""],[""img/mask28.png""],[""img/mask97.png""],[""img/mask24.png""],[""img/mask76.png""],[""img/mask23.png""],[""img/mask49.png""],[""img/mask9.png""],[""img/mask46.png""],[""img/mask46.png""],[""img/mask92.png""],[""img/mask100.png""],[""img/mask55.png""],[""img/mask26.png""],[""img/mask86.png""],[""img/mask70.png""],[""img/mask28.png""]]]","","[1,12,28,23,14,25,5,35,32,27,16,26,10,9,20,0,34,3,2,8,31,21,18,11,19,7,17,22,13,30,33,4,15,6,29,24]","main","257","many-guess-6"
"","","","","","html-keyboard-response","142","565465","0.0-10.0-1.61","633259075c2d3571332bdae7","640759fa512f630a2bdc333d","6408c1745d0b650d0d0ddc56","null","","null","","","","","","","","","","","","","","","","","","","fixation","",""
"","","","","","color-precision2","143","568195","0.0-10.0-0.62-0.62","633259075c2d3571332bdae7","640759fa512f630a2bdc333d","6408c1745d0b650d0d0ddc56","[458.7999999523163]","","","[18]","[95]","95","94","196.39183602681098","[196.39183602681098]","[102.39183602681098]","[102]","0","0","1","0","152.9489999761572","997.8910000476753","1000","[[[""img/mask73.png""]]]","","","main","94","color-precision2"
"","","","","","html-keyboard-response","144","568696","0.0-10.0-1.62","633259075c2d3571332bdae7","640759fa512f630a2bdc333d","6408c1745d0b650d0d0ddc56","null","","null","","","","","","","","","","","","","","","","","","","fixation","",""
"","","","","","many-guess-6","145","572107","0.0-10.0-0.63-0.63","633259075c2d3571332bdae7","640759fa512f630a2bdc333d","6408c1745d0b650d0d0ddc56","[2179.600000023842]","","","[16,4,12,14,9,11,0,8,5,2,20,25,33,30,24,28,34,29,3,1,22,23,31,19,17,6,15,13,35,7,32,18,10,21,27,26]","[93,103,223,352,283,83,113,13,143,213,253,322,313,303,173,43,133,193,3,243,33,123,273,342,53,73,263,203,23,332,163,293,183,233,153,63]","93","317","205.88040755386163","[205.88040755386163]","[248.88040755386163]","[248]","[30,300,120,300,210,300,120,300,120]","0","36","0","153.09000004769769","19.98300000000745","16","[[[""img/mask66.png""],[""img/mask39.png""],[""img/mask86.png""],[""img/mask52.png""],[""img/mask28.png""],[""img/mask62.png""],[""img/mask25.png""],[""img/mask65.png""],[""img/mask92.png""],[""img/mask3.png""],[""img/mask26.png""],[""img/mask34.png""],[""img/mask68.png""],[""img/mask34.png""],[""img/mask19.png""],[""img/mask4.png""],[""img/mask94.png""],[""img/mask11.png""],[""img/mask14.png""],[""img/mask34.png""],[""img/mask55.png""],[""img/mask98.png""],[""img/mask88.png""],[""img/mask49.png""],[""img/mask40.png""],[""img/mask30.png""],[""img/mask47.png""],[""img/mask61.png""],[""img/mask80.png""],[""img/mask11.png""],[""img/mask48.png""],[""img/mask88.png""],[""img/mask30.png""],[""img/mask10.png""],[""img/mask37.png""],[""img/mask36.png""]]]","","[16,4,12,14,9,11,0,8,5,2,20,25,33,30,24,28,34,29,3,1,22,23,31,19,17,6,15,13,35,7,32,18,10,21,27,26]","main","317","many-guess-6"
"","","","","","html-keyboard-response","146","572608","0.0-10.0-1.63","633259075c2d3571332bdae7","640759fa512f630a2bdc333d","6408c1745d0b650d0d0ddc56","null","","null","","","","","","","","","","","","","","","","","","","fixation","",""
"","","","","","color-precision2","147","576059","0.0-10.0-0.64-0.64","633259075c2d3571332bdae7","640759fa512f630a2bdc333d","6408c1745d0b650d0d0ddc56","[877.2999999523163]","","","[4]","[240]","240","168","47.4868683044227","[47.4868683044227]","[239.4868683044227]","[238]","0","0","1","0","152.96699997619726","998.1180000238819","1000","[[[""img/mask59.png""]]]","","","main","168","color-precision2"
"","","","","","html-keyboard-response","148","576560","0.0-10.0-1.64","633259075c2d3571332bdae7","640759fa512f630a2bdc333d","6408c1745d0b650d0d0ddc56","null","","null","","","","","","","","","","","","","","","","","","","fixation","",""
"","","","","","color-precision2","149","579299","0.0-10.0-0.65-0.65","633259075c2d3571332bdae7","640759fa512f630a2bdc333d","6408c1745d0b650d0d0ddc56","[524.2999999523163]","","","[10]","[267]","267","293","206.6782311660178","[206.6782311660178]","[273.6782311660178]","[273]","0","0","1","0","152.7720000477275","994.231000023894","1000","[[[""img/mask9.png""]]]","","","main","293","color-precision2"
"","","","","","html-keyboard-response","150","579800","0.0-10.0-1.65","633259075c2d3571332bdae7","640759fa512f630a2bdc333d","6408c1745d0b650d0d0ddc56","null","","null","","","","","","","","","","","","","","","","","","","fixation","",""
"","","","","","color-precision2","151","582499","0.0-10.0-0.66-0.66","633259075c2d3571332bdae7","640759fa512f630a2bdc333d","6408c1745d0b650d0d0ddc56","[461.10000002384186]","","","[23]","[267]","267","19","290.68849586165607","[290.68849586165607]","[271.68849586165607]","[273]","0","0","1","0","153.03500002389774","1000.7669999522623","1000","[[[""img/mask48.png""]]]","","","main","19","color-precision2"
"","","","","","html-keyboard-response","152","583001","0.0-10.0-1.66","633259075c2d3571332bdae7","640759fa512f630a2bdc333d","6408c1745d0b650d0d0ddc56","null","","null","","","","","","","","","","","","","","","","","","","fixation","",""
"","","","","","color-precision2","153","585931","0.0-10.0-0.67-0.67","633259075c2d3571332bdae7","640759fa512f630a2bdc333d","6408c1745d0b650d0d0ddc56","[582.6999999284744]","","","[18]","[274]","274","327","242.36596666947855","[242.36596666947855]","[275.36596666947855]","[275]","0","0","1","0","152.81400000001304","1005.10399995232","1000","[[[""img/mask57.png""]]]","","","main","327","color-precision2"
"","","","","","html-keyboard-response","154","586432","0.0-10.0-1.67","633259075c2d3571332bdae7","640759fa512f630a2bdc333d","6408c1745d0b650d0d0ddc56","null","","null","","","","","","","","","","","","","","","","","","","fixation","",""
"","","","","","color-precision2","155","590100","0.0-10.0-0.68-0.68","633259075c2d3571332bdae7","640759fa512f630a2bdc333d","6408c1745d0b650d0d0ddc56","[663.5]","","","[26]","[305]","305","7","320.96984116664527","[320.96984116664527]","[313.96984116664527]","[314]","0","0","1","0","152.91600004769862","1001.9850000477163","1000","[[[""img/mask78.png""]]]","","","main","7","color-precision2"
"","","","","","html-keyboard-response","156","590603","0.0-10.0-1.68","633259075c2d3571332bdae7","640759fa512f630a2bdc333d","6408c1745d0b650d0d0ddc56","null","","null","","","","","","","","","","","","","","","","","","","fixation","",""
"","","","","","color-precision2","157","593995","0.0-10.0-0.69-0.69","633259075c2d3571332bdae7","640759fa512f630a2bdc333d","6408c1745d0b650d0d0ddc56","[977.2999999523163]","","","[34]","[214]","214","220","75.98271626208044","[75.98271626208044]","[215.98271626208043]","[214]","0","0","1","0","152.7179999522632","1000.9299999761861","1000","[[[""img/mask90.png""]]]","","","main","220","color-precision2"
"","","","","","html-keyboard-response","158","594501","0.0-10.0-1.69","633259075c2d3571332bdae7","640759fa512f630a2bdc333d","6408c1745d0b650d0d0ddc56","null","","null","","","","","","","","","","","","","","","","","","","fixation","",""
"","","","","","color-precision2","159","597123","0.0-10.0-0.70-0.70","633259075c2d3571332bdae7","640759fa512f630a2bdc333d","6408c1745d0b650d0d0ddc56","[477.39999997615814]","","","[33]","[102]","102","300","37.61507270877565","[37.61507270877565]","[97.61507270877564]","[96]","0","0","1","0","151.20500004768837","1001.9609999761451","1000","[[[""img/mask48.png""]]]","","","main","300","color-precision2"
"","","","","","html-keyboard-response","160","597624","0.0-10.0-1.70","633259075c2d3571332bdae7","640759fa512f630a2bdc333d","6408c1745d0b650d0d0ddc56","null","","null","","","","","","","","","","","","","","","","","","","fixation","",""
"","","","","","color-precision2","161","600915","0.0-10.0-0.71-0.71","633259075c2d3571332bdae7","640759fa512f630a2bdc333d","6408c1745d0b650d0d0ddc56","[275.1999999284744]","","","[27]","[193]","193","196","","[null]","[null]","[200]","0","0","1","0","152.96699995233212","1005.7760000238195","1000","[[[""img/mask44.png""]]]","","","main","196","color-precision2"
"","","","","","html-keyboard-response","162","601417","0.0-10.0-1.71","633259075c2d3571332bdae7","640759fa512f630a2bdc333d","6408c1745d0b650d0d0ddc56","null","","null","","","","","","","","","","","","","","","","","","","fixation","",""
"","","","","","many-guess-6","163","604819","0.0-10.0-0.72-0.72","633259075c2d3571332bdae7","640759fa512f630a2bdc333d","6408c1745d0b650d0d0ddc56","[1740.6999999284744]","","","[15,4,9,6,35,28,7,17,33,32,0,8,20,29,34,22,27,23,18,1,13,30,10,19,25,31,2,5,11,24,21,3,26,12,14,16]","[199,9,149,348,129,99,238,159,189,328,258,79,209,89,39,19,119,228,308,358,318,49,29,179,69,278,298,169,268,338,248,59,219,139,109,288]","199","65","264.97471334791123","[264.97471334791123]","[199.97471334791123]","[200]","[210,210,300,30,210,30,120,30,120]","0","36","0","153.06499995233025","14.787000000011176","16","[[[""img/mask29.png""],[""img/mask24.png""],[""img/mask85.png""],[""img/mask86.png""],[""img/mask26.png""],[""img/mask73.png""],[""img/mask89.png""],[""img/mask11.png""],[""img/mask71.png""],[""img/mask59.png""],[""img/mask54.png""],[""img/mask71.png""],[""img/mask27.png""],[""img/mask74.png""],[""img/mask75.png""],[""img/mask56.png""],[""img/mask44.png""],[""img/mask45.png""],[""img/mask87.png""],[""img/mask93.png""],[""img/mask74.png""],[""img/mask17.png""],[""img/mask78.png""],[""img/mask76.png""],[""img/mask46.png""],[""img/mask36.png""],[""img/mask85.png""],[""img/mask3.png""],[""img/mask71.png""],[""img/mask55.png""],[""img/mask16.png""],[""img/mask77.png""],[""img/mask14.png""],[""img/mask90.png""],[""img/mask64.png""],[""img/mask82.png""]]]","","[15,4,9,6,35,28,7,17,33,32,0,8,20,29,34,22,27,23,18,1,13,30,10,19,25,31,2,5,11,24,21,3,26,12,14,16]","main","65","many-guess-6"
"","","","","","html-keyboard-response","164","605321","0.0-10.0-1.72","633259075c2d3571332bdae7","640759fa512f630a2bdc333d","6408c1745d0b650d0d0ddc56","null","","null","","","","","","","","","","","","","","","","","","","fixation","",""
"","","","","","color-precision2","165","608379","0.0-10.0-0.73-0.73","633259075c2d3571332bdae7","640759fa512f630a2bdc333d","6408c1745d0b650d0d0ddc56","[588.5]","","","[9]","[273]","273","12","286.9609556050157","[286.9609556050157]","[274.9609556050157]","[275]","0","0","1","0","152.94999999995343","1001.8100000476697","1000","[[[""img/mask76.png""]]]","","","main","12","color-precision2"
"","","","","","html-keyboard-response","166","608881","0.0-10.0-1.73","633259075c2d3571332bdae7","640759fa512f630a2bdc333d","6408c1745d0b650d0d0ddc56","null","","null","","","","","","","","","","","","","","","","","","","fixation","",""
"","","","","","many-guess-6","167","612459","0.0-10.0-0.74-0.74","633259075c2d3571332bdae7","640759fa512f630a2bdc333d","6408c1745d0b650d0d0ddc56","[2394.2999999523163]","","","[1,28,11,7,24,18,26,14,15,9,29,32,8,13,16,35,22,0,33,2,23,27,5,4,3,10,34,20,25,30,21,6,19,12,31,17]","[289,70,180,259,160,229,170,319,20,50,10,349,140,309,110,359,279,219,239,90,190,30,299,40,269,120,249,80,199,150,339,209,329,100,130,60]","289","71","145.81401465072972","[145.81401465072972]","[74.81401465072972]","[74]","[210,300,30,300,210,30,30,30,210]","0","36","0","152.81500002380926","18.285000023897737","16","[[[""img/mask92.png""],[""img/mask82.png""],[""img/mask26.png""],[""img/mask31.png""],[""img/mask8.png""],[""img/mask61.png""],[""img/mask93.png""],[""img/mask71.png""],[""img/mask8.png""],[""img/mask95.png""],[""img/mask69.png""],[""img/mask32.png""],[""img/mask53.png""],[""img/mask77.png""],[""img/mask27.png""],[""img/mask85.png""],[""img/mask66.png""],[""img/mask5.png""],[""img/mask23.png""],[""img/mask11.png""],[""img/mask35.png""],[""img/mask8.png""],[""img/mask48.png""],[""img/mask22.png""],[""img/mask48.png""],[""img/mask95.png""],[""img/mask47.png""],[""img/mask14.png""],[""img/mask86.png""],[""img/mask7.png""],[""img/mask11.png""],[""img/mask65.png""],[""img/mask73.png""],[""img/mask98.png""],[""img/mask61.png""],[""img/mask59.png""]]]","","[1,28,11,7,24,18,26,14,15,9,29,32,8,13,16,35,22,0,33,2,23,27,5,4,3,10,34,20,25,30,21,6,19,12,31,17]","main","71","many-guess-6"
"","","","","","html-keyboard-response","168","612961","0.0-10.0-1.74","633259075c2d3571332bdae7","640759fa512f630a2bdc333d","6408c1745d0b650d0d0ddc56","null","","null","","","","","","","","","","","","","","","","","","","fixation","",""
"","","","","","color-precision2","169","615939","0.0-10.0-0.75-0.75","633259075c2d3571332bdae7","640759fa512f630a2bdc333d","6408c1745d0b650d0d0ddc56","[302.2000000476837]","","","[7]","[42]","42","255","269.00465567347646","[269.00465567347646]","[14.004655673476464]","[14]","0","0","1","0","152.6629999523284","1005.7499999522697","1000","[[[""img/mask48.png""]]]","","","main","255","color-precision2"
"","","","","","html-keyboard-response","170","616441","0.0-10.0-1.75","633259075c2d3571332bdae7","640759fa512f630a2bdc333d","6408c1745d0b650d0d0ddc56","null","","null","","","","","","","","","","","","","","","","","","","fixation","",""
"","","","","","color-precision2","171","619403","0.0-10.0-0.76-0.76","633259075c2d3571332bdae7","640759fa512f630a2bdc333d","6408c1745d0b650d0d0ddc56","[338.39999997615814]","","","[22]","[120]","120","274","34.91113522961776","[34.91113522961776]","[120.91113522961777]","[120]","0","0","1","0","152.69400002388284","1005.1650000000373","1000","[[[""img/mask64.png""]]]","","","main","274","color-precision2"
"","","","","","html-keyboard-response","172","619904","0.0-10.0-1.76","633259075c2d3571332bdae7","640759fa512f630a2bdc333d","6408c1745d0b650d0d0ddc56","null","","null","","","","","","","","","","","","","","","","","","","fixation","",""
"","","","","","many-guess-6","173","624235","0.0-10.0-0.77-0.77","633259075c2d3571332bdae7","640759fa512f630a2bdc333d","6408c1745d0b650d0d0ddc56","[3297.0999999046326]","","","[8,32,9,25,28,29,27,16,13,23,5,26,20,34,17,1,10,22,30,35,0,18,24,7,21,15,11,4,2,14,19,12,3,31,33,6]","[170,290,71,160,100,41,140,61,330,350,11,320,81,280,240,270,250,91,200,220,31,210,21,300,340,260,110,120,190,1,130,150,310,180,51,230]","170","39","22.716049709789566","[22.716049709789566]","[343.71604970978956]","[342]","[120,30,120,210,30,120,210,300,210]","0","36","0","153.1049999523675","21.261999976122752","16","[[[""img/mask33.png""],[""img/mask52.png""],[""img/mask29.png""],[""img/mask68.png""],[""img/mask10.png""],[""img/mask59.png""],[""img/mask73.png""],[""img/mask52.png""],[""img/mask13.png""],[""img/mask20.png""],[""img/mask86.png""],[""img/mask25.png""],[""img/mask87.png""],[""img/mask95.png""],[""img/mask99.png""],[""img/mask3.png""],[""img/mask14.png""],[""img/mask30.png""],[""img/mask3.png""],[""img/mask82.png""],[""img/mask82.png""],[""img/mask32.png""],[""img/mask89.png""],[""img/mask51.png""],[""img/mask32.png""],[""img/mask59.png""],[""img/mask74.png""],[""img/mask66.png""],[""img/mask93.png""],[""img/mask83.png""],[""img/mask47.png""],[""img/mask46.png""],[""img/mask100.png""],[""img/mask22.png""],[""img/mask4.png""],[""img/mask9.png""]]]","","[8,32,9,25,28,29,27,16,13,23,5,26,20,34,17,1,10,22,30,35,0,18,24,7,21,15,11,4,2,14,19,12,3,31,33,6]","main","39","many-guess-6"
"","","","","","html-keyboard-response","174","624736","0.0-10.0-1.77","633259075c2d3571332bdae7","640759fa512f630a2bdc333d","6408c1745d0b650d0d0ddc56","null","","null","","","","","","","","","","","","","","","","","","","fixation","",""
"","","","","","many-guess-6","175","628172","0.0-10.0-0.78-0.78","633259075c2d3571332bdae7","640759fa512f630a2bdc333d","6408c1745d0b650d0d0ddc56","[1802.2999999523163]","","","[35,13,26,31,21,12,11,5,27,16,7,22,15,30,25,29,4,23,1,10,19,2,8,6,3,14,18,17,34,9,0,24,33,32,28,20]","[124,244,15,324,334,354,294,234,274,114,74,224,214,104,314,264,134,144,154,24,204,164,5,54,304,184,44,84,194,34,284,64,174,344,254,94]","124","119","340.23233294880407","[340.23233294880407]","[221.23233294880407]","[221]","[210,120,300,30,30,30,300,210,120]","0","36","0","152.99799995229114","11.790999999968335","16","[[[""img/mask71.png""],[""img/mask5.png""],[""img/mask5.png""],[""img/mask69.png""],[""img/mask92.png""],[""img/mask56.png""],[""img/mask17.png""],[""img/mask26.png""],[""img/mask57.png""],[""img/mask1.png""],[""img/mask10.png""],[""img/mask44.png""],[""img/mask62.png""],[""img/mask53.png""],[""img/mask50.png""],[""img/mask88.png""],[""img/mask85.png""],[""img/mask29.png""],[""img/mask24.png""],[""img/mask74.png""],[""img/mask68.png""],[""img/mask93.png""],[""img/mask29.png""],[""img/mask78.png""],[""img/mask23.png""],[""img/mask75.png""],[""img/mask92.png""],[""img/mask67.png""],[""img/mask86.png""],[""img/mask82.png""],[""img/mask72.png""],[""img/mask46.png""],[""img/mask71.png""],[""img/mask46.png""],[""img/mask97.png""],[""img/mask94.png""]]]","","[35,13,26,31,21,12,11,5,27,16,7,22,15,30,25,29,4,23,1,10,19,2,8,6,3,14,18,17,34,9,0,24,33,32,28,20]","main","119","many-guess-6"
"","","","","","html-keyboard-response","176","628673","0.0-10.0-1.78","633259075c2d3571332bdae7","640759fa512f630a2bdc333d","6408c1745d0b650d0d0ddc56","null","","null","","","","","","","","","","","","","","","","","","","fixation","",""
"","","","","","color-precision2","177","633115","0.0-10.0-0.79-0.79","633259075c2d3571332bdae7","640759fa512f630a2bdc333d","6408c1745d0b650d0d0ddc56","[1750.6999999284744]","","","[22]","[313]","313","56","9.675115209958697","[9.675115209958697]","[313.6751152099587]","[313]","0","0","1","0","152.85300002386793","999.1600000000326","1000","[[[""img/mask33.png""]]]","","","main","56","color-precision2"
"","","","","","html-keyboard-response","178","641015","0.0-10.0-1.79","633259075c2d3571332bdae7","640759fa512f630a2bdc333d","6408c1745d0b650d0d0ddc56","7899.599999904633","Wow! You've completed 80 out of 180 trials! </p> <p>  </p><p> Take a quick break, then press any key when you're ready to continue.","0","","","","","","","","","","","","","","","","","","","fixation","",""
