"success","timeout","failed_images","failed_audio","failed_video","trial_type","trial_index","time_elapsed","internal_node_id","subject_id","study_id","session_id","rt","stimulus","response","position_of_items","colors_of_items","color_of_target","wheel_spin","response_angle","physical_response_angle","reported_color_angle","reported_color_discrete","locs","which_test","set_size","wheel_num_options","actual_mask_duration","actual_stim_duration","CMDispTime","maskArray","maskRotation","item_positions","task","randomSpinAmount","mainTask"
"true","false","[]","[]","[]","preload","0","1267","0.0-0.0","63368a7379eb43fa2105d971","640759fa512f630a2bdc333d","6407b70dd9bef0f1fbc740ca","","","","","","","","","","","","","","","","","","","","","","","",""
"true","","","","","fullscreen","1","14569","0.0-1.0","63368a7379eb43fa2105d971","640759fa512f630a2bdc333d","6407b70dd9bef0f1fbc740ca","","","","","","","","","","","","","","","","","","","","","","","",""
"","","","","","html-keyboard-response","2","20362","0.0-2.0","63368a7379eb43fa2105d971","640759fa512f630a2bdc333d","6407b70dd9bef0f1fbc740ca","5792","What a beautiful Tuesday to do some awesome science! </p> <p>  </p><p> </p>
    By completing this survey or questionnaire, you are consenting to be in this research study. </p>
    Your participation is voluntary and you can stop at any time.<p> [Press any key to continue] </p>"," ","","","","","","","","","","","","","","","","","","","","",""
"","","","","","html-keyboard-response","3","30372","0.0-3.0","63368a7379eb43fa2105d971","640759fa512f630a2bdc333d","6407b70dd9bef0f1fbc740ca","8866","
    <div style='width: 1000px;'>
    <div style='float: center;'><img src='img/TaskInstructions1.png'></img>
    </div>
    "," ","","","","","","","","","","","","","","","","","","","","",""
"","","","","","html-keyboard-response","4","32645","0.0-4.0","63368a7379eb43fa2105d971","640759fa512f630a2bdc333d","6407b70dd9bef0f1fbc740ca","2273","
    <div style='width: 1000px;'>
    <div style='float: center;'><img src='img/TaskInstructions1.png'></img>
    </div>
    "," ","","","","","","","","","","","","","","","","","","","","",""
"","","","","","html-keyboard-response","5","42649","0.0-5.0","63368a7379eb43fa2105d971","640759fa512f630a2bdc333d","6407b70dd9bef0f1fbc740ca","null","
    <div style='width: 1000px;'>
    <div style='float: center;'><img src='img/TaskInstructions2.png'></img>
    </div>
    ","null","","","","","","","","","","","","","","","","","","","","",""
"","","","","","html-keyboard-response","6","103238","0.0-6.0","63368a7379eb43fa2105d971","640759fa512f630a2bdc333d","6407b70dd9bef0f1fbc740ca","60588","
    <div style='width: 1000px;'>
    <div style='float: center;'><img src='img/TaskInstructions2.png'></img>
    </div>
    "," ","","","","","","","","","","","","","","","","","","","","",""
"","","","","","video-keyboard-response","7","114714","0.0-7.0","63368a7379eb43fa2105d971","640759fa512f630a2bdc333d","6407b70dd9bef0f1fbc740ca","11466","[""video/TaskInstructions3.mp4""]"," ","","","","","","","","","","","","","","","","","","","","",""
"","","","","","image-keyboard-response","8","120682","0.0-8.0-0.0","63368a7379eb43fa2105d971","640759fa512f630a2bdc333d","6407b70dd9bef0f1fbc740ca","5967","img/training1.png"," ","","","","","","","","","","","","","","","","","","","","",""
"","","","","","color-precision2","9","129925","0.0-8.0-1.0-0.0","63368a7379eb43fa2105d971","640759fa512f630a2bdc333d","6407b70dd9bef0f1fbc740ca","[3877]","","","[9]","[194]","194","156","341.1530840425666","[341.1530840425666]","[185.1530840425666]","[185]","0","0","1","0","499.8000000000029","996.0599999999977","1000","","","0","training","",""
"","","","","","image-keyboard-response","10","137630","0.0-8.0-0.1","63368a7379eb43fa2105d971","640759fa512f630a2bdc333d","6407b70dd9bef0f1fbc740ca","7705","img/training2.png"," ","","","","","","","","","","","","","","","","","","","","",""
"","","","","","many-guess-6","11","145465","0.0-8.0-1.1-0.1","63368a7379eb43fa2105d971","640759fa512f630a2bdc333d","6407b70dd9bef0f1fbc740ca","[1881]","","","[4,0,20]","[125,218,56]","125","355","118.39484818350758","[118.39484818350758]","[123.39484818350758]","[122]","[300,210,300,300,30,210,210,120,210,210,120,120,300,30,120,30,300,300,210,30,30,30,120,30,210,210,210,300,120,300,120,210,210,210,210,30]","0","3","0","999.8399999999965","1001.0400000000081","1000","[[[""img/mask18.png""],[""img/mask39.png""],[""img/mask4.png""]]]","","[4,0,20]","training","",""
"","","","","","image-keyboard-response","12","151371","0.0-8.0-0.2","63368a7379eb43fa2105d971","640759fa512f630a2bdc333d","6407b70dd9bef0f1fbc740ca","5905","img/training3.png"," ","","","","","","","","","","","","","","","","","","","","",""
"","","","","","[""many-guess-6""]","13","157475","0.0-8.0-1.2-0.2","63368a7379eb43fa2105d971","640759fa512f630a2bdc333d","6407b70dd9bef0f1fbc740ca","[1889]","","","[30,11,19,16,10]","[263,27,215,274,315]","263","343","151.66249957871477","[151.66249957871477]","[168.66249957871477]","[167]","[120,120,120,300,210,120,300,120,30,30,30,120,300,300,30,210,120,120,210,300,210,120,210,210,210,300,210,120,120,120,300,30,120,30,30,210]","0","5","0","498.77999999999884","508.04000000000815","500","[[[""img/mask32.png""],[""img/mask19.png""],[""img/mask61.png""],[""img/mask27.png""],[""img/mask98.png""]]]","","[30,11,19,16,10]","training","",""
"","","","","","image-keyboard-response","14","161175","0.0-8.0-0.3","63368a7379eb43fa2105d971","640759fa512f630a2bdc333d","6407b70dd9bef0f1fbc740ca","3699","img/training4.png"," ","","","","","","","","","","","","","","","","","","","","",""
"","","","","","[""many-guess-6""]","15","166317","0.0-8.0-1.3-0.3","63368a7379eb43fa2105d971","640759fa512f630a2bdc333d","6407b70dd9bef0f1fbc740ca","[1763]","","","[2,34,4,23,7,1,12,21,28,19]","[236,51,152,84,274,33,205,254,184,120]","236","220","146.80653878003582","[146.80653878003582]","[286.8065387800358]","[286]","[300,120,300,120,120,300,30,30,120,210,300,210,300,210,120,120,30,120,300,300,300,120,30,300,210,30,120,300,120,120,120,210,120,120,300,120]","0","10","0","132.85999999998603","139.9200000000128","132","[[[""img/mask58.png""],[""img/mask18.png""],[""img/mask39.png""],[""img/mask52.png""],[""img/mask68.png""],[""img/mask33.png""],[""img/mask82.png""],[""img/mask75.png""],[""img/mask70.png""],[""img/mask83.png""]]]","","[2,34,4,23,7,1,12,21,28,19]","training","",""
"","","","","","image-keyboard-response","16","169201","0.0-8.0-0.4","63368a7379eb43fa2105d971","640759fa512f630a2bdc333d","6407b70dd9bef0f1fbc740ca","2883","img/training5.png"," ","","","","","","","","","","","","","","","","","","","","",""
"","","","","","[""many-guess-6""]","17","173709","0.0-8.0-1.4-0.4","63368a7379eb43fa2105d971","640759fa512f630a2bdc333d","6407b70dd9bef0f1fbc740ca","[1638]","","","[14,18,3,30,22,12,9,0,10,27,17,31,6,32,8,7,35,28,24,15,19,1,26,20,13,16,4,2,34,23,5,33,25,29,11,21]","[237,17,307,47,227,287,347,87,67,187,8,257,37,337,147,107,127,327,197,117,297,177,267,357,157,27,217,207,57,277,247,97,77,167,137,317]","237","18","295.5238277646285","[295.5238277646285]","[277.5238277646285]","[278]","[120,210,30,300,30,120,300,120,120,30,300,120,210,30,300,30,210,210,120,30,300,120,120,300,210,30,300,210,30,30,300,30,300,120,120,120]","0","36","0","132.82000000000698","23.79999999998836","16","[[[""img/mask18.png""],[""img/mask16.png""],[""img/mask86.png""],[""img/mask71.png""],[""img/mask69.png""],[""img/mask95.png""],[""img/mask59.png""],[""img/mask97.png""],[""img/mask65.png""],[""img/mask92.png""],[""img/mask56.png""],[""img/mask9.png""],[""img/mask93.png""],[""img/mask77.png""],[""img/mask29.png""],[""img/mask31.png""],[""img/mask34.png""],[""img/mask48.png""],[""img/mask39.png""],[""img/mask73.png""],[""img/mask59.png""],[""img/mask51.png""],[""img/mask57.png""],[""img/mask89.png""],[""img/mask27.png""],[""img/mask55.png""],[""img/mask85.png""],[""img/mask63.png""],[""img/mask90.png""],[""img/mask50.png""],[""img/mask15.png""],[""img/mask98.png""],[""img/mask96.png""],[""img/mask66.png""],[""img/mask73.png""],[""img/mask36.png""]]]","","[14,18,3,30,22,12,9,0,10,27,17,31,6,32,8,7,35,28,24,15,19,1,26,20,13,16,4,2,34,23,5,33,25,29,11,21]","training","",""
"","","","","","image-keyboard-response","18","177850","0.0-9.0","63368a7379eb43fa2105d971","640759fa512f630a2bdc333d","6407b70dd9bef0f1fbc740ca","4131","[""img/endTraining.png""]"," ","","","","","","","","","","","","","","","","","","","","",""
"","","","","","html-keyboard-response","19","178357","0.0-10.0-0.0","63368a7379eb43fa2105d971","640759fa512f630a2bdc333d","6407b70dd9bef0f1fbc740ca","null","","null","","","","","","","","","","","","","","","","","","","fixation","",""
"","","","","","color-precision2","20","183177","0.0-10.0-1.0-0.0","63368a7379eb43fa2105d971","640759fa512f630a2bdc333d","6407b70dd9bef0f1fbc740ca","[1637]","","","[10]","[320]","320","82","56.40703334323376","[56.40703334323376]","[334.40703334323376]","[333]","0","0","1","0","149.77999999999884","1002.0799999999872","1000","[[[""img/mask13.png""]]]","","","main","82","color-precision2"
"","","","","","html-keyboard-response","21","183684","0.0-10.0-0.1","63368a7379eb43fa2105d971","640759fa512f630a2bdc333d","6407b70dd9bef0f1fbc740ca","null","","null","","","","","","","","","","","","","","","","","","","fixation","",""
"","","","","","color-precision2","22","187463","0.0-10.0-1.1-0.1","63368a7379eb43fa2105d971","640759fa512f630a2bdc333d","6407b70dd9bef0f1fbc740ca","[739]","","","[5]","[260]","260","16","281.07049691164605","[281.07049691164605]","[265.07049691164605]","[265]","0","0","1","0","148.95999999999185","997.2600000000093","1000","[[[""img/mask47.png""]]]","","","main","16","color-precision2"
"","","","","","html-keyboard-response","23","187977","0.0-10.0-0.2","63368a7379eb43fa2105d971","640759fa512f630a2bdc333d","6407b70dd9bef0f1fbc740ca","null","","null","","","","","","","","","","","","","","","","","","","fixation","",""
"","","","","","color-precision2","24","190567","0.0-10.0-1.2-0.2","63368a7379eb43fa2105d971","640759fa512f630a2bdc333d","6407b70dd9bef0f1fbc740ca","[93]","","","[3]","[287]","287","57","","[null]","[null]","[279]","0","0","1","0","149.54000000000815","1001.859999999986","1000","[[[""img/mask32.png""]]]","","","main","57","color-precision2"
"","","","","","html-keyboard-response","25","191079","0.0-10.0-0.3","63368a7379eb43fa2105d971","640759fa512f630a2bdc333d","6407b70dd9bef0f1fbc740ca","null","","null","","","","","","","","","","","","","","","","","","","fixation","",""
"","","","","","color-precision2","26","193865","0.0-10.0-1.3-0.3","63368a7379eb43fa2105d971","640759fa512f630a2bdc333d","6407b70dd9bef0f1fbc740ca","[390]","","","[20]","[90]","90","247","337.9276643292024","[337.9276643292024]","[90.9276643292024]","[90]","0","0","1","0","150.04000000000815","997.3399999999965","1000","[[[""img/mask68.png""]]]","","","main","247","color-precision2"
"","","","","","html-keyboard-response","27","194378","0.0-10.0-0.4","63368a7379eb43fa2105d971","640759fa512f630a2bdc333d","6407b70dd9bef0f1fbc740ca","null","","null","","","","","","","","","","","","","","","","","","","fixation","",""
"","","","","","color-precision2","28","197510","0.0-10.0-1.4-0.4","63368a7379eb43fa2105d971","640759fa512f630a2bdc333d","6407b70dd9bef0f1fbc740ca","[585]","","","[33]","[240]","240","174","55.34902835512667","[55.34902835512667]","[241.34902835512668]","[240]","0","0","1","0","149.60000000000582","994.9200000000128","1000","[[[""img/mask83.png""]]]","","","main","174","color-precision2"
"","","","","","html-keyboard-response","29","198025","0.0-10.0-0.5","63368a7379eb43fa2105d971","640759fa512f630a2bdc333d","6407b70dd9bef0f1fbc740ca","null","","null","","","","","","","","","","","","","","","","","","","fixation","",""
"","","","","","color-precision2","30","201241","0.0-10.0-1.5-0.5","63368a7379eb43fa2105d971","640759fa512f630a2bdc333d","6407b70dd9bef0f1fbc740ca","[398]","","","[20]","[179]","179","46","232.8698448242727","[232.8698448242727]","[186.8698448242727]","[187]","0","0","1","0","148.79999999998836","1003.1000000000058","1000","[[[""img/mask30.png""]]]","","","main","46","color-precision2"
"","","","","","html-keyboard-response","31","201748","0.0-10.0-0.6","63368a7379eb43fa2105d971","640759fa512f630a2bdc333d","6407b70dd9bef0f1fbc740ca","null","","null","","","","","","","","","","","","","","","","","","","fixation","",""
"","","","","","color-precision2","32","204367","0.0-10.0-1.6-0.6","63368a7379eb43fa2105d971","640759fa512f630a2bdc333d","6407b70dd9bef0f1fbc740ca","[157]","","","[11]","[185]","185","296","122.06804111629236","[122.06804111629236]","[186.06804111629236]","[185]","0","0","1","0","149.01999999998952","994.3399999999965","1000","[[[""img/mask78.png""]]]","","","main","296","color-precision2"
"","","","","","html-keyboard-response","33","204873","0.0-10.0-0.7","63368a7379eb43fa2105d971","640759fa512f630a2bdc333d","6407b70dd9bef0f1fbc740ca","null","","null","","","","","","","","","","","","","","","","","","","fixation","",""
"","","","","","many-guess-6","34","209295","0.0-10.0-1.7-0.7","63368a7379eb43fa2105d971","640759fa512f630a2bdc333d","6407b70dd9bef0f1fbc740ca","[1850]","","","[6,29,1,9,19,23,27,8,25,2,15,21,11,32,24,17,5,12,3,35,28,33,13,0,18,7,30,16,20,26,4,10,34,22,31,14]","[181,172,291,321,102,251,72,22,52,191,32,201,152,92,122,261,12,301,331,271,162,311,211,62,142,112,221,2,281,341,42,132,351,231,241,82]","181","49","250.1286931818717","[250.1286931818717]","[201.1286931818717]","[201]","[30,300,300,210,300,120,120,210,30]","0","36","0","149.88000000000466","22.179999999993015","16","[[[""img/mask99.png""],[""img/mask56.png""],[""img/mask53.png""],[""img/mask35.png""],[""img/mask83.png""],[""img/mask58.png""],[""img/mask70.png""],[""img/mask84.png""],[""img/mask86.png""],[""img/mask86.png""],[""img/mask73.png""],[""img/mask74.png""],[""img/mask67.png""],[""img/mask99.png""],[""img/mask63.png""],[""img/mask98.png""],[""img/mask92.png""],[""img/mask78.png""],[""img/mask33.png""],[""img/mask6.png""],[""img/mask98.png""],[""img/mask57.png""],[""img/mask92.png""],[""img/mask84.png""],[""img/mask62.png""],[""img/mask94.png""],[""img/mask84.png""],[""img/mask45.png""],[""img/mask31.png""],[""img/mask100.png""],[""img/mask95.png""],[""img/mask5.png""],[""img/mask9.png""],[""img/mask27.png""],[""img/mask96.png""],[""img/mask70.png""]]]","","[6,29,1,9,19,23,27,8,25,2,15,21,11,32,24,17,5,12,3,35,28,33,13,0,18,7,30,16,20,26,4,10,34,22,31,14]","main","49","many-guess-6"
"","","","","","html-keyboard-response","35","209803","0.0-10.0-0.8","63368a7379eb43fa2105d971","640759fa512f630a2bdc333d","6407b70dd9bef0f1fbc740ca","null","","null","","","","","","","","","","","","","","","","","","","fixation","",""
"","","","","","many-guess-6","36","213041","0.0-10.0-1.8-0.8","63368a7379eb43fa2105d971","640759fa512f630a2bdc333d","6407b70dd9bef0f1fbc740ca","[1730]","","","[18,0,14,8,31,6,22,19,28,20,7,12,32,5,3,35,27,10,33,16,23,13,26,21,15,4,25,2,11,17,30,24,1,29,9,34]","[116,305,86,176,36,285,136,146,335,6,76,16,315,196,56,245,345,206,106,216,325,166,46,186,126,265,156,275,225,66,235,295,26,255,355,96]","116","122","318.8663304186571","[318.8663304186571]","[196.86633041865713]","[197]","[210,210,30,30,210,120,300,300,210]","0","36","0","149.38000000000466","22.679999999993015","16","[[[""img/mask58.png""],[""img/mask67.png""],[""img/mask20.png""],[""img/mask13.png""],[""img/mask43.png""],[""img/mask28.png""],[""img/mask9.png""],[""img/mask18.png""],[""img/mask95.png""],[""img/mask80.png""],[""img/mask96.png""],[""img/mask76.png""],[""img/mask24.png""],[""img/mask72.png""],[""img/mask24.png""],[""img/mask67.png""],[""img/mask25.png""],[""img/mask89.png""],[""img/mask6.png""],[""img/mask82.png""],[""img/mask91.png""],[""img/mask36.png""],[""img/mask39.png""],[""img/mask92.png""],[""img/mask88.png""],[""img/mask56.png""],[""img/mask32.png""],[""img/mask52.png""],[""img/mask42.png""],[""img/mask31.png""],[""img/mask21.png""],[""img/mask87.png""],[""img/mask1.png""],[""img/mask70.png""],[""img/mask77.png""],[""img/mask79.png""]]]","","[18,0,14,8,31,6,22,19,28,20,7,12,32,5,3,35,27,10,33,16,23,13,26,21,15,4,25,2,11,17,30,24,1,29,9,34]","main","122","many-guess-6"
"","","","","","html-keyboard-response","37","213547","0.0-10.0-0.9","63368a7379eb43fa2105d971","640759fa512f630a2bdc333d","6407b70dd9bef0f1fbc740ca","null","","null","","","","","","","","","","","","","","","","","","","fixation","",""
"","","","","","color-precision2","38","216717","0.0-10.0-1.9-0.9","63368a7379eb43fa2105d971","640759fa512f630a2bdc333d","6407b70dd9bef0f1fbc740ca","[555]","","","[12]","[134]","134","212","335.94088577717287","[335.94088577717287]","[123.94088577717287]","[124]","0","0","1","0","148.88000000000466","1001.179999999993","1000","[[[""img/mask59.png""]]]","","","main","212","color-precision2"
"","","","","","html-keyboard-response","39","217218","0.0-10.0-0.10","63368a7379eb43fa2105d971","640759fa512f630a2bdc333d","6407b70dd9bef0f1fbc740ca","null","","null","","","","","","","","","","","","","","","","","","","fixation","",""
"","","","","","color-precision2","40","220739","0.0-10.0-1.10-0.10","63368a7379eb43fa2105d971","640759fa512f630a2bdc333d","6407b70dd9bef0f1fbc740ca","[944]","","","[5]","[20]","20","118","140.76326725180064","[140.76326725180064]","[22.76326725180064]","[21]","0","0","1","0","149.82000000000698","994.1199999999953","1000","[[[""img/mask34.png""]]]","","","main","118","color-precision2"
"","","","","","html-keyboard-response","41","221255","0.0-10.0-0.11","63368a7379eb43fa2105d971","640759fa512f630a2bdc333d","6407b70dd9bef0f1fbc740ca","null","","null","","","","","","","","","","","","","","","","","","","fixation","",""
"","","","","","color-precision2","42","224494","0.0-10.0-1.11-0.11","63368a7379eb43fa2105d971","640759fa512f630a2bdc333d","6407b70dd9bef0f1fbc740ca","[596]","","","[24]","[75]","75","210","283.25238933815547","[283.25238933815547]","[73.25238933815547]","[75]","0","0","1","0","149.44000000000233","1003.7600000000093","1000","[[[""img/mask85.png""]]]","","","main","210","color-precision2"
"","","","","","html-keyboard-response","43","225004","0.0-10.0-0.12","63368a7379eb43fa2105d971","640759fa512f630a2bdc333d","6407b70dd9bef0f1fbc740ca","null","","null","","","","","","","","","","","","","","","","","","","fixation","",""
"","","","","","color-precision2","44","227937","0.0-10.0-1.12-0.12","63368a7379eb43fa2105d971","640759fa512f630a2bdc333d","6407b70dd9bef0f1fbc740ca","[473]","","","[15]","[320]","320","65","31.24432347848171","[31.24432347848171]","[326.2443234784817]","[325]","0","0","1","0","149.61999999999534","1006.9200000000128","1000","[[[""img/mask77.png""]]]","","","main","65","color-precision2"
"","","","","","html-keyboard-response","45","228442","0.0-10.0-0.13","63368a7379eb43fa2105d971","640759fa512f630a2bdc333d","6407b70dd9bef0f1fbc740ca","null","","null","","","","","","","","","","","","","","","","","","","fixation","",""
"","","","","","color-precision2","46","231374","0.0-10.0-1.13-0.13","63368a7379eb43fa2105d971","640759fa512f630a2bdc333d","6407b70dd9bef0f1fbc740ca","[341]","","","[12]","[222]","222","147","356.16562987726184","[356.16562987726184]","[209.16562987726184]","[208]","0","0","1","0","149.88000000000466","1001.179999999993","1000","[[[""img/mask15.png""]]]","","","main","147","color-precision2"
"","","","","","html-keyboard-response","47","231887","0.0-10.0-0.14","63368a7379eb43fa2105d971","640759fa512f630a2bdc333d","6407b70dd9bef0f1fbc740ca","null","","null","","","","","","","","","","","","","","","","","","","fixation","",""
"","","","","","color-precision2","48","234810","0.0-10.0-1.14-0.14","63368a7379eb43fa2105d971","640759fa512f630a2bdc333d","6407b70dd9bef0f1fbc740ca","[311]","","","[7]","[19]","19","165","195.2013235228372","[195.2013235228372]","[30.201323522837214]","[30]","0","0","1","0","149.11999999999534","997.4400000000023","1000","[[[""img/mask80.png""]]]","","","main","165","color-precision2"
"","","","","","html-keyboard-response","49","235320","0.0-10.0-0.15","63368a7379eb43fa2105d971","640759fa512f630a2bdc333d","6407b70dd9bef0f1fbc740ca","null","","null","","","","","","","","","","","","","","","","","","","fixation","",""
"","","","","","many-guess-6","50","238355","0.0-10.0-1.15-0.15","63368a7379eb43fa2105d971","640759fa512f630a2bdc333d","6407b70dd9bef0f1fbc740ca","[1573]","","","[1,3,21,19,33,7,32,26,35,11,24,29,23,0,6,28,13,30,9,5,14,10,34,18,4,31,20,22,15,27,2,25,8,12,17,16]","[157,287,148,167,48,357,337,88,68,257,78,108,187,247,207,128,217,18,227,297,38,327,118,317,58,177,28,347,307,8,138,197,267,98,277,237]","157","31","219.37256535889773","[219.37256535889773]","[188.37256535889773]","[188]","[120,210,120,210,30,210,120,300,30]","0","36","0","148.79999999998836","19.10000000000582","16","[[[""img/mask92.png""],[""img/mask31.png""],[""img/mask8.png""],[""img/mask23.png""],[""img/mask85.png""],[""img/mask78.png""],[""img/mask48.png""],[""img/mask88.png""],[""img/mask7.png""],[""img/mask74.png""],[""img/mask69.png""],[""img/mask31.png""],[""img/mask18.png""],[""img/mask12.png""],[""img/mask1.png""],[""img/mask72.png""],[""img/mask90.png""],[""img/mask6.png""],[""img/mask46.png""],[""img/mask24.png""],[""img/mask84.png""],[""img/mask57.png""],[""img/mask13.png""],[""img/mask61.png""],[""img/mask26.png""],[""img/mask36.png""],[""img/mask56.png""],[""img/mask97.png""],[""img/mask48.png""],[""img/mask33.png""],[""img/mask91.png""],[""img/mask14.png""],[""img/mask80.png""],[""img/mask15.png""],[""img/mask82.png""],[""img/mask89.png""]]]","","[1,3,21,19,33,7,32,26,35,11,24,29,23,0,6,28,13,30,9,5,14,10,34,18,4,31,20,22,15,27,2,25,8,12,17,16]","main","31","many-guess-6"
"","","","","","html-keyboard-response","51","238862","0.0-10.0-0.16","63368a7379eb43fa2105d971","640759fa512f630a2bdc333d","6407b70dd9bef0f1fbc740ca","null","","null","","","","","","","","","","","","","","","","","","","fixation","",""
"","","","","","many-guess-6","52","242277","0.0-10.0-1.16-0.16","63368a7379eb43fa2105d971","640759fa512f630a2bdc333d","6407b70dd9bef0f1fbc740ca","[1662]","","","[32,30,27,3,24,12,6,13,19,10,34,17,25,4,9,8,1,14,29,35,26,21,20,28,15,22,0,16,31,2,11,23,7,5,33,18]","[263,224,84,4,124,253,303,323,343,104,214,313,14,154,293,244,24,174,234,94,273,64,34,74,194,333,144,54,184,44,114,204,134,164,353,283]","263","46","57.35088244354074","[57.35088244354074]","[11.35088244354074]","[10]","[120,30,120,300,120,120,210,120,30]","0","36","0","148.77999999999884","13.239999999990687","16","[[[""img/mask22.png""],[""img/mask92.png""],[""img/mask48.png""],[""img/mask100.png""],[""img/mask74.png""],[""img/mask13.png""],[""img/mask18.png""],[""img/mask84.png""],[""img/mask33.png""],[""img/mask88.png""],[""img/mask23.png""],[""img/mask51.png""],[""img/mask12.png""],[""img/mask56.png""],[""img/mask94.png""],[""img/mask48.png""],[""img/mask76.png""],[""img/mask56.png""],[""img/mask85.png""],[""img/mask54.png""],[""img/mask86.png""],[""img/mask19.png""],[""img/mask45.png""],[""img/mask40.png""],[""img/mask7.png""],[""img/mask82.png""],[""img/mask46.png""],[""img/mask63.png""],[""img/mask23.png""],[""img/mask43.png""],[""img/mask13.png""],[""img/mask30.png""],[""img/mask29.png""],[""img/mask49.png""],[""img/mask13.png""],[""img/mask1.png""]]]","","[32,30,27,3,24,12,6,13,19,10,34,17,25,4,9,8,1,14,29,35,26,21,20,28,15,22,0,16,31,2,11,23,7,5,33,18]","main","46","many-guess-6"
"","","","","","html-keyboard-response","53","242790","0.0-10.0-0.17","63368a7379eb43fa2105d971","640759fa512f630a2bdc333d","6407b70dd9bef0f1fbc740ca","null","","null","","","","","","","","","","","","","","","","","","","fixation","",""
"","","","","","color-precision2","54","246372","0.0-10.0-1.17-0.17","63368a7379eb43fa2105d971","640759fa512f630a2bdc333d","6407b70dd9bef0f1fbc740ca","[104]","","","[15]","[187]","187","116","","[null]","[null]","[193]","0","0","1","0","148.64000000001397","997.9400000000023","1000","[[[""img/mask2.png""]]]","","","main","116","color-precision2"
"","","","","","html-keyboard-response","55","246874","0.0-10.0-0.18","63368a7379eb43fa2105d971","640759fa512f630a2bdc333d","6407b70dd9bef0f1fbc740ca","null","","null","","","","","","","","","","","","","","","","","","","fixation","",""
"","","","","","many-guess-6","56","249783","0.0-10.0-1.18-0.18","63368a7379eb43fa2105d971","640759fa512f630a2bdc333d","6407b70dd9bef0f1fbc740ca","[1449]","","","[32,22,7,0,27,23,15,11,4,18,10,25,3,2,31,1,5,34,28,12,26,13,29,24,6,17,21,35,30,16,19,8,33,9,14,20]","[172,262,92,322,33,13,242,202,282,342,212,62,272,122,352,52,102,112,162,3,232,222,132,292,152,23,72,312,302,332,82,142,42,182,192,252]","172","72","1.4079943239810864","[1.4079943239810864]","[289.4079943239811]","[289]","[120,300,300,210,120,300,120,300,210]","0","36","0","149.60000000000582","17.920000000012806","16","[[[""img/mask97.png""],[""img/mask9.png""],[""img/mask40.png""],[""img/mask14.png""],[""img/mask97.png""],[""img/mask75.png""],[""img/mask43.png""],[""img/mask8.png""],[""img/mask7.png""],[""img/mask21.png""],[""img/mask62.png""],[""img/mask32.png""],[""img/mask65.png""],[""img/mask87.png""],[""img/mask11.png""],[""img/mask52.png""],[""img/mask23.png""],[""img/mask39.png""],[""img/mask20.png""],[""img/mask78.png""],[""img/mask21.png""],[""img/mask94.png""],[""img/mask53.png""],[""img/mask70.png""],[""img/mask64.png""],[""img/mask96.png""],[""img/mask32.png""],[""img/mask99.png""],[""img/mask77.png""],[""img/mask16.png""],[""img/mask21.png""],[""img/mask15.png""],[""img/mask99.png""],[""img/mask77.png""],[""img/mask3.png""],[""img/mask1.png""]]]","","[32,22,7,0,27,23,15,11,4,18,10,25,3,2,31,1,5,34,28,12,26,13,29,24,6,17,21,35,30,16,19,8,33,9,14,20]","main","72","many-guess-6"
"","","","","","html-keyboard-response","57","255944","0.0-10.0-0.19","63368a7379eb43fa2105d971","640759fa512f630a2bdc333d","6407b70dd9bef0f1fbc740ca","6160","Wow! You've completed 20 out of 180 trials! </p> <p>  </p><p> Take a quick break, then press any key when you're ready to continue."," ","","","","","","","","","","","","","","","","","","","fixation","",""
"","","","","","many-guess-6","58","259807","0.0-10.0-1.19-0.19","63368a7379eb43fa2105d971","640759fa512f630a2bdc333d","6407b70dd9bef0f1fbc740ca","[1688]","","","[29,33,5,3,8,1,18,28,25,22,13,4,35,27,17,6,26,11,24,15,23,31,20,34,19,21,7,9,10,12,0,30,14,32,16,2]","[349,89,209,229,319,79,199,339,249,269,159,69,239,99,359,30,10,109,299,169,189,259,50,129,179,289,59,149,309,279,20,139,219,119,40,329]","349","89","7.494938312957998","[7.494938312957998]","[278.49493831295797]","[278]","[30,30,300,210,210,30,120,120,30]","0","36","0","149.5","25.820000000006985","16","[[[""img/mask54.png""],[""img/mask47.png""],[""img/mask71.png""],[""img/mask18.png""],[""img/mask43.png""],[""img/mask22.png""],[""img/mask34.png""],[""img/mask16.png""],[""img/mask28.png""],[""img/mask36.png""],[""img/mask90.png""],[""img/mask67.png""],[""img/mask18.png""],[""img/mask8.png""],[""img/mask99.png""],[""img/mask70.png""],[""img/mask90.png""],[""img/mask17.png""],[""img/mask78.png""],[""img/mask91.png""],[""img/mask55.png""],[""img/mask4.png""],[""img/mask60.png""],[""img/mask68.png""],[""img/mask90.png""],[""img/mask43.png""],[""img/mask22.png""],[""img/mask27.png""],[""img/mask51.png""],[""img/mask30.png""],[""img/mask19.png""],[""img/mask34.png""],[""img/mask24.png""],[""img/mask95.png""],[""img/mask82.png""],[""img/mask74.png""]]]","","[29,33,5,3,8,1,18,28,25,22,13,4,35,27,17,6,26,11,24,15,23,31,20,34,19,21,7,9,10,12,0,30,14,32,16,2]","main","89","many-guess-6"
"","","","","","html-keyboard-response","59","260312","0.0-10.0-0.20","63368a7379eb43fa2105d971","640759fa512f630a2bdc333d","6407b70dd9bef0f1fbc740ca","null","","null","","","","","","","","","","","","","","","","","","","fixation","",""
"","","","","","color-precision2","60","263191","0.0-10.0-1.20-0.20","63368a7379eb43fa2105d971","640759fa512f630a2bdc333d","6407b70dd9bef0f1fbc740ca","[121]","","","[14]","[237]","237","100","","[null]","[null]","[238]","0","0","1","0","149.2399999999907","993.5599999999977","1000","[[[""img/mask85.png""]]]","","","main","100","color-precision2"
"","","","","","html-keyboard-response","61","263693","0.0-10.0-0.21","63368a7379eb43fa2105d971","640759fa512f630a2bdc333d","6407b70dd9bef0f1fbc740ca","null","","null","","","","","","","","","","","","","","","","","","","fixation","",""
"","","","","","color-precision2","62","266164","0.0-10.0-1.21-0.21","63368a7379eb43fa2105d971","640759fa512f630a2bdc333d","6407b70dd9bef0f1fbc740ca","[44]","","","[22]","[285]","285","5","","[null]","[null]","[280]","0","0","1","0","148.70000000001164","996.0200000000186","1000","[[[""img/mask3.png""]]]","","","main","5","color-precision2"
"","","","","","html-keyboard-response","63","266667","0.0-10.0-0.22","63368a7379eb43fa2105d971","640759fa512f630a2bdc333d","6407b70dd9bef0f1fbc740ca","null","","null","","","","","","","","","","","","","","","","","","","fixation","",""
"","","","","","many-guess-6","64","270055","0.0-10.0-1.22-0.22","63368a7379eb43fa2105d971","640759fa512f630a2bdc333d","6407b70dd9bef0f1fbc740ca","[1851]","","","[13,2,0,10,16,18,34,12,6,23,4,25,26,22,33,20,7,21,17,15,27,9,30,32,11,3,24,14,5,31,19,29,1,35,8,28]","[307,198,108,98,258,238,178,38,8,278,128,208,78,118,58,317,287,158,28,168,248,228,88,268,148,218,297,357,138,347,337,68,18,188,327,48]","307","202","192.1382629489675","[192.1382629489675]","[350.1382629489675]","[349]","[30,30,300,210,30,210,30,300,210]","0","36","0","149.4199999999837","18.71999999997206","16","[[[""img/mask25.png""],[""img/mask73.png""],[""img/mask2.png""],[""img/mask91.png""],[""img/mask34.png""],[""img/mask90.png""],[""img/mask35.png""],[""img/mask21.png""],[""img/mask2.png""],[""img/mask13.png""],[""img/mask96.png""],[""img/mask37.png""],[""img/mask77.png""],[""img/mask94.png""],[""img/mask24.png""],[""img/mask5.png""],[""img/mask53.png""],[""img/mask51.png""],[""img/mask63.png""],[""img/mask99.png""],[""img/mask10.png""],[""img/mask55.png""],[""img/mask99.png""],[""img/mask91.png""],[""img/mask85.png""],[""img/mask34.png""],[""img/mask96.png""],[""img/mask71.png""],[""img/mask46.png""],[""img/mask24.png""],[""img/mask36.png""],[""img/mask49.png""],[""img/mask48.png""],[""img/mask37.png""],[""img/mask14.png""],[""img/mask27.png""]]]","","[13,2,0,10,16,18,34,12,6,23,4,25,26,22,33,20,7,21,17,15,27,9,30,32,11,3,24,14,5,31,19,29,1,35,8,28]","main","202","many-guess-6"
"","","","","","html-keyboard-response","65","270569","0.0-10.0-0.23","63368a7379eb43fa2105d971","640759fa512f630a2bdc333d","6407b70dd9bef0f1fbc740ca","null","","null","","","","","","","","","","","","","","","","","","","fixation","",""
"","","","","","many-guess-6","66","273840","0.0-10.0-1.23-0.23","63368a7379eb43fa2105d971","640759fa512f630a2bdc333d","6407b70dd9bef0f1fbc740ca","[1768]","","","[10,18,20,13,5,22,1,2,4,26,12,19,30,25,24,17,34,0,11,6,32,28,21,7,27,15,35,9,23,29,3,14,31,16,8,33]","[262,302,322,282,272,53,252,162,3,232,312,182,192,103,332,93,172,33,123,352,212,113,23,13,222,342,153,63,143,292,202,242,83,73,133,43]","262","65","313.46361965767835","[313.46361965767835]","[248.46361965767835]","[249]","[300,210,120,210,210,300,210,30,120]","0","36","0","149.6599999999744","16.979999999981374","16","[[[""img/mask5.png""],[""img/mask58.png""],[""img/mask83.png""],[""img/mask32.png""],[""img/mask96.png""],[""img/mask76.png""],[""img/mask27.png""],[""img/mask98.png""],[""img/mask55.png""],[""img/mask2.png""],[""img/mask74.png""],[""img/mask4.png""],[""img/mask53.png""],[""img/mask82.png""],[""img/mask40.png""],[""img/mask15.png""],[""img/mask16.png""],[""img/mask5.png""],[""img/mask6.png""],[""img/mask59.png""],[""img/mask25.png""],[""img/mask71.png""],[""img/mask59.png""],[""img/mask94.png""],[""img/mask29.png""],[""img/mask83.png""],[""img/mask90.png""],[""img/mask87.png""],[""img/mask69.png""],[""img/mask66.png""],[""img/mask7.png""],[""img/mask99.png""],[""img/mask1.png""],[""img/mask57.png""],[""img/mask34.png""],[""img/mask46.png""]]]","","[10,18,20,13,5,22,1,2,4,26,12,19,30,25,24,17,34,0,11,6,32,28,21,7,27,15,35,9,23,29,3,14,31,16,8,33]","main","65","many-guess-6"
"","","","","","html-keyboard-response","67","274350","0.0-10.0-0.24","63368a7379eb43fa2105d971","640759fa512f630a2bdc333d","6407b70dd9bef0f1fbc740ca","null","","null","","","","","","","","","","","","","","","","","","","fixation","",""
"","","","","","color-precision2","68","276757","0.0-10.0-1.24-0.24","63368a7379eb43fa2105d971","640759fa512f630a2bdc333d","6407b70dd9bef0f1fbc740ca","[151]","","","[34]","[38]","38","316","","[null]","[null]","[32]","0","0","1","0","149.67999999999302","1003","1000","[[[""img/mask71.png""]]]","","","main","316","color-precision2"
"","","","","","html-keyboard-response","69","277259","0.0-10.0-0.25","63368a7379eb43fa2105d971","640759fa512f630a2bdc333d","6407b70dd9bef0f1fbc740ca","null","","null","","","","","","","","","","","","","","","","","","","fixation","",""
"","","","","","color-precision2","70","280612","0.0-10.0-1.25-0.25","63368a7379eb43fa2105d971","640759fa512f630a2bdc333d","6407b70dd9bef0f1fbc740ca","[1056]","","","[23]","[15]","15","292","317.9570976273804","[317.9570976273804]","[25.957097627380392]","[26]","0","0","1","0","150.14000000001397","1006.460000000021","1000","[[[""img/mask54.png""]]]","","","main","292","color-precision2"
"","","","","","html-keyboard-response","71","281125","0.0-10.0-0.26","63368a7379eb43fa2105d971","640759fa512f630a2bdc333d","6407b70dd9bef0f1fbc740ca","null","","null","","","","","","","","","","","","","","","","","","","fixation","",""
"","","","","","many-guess-6","72","284210","0.0-10.0-1.26-0.26","63368a7379eb43fa2105d971","640759fa512f630a2bdc333d","6407b70dd9bef0f1fbc740ca","[1887]","","","[11,6,22,29,32,35,2,0,8,16,9,4,33,13,14,17,5,19,20,23,25,30,26,12,7,10,21,15,28,34,1,18,27,31,24,3]","[332,123,212,113,272,322,3,242,292,172,282,73,302,103,33,133,192,252,153,53,352,93,13,83,43,23,232,222,63,202,182,143,262,342,312,162]","332","50","300.5332945410096","[300.5332945410096]","[250.53329454100958]","[251]","[300,210,210,120,30,30,120,30,210]","0","36","0","149.2600000000093","16.580000000016298","16","[[[""img/mask44.png""],[""img/mask1.png""],[""img/mask49.png""],[""img/mask39.png""],[""img/mask69.png""],[""img/mask88.png""],[""img/mask65.png""],[""img/mask53.png""],[""img/mask14.png""],[""img/mask84.png""],[""img/mask74.png""],[""img/mask49.png""],[""img/mask33.png""],[""img/mask90.png""],[""img/mask54.png""],[""img/mask42.png""],[""img/mask83.png""],[""img/mask95.png""],[""img/mask69.png""],[""img/mask51.png""],[""img/mask52.png""],[""img/mask19.png""],[""img/mask5.png""],[""img/mask42.png""],[""img/mask62.png""],[""img/mask25.png""],[""img/mask90.png""],[""img/mask77.png""],[""img/mask71.png""],[""img/mask92.png""],[""img/mask97.png""],[""img/mask80.png""],[""img/mask97.png""],[""img/mask55.png""],[""img/mask49.png""],[""img/mask53.png""]]]","","[11,6,22,29,32,35,2,0,8,16,9,4,33,13,14,17,5,19,20,23,25,30,26,12,7,10,21,15,28,34,1,18,27,31,24,3]","main","50","many-guess-6"
"","","","","","html-keyboard-response","73","284723","0.0-10.0-0.27","63368a7379eb43fa2105d971","640759fa512f630a2bdc333d","6407b70dd9bef0f1fbc740ca","null","","null","","","","","","","","","","","","","","","","","","","fixation","",""
"","","","","","color-precision2","74","287399","0.0-10.0-1.27-0.27","63368a7379eb43fa2105d971","640759fa512f630a2bdc333d","6407b70dd9bef0f1fbc740ca","[292]","","","[8]","[109]","109","69","198.03702152169208","[198.03702152169208]","[129.03702152169208]","[128]","0","0","1","0","150.32000000000698","996.640000000014","1000","[[[""img/mask32.png""]]]","","","main","69","color-precision2"
"","","","","","html-keyboard-response","75","287910","0.0-10.0-0.28","63368a7379eb43fa2105d971","640759fa512f630a2bdc333d","6407b70dd9bef0f1fbc740ca","null","","null","","","","","","","","","","","","","","","","","","","fixation","",""
"","","","","","color-precision2","76","290541","0.0-10.0-1.28-0.28","63368a7379eb43fa2105d971","640759fa512f630a2bdc333d","6407b70dd9bef0f1fbc740ca","[201]","","","[19]","[222]","222","355","","[null]","[null]","[233]","0","0","1","0","149.1599999999744","995.460000000021","1000","[[[""img/mask56.png""]]]","","","main","355","color-precision2"
"","","","","","html-keyboard-response","77","291057","0.0-10.0-0.29","63368a7379eb43fa2105d971","640759fa512f630a2bdc333d","6407b70dd9bef0f1fbc740ca","null","","null","","","","","","","","","","","","","","","","","","","fixation","",""
"","","","","","many-guess-6","78","294674","0.0-10.0-1.29-0.29","63368a7379eb43fa2105d971","640759fa512f630a2bdc333d","6407b70dd9bef0f1fbc740ca","[2416]","","","[27,16,21,29,18,34,3,7,20,32,35,9,6,25,30,2,0,10,5,24,23,11,28,4,14,1,19,13,15,8,22,33,12,31,17,26]","[248,108,298,29,198,49,9,59,318,148,168,178,39,348,268,158,19,69,358,79,128,118,89,238,208,98,278,188,338,228,328,308,258,288,138,218]","248","104","5.574224647222448","[5.574224647222448]","[261.5742246472224]","[261]","[300,210,300,120,210,300,210,120,120]","0","36","0","149.09999999997672","17.400000000023283","16","[[[""img/mask96.png""],[""img/mask10.png""],[""img/mask96.png""],[""img/mask17.png""],[""img/mask63.png""],[""img/mask36.png""],[""img/mask77.png""],[""img/mask42.png""],[""img/mask9.png""],[""img/mask75.png""],[""img/mask74.png""],[""img/mask9.png""],[""img/mask98.png""],[""img/mask11.png""],[""img/mask4.png""],[""img/mask16.png""],[""img/mask3.png""],[""img/mask33.png""],[""img/mask57.png""],[""img/mask96.png""],[""img/mask46.png""],[""img/mask89.png""],[""img/mask52.png""],[""img/mask74.png""],[""img/mask21.png""],[""img/mask65.png""],[""img/mask54.png""],[""img/mask48.png""],[""img/mask28.png""],[""img/mask87.png""],[""img/mask36.png""],[""img/mask100.png""],[""img/mask35.png""],[""img/mask79.png""],[""img/mask90.png""],[""img/mask52.png""]]]","","[27,16,21,29,18,34,3,7,20,32,35,9,6,25,30,2,0,10,5,24,23,11,28,4,14,1,19,13,15,8,22,33,12,31,17,26]","main","104","many-guess-6"
"","","","","","html-keyboard-response","79","295181","0.0-10.0-0.30","63368a7379eb43fa2105d971","640759fa512f630a2bdc333d","6407b70dd9bef0f1fbc740ca","null","","null","","","","","","","","","","","","","","","","","","","fixation","",""
"","","","","","many-guess-6","80","298472","0.0-10.0-1.30-0.30","63368a7379eb43fa2105d971","640759fa512f630a2bdc333d","6407b70dd9bef0f1fbc740ca","[1996]","","","[23,8,15,11,4,34,28,32,3,2,22,7,29,31,17,12,18,0,20,16,10,27,30,19,5,13,14,9,21,26,33,1,24,25,6,35]","[286,167,336,227,247,147,356,296,107,207,117,97,137,47,346,237,17,87,326,37,27,7,157,316,67,266,177,217,77,57,256,187,276,306,127,197]","286","51","56.91140797933461","[56.91140797933461]","[5.911407979334612]","[4]","[30,300,30,300,120,120,30,300,210]","0","36","0","149.5","13.960000000020955","16","[[[""img/mask13.png""],[""img/mask98.png""],[""img/mask28.png""],[""img/mask34.png""],[""img/mask94.png""],[""img/mask40.png""],[""img/mask74.png""],[""img/mask82.png""],[""img/mask40.png""],[""img/mask98.png""],[""img/mask62.png""],[""img/mask50.png""],[""img/mask32.png""],[""img/mask64.png""],[""img/mask57.png""],[""img/mask56.png""],[""img/mask9.png""],[""img/mask69.png""],[""img/mask15.png""],[""img/mask79.png""],[""img/mask20.png""],[""img/mask15.png""],[""img/mask96.png""],[""img/mask76.png""],[""img/mask49.png""],[""img/mask87.png""],[""img/mask37.png""],[""img/mask11.png""],[""img/mask38.png""],[""img/mask56.png""],[""img/mask59.png""],[""img/mask28.png""],[""img/mask52.png""],[""img/mask64.png""],[""img/mask79.png""],[""img/mask99.png""]]]","","[23,8,15,11,4,34,28,32,3,2,22,7,29,31,17,12,18,0,20,16,10,27,30,19,5,13,14,9,21,26,33,1,24,25,6,35]","main","51","many-guess-6"
"","","","","","html-keyboard-response","81","298978","0.0-10.0-0.31","63368a7379eb43fa2105d971","640759fa512f630a2bdc333d","6407b70dd9bef0f1fbc740ca","null","","null","","","","","","","","","","","","","","","","","","","fixation","",""
"","","","","","many-guess-6","82","301791","0.0-10.0-1.31-0.31","63368a7379eb43fa2105d971","640759fa512f630a2bdc333d","6407b70dd9bef0f1fbc740ca","[1399]","","","[20,33,2,23,9,3,24,25,18,32,28,0,15,34,19,22,29,13,1,7,21,16,30,12,6,14,4,26,27,11,8,5,10,31,35,17]","[158,119,99,188,29,59,198,178,238,228,298,338,148,168,308,278,129,109,89,248,268,318,348,9,288,49,79,328,19,258,138,69,218,208,39,358]","158","265","72.5652952143415","[72.5652952143415]","[167.56529521434152]","[166]","[120,210,30,30,210,210,300,30,120]","0","36","0","148.7399999999907","17.05999999999767","16","[[[""img/mask34.png""],[""img/mask40.png""],[""img/mask92.png""],[""img/mask99.png""],[""img/mask59.png""],[""img/mask18.png""],[""img/mask66.png""],[""img/mask89.png""],[""img/mask1.png""],[""img/mask50.png""],[""img/mask36.png""],[""img/mask38.png""],[""img/mask74.png""],[""img/mask49.png""],[""img/mask47.png""],[""img/mask45.png""],[""img/mask98.png""],[""img/mask93.png""],[""img/mask32.png""],[""img/mask65.png""],[""img/mask15.png""],[""img/mask79.png""],[""img/mask51.png""],[""img/mask72.png""],[""img/mask92.png""],[""img/mask44.png""],[""img/mask71.png""],[""img/mask86.png""],[""img/mask79.png""],[""img/mask12.png""],[""img/mask12.png""],[""img/mask29.png""],[""img/mask84.png""],[""img/mask23.png""],[""img/mask20.png""],[""img/mask87.png""]]]","","[20,33,2,23,9,3,24,25,18,32,28,0,15,34,19,22,29,13,1,7,21,16,30,12,6,14,4,26,27,11,8,5,10,31,35,17]","main","265","many-guess-6"
"","","","","","html-keyboard-response","83","302293","0.0-10.0-0.32","63368a7379eb43fa2105d971","640759fa512f630a2bdc333d","6407b70dd9bef0f1fbc740ca","null","","null","","","","","","","","","","","","","","","","","","","fixation","",""
"","","","","","color-precision2","84","305360","0.0-10.0-1.32-0.32","63368a7379eb43fa2105d971","640759fa512f630a2bdc333d","6407b70dd9bef0f1fbc740ca","[533]","","","[10]","[217]","217","227","83.05442889270797","[83.05442889270797]","[216.05442889270796]","[214]","0","0","1","0","149.7399999999907","997.039999999979","1000","[[[""img/mask96.png""]]]","","","main","227","color-precision2"
"","","","","","html-keyboard-response","85","305866","0.0-10.0-0.33","63368a7379eb43fa2105d971","640759fa512f630a2bdc333d","6407b70dd9bef0f1fbc740ca","null","","null","","","","","","","","","","","","","","","","","","","fixation","",""
"","","","","","color-precision2","86","308487","0.0-10.0-1.33-0.33","63368a7379eb43fa2105d971","640759fa512f630a2bdc333d","6407b70dd9bef0f1fbc740ca","[60]","","","[21]","[264]","264","14","","[null]","[null]","[265]","0","0","1","0","149.29999999998836","1005.6199999999953","1000","[[[""img/mask82.png""]]]","","","main","14","color-precision2"
"","","","","","html-keyboard-response","87","308991","0.0-10.0-0.34","63368a7379eb43fa2105d971","640759fa512f630a2bdc333d","6407b70dd9bef0f1fbc740ca","null","","null","","","","","","","","","","","","","","","","","","","fixation","",""
"","","","","","color-precision2","88","311475","0.0-10.0-1.34-0.34","63368a7379eb43fa2105d971","640759fa512f630a2bdc333d","6407b70dd9bef0f1fbc740ca","[65]","","","[26]","[243]","243","233","","[null]","[null]","[239]","0","0","1","0","149.09999999997672","992.4000000000233","1000","[[[""img/mask72.png""]]]","","","main","233","color-precision2"
"","","","","","html-keyboard-response","89","311988","0.0-10.0-0.35","63368a7379eb43fa2105d971","640759fa512f630a2bdc333d","6407b70dd9bef0f1fbc740ca","null","","null","","","","","","","","","","","","","","","","","","","fixation","",""
"","","","","","color-precision2","90","314717","0.0-10.0-1.35-0.35","63368a7379eb43fa2105d971","640759fa512f630a2bdc333d","6407b70dd9bef0f1fbc740ca","[372]","","","[5]","[203]","203","307","130.79744794505277","[130.79744794505277]","[183.79744794505277]","[182]","0","0","1","0","149.90000000002328","992.2199999999721","1000","[[[""img/mask45.png""]]]","","","main","307","color-precision2"
"","","","","","html-keyboard-response","91","315225","0.0-10.0-0.36","63368a7379eb43fa2105d971","640759fa512f630a2bdc333d","6407b70dd9bef0f1fbc740ca","null","","null","","","","","","","","","","","","","","","","","","","fixation","",""
"","","","","","color-precision2","92","318154","0.0-10.0-1.36-0.36","63368a7379eb43fa2105d971","640759fa512f630a2bdc333d","6407b70dd9bef0f1fbc740ca","[426]","","","[27]","[64]","64","71","124.71234149182945","[124.71234149182945]","[53.71234149182945]","[52]","0","0","1","0","149.7600000000093","994.0599999999977","1000","[[[""img/mask41.png""]]]","","","main","71","color-precision2"
"","","","","","html-keyboard-response","93","318654","0.0-10.0-0.37","63368a7379eb43fa2105d971","640759fa512f630a2bdc333d","6407b70dd9bef0f1fbc740ca","null","","null","","","","","","","","","","","","","","","","","","","fixation","",""
"","","","","","many-guess-6","94","321512","0.0-10.0-1.37-0.37","63368a7379eb43fa2105d971","640759fa512f630a2bdc333d","6407b70dd9bef0f1fbc740ca","[1200]","","","[24,29,19,28,25,30,20,12,4,6,18,3,16,7,11,10,13,21,22,17,1,34,2,23,15,33,5,31,26,0,32,27,35,9,14,8]","[48,168,108,308,198,118,88,39,178,278,158,228,288,268,328,298,138,338,128,188,19,208,318,218,358,258,68,148,238,348,98,29,9,58,78,248]","48","154","172.34390899358183","[172.34390899358183]","[18.343908993581834]","[17]","[30,300,120,210,120,120,300,120,300]","0","36","0","149.52000000001863","24.85999999998603","16","[[[""img/mask62.png""],[""img/mask51.png""],[""img/mask47.png""],[""img/mask50.png""],[""img/mask22.png""],[""img/mask57.png""],[""img/mask58.png""],[""img/mask56.png""],[""img/mask61.png""],[""img/mask34.png""],[""img/mask2.png""],[""img/mask75.png""],[""img/mask78.png""],[""img/mask8.png""],[""img/mask42.png""],[""img/mask34.png""],[""img/mask91.png""],[""img/mask51.png""],[""img/mask25.png""],[""img/mask77.png""],[""img/mask42.png""],[""img/mask23.png""],[""img/mask63.png""],[""img/mask58.png""],[""img/mask31.png""],[""img/mask38.png""],[""img/mask94.png""],[""img/mask23.png""],[""img/mask60.png""],[""img/mask79.png""],[""img/mask46.png""],[""img/mask23.png""],[""img/mask59.png""],[""img/mask57.png""],[""img/mask79.png""],[""img/mask66.png""]]]","","[24,29,19,28,25,30,20,12,4,6,18,3,16,7,11,10,13,21,22,17,1,34,2,23,15,33,5,31,26,0,32,27,35,9,14,8]","main","154","many-guess-6"
"","","","","","html-keyboard-response","95","322025","0.0-10.0-0.38","63368a7379eb43fa2105d971","640759fa512f630a2bdc333d","6407b70dd9bef0f1fbc740ca","null","","null","","","","","","","","","","","","","","","","","","","fixation","",""
"","","","","","color-precision2","96","325118","0.0-10.0-1.38-0.38","63368a7379eb43fa2105d971","640759fa512f630a2bdc333d","6407b70dd9bef0f1fbc740ca","[256]","","","[23]","[119]","119","299","70.41420310388877","[70.41420310388877]","[131.41420310388878]","[130]","0","0","1","0","149.14000000001397","1001.460000000021","1000","[[[""img/mask5.png""]]]","","","main","299","color-precision2"
"","","","","","html-keyboard-response","97","327133","0.0-10.0-0.39","63368a7379eb43fa2105d971","640759fa512f630a2bdc333d","6407b70dd9bef0f1fbc740ca","2015","Wow! You've completed 40 out of 180 trials! </p> <p>  </p><p> Take a quick break, then press any key when you're ready to continue."," ","","","","","","","","","","","","","","","","","","","fixation","",""
"","","","","","many-guess-6","98","330632","0.0-10.0-1.39-0.39","63368a7379eb43fa2105d971","640759fa512f630a2bdc333d","6407b70dd9bef0f1fbc740ca","[1434]","","","[16,27,12,34,15,2,31,4,25,33,6,13,24,9,1,19,26,11,20,18,17,0,3,7,30,8,28,35,29,14,23,21,5,10,32,22]","[281,101,251,231,271,151,181,241,340,141,31,161,221,330,51,121,350,11,81,111,291,21,211,310,201,261,171,300,41,191,1,61,320,91,131,71]","281","222","283.0683437531264","[283.0683437531264]","[61.068343753126385]","[61]","[120,300,300,30,300,120,210,300,210]","0","36","0","150.21999999997206","22.520000000018626","16","[[[""img/mask83.png""],[""img/mask10.png""],[""img/mask100.png""],[""img/mask25.png""],[""img/mask53.png""],[""img/mask56.png""],[""img/mask28.png""],[""img/mask35.png""],[""img/mask10.png""],[""img/mask49.png""],[""img/mask89.png""],[""img/mask47.png""],[""img/mask86.png""],[""img/mask41.png""],[""img/mask96.png""],[""img/mask13.png""],[""img/mask57.png""],[""img/mask66.png""],[""img/mask41.png""],[""img/mask6.png""],[""img/mask56.png""],[""img/mask31.png""],[""img/mask34.png""],[""img/mask40.png""],[""img/mask90.png""],[""img/mask44.png""],[""img/mask56.png""],[""img/mask64.png""],[""img/mask88.png""],[""img/mask13.png""],[""img/mask29.png""],[""img/mask57.png""],[""img/mask32.png""],[""img/mask85.png""],[""img/mask40.png""],[""img/mask99.png""]]]","","[16,27,12,34,15,2,31,4,25,33,6,13,24,9,1,19,26,11,20,18,17,0,3,7,30,8,28,35,29,14,23,21,5,10,32,22]","main","222","many-guess-6"
"","","","","","html-keyboard-response","99","331143","0.0-10.0-0.40","63368a7379eb43fa2105d971","640759fa512f630a2bdc333d","6407b70dd9bef0f1fbc740ca","null","","null","","","","","","","","","","","","","","","","","","","fixation","",""
"","","","","","many-guess-6","100","333752","0.0-10.0-1.40-0.40","63368a7379eb43fa2105d971","640759fa512f630a2bdc333d","6407b70dd9bef0f1fbc740ca","[1204]","","","[35,25,6,4,19,13,1,31,17,32,14,16,3,27,24,33,22,8,18,2,12,23,29,10,15,0,5,34,11,21,26,7,20,9,28,30]","[138,88,148,98,338,198,158,49,268,318,358,19,248,168,188,298,228,29,9,308,178,218,69,59,108,258,128,118,39,328,278,208,79,288,348,238]","138","237","316.46450143855856","[316.46450143855856]","[79.46450143855856]","[79]","[120,300,210,210,210,120,30,300,120]","0","36","0","149.7600000000093","22.080000000016298","16","[[[""img/mask25.png""],[""img/mask85.png""],[""img/mask73.png""],[""img/mask55.png""],[""img/mask86.png""],[""img/mask16.png""],[""img/mask98.png""],[""img/mask32.png""],[""img/mask59.png""],[""img/mask25.png""],[""img/mask47.png""],[""img/mask12.png""],[""img/mask93.png""],[""img/mask76.png""],[""img/mask15.png""],[""img/mask66.png""],[""img/mask75.png""],[""img/mask10.png""],[""img/mask44.png""],[""img/mask57.png""],[""img/mask85.png""],[""img/mask76.png""],[""img/mask47.png""],[""img/mask87.png""],[""img/mask72.png""],[""img/mask73.png""],[""img/mask65.png""],[""img/mask66.png""],[""img/mask55.png""],[""img/mask49.png""],[""img/mask40.png""],[""img/mask43.png""],[""img/mask39.png""],[""img/mask44.png""],[""img/mask81.png""],[""img/mask58.png""]]]","","[35,25,6,4,19,13,1,31,17,32,14,16,3,27,24,33,22,8,18,2,12,23,29,10,15,0,5,34,11,21,26,7,20,9,28,30]","main","237","many-guess-6"
"","","","","","html-keyboard-response","101","334267","0.0-10.0-0.41","63368a7379eb43fa2105d971","640759fa512f630a2bdc333d","6407b70dd9bef0f1fbc740ca","null","","null","","","","","","","","","","","","","","","","","","","fixation","",""
"","","","","","many-guess-6","102","337272","0.0-10.0-1.41-0.41","63368a7379eb43fa2105d971","640759fa512f630a2bdc333d","6407b70dd9bef0f1fbc740ca","[1574]","","","[8,18,31,9,26,24,28,30,20,13,3,16,10,12,5,25,17,29,34,4,15,7,32,2,1,14,22,6,35,11,33,21,23,0,19,27]","[91,141,21,240,171,41,270,200,101,71,121,111,220,11,280,51,310,190,340,290,181,210,31,330,61,81,320,300,250,350,131,1,230,260,151,161]","91","247","242.80050793605378","[242.80050793605378]","[355.8005079360538]","[356]","[210,210,300,30,120,30,300,120,210]","0","36","0","149.17999999999302","14.539999999979045","16","[[[""img/mask6.png""],[""img/mask27.png""],[""img/mask66.png""],[""img/mask57.png""],[""img/mask18.png""],[""img/mask65.png""],[""img/mask36.png""],[""img/mask43.png""],[""img/mask97.png""],[""img/mask94.png""],[""img/mask52.png""],[""img/mask65.png""],[""img/mask83.png""],[""img/mask51.png""],[""img/mask86.png""],[""img/mask89.png""],[""img/mask88.png""],[""img/mask13.png""],[""img/mask47.png""],[""img/mask13.png""],[""img/mask5.png""],[""img/mask56.png""],[""img/mask24.png""],[""img/mask78.png""],[""img/mask3.png""],[""img/mask55.png""],[""img/mask57.png""],[""img/mask71.png""],[""img/mask42.png""],[""img/mask17.png""],[""img/mask19.png""],[""img/mask35.png""],[""img/mask17.png""],[""img/mask42.png""],[""img/mask7.png""],[""img/mask50.png""]]]","","[8,18,31,9,26,24,28,30,20,13,3,16,10,12,5,25,17,29,34,4,15,7,32,2,1,14,22,6,35,11,33,21,23,0,19,27]","main","247","many-guess-6"
"","","","","","html-keyboard-response","103","337783","0.0-10.0-0.42","63368a7379eb43fa2105d971","640759fa512f630a2bdc333d","6407b70dd9bef0f1fbc740ca","null","","null","","","","","","","","","","","","","","","","","","","fixation","",""
"","","","","","many-guess-6","104","340492","0.0-10.0-1.42-0.42","63368a7379eb43fa2105d971","640759fa512f630a2bdc333d","6407b70dd9bef0f1fbc740ca","[1311]","","","[16,8,2,7,10,24,13,18,31,17,5,30,34,3,25,26,12,1,28,33,15,4,9,23,32,0,14,35,29,19,20,6,21,11,22,27]","[96,76,106,256,306,136,17,286,356,7,246,206,176,326,67,346,116,186,276,57,86,196,236,37,166,226,316,216,126,156,296,266,146,47,336,27]","96","272","138.93189175751385","[138.93189175751385]","[226.93189175751385]","[225]","[300,210,300,120,210,300,300,30,30]","0","36","0","150.11999999999534","14.71999999997206","16","[[[""img/mask63.png""],[""img/mask6.png""],[""img/mask13.png""],[""img/mask90.png""],[""img/mask33.png""],[""img/mask93.png""],[""img/mask66.png""],[""img/mask51.png""],[""img/mask38.png""],[""img/mask8.png""],[""img/mask45.png""],[""img/mask73.png""],[""img/mask50.png""],[""img/mask71.png""],[""img/mask46.png""],[""img/mask9.png""],[""img/mask96.png""],[""img/mask94.png""],[""img/mask2.png""],[""img/mask55.png""],[""img/mask41.png""],[""img/mask71.png""],[""img/mask79.png""],[""img/mask24.png""],[""img/mask80.png""],[""img/mask87.png""],[""img/mask31.png""],[""img/mask88.png""],[""img/mask16.png""],[""img/mask53.png""],[""img/mask8.png""],[""img/mask5.png""],[""img/mask97.png""],[""img/mask37.png""],[""img/mask2.png""],[""img/mask3.png""]]]","","[16,8,2,7,10,24,13,18,31,17,5,30,34,3,25,26,12,1,28,33,15,4,9,23,32,0,14,35,29,19,20,6,21,11,22,27]","main","272","many-guess-6"
"","","","","","html-keyboard-response","105","340999","0.0-10.0-0.43","63368a7379eb43fa2105d971","640759fa512f630a2bdc333d","6407b70dd9bef0f1fbc740ca","null","","null","","","","","","","","","","","","","","","","","","","fixation","",""
"","","","","","many-guess-6","106","343898","0.0-10.0-1.43-0.43","63368a7379eb43fa2105d971","640759fa512f630a2bdc333d","6407b70dd9bef0f1fbc740ca","[1198]","","","[35,19,5,13,9,11,10,31,3,29,32,4,30,16,34,14,25,2,15,23,33,27,1,0,26,12,18,28,6,22,8,7,17,20,24,21]","[283,293,204,44,54,4,144,214,154,254,164,343,94,244,24,234,264,14,323,114,353,174,134,303,194,333,104,273,224,124,84,184,313,34,74,64]","283","240","355.18763513383834","[355.18763513383834]","[115.18763513383834]","[114]","[210,300,300,300,300,30,300,120,120]","0","36","0","148.47999999998137","22.79999999998836","16","[[[""img/mask65.png""],[""img/mask99.png""],[""img/mask89.png""],[""img/mask34.png""],[""img/mask16.png""],[""img/mask25.png""],[""img/mask11.png""],[""img/mask63.png""],[""img/mask40.png""],[""img/mask78.png""],[""img/mask33.png""],[""img/mask43.png""],[""img/mask45.png""],[""img/mask43.png""],[""img/mask18.png""],[""img/mask71.png""],[""img/mask54.png""],[""img/mask75.png""],[""img/mask93.png""],[""img/mask24.png""],[""img/mask68.png""],[""img/mask78.png""],[""img/mask70.png""],[""img/mask81.png""],[""img/mask36.png""],[""img/mask70.png""],[""img/mask55.png""],[""img/mask36.png""],[""img/mask86.png""],[""img/mask100.png""],[""img/mask15.png""],[""img/mask85.png""],[""img/mask73.png""],[""img/mask100.png""],[""img/mask5.png""],[""img/mask39.png""]]]","","[35,19,5,13,9,11,10,31,3,29,32,4,30,16,34,14,25,2,15,23,33,27,1,0,26,12,18,28,6,22,8,7,17,20,24,21]","main","240","many-guess-6"
"","","","","","html-keyboard-response","107","344404","0.0-10.0-0.44","63368a7379eb43fa2105d971","640759fa512f630a2bdc333d","6407b70dd9bef0f1fbc740ca","null","","null","","","","","","","","","","","","","","","","","","","fixation","",""
"","","","","","color-precision2","108","346845","0.0-10.0-1.44-0.44","63368a7379eb43fa2105d971","640759fa512f630a2bdc333d","6407b70dd9bef0f1fbc740ca","[245]","","","[3]","[335]","335","54","34.66187081139883","[34.66187081139883]","[340.66187081139884]","[340]","0","0","1","0","149.88000000000466","997.2000000000116","1000","[[[""img/mask87.png""]]]","","","main","54","color-precision2"
"","","","","","html-keyboard-response","109","347354","0.0-10.0-0.45","63368a7379eb43fa2105d971","640759fa512f630a2bdc333d","6407b70dd9bef0f1fbc740ca","null","","null","","","","","","","","","","","","","","","","","","","fixation","",""
"","","","","","many-guess-6","110","349804","0.0-10.0-1.45-0.45","63368a7379eb43fa2105d971","640759fa512f630a2bdc333d","6407b70dd9bef0f1fbc740ca","[1220]","","","[26,33,7,31,2,22,1,18,23,19,30,6,13,34,4,10,35,5,11,27,8,0,16,17,29,12,32,14,21,28,9,20,15,3,24,25]","[229,110,139,169,359,179,189,20,70,319,129,50,119,209,269,10,339,100,159,249,90,80,329,30,60,289,299,279,349,239,309,219,149,259,199,40]","229","109","313.8810227844288","[313.8810227844288]","[204.8810227844288]","[205]","[300,300,300,30,30,30,30,210,210]","0","36","0","149.5800000000163","19.880000000004657","16","[[[""img/mask85.png""],[""img/mask38.png""],[""img/mask2.png""],[""img/mask35.png""],[""img/mask53.png""],[""img/mask29.png""],[""img/mask50.png""],[""img/mask66.png""],[""img/mask43.png""],[""img/mask49.png""],[""img/mask84.png""],[""img/mask99.png""],[""img/mask88.png""],[""img/mask74.png""],[""img/mask74.png""],[""img/mask66.png""],[""img/mask67.png""],[""img/mask64.png""],[""img/mask52.png""],[""img/mask24.png""],[""img/mask16.png""],[""img/mask19.png""],[""img/mask44.png""],[""img/mask81.png""],[""img/mask10.png""],[""img/mask30.png""],[""img/mask24.png""],[""img/mask8.png""],[""img/mask93.png""],[""img/mask1.png""],[""img/mask30.png""],[""img/mask46.png""],[""img/mask99.png""],[""img/mask41.png""],[""img/mask67.png""],[""img/mask67.png""]]]","","[26,33,7,31,2,22,1,18,23,19,30,6,13,34,4,10,35,5,11,27,8,0,16,17,29,12,32,14,21,28,9,20,15,3,24,25]","main","109","many-guess-6"
"","","","","","html-keyboard-response","111","350318","0.0-10.0-0.46","63368a7379eb43fa2105d971","640759fa512f630a2bdc333d","6407b70dd9bef0f1fbc740ca","null","","null","","","","","","","","","","","","","","","","","","","fixation","",""
"","","","","","color-precision2","112","352916","0.0-10.0-1.46-0.46","63368a7379eb43fa2105d971","640759fa512f630a2bdc333d","6407b70dd9bef0f1fbc740ca","[331]","","","[30]","[268]","268","229","144.21792050672497","[144.21792050672497]","[275.21792050672497]","[274]","0","0","1","0","149.11999999999534","994.4400000000023","1000","[[[""img/mask55.png""]]]","","","main","229","color-precision2"
"","","","","","html-keyboard-response","113","353425","0.0-10.0-0.47","63368a7379eb43fa2105d971","640759fa512f630a2bdc333d","6407b70dd9bef0f1fbc740ca","null","","null","","","","","","","","","","","","","","","","","","","fixation","",""
"","","","","","color-precision2","114","356290","0.0-10.0-1.47-0.47","63368a7379eb43fa2105d971","640759fa512f630a2bdc333d","6407b70dd9bef0f1fbc740ca","[205]","","","[26]","[351]","351","90","","[null]","[null]","[4]","0","0","1","0","149.67999999999302","993","1000","[[[""img/mask62.png""]]]","","","main","90","color-precision2"
"","","","","","html-keyboard-response","115","356802","0.0-10.0-0.48","63368a7379eb43fa2105d971","640759fa512f630a2bdc333d","6407b70dd9bef0f1fbc740ca","null","","null","","","","","","","","","","","","","","","","","","","fixation","",""
"","","","","","many-guess-6","116","359540","0.0-10.0-1.48-0.48","63368a7379eb43fa2105d971","640759fa512f630a2bdc333d","6407b70dd9bef0f1fbc740ca","[1188]","","","[9,4,6,11,5,24,23,21,0,31,34,19,16,17,7,29,35,33,10,18,1,14,28,15,2,22,32,8,20,27,26,13,3,30,12,25]","[74,274,55,25,234,244,114,324,204,94,104,194,214,314,254,184,84,224,124,154,334,354,264,144,304,45,65,5,134,344,35,174,164,294,15,284]","74","179","303.90986833516047","[303.90986833516047]","[124.90986833516047]","[125]","[210,300,300,300,120,30,300,120,300]","0","36","0","149.7600000000093","23.099999999976717","16","[[[""img/mask78.png""],[""img/mask97.png""],[""img/mask42.png""],[""img/mask13.png""],[""img/mask46.png""],[""img/mask80.png""],[""img/mask21.png""],[""img/mask87.png""],[""img/mask33.png""],[""img/mask35.png""],[""img/mask88.png""],[""img/mask55.png""],[""img/mask55.png""],[""img/mask77.png""],[""img/mask18.png""],[""img/mask78.png""],[""img/mask76.png""],[""img/mask24.png""],[""img/mask29.png""],[""img/mask33.png""],[""img/mask89.png""],[""img/mask64.png""],[""img/mask59.png""],[""img/mask72.png""],[""img/mask39.png""],[""img/mask83.png""],[""img/mask90.png""],[""img/mask98.png""],[""img/mask56.png""],[""img/mask1.png""],[""img/mask3.png""],[""img/mask61.png""],[""img/mask66.png""],[""img/mask4.png""],[""img/mask8.png""],[""img/mask90.png""]]]","","[9,4,6,11,5,24,23,21,0,31,34,19,16,17,7,29,35,33,10,18,1,14,28,15,2,22,32,8,20,27,26,13,3,30,12,25]","main","179","many-guess-6"
"","","","","","html-keyboard-response","117","360050","0.0-10.0-0.49","63368a7379eb43fa2105d971","640759fa512f630a2bdc333d","6407b70dd9bef0f1fbc740ca","null","","null","","","","","","","","","","","","","","","","","","","fixation","",""
"","","","","","color-precision2","118","362860","0.0-10.0-1.49-0.49","63368a7379eb43fa2105d971","640759fa512f630a2bdc333d","6407b70dd9bef0f1fbc740ca","[308]","","","[28]","[306]","306","204","147.7231084043518","[147.7231084043518]","[303.7231084043518]","[303]","0","0","1","0","149.38000000000466","1007.7000000000116","1000","[[[""img/mask85.png""]]]","","","main","204","color-precision2"
"","","","","","html-keyboard-response","119","363369","0.0-10.0-0.50","63368a7379eb43fa2105d971","640759fa512f630a2bdc333d","6407b70dd9bef0f1fbc740ca","null","","null","","","","","","","","","","","","","","","","","","","fixation","",""
"","","","","","many-guess-6","120","366220","0.0-10.0-1.50-0.50","63368a7379eb43fa2105d971","640759fa512f630a2bdc333d","6407b70dd9bef0f1fbc740ca","[1469]","","","[18,12,28,8,34,35,4,5,3,29,17,24,11,20,6,1,27,25,31,10,32,33,2,23,14,16,13,9,7,19,30,26,21,0,15,22]","[47,247,37,117,177,57,17,276,27,356,346,167,187,207,87,267,217,286,197,7,77,137,336,316,227,296,127,326,107,67,97,306,237,147,257,157]","47","47","212.7828788127619","[212.7828788127619]","[165.7828788127619]","[166]","[30,30,210,120,120,30,210,210,120]","0","36","0","149.7399999999907","15.059999999997672","16","[[[""img/mask58.png""],[""img/mask48.png""],[""img/mask49.png""],[""img/mask70.png""],[""img/mask30.png""],[""img/mask60.png""],[""img/mask11.png""],[""img/mask94.png""],[""img/mask16.png""],[""img/mask50.png""],[""img/mask6.png""],[""img/mask59.png""],[""img/mask65.png""],[""img/mask87.png""],[""img/mask75.png""],[""img/mask31.png""],[""img/mask32.png""],[""img/mask9.png""],[""img/mask13.png""],[""img/mask39.png""],[""img/mask10.png""],[""img/mask70.png""],[""img/mask66.png""],[""img/mask16.png""],[""img/mask9.png""],[""img/mask59.png""],[""img/mask51.png""],[""img/mask50.png""],[""img/mask79.png""],[""img/mask38.png""],[""img/mask67.png""],[""img/mask76.png""],[""img/mask58.png""],[""img/mask51.png""],[""img/mask9.png""],[""img/mask29.png""]]]","","[18,12,28,8,34,35,4,5,3,29,17,24,11,20,6,1,27,25,31,10,32,33,2,23,14,16,13,9,7,19,30,26,21,0,15,22]","main","47","many-guess-6"
"","","","","","html-keyboard-response","121","366734","0.0-10.0-0.51","63368a7379eb43fa2105d971","640759fa512f630a2bdc333d","6407b70dd9bef0f1fbc740ca","null","","null","","","","","","","","","","","","","","","","","","","fixation","",""
"","","","","","many-guess-6","122","369964","0.0-10.0-1.51-0.51","63368a7379eb43fa2105d971","640759fa512f630a2bdc333d","6407b70dd9bef0f1fbc740ca","[1811]","","","[18,4,26,27,15,23,22,14,33,21,11,24,28,0,7,10,3,12,16,17,31,8,19,1,9,6,25,30,35,2,34,5,20,13,32,29]","[262,242,43,342,222,133,173,53,13,292,3,282,123,113,73,252,93,33,213,103,153,332,312,143,163,232,302,23,352,203,183,272,63,193,322,83]","262","24","61.23879802964267","[61.23879802964267]","[37.23879802964267]","[36]","[30,300,210,30,30,120,210,300,300]","0","36","0","148.2399999999907","25.539999999979045","16","[[[""img/mask15.png""],[""img/mask71.png""],[""img/mask24.png""],[""img/mask24.png""],[""img/mask25.png""],[""img/mask21.png""],[""img/mask56.png""],[""img/mask81.png""],[""img/mask51.png""],[""img/mask100.png""],[""img/mask86.png""],[""img/mask35.png""],[""img/mask26.png""],[""img/mask56.png""],[""img/mask80.png""],[""img/mask12.png""],[""img/mask57.png""],[""img/mask39.png""],[""img/mask52.png""],[""img/mask53.png""],[""img/mask84.png""],[""img/mask26.png""],[""img/mask92.png""],[""img/mask34.png""],[""img/mask47.png""],[""img/mask65.png""],[""img/mask20.png""],[""img/mask64.png""],[""img/mask5.png""],[""img/mask85.png""],[""img/mask41.png""],[""img/mask40.png""],[""img/mask13.png""],[""img/mask13.png""],[""img/mask74.png""],[""img/mask76.png""]]]","","[18,4,26,27,15,23,22,14,33,21,11,24,28,0,7,10,3,12,16,17,31,8,19,1,9,6,25,30,35,2,34,5,20,13,32,29]","main","24","many-guess-6"
"","","","","","html-keyboard-response","123","370466","0.0-10.0-0.52","63368a7379eb43fa2105d971","640759fa512f630a2bdc333d","6407b70dd9bef0f1fbc740ca","null","","null","","","","","","","","","","","","","","","","","","","fixation","",""
"","","","","","many-guess-6","124","373972","0.0-10.0-1.52-0.52","63368a7379eb43fa2105d971","640759fa512f630a2bdc333d","6407b70dd9bef0f1fbc740ca","[1518]","","","[25,5,14,12,28,27,19,7,24,31,2,34,30,26,15,20,29,17,32,35,11,6,22,33,9,13,21,8,10,23,3,4,0,1,18,16]","[308,228,58,29,118,98,288,48,208,9,248,138,38,238,268,19,358,188,178,298,348,328,148,78,198,168,128,68,218,108,318,158,338,88,278,258]","308","330","148.97474710775361","[148.97474710775361]","[178.97474710775361]","[178]","[30,30,210,210,30,210,300,300,120]","0","36","0","150.09999999997672","12.5","16","[[[""img/mask97.png""],[""img/mask20.png""],[""img/mask33.png""],[""img/mask9.png""],[""img/mask8.png""],[""img/mask43.png""],[""img/mask50.png""],[""img/mask76.png""],[""img/mask10.png""],[""img/mask16.png""],[""img/mask36.png""],[""img/mask34.png""],[""img/mask72.png""],[""img/mask66.png""],[""img/mask93.png""],[""img/mask20.png""],[""img/mask57.png""],[""img/mask51.png""],[""img/mask68.png""],[""img/mask60.png""],[""img/mask2.png""],[""img/mask90.png""],[""img/mask58.png""],[""img/mask91.png""],[""img/mask51.png""],[""img/mask68.png""],[""img/mask48.png""],[""img/mask90.png""],[""img/mask6.png""],[""img/mask95.png""],[""img/mask27.png""],[""img/mask70.png""],[""img/mask47.png""],[""img/mask38.png""],[""img/mask85.png""],[""img/mask6.png""]]]","","[25,5,14,12,28,27,19,7,24,31,2,34,30,26,15,20,29,17,32,35,11,6,22,33,9,13,21,8,10,23,3,4,0,1,18,16]","main","330","many-guess-6"
"","","","","","html-keyboard-response","125","374479","0.0-10.0-0.53","63368a7379eb43fa2105d971","640759fa512f630a2bdc333d","6407b70dd9bef0f1fbc740ca","null","","null","","","","","","","","","","","","","","","","","","","fixation","",""
"","","","","","color-precision2","126","377200","0.0-10.0-1.53-0.53","63368a7379eb43fa2105d971","640759fa512f630a2bdc333d","6407b70dd9bef0f1fbc740ca","[112]","","","[5]","[179]","179","151","","[null]","[null]","[172]","0","0","1","0","149.55999999999767","1005.8800000000047","1000","[[[""img/mask60.png""]]]","","","main","151","color-precision2"
"","","","","","html-keyboard-response","127","377705","0.0-10.0-0.54","63368a7379eb43fa2105d971","640759fa512f630a2bdc333d","6407b70dd9bef0f1fbc740ca","null","","null","","","","","","","","","","","","","","","","","","","fixation","",""
"","","","","","many-guess-6","128","380550","0.0-10.0-1.54-0.54","63368a7379eb43fa2105d971","640759fa512f630a2bdc333d","6407b70dd9bef0f1fbc740ca","[1380]","","","[12,2,20,21,32,27,22,33,4,25,31,7,1,24,16,29,17,19,0,23,9,30,10,5,6,35,14,13,3,18,8,11,26,15,34,28]","[285,155,345,255,225,145,175,315,105,185,66,355,56,76,305,245,6,295,36,95,165,16,26,135,85,115,275,325,195,125,205,265,335,46,215,235]","285","20","272.8059517121184","[272.8059517121184]","[252.80595171211837]","[253]","[300,30,300,30,210,120,210,120,30]","0","36","0","149.59999999997672","21.900000000023283","16","[[[""img/mask63.png""],[""img/mask11.png""],[""img/mask20.png""],[""img/mask18.png""],[""img/mask76.png""],[""img/mask51.png""],[""img/mask32.png""],[""img/mask49.png""],[""img/mask63.png""],[""img/mask85.png""],[""img/mask27.png""],[""img/mask9.png""],[""img/mask1.png""],[""img/mask6.png""],[""img/mask62.png""],[""img/mask12.png""],[""img/mask3.png""],[""img/mask70.png""],[""img/mask26.png""],[""img/mask80.png""],[""img/mask32.png""],[""img/mask99.png""],[""img/mask93.png""],[""img/mask19.png""],[""img/mask78.png""],[""img/mask55.png""],[""img/mask50.png""],[""img/mask33.png""],[""img/mask73.png""],[""img/mask66.png""],[""img/mask73.png""],[""img/mask23.png""],[""img/mask82.png""],[""img/mask38.png""],[""img/mask98.png""],[""img/mask79.png""]]]","","[12,2,20,21,32,27,22,33,4,25,31,7,1,24,16,29,17,19,0,23,9,30,10,5,6,35,14,13,3,18,8,11,26,15,34,28]","main","20","many-guess-6"
"","","","","","html-keyboard-response","129","381057","0.0-10.0-0.55","63368a7379eb43fa2105d971","640759fa512f630a2bdc333d","6407b70dd9bef0f1fbc740ca","null","","null","","","","","","","","","","","","","","","","","","","fixation","",""
"","","","","","many-guess-6","130","383800","0.0-10.0-1.55-0.55","63368a7379eb43fa2105d971","640759fa512f630a2bdc333d","6407b70dd9bef0f1fbc740ca","[1328]","","","[28,29,2,17,15,13,32,9,34,26,10,24,25,11,18,14,6,19,23,31,35,27,30,33,5,8,16,12,1,21,0,7,22,20,4,3]","[229,358,259,169,9,79,308,39,298,49,219,89,269,59,139,199,288,69,99,179,149,318,348,338,159,29,129,19,209,249,278,189,109,328,119,239]","229","90","56.13387332063734","[56.13387332063734]","[326.13387332063735]","[325]","[210,300,120,120,30,120,30,210,120]","0","36","0","149.3400000000256","22.64000000001397","16","[[[""img/mask72.png""],[""img/mask33.png""],[""img/mask50.png""],[""img/mask6.png""],[""img/mask6.png""],[""img/mask16.png""],[""img/mask4.png""],[""img/mask48.png""],[""img/mask87.png""],[""img/mask29.png""],[""img/mask40.png""],[""img/mask41.png""],[""img/mask42.png""],[""img/mask2.png""],[""img/mask77.png""],[""img/mask52.png""],[""img/mask39.png""],[""img/mask77.png""],[""img/mask77.png""],[""img/mask92.png""],[""img/mask19.png""],[""img/mask29.png""],[""img/mask21.png""],[""img/mask55.png""],[""img/mask56.png""],[""img/mask45.png""],[""img/mask29.png""],[""img/mask94.png""],[""img/mask47.png""],[""img/mask71.png""],[""img/mask6.png""],[""img/mask86.png""],[""img/mask48.png""],[""img/mask31.png""],[""img/mask56.png""],[""img/mask97.png""]]]","","[28,29,2,17,15,13,32,9,34,26,10,24,25,11,18,14,6,19,23,31,35,27,30,33,5,8,16,12,1,21,0,7,22,20,4,3]","main","90","many-guess-6"
"","","","","","html-keyboard-response","131","384311","0.0-10.0-0.56","63368a7379eb43fa2105d971","640759fa512f630a2bdc333d","6407b70dd9bef0f1fbc740ca","null","","null","","","","","","","","","","","","","","","","","","","fixation","",""
"","","","","","color-precision2","132","388187","0.0-10.0-1.56-0.56","63368a7379eb43fa2105d971","640759fa512f630a2bdc333d","6407b70dd9bef0f1fbc740ca","[513]","","","[14]","[103]","103","327","74.67839966228817","[74.67839966228817]","[107.67839966228817]","[106]","0","0","1","0","149.90000000002328","999.2199999999721","1000","[[[""img/mask71.png""]]]","","","main","327","color-precision2"
"","","","","","html-keyboard-response","133","388689","0.0-10.0-0.57","63368a7379eb43fa2105d971","640759fa512f630a2bdc333d","6407b70dd9bef0f1fbc740ca","null","","null","","","","","","","","","","","","","","","","","","","fixation","",""
"","","","","","color-precision2","134","391515","0.0-10.0-1.57-0.57","63368a7379eb43fa2105d971","640759fa512f630a2bdc333d","6407b70dd9bef0f1fbc740ca","[24]","","","[34]","[146]","146","202","","[null]","[null]","[136]","0","0","1","0","150.21999999997206","992.539999999979","1000","[[[""img/mask99.png""]]]","","","main","202","color-precision2"
"","","","","","html-keyboard-response","135","392026","0.0-10.0-0.58","63368a7379eb43fa2105d971","640759fa512f630a2bdc333d","6407b70dd9bef0f1fbc740ca","null","","null","","","","","","","","","","","","","","","","","","","fixation","",""
"","","","","","color-precision2","136","394364","0.0-10.0-1.58-0.58","63368a7379eb43fa2105d971","640759fa512f630a2bdc333d","6407b70dd9bef0f1fbc740ca","[57]","","","[35]","[180]","180","190","","[null]","[null]","[168]","0","0","1","0","149.29999999998836","1003.6199999999953","1000","[[[""img/mask1.png""]]]","","","main","190","color-precision2"
"","","","","","html-keyboard-response","137","396470","0.0-10.0-0.59","63368a7379eb43fa2105d971","640759fa512f630a2bdc333d","6407b70dd9bef0f1fbc740ca","2106","Wow! You've completed 60 out of 180 trials! </p> <p>  </p><p> Take a quick break, then press any key when you're ready to continue."," ","","","","","","","","","","","","","","","","","","","fixation","",""
"","","","","","many-guess-6","138","399931","0.0-10.0-1.59-0.59","63368a7379eb43fa2105d971","640759fa512f630a2bdc333d","6407b70dd9bef0f1fbc740ca","[1321]","","","[18,30,1,12,24,19,3,6,33,7,26,2,20,13,5,14,22,29,31,15,11,32,21,16,10,23,35,8,34,25,0,4,27,17,9,28]","[264,104,274,204,244,174,224,194,313,284,124,24,114,14,44,54,323,184,154,254,144,134,84,64,4,303,94,353,214,293,333,74,343,234,34,164]","264","245","5.247642919556614","[5.247642919556614]","[120.24764291955663]","[119]","[30,210,300,120,210,210,300,300,210]","0","36","0","149.97999999998137","15.299999999988358","16","[[[""img/mask17.png""],[""img/mask22.png""],[""img/mask68.png""],[""img/mask15.png""],[""img/mask11.png""],[""img/mask64.png""],[""img/mask69.png""],[""img/mask49.png""],[""img/mask64.png""],[""img/mask90.png""],[""img/mask69.png""],[""img/mask11.png""],[""img/mask67.png""],[""img/mask55.png""],[""img/mask52.png""],[""img/mask21.png""],[""img/mask33.png""],[""img/mask75.png""],[""img/mask69.png""],[""img/mask16.png""],[""img/mask80.png""],[""img/mask16.png""],[""img/mask67.png""],[""img/mask1.png""],[""img/mask16.png""],[""img/mask24.png""],[""img/mask36.png""],[""img/mask55.png""],[""img/mask68.png""],[""img/mask15.png""],[""img/mask70.png""],[""img/mask7.png""],[""img/mask46.png""],[""img/mask54.png""],[""img/mask37.png""],[""img/mask1.png""]]]","","[18,30,1,12,24,19,3,6,33,7,26,2,20,13,5,14,22,29,31,15,11,32,21,16,10,23,35,8,34,25,0,4,27,17,9,28]","main","245","many-guess-6"
"","","","","","html-keyboard-response","139","400445","0.0-10.0-0.60","63368a7379eb43fa2105d971","640759fa512f630a2bdc333d","6407b70dd9bef0f1fbc740ca","null","","null","","","","","","","","","","","","","","","","","","","fixation","",""
"","","","","","many-guess-6","140","403846","0.0-10.0-1.60-0.60","63368a7379eb43fa2105d971","640759fa512f630a2bdc333d","6407b70dd9bef0f1fbc740ca","[1571]","","","[35,27,22,31,0,2,15,16,11,28,3,10,30,1,20,34,9,18,7,23,5,13,25,24,4,32,19,29,33,8,21,12,17,14,6,26]","[147,356,176,57,256,326,87,7,107,226,186,166,286,306,117,127,336,47,27,296,67,206,17,97,216,77,246,156,37,276,196,137,346,266,316,236]","147","151","13.62361317096708","[13.62361317096708]","[222.62361317096708]","[222]","[300,210,300,300,210,210,210,210,300]","0","36","0","149.2600000000093","16.760000000009313","16","[[[""img/mask52.png""],[""img/mask24.png""],[""img/mask24.png""],[""img/mask74.png""],[""img/mask84.png""],[""img/mask5.png""],[""img/mask27.png""],[""img/mask90.png""],[""img/mask22.png""],[""img/mask50.png""],[""img/mask22.png""],[""img/mask78.png""],[""img/mask30.png""],[""img/mask88.png""],[""img/mask88.png""],[""img/mask52.png""],[""img/mask2.png""],[""img/mask27.png""],[""img/mask95.png""],[""img/mask83.png""],[""img/mask54.png""],[""img/mask76.png""],[""img/mask20.png""],[""img/mask80.png""],[""img/mask49.png""],[""img/mask41.png""],[""img/mask24.png""],[""img/mask4.png""],[""img/mask34.png""],[""img/mask86.png""],[""img/mask43.png""],[""img/mask65.png""],[""img/mask35.png""],[""img/mask72.png""],[""img/mask98.png""],[""img/mask93.png""]]]","","[35,27,22,31,0,2,15,16,11,28,3,10,30,1,20,34,9,18,7,23,5,13,25,24,4,32,19,29,33,8,21,12,17,14,6,26]","main","151","many-guess-6"
"","","","","","html-keyboard-response","141","404354","0.0-10.0-0.61","63368a7379eb43fa2105d971","640759fa512f630a2bdc333d","6407b70dd9bef0f1fbc740ca","null","","null","","","","","","","","","","","","","","","","","","","fixation","",""
"","","","","","color-precision2","142","406864","0.0-10.0-1.61-0.61","63368a7379eb43fa2105d971","640759fa512f630a2bdc333d","6407b70dd9bef0f1fbc740ca","[188]","","","[20]","[97]","97","201","","[null]","[null]","[112]","0","0","1","0","148.88000000000466","1000.179999999993","1000","[[[""img/mask84.png""]]]","","","main","201","color-precision2"
"","","","","","html-keyboard-response","143","407371","0.0-10.0-0.62","63368a7379eb43fa2105d971","640759fa512f630a2bdc333d","6407b70dd9bef0f1fbc740ca","null","","null","","","","","","","","","","","","","","","","","","","fixation","",""
"","","","","","many-guess-6","144","410509","0.0-10.0-1.62-0.62","63368a7379eb43fa2105d971","640759fa512f630a2bdc333d","6407b70dd9bef0f1fbc740ca","[1398]","","","[22,30,11,33,21,10,1,24,25,31,2,13,3,18,34,32,5,20,19,27,9,29,6,35,4,16,23,14,0,15,8,26,7,28,17,12]","[123,23,282,153,322,182,113,222,133,103,93,83,13,302,172,242,262,53,312,143,163,232,352,43,272,252,192,292,212,202,3,63,33,342,332,73]","123","163","209.69955963064314","[209.69955963064314]","[46.69955963064314]","[47]","[30,210,120,120,120,120,300,30,30]","0","36","0","148.28000000002794","22.599999999976717","16","[[[""img/mask38.png""],[""img/mask99.png""],[""img/mask80.png""],[""img/mask37.png""],[""img/mask25.png""],[""img/mask7.png""],[""img/mask70.png""],[""img/mask32.png""],[""img/mask88.png""],[""img/mask49.png""],[""img/mask57.png""],[""img/mask98.png""],[""img/mask91.png""],[""img/mask20.png""],[""img/mask79.png""],[""img/mask64.png""],[""img/mask71.png""],[""img/mask68.png""],[""img/mask7.png""],[""img/mask19.png""],[""img/mask57.png""],[""img/mask85.png""],[""img/mask79.png""],[""img/mask40.png""],[""img/mask49.png""],[""img/mask69.png""],[""img/mask66.png""],[""img/mask46.png""],[""img/mask75.png""],[""img/mask99.png""],[""img/mask7.png""],[""img/mask100.png""],[""img/mask23.png""],[""img/mask53.png""],[""img/mask100.png""],[""img/mask94.png""]]]","","[22,30,11,33,21,10,1,24,25,31,2,13,3,18,34,32,5,20,19,27,9,29,6,35,4,16,23,14,0,15,8,26,7,28,17,12]","main","163","many-guess-6"
"","","","","","html-keyboard-response","145","411009","0.0-10.0-0.63","63368a7379eb43fa2105d971","640759fa512f630a2bdc333d","6407b70dd9bef0f1fbc740ca","null","","null","","","","","","","","","","","","","","","","","","","fixation","",""
"","","","","","color-precision2","146","413534","0.0-10.0-1.63-0.63","63368a7379eb43fa2105d971","640759fa512f630a2bdc333d","6407b70dd9bef0f1fbc740ca","[140]","","","[3]","[143]","143","60","","[null]","[null]","[156]","0","0","1","0","149.55999999999767","1003.8800000000047","1000","[[[""img/mask64.png""]]]","","","main","60","color-precision2"
"","","","","","html-keyboard-response","147","414035","0.0-10.0-0.64","63368a7379eb43fa2105d971","640759fa512f630a2bdc333d","6407b70dd9bef0f1fbc740ca","null","","null","","","","","","","","","","","","","","","","","","","fixation","",""
"","","","","","color-precision2","148","417203","0.0-10.0-1.64-0.64","63368a7379eb43fa2105d971","640759fa512f630a2bdc333d","6407b70dd9bef0f1fbc740ca","[857]","","","[8]","[171]","171","310","129.58978485461267","[129.58978485461267]","[179.58978485461267]","[178]","0","0","1","0","149.03999999997905","1002.359999999986","1000","[[[""img/mask44.png""]]]","","","main","310","color-precision2"
"","","","","","html-keyboard-response","149","417708","0.0-10.0-0.65","63368a7379eb43fa2105d971","640759fa512f630a2bdc333d","6407b70dd9bef0f1fbc740ca","null","","null","","","","","","","","","","","","","","","","","","","fixation","",""
"","","","","","many-guess-6","150","420854","0.0-10.0-1.65-0.65","63368a7379eb43fa2105d971","640759fa512f630a2bdc333d","6407b70dd9bef0f1fbc740ca","[1593]","","","[25,31,14,29,27,3,18,2,11,33,7,4,26,17,10,23,20,30,35,15,24,9,19,0,22,16,32,8,5,21,12,13,1,6,34,28]","[337,18,68,248,8,347,128,268,78,288,48,307,258,38,28,198,228,208,297,327,138,168,108,118,188,218,178,98,357,148,317,88,58,278,158,238]","337","153","352.2705039825737","[352.2705039825737]","[199.2705039825737]","[198]","[300,30,120,120,30,300,300,210,120]","0","36","0","149.1599999999744","18.479999999981374","16","[[[""img/mask89.png""],[""img/mask45.png""],[""img/mask48.png""],[""img/mask80.png""],[""img/mask3.png""],[""img/mask26.png""],[""img/mask58.png""],[""img/mask76.png""],[""img/mask33.png""],[""img/mask59.png""],[""img/mask62.png""],[""img/mask51.png""],[""img/mask47.png""],[""img/mask94.png""],[""img/mask66.png""],[""img/mask24.png""],[""img/mask80.png""],[""img/mask3.png""],[""img/mask21.png""],[""img/mask39.png""],[""img/mask66.png""],[""img/mask71.png""],[""img/mask44.png""],[""img/mask81.png""],[""img/mask8.png""],[""img/mask60.png""],[""img/mask66.png""],[""img/mask79.png""],[""img/mask29.png""],[""img/mask51.png""],[""img/mask100.png""],[""img/mask94.png""],[""img/mask65.png""],[""img/mask61.png""],[""img/mask59.png""],[""img/mask88.png""]]]","","[25,31,14,29,27,3,18,2,11,33,7,4,26,17,10,23,20,30,35,15,24,9,19,0,22,16,32,8,5,21,12,13,1,6,34,28]","main","153","many-guess-6"
"","","","","","html-keyboard-response","151","421366","0.0-10.0-0.66","63368a7379eb43fa2105d971","640759fa512f630a2bdc333d","6407b70dd9bef0f1fbc740ca","null","","null","","","","","","","","","","","","","","","","","","","fixation","",""
"","","","","","color-precision2","152","424282","0.0-10.0-1.66-0.66","63368a7379eb43fa2105d971","640759fa512f630a2bdc333d","6407b70dd9bef0f1fbc740ca","[569]","","","[20]","[309]","309","239","187.4643892474523","[187.4643892474523]","[308.4643892474523]","[309]","0","0","1","0","148.85999999998603","993.179999999993","1000","[[[""img/mask100.png""]]]","","","main","239","color-precision2"
"","","","","","html-keyboard-response","153","424796","0.0-10.0-0.67","63368a7379eb43fa2105d971","640759fa512f630a2bdc333d","6407b70dd9bef0f1fbc740ca","null","","null","","","","","","","","","","","","","","","","","","","fixation","",""
"","","","","","many-guess-6","154","427495","0.0-10.0-1.67-0.67","63368a7379eb43fa2105d971","640759fa512f630a2bdc333d","6407b70dd9bef0f1fbc740ca","[1350]","","","[16,30,17,26,7,0,15,12,34,32,11,23,1,6,28,19,29,8,18,31,9,20,5,27,14,35,22,13,24,33,21,25,3,10,2,4]","[42,22,111,261,281,291,12,32,341,251,161,121,241,131,271,301,141,311,2,191,52,331,321,221,91,181,231,81,211,351,101,201,72,151,62,171]","42","275","171.99169640190692","[171.99169640190692]","[256.9916964019069]","[256]","[30,300,30,120,210,300,300,210,210]","0","36","0","149.61999999999534","11.940000000002328","16","[[[""img/mask29.png""],[""img/mask34.png""],[""img/mask1.png""],[""img/mask73.png""],[""img/mask33.png""],[""img/mask53.png""],[""img/mask41.png""],[""img/mask85.png""],[""img/mask1.png""],[""img/mask33.png""],[""img/mask10.png""],[""img/mask48.png""],[""img/mask49.png""],[""img/mask2.png""],[""img/mask11.png""],[""img/mask90.png""],[""img/mask48.png""],[""img/mask25.png""],[""img/mask77.png""],[""img/mask94.png""],[""img/mask70.png""],[""img/mask27.png""],[""img/mask63.png""],[""img/mask99.png""],[""img/mask34.png""],[""img/mask25.png""],[""img/mask5.png""],[""img/mask46.png""],[""img/mask6.png""],[""img/mask35.png""],[""img/mask28.png""],[""img/mask71.png""],[""img/mask45.png""],[""img/mask4.png""],[""img/mask56.png""],[""img/mask52.png""]]]","","[16,30,17,26,7,0,15,12,34,32,11,23,1,6,28,19,29,8,18,31,9,20,5,27,14,35,22,13,24,33,21,25,3,10,2,4]","main","275","many-guess-6"
"","","","","","html-keyboard-response","155","427999","0.0-10.0-0.68","63368a7379eb43fa2105d971","640759fa512f630a2bdc333d","6407b70dd9bef0f1fbc740ca","null","","null","","","","","","","","","","","","","","","","","","","fixation","",""
"","","","","","many-guess-6","156","431495","0.0-10.0-1.68-0.68","63368a7379eb43fa2105d971","640759fa512f630a2bdc333d","6407b70dd9bef0f1fbc740ca","[1966]","","","[12,19,23,6,1,32,28,33,16,14,15,24,30,13,20,0,10,21,9,5,3,17,35,31,26,18,25,8,2,7,27,34,22,11,4,29]","[254,45,324,314,224,114,194,84,174,25,164,294,55,15,154,274,264,214,144,124,284,64,104,134,5,344,184,234,334,304,35,204,354,244,74,94]","254","186","3.4093965343202766","[3.4093965343202766]","[177.40939653432028]","[176]","[210,120,120,120,120,120,120,210,30]","0","36","0","149.61999999999534","13.919999999983702","16","[[[""img/mask90.png""],[""img/mask34.png""],[""img/mask82.png""],[""img/mask56.png""],[""img/mask6.png""],[""img/mask3.png""],[""img/mask78.png""],[""img/mask35.png""],[""img/mask71.png""],[""img/mask79.png""],[""img/mask46.png""],[""img/mask9.png""],[""img/mask64.png""],[""img/mask16.png""],[""img/mask26.png""],[""img/mask41.png""],[""img/mask1.png""],[""img/mask20.png""],[""img/mask57.png""],[""img/mask89.png""],[""img/mask20.png""],[""img/mask17.png""],[""img/mask38.png""],[""img/mask91.png""],[""img/mask36.png""],[""img/mask50.png""],[""img/mask87.png""],[""img/mask54.png""],[""img/mask24.png""],[""img/mask19.png""],[""img/mask100.png""],[""img/mask66.png""],[""img/mask33.png""],[""img/mask15.png""],[""img/mask16.png""],[""img/mask77.png""]]]","","[12,19,23,6,1,32,28,33,16,14,15,24,30,13,20,0,10,21,9,5,3,17,35,31,26,18,25,8,2,7,27,34,22,11,4,29]","main","186","many-guess-6"
"","","","","","html-keyboard-response","157","431997","0.0-10.0-0.69","63368a7379eb43fa2105d971","640759fa512f630a2bdc333d","6407b70dd9bef0f1fbc740ca","null","","null","","","","","","","","","","","","","","","","","","","fixation","",""
"","","","","","many-guess-6","158","434936","0.0-10.0-1.69-0.69","63368a7379eb43fa2105d971","640759fa512f630a2bdc333d","6407b70dd9bef0f1fbc740ca","[1656]","","","[34,30,23,2,8,22,18,3,31,6,10,15,27,0,29,19,20,5,24,28,9,16,17,21,4,12,13,32,35,25,1,26,33,14,11,7]","[337,78,198,297,158,18,357,277,218,347,307,148,58,28,98,208,68,237,8,128,317,257,327,247,48,118,287,168,108,38,188,138,88,267,178,228]","337","333","81.688691670396","[81.688691670396]","[108.688691670396]","[108]","[30,120,120,300,30,30,30,120,120]","0","36","0","147.64000000001397","22.960000000020955","16","[[[""img/mask73.png""],[""img/mask42.png""],[""img/mask91.png""],[""img/mask93.png""],[""img/mask29.png""],[""img/mask47.png""],[""img/mask87.png""],[""img/mask62.png""],[""img/mask2.png""],[""img/mask77.png""],[""img/mask64.png""],[""img/mask77.png""],[""img/mask21.png""],[""img/mask47.png""],[""img/mask10.png""],[""img/mask50.png""],[""img/mask59.png""],[""img/mask100.png""],[""img/mask88.png""],[""img/mask32.png""],[""img/mask70.png""],[""img/mask83.png""],[""img/mask71.png""],[""img/mask19.png""],[""img/mask59.png""],[""img/mask1.png""],[""img/mask47.png""],[""img/mask4.png""],[""img/mask60.png""],[""img/mask62.png""],[""img/mask97.png""],[""img/mask98.png""],[""img/mask49.png""],[""img/mask98.png""],[""img/mask56.png""],[""img/mask87.png""]]]","","[34,30,23,2,8,22,18,3,31,6,10,15,27,0,29,19,20,5,24,28,9,16,17,21,4,12,13,32,35,25,1,26,33,14,11,7]","main","333","many-guess-6"
"","","","","","html-keyboard-response","159","435449","0.0-10.0-0.70","63368a7379eb43fa2105d971","640759fa512f630a2bdc333d","6407b70dd9bef0f1fbc740ca","null","","null","","","","","","","","","","","","","","","","","","","fixation","",""
"","","","","","many-guess-6","160","438234","0.0-10.0-1.70-0.70","63368a7379eb43fa2105d971","640759fa512f630a2bdc333d","6407b70dd9bef0f1fbc740ca","[1353]","","","[24,25,31,3,9,11,10,21,15,1,34,29,30,2,20,26,14,16,27,18,7,0,12,5,23,6,28,19,35,32,8,33,17,13,22,4]","[58,357,98,208,327,118,347,128,88,8,108,178,248,68,287,218,28,228,18,238,38,48,198,188,78,138,158,297,337,268,278,258,317,148,307,168]","58","334","218.0818158163344","[218.0818158163344]","[244.0818158163344]","[244]","[120,300,210,210,210,210,300,300,120]","0","36","0","149.64000000001397","26.05999999999767","16","[[[""img/mask38.png""],[""img/mask62.png""],[""img/mask31.png""],[""img/mask50.png""],[""img/mask55.png""],[""img/mask37.png""],[""img/mask76.png""],[""img/mask72.png""],[""img/mask34.png""],[""img/mask18.png""],[""img/mask76.png""],[""img/mask61.png""],[""img/mask86.png""],[""img/mask92.png""],[""img/mask90.png""],[""img/mask62.png""],[""img/mask87.png""],[""img/mask5.png""],[""img/mask64.png""],[""img/mask64.png""],[""img/mask32.png""],[""img/mask25.png""],[""img/mask48.png""],[""img/mask13.png""],[""img/mask41.png""],[""img/mask73.png""],[""img/mask74.png""],[""img/mask4.png""],[""img/mask45.png""],[""img/mask48.png""],[""img/mask71.png""],[""img/mask68.png""],[""img/mask11.png""],[""img/mask22.png""],[""img/mask55.png""],[""img/mask32.png""]]]","","[24,25,31,3,9,11,10,21,15,1,34,29,30,2,20,26,14,16,27,18,7,0,12,5,23,6,28,19,35,32,8,33,17,13,22,4]","main","334","many-guess-6"
"","","","","","html-keyboard-response","161","438737","0.0-10.0-0.71","63368a7379eb43fa2105d971","640759fa512f630a2bdc333d","6407b70dd9bef0f1fbc740ca","null","","null","","","","","","","","","","","","","","","","","","","fixation","",""
"","","","","","color-precision2","162","441354","0.0-10.0-1.71-0.71","63368a7379eb43fa2105d971","640759fa512f630a2bdc333d","6407b70dd9bef0f1fbc740ca","[140]","","","[4]","[149]","149","37","","[null]","[null]","[166]","0","0","1","0","148.55999999999767","994.8800000000047","1000","[[[""img/mask63.png""]]]","","","main","37","color-precision2"
"","","","","","html-keyboard-response","163","441859","0.0-10.0-0.72","63368a7379eb43fa2105d971","640759fa512f630a2bdc333d","6407b70dd9bef0f1fbc740ca","null","","null","","","","","","","","","","","","","","","","","","","fixation","",""
"","","","","","many-guess-6","164","444729","0.0-10.0-1.72-0.72","63368a7379eb43fa2105d971","640759fa512f630a2bdc333d","6407b70dd9bef0f1fbc740ca","[1498]","","","[13,5,9,21,27,7,18,17,0,24,23,11,19,6,10,1,35,26,22,32,3,25,28,33,8,34,31,15,30,4,14,20,2,12,29,16]","[158,38,337,288,218,188,58,347,98,78,208,228,68,168,118,108,18,8,308,258,138,48,298,128,248,88,148,328,178,238,198,318,268,357,28,278]","158","79","332.01040468064673","[332.01040468064673]","[253.01040468064673]","[253]","[30,210,30,300,30,30,210,120,210]","0","36","0","149.40000000002328","22.71999999997206","16","[[[""img/mask43.png""],[""img/mask22.png""],[""img/mask79.png""],[""img/mask73.png""],[""img/mask19.png""],[""img/mask60.png""],[""img/mask75.png""],[""img/mask72.png""],[""img/mask60.png""],[""img/mask24.png""],[""img/mask6.png""],[""img/mask38.png""],[""img/mask43.png""],[""img/mask95.png""],[""img/mask3.png""],[""img/mask4.png""],[""img/mask35.png""],[""img/mask48.png""],[""img/mask99.png""],[""img/mask32.png""],[""img/mask95.png""],[""img/mask10.png""],[""img/mask94.png""],[""img/mask35.png""],[""img/mask89.png""],[""img/mask37.png""],[""img/mask3.png""],[""img/mask46.png""],[""img/mask58.png""],[""img/mask74.png""],[""img/mask36.png""],[""img/mask13.png""],[""img/mask5.png""],[""img/mask94.png""],[""img/mask28.png""],[""img/mask34.png""]]]","","[13,5,9,21,27,7,18,17,0,24,23,11,19,6,10,1,35,26,22,32,3,25,28,33,8,34,31,15,30,4,14,20,2,12,29,16]","main","79","many-guess-6"
"","","","","","html-keyboard-response","165","445231","0.0-10.0-0.73","63368a7379eb43fa2105d971","640759fa512f630a2bdc333d","6407b70dd9bef0f1fbc740ca","null","","null","","","","","","","","","","","","","","","","","","","fixation","",""
"","","","","","color-precision2","166","447530","0.0-10.0-1.73-0.73","63368a7379eb43fa2105d971","640759fa512f630a2bdc333d","6407b70dd9bef0f1fbc740ca","[47]","","","[27]","[132]","132","190","","[null]","[null]","[133]","0","0","1","0","149.20000000001164","1007.5","1000","[[[""img/mask19.png""]]]","","","main","190","color-precision2"
"","","","","","html-keyboard-response","167","448032","0.0-10.0-0.74","63368a7379eb43fa2105d971","640759fa512f630a2bdc333d","6407b70dd9bef0f1fbc740ca","null","","null","","","","","","","","","","","","","","","","","","","fixation","",""
"","","","","","color-precision2","168","450486","0.0-10.0-1.74-0.74","63368a7379eb43fa2105d971","640759fa512f630a2bdc333d","6407b70dd9bef0f1fbc740ca","[69]","","","[5]","[59]","59","326","357.31302532569026","[357.31302532569026]","[31.313025325690262]","[30]","0","0","1","0","148.96000000002095","1006.2600000000093","1000","[[[""img/mask31.png""]]]","","","main","326","color-precision2"
"","","","","","html-keyboard-response","169","450990","0.0-10.0-0.75","63368a7379eb43fa2105d971","640759fa512f630a2bdc333d","6407b70dd9bef0f1fbc740ca","null","","null","","","","","","","","","","","","","","","","","","","fixation","",""
"","","","","","color-precision2","170","454185","0.0-10.0-1.75-0.75","63368a7379eb43fa2105d971","640759fa512f630a2bdc333d","6407b70dd9bef0f1fbc740ca","[435]","","","[12]","[98]","98","58","137.39192335010793","[137.39192335010793]","[79.39192335010793]","[78]","0","0","1","0","148.88000000000466","997.2000000000116","1000","[[[""img/mask1.png""]]]","","","main","58","color-precision2"
"","","","","","html-keyboard-response","171","454693","0.0-10.0-0.76","63368a7379eb43fa2105d971","640759fa512f630a2bdc333d","6407b70dd9bef0f1fbc740ca","null","","null","","","","","","","","","","","","","","","","","","","fixation","",""
"","","","","","color-precision2","172","457413","0.0-10.0-1.76-0.76","63368a7379eb43fa2105d971","640759fa512f630a2bdc333d","6407b70dd9bef0f1fbc740ca","[495]","","","[15]","[140]","140","336","128.74211347566992","[128.74211347566992]","[152.74211347566992]","[151]","0","0","1","0","149.03999999997905","994.359999999986","1000","[[[""img/mask13.png""]]]","","","main","336","color-precision2"
"","","","","","html-keyboard-response","173","457925","0.0-10.0-0.77","63368a7379eb43fa2105d971","640759fa512f630a2bdc333d","6407b70dd9bef0f1fbc740ca","null","","null","","","","","","","","","","","","","","","","","","","fixation","",""
"","","","","","color-precision2","174","460438","0.0-10.0-1.77-0.77","63368a7379eb43fa2105d971","640759fa512f630a2bdc333d","6407b70dd9bef0f1fbc740ca","[236]","","","[24]","[20]","20","261","288.3716643315323","[288.3716643315323]","[27.371664331532315]","[28]","0","0","1","0","148.82000000000698","1001.140000000014","1000","[[[""img/mask68.png""]]]","","","main","261","color-precision2"
"","","","","","html-keyboard-response","175","460953","0.0-10.0-0.78","63368a7379eb43fa2105d971","640759fa512f630a2bdc333d","6407b70dd9bef0f1fbc740ca","null","","null","","","","","","","","","","","","","","","","","","","fixation","",""
"","","","","","color-precision2","176","463890","0.0-10.0-1.78-0.78","63368a7379eb43fa2105d971","640759fa512f630a2bdc333d","6407b70dd9bef0f1fbc740ca","[555]","","","[6]","[129]","129","167","289.2108683212901","[289.2108683212901]","[122.21086832129009]","[122]","0","0","1","0","149.67999999999302","1004.0200000000186","1000","[[[""img/mask9.png""]]]","","","main","167","color-precision2"
"","","","","","html-keyboard-response","177","465594","0.0-10.0-0.79","63368a7379eb43fa2105d971","640759fa512f630a2bdc333d","6407b70dd9bef0f1fbc740ca","1704","Wow! You've completed 80 out of 180 trials! </p> <p>  </p><p> Take a quick break, then press any key when you're ready to continue."," ","","","","","","","","","","","","","","","","","","","fixation","",""
"","","","","","many-guess-6","178","468917","0.0-10.0-1.79-0.79","63368a7379eb43fa2105d971","640759fa512f630a2bdc333d","6407b70dd9bef0f1fbc740ca","[1414]","","","[5,34,13,21,29,4,0,23,27,9,3,28,8,11,20,19,16,33,2,25,35,7,26,22,14,15,30,10,1,31,24,17,18,12,6,32]","[274,124,284,214,154,54,174,234,74,294,204,244,304,4,14,314,184,84,34,164,94,144,104,134,324,353,194,64,254,333,24,114,343,44,224,264]","274","317","85.98473251411782","[85.98473251411782]","[128.9847325141178]","[127]","[30,300,30,300,120,210,30,210,120]","0","36","0","149","11.35999999998603","16","[[[""img/mask16.png""],[""img/mask10.png""],[""img/mask44.png""],[""img/mask28.png""],[""img/mask35.png""],[""img/mask70.png""],[""img/mask74.png""],[""img/mask23.png""],[""img/mask70.png""],[""img/mask85.png""],[""img/mask73.png""],[""img/mask16.png""],[""img/mask16.png""],[""img/mask17.png""],[""img/mask44.png""],[""img/mask74.png""],[""img/mask54.png""],[""img/mask25.png""],[""img/mask35.png""],[""img/mask87.png""],[""img/mask71.png""],[""img/mask51.png""],[""img/mask63.png""],[""img/mask29.png""],[""img/mask11.png""],[""img/mask45.png""],[""img/mask4.png""],[""img/mask62.png""],[""img/mask12.png""],[""img/mask25.png""],[""img/mask2.png""],[""img/mask100.png""],[""img/mask76.png""],[""img/mask92.png""],[""img/mask64.png""],[""img/mask85.png""]]]","","[5,34,13,21,29,4,0,23,27,9,3,28,8,11,20,19,16,33,2,25,35,7,26,22,14,15,30,10,1,31,24,17,18,12,6,32]","main","317","many-guess-6"
"","","","","","html-keyboard-response","179","469422","0.0-10.0-0.80","63368a7379eb43fa2105d971","640759fa512f630a2bdc333d","6407b70dd9bef0f1fbc740ca","null","","null","","","","","","","","","","","","","","","","","","","fixation","",""
"","","","","","many-guess-6","180","472220","0.0-10.0-1.80-0.80","63368a7379eb43fa2105d971","640759fa512f630a2bdc333d","6407b70dd9bef0f1fbc740ca","[1151]","","","[18,9,2,0,12,16,33,31,32,34,5,15,30,22,8,6,29,17,28,27,7,11,26,24,14,13,10,23,1,4,25,19,20,3,35,21]","[5,344,215,15,45,305,155,275,35,65,225,334,195,95,205,265,125,75,324,55,255,185,285,85,105,165,314,245,25,115,235,175,354,135,145,295]","5","285","328.22359866631757","[328.22359866631757]","[43.22359866631757]","[43]","[210,30,210,120,300,120,120,30,30]","0","36","0","149.21999999997206","24.580000000016298","16","[[[""img/mask56.png""],[""img/mask68.png""],[""img/mask38.png""],[""img/mask8.png""],[""img/mask98.png""],[""img/mask68.png""],[""img/mask51.png""],[""img/mask21.png""],[""img/mask39.png""],[""img/mask38.png""],[""img/mask28.png""],[""img/mask40.png""],[""img/mask4.png""],[""img/mask98.png""],[""img/mask91.png""],[""img/mask87.png""],[""img/mask62.png""],[""img/mask44.png""],[""img/mask56.png""],[""img/mask12.png""],[""img/mask43.png""],[""img/mask62.png""],[""img/mask25.png""],[""img/mask32.png""],[""img/mask71.png""],[""img/mask49.png""],[""img/mask91.png""],[""img/mask57.png""],[""img/mask78.png""],[""img/mask19.png""],[""img/mask77.png""],[""img/mask92.png""],[""img/mask48.png""],[""img/mask63.png""],[""img/mask53.png""],[""img/mask57.png""]]]","","[18,9,2,0,12,16,33,31,32,34,5,15,30,22,8,6,29,17,28,27,7,11,26,24,14,13,10,23,1,4,25,19,20,3,35,21]","main","285","many-guess-6"
"","","","","","html-keyboard-response","181","472735","0.0-10.0-0.81","63368a7379eb43fa2105d971","640759fa512f630a2bdc333d","6407b70dd9bef0f1fbc740ca","null","","null","","","","","","","","","","","","","","","","","","","fixation","",""
