"success","timeout","failed_images","failed_audio","failed_video","trial_type","trial_index","time_elapsed","internal_node_id","subject_id","study_id","session_id","rt","stimulus","response","position_of_items","colors_of_items","color_of_target","wheel_spin","response_angle","physical_response_angle","reported_color_angle","reported_color_discrete","locs","which_test","set_size","wheel_num_options","actual_mask_duration","actual_stim_duration","CMDispTime","maskArray","maskRotation","item_positions","task","randomSpinAmount","mainTask"
"true","false","[]","[]","[]","preload","0","1253","0.0-0.0","63b6c76ff03d438cd09b8c56","640759fa512f630a2bdc333d","640768c9734f4cbfa9f2c5b9","","","","","","","","","","","","","","","","","","","","","","","",""
"true","","","","","fullscreen","1","4179","0.0-1.0","63b6c76ff03d438cd09b8c56","640759fa512f630a2bdc333d","640768c9734f4cbfa9f2c5b9","","","","","","","","","","","","","","","","","","","","","","","",""
"","","","","","html-keyboard-response","2","60995","0.0-2.0","63b6c76ff03d438cd09b8c56","640759fa512f630a2bdc333d","640768c9734f4cbfa9f2c5b9","56813","What a beautiful Tuesday to do some awesome science! </p> <p>  </p><p> </p>
    By completing this survey or questionnaire, you are consenting to be in this research study. </p>
    Your participation is voluntary and you can stop at any time.<p> [Press any key to continue] </p>"," ","","","","","","","","","","","","","","","","","","","","",""
"","","","","","html-keyboard-response","3","71001","0.0-3.0","63b6c76ff03d438cd09b8c56","640759fa512f630a2bdc333d","640768c9734f4cbfa9f2c5b9","null","
    <div style='width: 1000px;'>
    <div style='float: center;'><img src='img/TaskInstructions1.png'></img>
    </div>
    ","null","","","","","","","","","","","","","","","","","","","","",""
"","","","","","html-keyboard-response","4","74496","0.0-4.0","63b6c76ff03d438cd09b8c56","640759fa512f630a2bdc333d","640768c9734f4cbfa9f2c5b9","3493","
    <div style='width: 1000px;'>
    <div style='float: center;'><img src='img/TaskInstructions1.png'></img>
    </div>
    "," ","","","","","","","","","","","","","","","","","","","","",""
"","","","","","html-keyboard-response","5","84505","0.0-5.0","63b6c76ff03d438cd09b8c56","640759fa512f630a2bdc333d","640768c9734f4cbfa9f2c5b9","null","
    <div style='width: 1000px;'>
    <div style='float: center;'><img src='img/TaskInstructions2.png'></img>
    </div>
    ","null","","","","","","","","","","","","","","","","","","","","",""
"","","","","","html-keyboard-response","6","103259","0.0-6.0","63b6c76ff03d438cd09b8c56","640759fa512f630a2bdc333d","640768c9734f4cbfa9f2c5b9","18752","
    <div style='width: 1000px;'>
    <div style='float: center;'><img src='img/TaskInstructions2.png'></img>
    </div>
    "," ","","","","","","","","","","","","","","","","","","","","",""
"","","","","","video-keyboard-response","7","124085","0.0-7.0","63b6c76ff03d438cd09b8c56","640759fa512f630a2bdc333d","640768c9734f4cbfa9f2c5b9","20778","[""video/TaskInstructions3.mp4""]"," ","","","","","","","","","","","","","","","","","","","","",""
"","","","","","image-keyboard-response","8","135300","0.0-8.0-0.0","63b6c76ff03d438cd09b8c56","640759fa512f630a2bdc333d","640768c9734f4cbfa9f2c5b9","11211","img/training1.png"," ","","","","","","","","","","","","","","","","","","","","",""
"","","","","","color-precision2","9","150867","0.0-8.0-1.0-0.0","63b6c76ff03d438cd09b8c56","640759fa512f630a2bdc333d","640768c9734f4cbfa9f2c5b9","[8112]","","","[33]","[41]","41","43","75.27658701022997","[75.27658701022997]","[32.276587010229974]","[31]","0","0","1","0","499.0199999999895","1000.7000000000116","1000","","","0","training","",""
"","","","","","image-keyboard-response","10","164611","0.0-8.0-0.1","63b6c76ff03d438cd09b8c56","640759fa512f630a2bdc333d","640768c9734f4cbfa9f2c5b9","13743","img/training2.png"," ","","","","","","","","","","","","","","","","","","","","",""
"","","","","","many-guess-6","11","177881","0.0-8.0-1.1-0.1","63b6c76ff03d438cd09b8c56","640759fa512f630a2bdc333d","640768c9734f4cbfa9f2c5b9","[7514]","","","[8,35,28]","[135,291,185]","135","3","123.2850174772396","[123.2850174772396]","[120.2850174772396]","[119]","[30,30,210,30,210,120,300,300,210,30,30,120,30,210,30,120,300,30,300,30,120,30,120,300,300,210,120,210,120,300,30,300,120,120,210,30]","0","3","0","998.2000000000116","1003.5400000000081","1000","[[[""img/mask98.png""],[""img/mask15.png""],[""img/mask27.png""]]]","","[8,35,28]","training","",""
"","","","","","image-keyboard-response","12","186644","0.0-8.0-0.2","63b6c76ff03d438cd09b8c56","640759fa512f630a2bdc333d","640768c9734f4cbfa9f2c5b9","8762","img/training3.png"," ","","","","","","","","","","","","","","","","","","","","",""
"","","","","","[""many-guess-6""]","13","197478","0.0-8.0-1.2-0.2","63b6c76ff03d438cd09b8c56","640759fa512f630a2bdc333d","640768c9734f4cbfa9f2c5b9","[5694]","","","[30,8,23,3,2]","[310,215,262,243,326]","310","314","223.80023556012642","[223.80023556012642]","[269.80023556012645]","[270]","[120,210,300,300,120,30,210,30,30,120,210,210,300,300,300,120,300,300,210,300,300,30,210,300,30,120,300,300,210,120,300,300,120,210,210,120]","0","5","0","499.20000000001164","502.88000000000466","500","[[[""img/mask83.png""],[""img/mask28.png""],[""img/mask17.png""],[""img/mask72.png""],[""img/mask4.png""]]]","","[30,8,23,3,2]","training","",""
"","","","","","image-keyboard-response","14","269516","0.0-8.0-0.3","63b6c76ff03d438cd09b8c56","640759fa512f630a2bdc333d","640768c9734f4cbfa9f2c5b9","72033","img/training4.png"," ","","","","","","","","","","","","","","","","","","","","",""
"","","","","","[""many-guess-6""]","15","276181","0.0-8.0-1.3-0.3","63b6c76ff03d438cd09b8c56","640759fa512f630a2bdc333d","640768c9734f4cbfa9f2c5b9","[3018]","","","[19,22,15,16,11,9,26,12,5,23]","[8,304,345,62,333,87,35,77,256,290]","8","83","187.4465252338632","[187.4465252338632]","[104.44652523386321]","[104]","[300,30,210,120,120,30,30,120,210,120,300,210,210,30,300,300,210,300,30,120,210,210,30,30,120,210,120,120,300,120,300,210,30,120,30,300]","0","10","0","132.96000000002095","137.46000000002095","132","[[[""img/mask34.png""],[""img/mask18.png""],[""img/mask2.png""],[""img/mask7.png""],[""img/mask52.png""],[""img/mask68.png""],[""img/mask76.png""],[""img/mask65.png""],[""img/mask86.png""],[""img/mask89.png""]]]","","[19,22,15,16,11,9,26,12,5,23]","training","",""
"","","","","","image-keyboard-response","16","281902","0.0-8.0-0.4","63b6c76ff03d438cd09b8c56","640759fa512f630a2bdc333d","640768c9734f4cbfa9f2c5b9","5720","img/training5.png"," ","","","","","","","","","","","","","","","","","","","","",""
"","","","","","[""many-guess-6""]","17","288177","0.0-8.0-1.4-0.4","63b6c76ff03d438cd09b8c56","640759fa512f630a2bdc333d","640768c9734f4cbfa9f2c5b9","[2777]","","","[11,18,33,21,7,13,2,10,8,27,14,12,4,26,3,20,28,16,22,35,31,9,19,6,29,25,23,24,32,17,1,15,34,0,5,30]","[11,270,240,181,340,290,51,121,31,330,320,161,230,91,200,41,151,191,280,350,310,141,71,210,300,81,131,260,21,111,1,250,61,101,220,171]","11","202","137.66562504586474","[137.66562504586474]","[295.6656250458648]","[294]","[120,210,210,120,120,300,300,30,210,30,120,30,120,300,120,210,120,210,120,30,300,300,210,120,120,120,30,300,300,120,30,300,30,120,210,300]","0","36","0","132.9199999999837","18.44000000000233","16","[[[""img/mask96.png""],[""img/mask1.png""],[""img/mask35.png""],[""img/mask52.png""],[""img/mask21.png""],[""img/mask71.png""],[""img/mask37.png""],[""img/mask45.png""],[""img/mask32.png""],[""img/mask46.png""],[""img/mask78.png""],[""img/mask15.png""],[""img/mask44.png""],[""img/mask30.png""],[""img/mask9.png""],[""img/mask84.png""],[""img/mask99.png""],[""img/mask76.png""],[""img/mask66.png""],[""img/mask67.png""],[""img/mask99.png""],[""img/mask48.png""],[""img/mask60.png""],[""img/mask31.png""],[""img/mask66.png""],[""img/mask62.png""],[""img/mask25.png""],[""img/mask99.png""],[""img/mask75.png""],[""img/mask36.png""],[""img/mask98.png""],[""img/mask11.png""],[""img/mask3.png""],[""img/mask42.png""],[""img/mask54.png""],[""img/mask69.png""]]]","","[11,18,33,21,7,13,2,10,8,27,14,12,4,26,3,20,28,16,22,35,31,9,19,6,29,25,23,24,32,17,1,15,34,0,5,30]","training","",""
"","","","","","image-keyboard-response","18","321645","0.0-9.0","63b6c76ff03d438cd09b8c56","640759fa512f630a2bdc333d","640768c9734f4cbfa9f2c5b9","33454","[""img/endTraining.png""]"," ","","","","","","","","","","","","","","","","","","","","",""
"","","","","","html-keyboard-response","19","322161","0.0-10.0-0.0","63b6c76ff03d438cd09b8c56","640759fa512f630a2bdc333d","640768c9734f4cbfa9f2c5b9","null","","null","","","","","","","","","","","","","","","","","","","fixation","",""
"","","","","","color-precision2","20","339057","0.0-10.0-1.0-0.0","63b6c76ff03d438cd09b8c56","640759fa512f630a2bdc333d","640768c9734f4cbfa9f2c5b9","[2925]","","","[18]","[0]","0","236","229.03463901498495","[229.03463901498495]","[353.0346390149849]","[353]","0","0","1","0","148.52000000001863","1005.0599999999977","1000","[[[""img/mask38.png""]]]","","","main","236","color-precision2"
"","","","","","html-keyboard-response","21","339571","0.0-10.0-0.1","63b6c76ff03d438cd09b8c56","640759fa512f630a2bdc333d","640768c9734f4cbfa9f2c5b9","null","","null","","","","","","","","","","","","","","","","","","","fixation","",""
"","","","","","color-precision2","22","345771","0.0-10.0-1.1-0.1","63b6c76ff03d438cd09b8c56","640759fa512f630a2bdc333d","640768c9734f4cbfa9f2c5b9","[2410]","","","[26]","[60]","60","180","237.7996783195806","[237.7996783195806]","[57.79967831958061]","[60]","0","0","1","0","148.0800000000163","1002.5999999999767","1000","[[[""img/mask77.png""]]]","","","main","180","color-precision2"
"","","","","","html-keyboard-response","23","346286","0.0-10.0-0.2","63b6c76ff03d438cd09b8c56","640759fa512f630a2bdc333d","640768c9734f4cbfa9f2c5b9","null","","null","","","","","","","","","","","","","","","","","","","fixation","",""
"","","","","","many-guess-6","24","352453","0.0-10.0-1.2-0.2","63b6c76ff03d438cd09b8c56","640759fa512f630a2bdc333d","640768c9734f4cbfa9f2c5b9","[3497]","","","[6,15,27,19,26,23,22,7,34,35,29,3,0,25,12,11,4,30,24,32,18,33,2,13,10,28,16,14,20,31,9,21,1,5,8,17]","[255,235,56,325,295,26,175,345,96,275,215,205,135,105,76,185,285,305,165,225,86,245,36,66,125,145,6,355,16,335,265,46,115,195,315,155]","255","218","39.34324003644513","[39.34324003644513]","[181.34324003644514]","[180]","[120,210,300,210,120,210,300,120,120]","0","36","0","149.78000000002794","35.73999999999069","16","[[[""img/mask43.png""],[""img/mask88.png""],[""img/mask23.png""],[""img/mask16.png""],[""img/mask35.png""],[""img/mask28.png""],[""img/mask48.png""],[""img/mask80.png""],[""img/mask73.png""],[""img/mask15.png""],[""img/mask18.png""],[""img/mask55.png""],[""img/mask79.png""],[""img/mask95.png""],[""img/mask39.png""],[""img/mask82.png""],[""img/mask98.png""],[""img/mask12.png""],[""img/mask27.png""],[""img/mask42.png""],[""img/mask93.png""],[""img/mask8.png""],[""img/mask5.png""],[""img/mask6.png""],[""img/mask100.png""],[""img/mask3.png""],[""img/mask100.png""],[""img/mask74.png""],[""img/mask85.png""],[""img/mask5.png""],[""img/mask55.png""],[""img/mask72.png""],[""img/mask9.png""],[""img/mask23.png""],[""img/mask65.png""],[""img/mask93.png""]]]","","[6,15,27,19,26,23,22,7,34,35,29,3,0,25,12,11,4,30,24,32,18,33,2,13,10,28,16,14,20,31,9,21,1,5,8,17]","main","218","many-guess-6"
"","","","","","html-keyboard-response","25","352964","0.0-10.0-0.3","63b6c76ff03d438cd09b8c56","640759fa512f630a2bdc333d","640768c9734f4cbfa9f2c5b9","null","","null","","","","","","","","","","","","","","","","","","","fixation","",""
"","","","","","color-precision2","26","359638","0.0-10.0-1.3-0.3","63b6c76ff03d438cd09b8c56","640759fa512f630a2bdc333d","640768c9734f4cbfa9f2c5b9","[3274]","","","[19]","[350]","350","132","126.63934058433821","[126.63934058433821]","[354.63934058433824]","[353]","0","0","1","0","149.38000000000466","1002.9199999999837","1000","[[[""img/mask99.png""]]]","","","main","132","color-precision2"
"","","","","","html-keyboard-response","27","360150","0.0-10.0-0.4","63b6c76ff03d438cd09b8c56","640759fa512f630a2bdc333d","640768c9734f4cbfa9f2c5b9","null","","null","","","","","","","","","","","","","","","","","","","fixation","",""
"","","","","","many-guess-6","28","366019","0.0-10.0-1.4-0.4","63b6c76ff03d438cd09b8c56","640759fa512f630a2bdc333d","640768c9734f4cbfa9f2c5b9","[3753]","","","[7,10,13,21,35,11,19,6,25,16,33,32,28,34,30,17,2,31,5,15,27,0,26,20,18,22,9,29,24,23,12,4,1,3,8,14]","[129,278,328,308,29,109,89,228,358,188,69,338,248,198,178,218,288,268,138,298,158,119,49,348,208,318,99,258,9,79,59,148,168,19,39,238]","129","251","284.6423192795168","[284.6423192795168]","[33.64231927951681]","[34]","[120,210,210,210,120,120,210,30,30]","0","36","0","150.35999999998603","19.44000000000233","16","[[[""img/mask80.png""],[""img/mask44.png""],[""img/mask44.png""],[""img/mask80.png""],[""img/mask49.png""],[""img/mask56.png""],[""img/mask24.png""],[""img/mask82.png""],[""img/mask89.png""],[""img/mask2.png""],[""img/mask13.png""],[""img/mask54.png""],[""img/mask100.png""],[""img/mask24.png""],[""img/mask47.png""],[""img/mask2.png""],[""img/mask11.png""],[""img/mask54.png""],[""img/mask77.png""],[""img/mask5.png""],[""img/mask16.png""],[""img/mask86.png""],[""img/mask25.png""],[""img/mask11.png""],[""img/mask70.png""],[""img/mask83.png""],[""img/mask68.png""],[""img/mask31.png""],[""img/mask14.png""],[""img/mask55.png""],[""img/mask65.png""],[""img/mask12.png""],[""img/mask7.png""],[""img/mask38.png""],[""img/mask85.png""],[""img/mask97.png""]]]","","[7,10,13,21,35,11,19,6,25,16,33,32,28,34,30,17,2,31,5,15,27,0,26,20,18,22,9,29,24,23,12,4,1,3,8,14]","main","251","many-guess-6"
"","","","","","html-keyboard-response","29","366525","0.0-10.0-0.5","63b6c76ff03d438cd09b8c56","640759fa512f630a2bdc333d","640768c9734f4cbfa9f2c5b9","null","","null","","","","","","","","","","","","","","","","","","","fixation","",""
"","","","","","color-precision2","30","372512","0.0-10.0-1.5-0.5","63b6c76ff03d438cd09b8c56","640759fa512f630a2bdc333d","640768c9734f4cbfa9f2c5b9","[2632]","","","[14]","[57]","57","274","321.0589855311718","[321.0589855311718]","[47.0589855311718]","[47]","0","0","1","0","149.5800000000163","1002.679999999993","1000","[[[""img/mask88.png""]]]","","","main","274","color-precision2"
"","","","","","html-keyboard-response","31","373025","0.0-10.0-0.6","63b6c76ff03d438cd09b8c56","640759fa512f630a2bdc333d","640768c9734f4cbfa9f2c5b9","null","","null","","","","","","","","","","","","","","","","","","","fixation","",""
"","","","","","many-guess-6","32","379581","0.0-10.0-1.6-0.6","63b6c76ff03d438cd09b8c56","640759fa512f630a2bdc333d","640768c9734f4cbfa9f2c5b9","[4638]","","","[34,4,15,32,16,23,2,12,30,33,21,7,35,29,10,13,31,18,27,19,24,25,28,3,5,11,9,14,17,0,22,6,20,26,1,8]","[11,250,170,340,350,320,310,280,290,270,160,240,200,70,21,130,190,50,210,100,90,40,220,110,330,150,80,60,30,260,230,1,300,140,120,180]","11","63","286.4090220117653","[286.4090220117653]","[223.40902201176527]","[224]","[120,120,300,300,210,30,120,210,210]","0","36","0","148.79999999998836","19.239999999990687","16","[[[""img/mask56.png""],[""img/mask89.png""],[""img/mask86.png""],[""img/mask98.png""],[""img/mask18.png""],[""img/mask2.png""],[""img/mask36.png""],[""img/mask78.png""],[""img/mask76.png""],[""img/mask53.png""],[""img/mask49.png""],[""img/mask33.png""],[""img/mask45.png""],[""img/mask81.png""],[""img/mask37.png""],[""img/mask42.png""],[""img/mask29.png""],[""img/mask76.png""],[""img/mask4.png""],[""img/mask45.png""],[""img/mask67.png""],[""img/mask91.png""],[""img/mask4.png""],[""img/mask49.png""],[""img/mask70.png""],[""img/mask26.png""],[""img/mask45.png""],[""img/mask80.png""],[""img/mask20.png""],[""img/mask12.png""],[""img/mask17.png""],[""img/mask78.png""],[""img/mask39.png""],[""img/mask57.png""],[""img/mask74.png""],[""img/mask54.png""]]]","","[34,4,15,32,16,23,2,12,30,33,21,7,35,29,10,13,31,18,27,19,24,25,28,3,5,11,9,14,17,0,22,6,20,26,1,8]","main","63","many-guess-6"
"","","","","","html-keyboard-response","33","380083","0.0-10.0-0.7","63b6c76ff03d438cd09b8c56","640759fa512f630a2bdc333d","640768c9734f4cbfa9f2c5b9","null","","null","","","","","","","","","","","","","","","","","","","fixation","",""
"","","","","","color-precision2","34","386203","0.0-10.0-1.7-0.7","63b6c76ff03d438cd09b8c56","640759fa512f630a2bdc333d","640768c9734f4cbfa9f2c5b9","[1830]","","","[34]","[325]","325","269","230.69445595211204","[230.69445595211204]","[321.69445595211204]","[322]","0","0","1","0","148.61999999999534","1003.0599999999977","1000","[[[""img/mask30.png""]]]","","","main","269","color-precision2"
"","","","","","html-keyboard-response","35","386707","0.0-10.0-0.8","63b6c76ff03d438cd09b8c56","640759fa512f630a2bdc333d","640768c9734f4cbfa9f2c5b9","null","","null","","","","","","","","","","","","","","","","","","","fixation","",""
"","","","","","many-guess-6","36","394319","0.0-10.0-1.8-0.8","63b6c76ff03d438cd09b8c56","640759fa512f630a2bdc333d","640768c9734f4cbfa9f2c5b9","[5542]","","","[28,4,29,31,26,20,15,9,8,7,6,11,21,27,18,2,30,23,22,25,16,1,19,34,32,24,5,0,33,12,14,10,3,13,17,35]","[306,316,345,156,146,286,216,196,325,206,26,76,106,186,256,136,355,176,36,86,296,16,276,56,46,6,96,236,66,335,116,226,266,246,166,126]","306","94","178.7640369225342","[178.7640369225342]","[84.76403692253419]","[84]","[120,120,300,30,120,30,30,210,210]","0","36","0","149.9199999999837","19.820000000006985","16","[[[""img/mask26.png""],[""img/mask57.png""],[""img/mask38.png""],[""img/mask92.png""],[""img/mask64.png""],[""img/mask67.png""],[""img/mask21.png""],[""img/mask16.png""],[""img/mask98.png""],[""img/mask28.png""],[""img/mask10.png""],[""img/mask46.png""],[""img/mask44.png""],[""img/mask36.png""],[""img/mask60.png""],[""img/mask25.png""],[""img/mask70.png""],[""img/mask6.png""],[""img/mask13.png""],[""img/mask3.png""],[""img/mask39.png""],[""img/mask10.png""],[""img/mask26.png""],[""img/mask5.png""],[""img/mask61.png""],[""img/mask21.png""],[""img/mask1.png""],[""img/mask15.png""],[""img/mask77.png""],[""img/mask46.png""],[""img/mask23.png""],[""img/mask49.png""],[""img/mask33.png""],[""img/mask84.png""],[""img/mask22.png""],[""img/mask83.png""]]]","","[28,4,29,31,26,20,15,9,8,7,6,11,21,27,18,2,30,23,22,25,16,1,19,34,32,24,5,0,33,12,14,10,3,13,17,35]","main","94","many-guess-6"
"","","","","","html-keyboard-response","37","394828","0.0-10.0-0.9","63b6c76ff03d438cd09b8c56","640759fa512f630a2bdc333d","640768c9734f4cbfa9f2c5b9","null","","null","","","","","","","","","","","","","","","","","","","fixation","",""
"","","","","","color-precision2","38","402706","0.0-10.0-1.9-0.9","63b6c76ff03d438cd09b8c56","640759fa512f630a2bdc333d","640768c9734f4cbfa9f2c5b9","[3876]","","","[20]","[269]","269","115","19.622433730940102","[19.622433730940102]","[264.6224337309401]","[263]","0","0","1","0","149.02000000001863","1002.9799999999814","1000","[[[""img/mask68.png""]]]","","","main","115","color-precision2"
"","","","","","html-keyboard-response","39","403213","0.0-10.0-0.10","63b6c76ff03d438cd09b8c56","640759fa512f630a2bdc333d","640768c9734f4cbfa9f2c5b9","null","","null","","","","","","","","","","","","","","","","","","","fixation","",""
"","","","","","many-guess-6","40","410375","0.0-10.0-1.10-0.10","63b6c76ff03d438cd09b8c56","640759fa512f630a2bdc333d","640768c9734f4cbfa9f2c5b9","[4549]","","","[10,2,23,19,15,32,24,13,21,7,28,12,9,14,3,29,11,6,20,8,18,34,25,35,17,31,1,16,30,0,27,26,5,33,4,22]","[344,105,304,125,195,75,314,85,55,334,255,215,324,284,225,35,25,95,45,354,145,265,165,274,175,155,15,235,294,135,65,115,5,245,185,205]","344","259","46.20872080180216","[46.20872080180216]","[147.20872080180214]","[146]","[120,30,300,300,210,210,210,30,30]","0","36","0","149.14000000001397","20.71999999997206","16","[[[""img/mask73.png""],[""img/mask24.png""],[""img/mask27.png""],[""img/mask100.png""],[""img/mask59.png""],[""img/mask38.png""],[""img/mask24.png""],[""img/mask89.png""],[""img/mask10.png""],[""img/mask74.png""],[""img/mask12.png""],[""img/mask68.png""],[""img/mask3.png""],[""img/mask88.png""],[""img/mask52.png""],[""img/mask76.png""],[""img/mask17.png""],[""img/mask39.png""],[""img/mask20.png""],[""img/mask87.png""],[""img/mask97.png""],[""img/mask78.png""],[""img/mask74.png""],[""img/mask43.png""],[""img/mask39.png""],[""img/mask79.png""],[""img/mask51.png""],[""img/mask24.png""],[""img/mask8.png""],[""img/mask73.png""],[""img/mask99.png""],[""img/mask62.png""],[""img/mask32.png""],[""img/mask39.png""],[""img/mask84.png""],[""img/mask20.png""]]]","","[10,2,23,19,15,32,24,13,21,7,28,12,9,14,3,29,11,6,20,8,18,34,25,35,17,31,1,16,30,0,27,26,5,33,4,22]","main","259","many-guess-6"
"","","","","","html-keyboard-response","41","410885","0.0-10.0-0.11","63b6c76ff03d438cd09b8c56","640759fa512f630a2bdc333d","640768c9734f4cbfa9f2c5b9","null","","null","","","","","","","","","","","","","","","","","","","fixation","",""
"","","","","","many-guess-6","42","421091","0.0-10.0-1.11-0.11","63b6c76ff03d438cd09b8c56","640759fa512f630a2bdc333d","640768c9734f4cbfa9f2c5b9","[2399]","","","[34,22,26,7,33,19,20,14,21,15,8,0,27,23,9,17,28,35,5,30,25,32,6,12,13,11,10,3,24,4,16,18,2,31,1,29]","[155,324,304,194,125,264,115,5,185,284,165,344,35,55,234,45,254,25,314,65,354,85,274,145,95,175,75,135,15,244,214,204,224,334,105,294]","155","80","202.52516084502608","[202.52516084502608]","[122.52516084502608]","[123]","[210,30,30,210,120,210,30,300,30]","0","36","0","150.02000000001863","19.119999999995343","16","[[[""img/mask84.png""],[""img/mask21.png""],[""img/mask68.png""],[""img/mask86.png""],[""img/mask21.png""],[""img/mask91.png""],[""img/mask63.png""],[""img/mask34.png""],[""img/mask96.png""],[""img/mask39.png""],[""img/mask67.png""],[""img/mask27.png""],[""img/mask5.png""],[""img/mask61.png""],[""img/mask54.png""],[""img/mask52.png""],[""img/mask34.png""],[""img/mask76.png""],[""img/mask76.png""],[""img/mask61.png""],[""img/mask41.png""],[""img/mask38.png""],[""img/mask54.png""],[""img/mask49.png""],[""img/mask39.png""],[""img/mask48.png""],[""img/mask65.png""],[""img/mask69.png""],[""img/mask61.png""],[""img/mask19.png""],[""img/mask8.png""],[""img/mask3.png""],[""img/mask54.png""],[""img/mask16.png""],[""img/mask72.png""],[""img/mask93.png""]]]","","[34,22,26,7,33,19,20,14,21,15,8,0,27,23,9,17,28,35,5,30,25,32,6,12,13,11,10,3,24,4,16,18,2,31,1,29]","main","80","many-guess-6"
"","","","","","html-keyboard-response","43","421592","0.0-10.0-0.12","63b6c76ff03d438cd09b8c56","640759fa512f630a2bdc333d","640768c9734f4cbfa9f2c5b9","null","","null","","","","","","","","","","","","","","","","","","","fixation","",""
"","","","","","color-precision2","44","426078","0.0-10.0-1.12-0.12","63b6c76ff03d438cd09b8c56","640759fa512f630a2bdc333d","640768c9734f4cbfa9f2c5b9","[1721]","","","[1]","[162]","162","120","284.7735657880786","[284.7735657880786]","[164.7735657880786]","[165]","0","0","1","0","149.40000000002328","1002.179999999993","1000","[[[""img/mask46.png""]]]","","","main","120","color-precision2"
"","","","","","html-keyboard-response","45","426587","0.0-10.0-0.13","63b6c76ff03d438cd09b8c56","640759fa512f630a2bdc333d","640768c9734f4cbfa9f2c5b9","null","","null","","","","","","","","","","","","","","","","","","","fixation","",""
"","","","","","many-guess-6","46","434020","0.0-10.0-1.13-0.13","63b6c76ff03d438cd09b8c56","640759fa512f630a2bdc333d","640768c9734f4cbfa9f2c5b9","[5568]","","","[33,9,17,11,4,31,23,16,1,14,30,28,10,26,6,13,32,18,29,27,15,34,8,12,22,20,24,19,5,35,2,21,3,7,25,0]","[279,349,189,159,70,209,359,269,219,229,259,319,199,20,169,289,110,309,239,130,249,40,329,10,120,149,30,90,299,60,80,100,50,139,179,339]","279","203","214.60412852266757","[214.60412852266757]","[11.604128522667565]","[11]","[120,30,300,120,300,30,300,300,300]","0","36","0","149.5","18.599999999976717","16","[[[""img/mask40.png""],[""img/mask19.png""],[""img/mask60.png""],[""img/mask46.png""],[""img/mask90.png""],[""img/mask23.png""],[""img/mask23.png""],[""img/mask63.png""],[""img/mask68.png""],[""img/mask92.png""],[""img/mask69.png""],[""img/mask9.png""],[""img/mask52.png""],[""img/mask50.png""],[""img/mask63.png""],[""img/mask18.png""],[""img/mask47.png""],[""img/mask14.png""],[""img/mask96.png""],[""img/mask69.png""],[""img/mask35.png""],[""img/mask79.png""],[""img/mask98.png""],[""img/mask13.png""],[""img/mask76.png""],[""img/mask11.png""],[""img/mask34.png""],[""img/mask21.png""],[""img/mask39.png""],[""img/mask63.png""],[""img/mask66.png""],[""img/mask7.png""],[""img/mask35.png""],[""img/mask50.png""],[""img/mask86.png""],[""img/mask55.png""]]]","","[33,9,17,11,4,31,23,16,1,14,30,28,10,26,6,13,32,18,29,27,15,34,8,12,22,20,24,19,5,35,2,21,3,7,25,0]","main","203","many-guess-6"
"","","","","","html-keyboard-response","47","434520","0.0-10.0-0.14","63b6c76ff03d438cd09b8c56","640759fa512f630a2bdc333d","640768c9734f4cbfa9f2c5b9","null","","null","","","","","","","","","","","","","","","","","","","fixation","",""
"","","","","","many-guess-6","48","446444","0.0-10.0-1.14-0.14","63b6c76ff03d438cd09b8c56","640759fa512f630a2bdc333d","640768c9734f4cbfa9f2c5b9","[3254]","","","[21,35,13,23,10,30,31,1,16,34,26,14,3,20,6,25,9,2,28,33,4,8,15,27,11,22,24,18,0,7,12,32,29,19,17,5]","[2,202,12,112,222,301,22,341,72,251,32,261,142,242,52,172,162,42,331,321,232,192,62,351,281,311,82,92,132,182,152,271,102,212,122,291]","2","35","354.94719948388985","[354.94719948388985]","[319.94719948388985]","[319]","[120,120,120,300,30,30,30,30,30]","0","36","0","149.70000000001164","36.78000000002794","16","[[[""img/mask70.png""],[""img/mask51.png""],[""img/mask66.png""],[""img/mask70.png""],[""img/mask59.png""],[""img/mask6.png""],[""img/mask75.png""],[""img/mask80.png""],[""img/mask79.png""],[""img/mask57.png""],[""img/mask65.png""],[""img/mask78.png""],[""img/mask2.png""],[""img/mask33.png""],[""img/mask31.png""],[""img/mask86.png""],[""img/mask84.png""],[""img/mask94.png""],[""img/mask36.png""],[""img/mask67.png""],[""img/mask41.png""],[""img/mask8.png""],[""img/mask18.png""],[""img/mask41.png""],[""img/mask99.png""],[""img/mask67.png""],[""img/mask34.png""],[""img/mask22.png""],[""img/mask6.png""],[""img/mask47.png""],[""img/mask2.png""],[""img/mask48.png""],[""img/mask11.png""],[""img/mask89.png""],[""img/mask52.png""],[""img/mask33.png""]]]","","[21,35,13,23,10,30,31,1,16,34,26,14,3,20,6,25,9,2,28,33,4,8,15,27,11,22,24,18,0,7,12,32,29,19,17,5]","main","35","many-guess-6"
"","","","","","html-keyboard-response","49","446951","0.0-10.0-0.15","63b6c76ff03d438cd09b8c56","640759fa512f630a2bdc333d","640768c9734f4cbfa9f2c5b9","null","","null","","","","","","","","","","","","","","","","","","","fixation","",""
"","","","","","many-guess-6","50","452268","0.0-10.0-1.15-0.15","63b6c76ff03d438cd09b8c56","640759fa512f630a2bdc333d","640768c9734f4cbfa9f2c5b9","[2729]","","","[11,23,9,8,3,30,18,0,26,34,5,7,16,1,12,33,6,4,14,22,32,31,28,15,21,29,20,10,19,24,35,2,13,17,27,25]","[322,223,53,283,33,93,253,23,113,3,233,133,83,73,123,263,303,243,183,153,173,103,163,352,293,143,342,193,203,213,313,332,273,13,43,63]","322","46","137.5286044417692","[137.5286044417692]","[91.5286044417692]","[90]","[30,210,120,300,120,120,120,120,120]","0","36","0","149.64000000001397","19.619999999995343","16","[[[""img/mask13.png""],[""img/mask96.png""],[""img/mask52.png""],[""img/mask12.png""],[""img/mask89.png""],[""img/mask79.png""],[""img/mask63.png""],[""img/mask35.png""],[""img/mask39.png""],[""img/mask18.png""],[""img/mask23.png""],[""img/mask9.png""],[""img/mask11.png""],[""img/mask77.png""],[""img/mask15.png""],[""img/mask78.png""],[""img/mask53.png""],[""img/mask91.png""],[""img/mask13.png""],[""img/mask97.png""],[""img/mask43.png""],[""img/mask48.png""],[""img/mask28.png""],[""img/mask53.png""],[""img/mask73.png""],[""img/mask83.png""],[""img/mask53.png""],[""img/mask65.png""],[""img/mask66.png""],[""img/mask69.png""],[""img/mask9.png""],[""img/mask28.png""],[""img/mask17.png""],[""img/mask72.png""],[""img/mask74.png""],[""img/mask47.png""]]]","","[11,23,9,8,3,30,18,0,26,34,5,7,16,1,12,33,6,4,14,22,32,31,28,15,21,29,20,10,19,24,35,2,13,17,27,25]","main","46","many-guess-6"
"","","","","","html-keyboard-response","51","452784","0.0-10.0-0.16","63b6c76ff03d438cd09b8c56","640759fa512f630a2bdc333d","640768c9734f4cbfa9f2c5b9","null","","null","","","","","","","","","","","","","","","","","","","fixation","",""
"","","","","","many-guess-6","52","460923","0.0-10.0-1.16-0.16","63b6c76ff03d438cd09b8c56","640759fa512f630a2bdc333d","640768c9734f4cbfa9f2c5b9","[3553]","","","[20,3,18,33,19,14,32,13,8,23,9,1,31,10,11,17,4,29,25,27,15,0,7,28,35,26,16,5,2,34,22,30,24,21,12,6]","[149,268,119,278,208,129,348,49,238,338,218,19,59,298,159,288,228,318,69,139,248,9,199,169,189,99,109,179,258,29,328,308,39,89,358,79]","149","331","161.7876722960227","[161.7876722960227]","[190.7876722960227]","[190]","[30,120,300,30,120,30,300,120,210]","0","36","0","150.11999999999534","18.039999999979045","16","[[[""img/mask30.png""],[""img/mask21.png""],[""img/mask72.png""],[""img/mask55.png""],[""img/mask85.png""],[""img/mask62.png""],[""img/mask5.png""],[""img/mask66.png""],[""img/mask79.png""],[""img/mask61.png""],[""img/mask75.png""],[""img/mask40.png""],[""img/mask34.png""],[""img/mask33.png""],[""img/mask43.png""],[""img/mask8.png""],[""img/mask77.png""],[""img/mask93.png""],[""img/mask10.png""],[""img/mask78.png""],[""img/mask50.png""],[""img/mask72.png""],[""img/mask31.png""],[""img/mask20.png""],[""img/mask67.png""],[""img/mask67.png""],[""img/mask49.png""],[""img/mask69.png""],[""img/mask66.png""],[""img/mask14.png""],[""img/mask51.png""],[""img/mask79.png""],[""img/mask18.png""],[""img/mask47.png""],[""img/mask94.png""],[""img/mask7.png""]]]","","[20,3,18,33,19,14,32,13,8,23,9,1,31,10,11,17,4,29,25,27,15,0,7,28,35,26,16,5,2,34,22,30,24,21,12,6]","main","331","many-guess-6"
"","","","","","html-keyboard-response","53","461423","0.0-10.0-0.17","63b6c76ff03d438cd09b8c56","640759fa512f630a2bdc333d","640768c9734f4cbfa9f2c5b9","null","","null","","","","","","","","","","","","","","","","","","","fixation","",""
"","","","","","many-guess-6","54","467120","0.0-10.0-1.17-0.17","63b6c76ff03d438cd09b8c56","640759fa512f630a2bdc333d","640768c9734f4cbfa9f2c5b9","[3565]","","","[4,31,3,6,13,2,35,9,12,5,0,17,29,33,10,7,26,8,16,32,28,18,20,34,23,1,30,15,24,22,14,27,25,21,11,19]","[282,13,292,173,23,242,163,332,93,33,143,193,342,103,312,43,3,232,322,183,272,212,133,113,153,63,203,73,222,252,83,302,262,352,123,53]","282","325","335.2359656017629","[335.2359656017629]","[10.235965601762928]","[10]","[30,30,210,30,120,210,210,120,300]","0","36","0","149.70000000001164","35.679999999993015","16","[[[""img/mask96.png""],[""img/mask62.png""],[""img/mask84.png""],[""img/mask94.png""],[""img/mask84.png""],[""img/mask67.png""],[""img/mask15.png""],[""img/mask100.png""],[""img/mask34.png""],[""img/mask22.png""],[""img/mask81.png""],[""img/mask98.png""],[""img/mask17.png""],[""img/mask68.png""],[""img/mask93.png""],[""img/mask27.png""],[""img/mask40.png""],[""img/mask71.png""],[""img/mask59.png""],[""img/mask17.png""],[""img/mask2.png""],[""img/mask66.png""],[""img/mask75.png""],[""img/mask87.png""],[""img/mask65.png""],[""img/mask99.png""],[""img/mask90.png""],[""img/mask75.png""],[""img/mask62.png""],[""img/mask62.png""],[""img/mask1.png""],[""img/mask11.png""],[""img/mask23.png""],[""img/mask4.png""],[""img/mask24.png""],[""img/mask94.png""]]]","","[4,31,3,6,13,2,35,9,12,5,0,17,29,33,10,7,26,8,16,32,28,18,20,34,23,1,30,15,24,22,14,27,25,21,11,19]","main","325","many-guess-6"
"","","","","","html-keyboard-response","55","467624","0.0-10.0-0.18","63b6c76ff03d438cd09b8c56","640759fa512f630a2bdc333d","640768c9734f4cbfa9f2c5b9","null","","null","","","","","","","","","","","","","","","","","","","fixation","",""
"","","","","","many-guess-6","56","472592","0.0-10.0-1.18-0.18","63b6c76ff03d438cd09b8c56","640759fa512f630a2bdc333d","640768c9734f4cbfa9f2c5b9","[3065]","","","[27,30,15,32,16,18,34,3,22,19,23,4,31,11,14,0,10,2,6,13,5,28,25,35,21,29,12,20,7,24,26,9,1,17,33,8]","[341,152,241,52,72,321,122,22,162,231,281,32,112,102,182,132,331,291,301,62,42,142,92,172,12,211,82,221,271,191,261,2,311,251,351,201]","341","84","196.88069824266515","[196.88069824266515]","[112.88069824266515]","[113]","[300,210,30,300,300,300,30,300,300]","0","36","0","149.5800000000163","17.979999999981374","16","[[[""img/mask95.png""],[""img/mask92.png""],[""img/mask70.png""],[""img/mask49.png""],[""img/mask51.png""],[""img/mask37.png""],[""img/mask81.png""],[""img/mask54.png""],[""img/mask2.png""],[""img/mask93.png""],[""img/mask27.png""],[""img/mask80.png""],[""img/mask93.png""],[""img/mask50.png""],[""img/mask83.png""],[""img/mask85.png""],[""img/mask45.png""],[""img/mask51.png""],[""img/mask82.png""],[""img/mask40.png""],[""img/mask26.png""],[""img/mask70.png""],[""img/mask86.png""],[""img/mask14.png""],[""img/mask26.png""],[""img/mask44.png""],[""img/mask49.png""],[""img/mask19.png""],[""img/mask26.png""],[""img/mask32.png""],[""img/mask59.png""],[""img/mask65.png""],[""img/mask80.png""],[""img/mask70.png""],[""img/mask58.png""],[""img/mask7.png""]]]","","[27,30,15,32,16,18,34,3,22,19,23,4,31,11,14,0,10,2,6,13,5,28,25,35,21,29,12,20,7,24,26,9,1,17,33,8]","main","84","many-guess-6"
"","","","","","html-keyboard-response","57","493968","0.0-10.0-0.19","63b6c76ff03d438cd09b8c56","640759fa512f630a2bdc333d","640768c9734f4cbfa9f2c5b9","21375","Wow! You've completed 20 out of 180 trials! </p> <p>  </p><p> Take a quick break, then press any key when you're ready to continue."," ","","","","","","","","","","","","","","","","","","","fixation","",""
"","","","","","color-precision2","58","499522","0.0-10.0-1.19-0.19","63b6c76ff03d438cd09b8c56","640759fa512f630a2bdc333d","640768c9734f4cbfa9f2c5b9","[2112]","","","[22]","[89]","89","115","211.86133709409987","[211.86133709409987]","[96.86133709409987]","[97]","0","0","1","0","149.61999999999534","1004.4799999999814","1000","[[[""img/mask50.png""]]]","","","main","115","color-precision2"
"","","","","","html-keyboard-response","59","500029","0.0-10.0-0.20","63b6c76ff03d438cd09b8c56","640759fa512f630a2bdc333d","640768c9734f4cbfa9f2c5b9","null","","null","","","","","","","","","","","","","","","","","","","fixation","",""
"","","","","","many-guess-6","60","504919","0.0-10.0-1.20-0.20","63b6c76ff03d438cd09b8c56","640759fa512f630a2bdc333d","640768c9734f4cbfa9f2c5b9","[2775]","","","[20,33,21,7,13,17,1,12,3,30,35,2,14,32,15,29,4,23,26,25,16,5,28,19,9,24,22,6,11,31,27,10,8,18,34,0]","[347,18,98,208,238,138,38,88,308,8,228,68,258,178,188,28,288,198,48,108,118,338,328,268,278,318,248,158,128,58,357,148,168,218,78,298]","347","134","82.08673246203409","[82.08673246203409]","[308.0867324620341]","[306]","[120,120,120,30,30,300,210,300,120]","0","36","0","149.03999999997905","19.400000000023283","16","[[[""img/mask57.png""],[""img/mask94.png""],[""img/mask73.png""],[""img/mask23.png""],[""img/mask33.png""],[""img/mask91.png""],[""img/mask41.png""],[""img/mask57.png""],[""img/mask73.png""],[""img/mask61.png""],[""img/mask88.png""],[""img/mask9.png""],[""img/mask37.png""],[""img/mask75.png""],[""img/mask40.png""],[""img/mask31.png""],[""img/mask31.png""],[""img/mask60.png""],[""img/mask70.png""],[""img/mask25.png""],[""img/mask66.png""],[""img/mask81.png""],[""img/mask18.png""],[""img/mask27.png""],[""img/mask82.png""],[""img/mask97.png""],[""img/mask99.png""],[""img/mask84.png""],[""img/mask75.png""],[""img/mask60.png""],[""img/mask85.png""],[""img/mask62.png""],[""img/mask93.png""],[""img/mask92.png""],[""img/mask100.png""],[""img/mask99.png""]]]","","[20,33,21,7,13,17,1,12,3,30,35,2,14,32,15,29,4,23,26,25,16,5,28,19,9,24,22,6,11,31,27,10,8,18,34,0]","main","134","many-guess-6"
"","","","","","html-keyboard-response","61","505432","0.0-10.0-0.21","63b6c76ff03d438cd09b8c56","640759fa512f630a2bdc333d","640768c9734f4cbfa9f2c5b9","null","","null","","","","","","","","","","","","","","","","","","","fixation","",""
"","","","","","color-precision2","62","510806","0.0-10.0-1.21-0.21","63b6c76ff03d438cd09b8c56","640759fa512f630a2bdc333d","640768c9734f4cbfa9f2c5b9","[2541]","","","[4]","[41]","41","93","120.69523780154351","[120.69523780154351]","[27.695237801543513]","[26]","0","0","1","0","149.64000000001397","1001.7199999999721","1000","[[[""img/mask9.png""]]]","","","main","93","color-precision2"
"","","","","","html-keyboard-response","63","511308","0.0-10.0-0.22","63b6c76ff03d438cd09b8c56","640759fa512f630a2bdc333d","640768c9734f4cbfa9f2c5b9","null","","null","","","","","","","","","","","","","","","","","","","fixation","",""
"","","","","","color-precision2","64","517178","0.0-10.0-1.22-0.22","63b6c76ff03d438cd09b8c56","640759fa512f630a2bdc333d","640768c9734f4cbfa9f2c5b9","[2036]","","","[15]","[114]","114","336","95.84462485202089","[95.84462485202089]","[119.8446248520209]","[118]","0","0","1","0","148.94000000000233","1003.5999999999767","1000","[[[""img/mask74.png""]]]","","","main","336","color-precision2"
"","","","","","html-keyboard-response","65","517691","0.0-10.0-0.23","63b6c76ff03d438cd09b8c56","640759fa512f630a2bdc333d","640768c9734f4cbfa9f2c5b9","null","","null","","","","","","","","","","","","","","","","","","","fixation","",""
"","","","","","many-guess-6","66","522879","0.0-10.0-1.23-0.23","63b6c76ff03d438cd09b8c56","640759fa512f630a2bdc333d","640768c9734f4cbfa9f2c5b9","[2650]","","","[7,4,28,3,16,12,33,0,35,13,5,29,20,23,17,9,2,18,25,30,14,27,31,24,1,19,34,32,26,15,22,11,10,21,6,8]","[326,355,136,286,336,36,236,156,166,266,246,46,206,76,106,86,346,296,146,6,196,216,306,16,276,126,66,186,256,26,56,316,176,226,96,116]","326","176","159.37132259316382","[159.37132259316382]","[343.3713225931638]","[342]","[300,120,300,210,300,300,30,120,300]","0","36","0","148.82000000000698","19.78000000002794","16","[[[""img/mask40.png""],[""img/mask14.png""],[""img/mask60.png""],[""img/mask68.png""],[""img/mask9.png""],[""img/mask73.png""],[""img/mask10.png""],[""img/mask80.png""],[""img/mask30.png""],[""img/mask67.png""],[""img/mask89.png""],[""img/mask64.png""],[""img/mask86.png""],[""img/mask27.png""],[""img/mask18.png""],[""img/mask44.png""],[""img/mask16.png""],[""img/mask84.png""],[""img/mask61.png""],[""img/mask28.png""],[""img/mask76.png""],[""img/mask19.png""],[""img/mask90.png""],[""img/mask88.png""],[""img/mask42.png""],[""img/mask94.png""],[""img/mask92.png""],[""img/mask57.png""],[""img/mask85.png""],[""img/mask88.png""],[""img/mask88.png""],[""img/mask92.png""],[""img/mask90.png""],[""img/mask86.png""],[""img/mask33.png""],[""img/mask5.png""]]]","","[7,4,28,3,16,12,33,0,35,13,5,29,20,23,17,9,2,18,25,30,14,27,31,24,1,19,34,32,26,15,22,11,10,21,6,8]","main","176","many-guess-6"
"","","","","","html-keyboard-response","67","523394","0.0-10.0-0.24","63b6c76ff03d438cd09b8c56","640759fa512f630a2bdc333d","640768c9734f4cbfa9f2c5b9","null","","null","","","","","","","","","","","","","","","","","","","fixation","",""
"","","","","","color-precision2","68","528848","0.0-10.0-1.24-0.24","63b6c76ff03d438cd09b8c56","640759fa512f630a2bdc333d","640768c9734f4cbfa9f2c5b9","[2458]","","","[9]","[139]","139","159","293.870688881996","[293.870688881996]","[134.870688881996]","[135]","0","0","1","0","150.64000000001397","1001.7199999999721","1000","[[[""img/mask97.png""]]]","","","main","159","color-precision2"
"","","","","","html-keyboard-response","69","529359","0.0-10.0-0.25","63b6c76ff03d438cd09b8c56","640759fa512f630a2bdc333d","640768c9734f4cbfa9f2c5b9","null","","null","","","","","","","","","","","","","","","","","","","fixation","",""
"","","","","","color-precision2","70","535206","0.0-10.0-1.25-0.25","63b6c76ff03d438cd09b8c56","640759fa512f630a2bdc333d","640768c9734f4cbfa9f2c5b9","[2559]","","","[22]","[269]","269","238","154.64965819812716","[154.64965819812716]","[276.64965819812716]","[276]","0","0","1","0","148.54000000003725","1003.3000000000466","1000","[[[""img/mask47.png""]]]","","","main","238","color-precision2"
"","","","","","html-keyboard-response","71","535722","0.0-10.0-0.26","63b6c76ff03d438cd09b8c56","640759fa512f630a2bdc333d","640768c9734f4cbfa9f2c5b9","null","","null","","","","","","","","","","","","","","","","","","","fixation","",""
"","","","","","color-precision2","72","540496","0.0-10.0-1.26-0.26","63b6c76ff03d438cd09b8c56","640759fa512f630a2bdc333d","640768c9734f4cbfa9f2c5b9","[1501]","","","[9]","[88]","88","32","129.80382882053308","[129.80382882053308]","[97.80382882053308]","[96]","0","0","1","0","150.02000000001863","1001.0799999999581","1000","[[[""img/mask14.png""]]]","","","main","32","color-precision2"
"","","","","","html-keyboard-response","73","541000","0.0-10.0-0.27","63b6c76ff03d438cd09b8c56","640759fa512f630a2bdc333d","640768c9734f4cbfa9f2c5b9","null","","null","","","","","","","","","","","","","","","","","","","fixation","",""
"","","","","","many-guess-6","74","549966","0.0-10.0-1.27-0.27","63b6c76ff03d438cd09b8c56","640759fa512f630a2bdc333d","640768c9734f4cbfa9f2c5b9","[2528]","","","[25,2,34,30,19,22,0,26,27,7,35,8,20,4,24,29,23,3,31,14,13,15,12,28,9,33,10,32,6,5,21,1,16,18,17,11]","[25,215,55,185,15,115,165,245,75,354,345,175,205,65,35,325,225,145,305,45,135,315,265,295,105,95,195,155,125,5,285,235,335,275,255,85]","25","58","293.47891821167474","[293.47891821167474]","[235.47891821167474]","[236]","[210,120,300,210,30,210,120,120,300]","0","36","0","149.81999999994878","37.59999999997672","16","[[[""img/mask70.png""],[""img/mask26.png""],[""img/mask75.png""],[""img/mask2.png""],[""img/mask73.png""],[""img/mask53.png""],[""img/mask51.png""],[""img/mask69.png""],[""img/mask14.png""],[""img/mask89.png""],[""img/mask62.png""],[""img/mask11.png""],[""img/mask45.png""],[""img/mask28.png""],[""img/mask82.png""],[""img/mask72.png""],[""img/mask4.png""],[""img/mask83.png""],[""img/mask58.png""],[""img/mask71.png""],[""img/mask77.png""],[""img/mask50.png""],[""img/mask25.png""],[""img/mask21.png""],[""img/mask85.png""],[""img/mask13.png""],[""img/mask66.png""],[""img/mask50.png""],[""img/mask53.png""],[""img/mask32.png""],[""img/mask80.png""],[""img/mask96.png""],[""img/mask66.png""],[""img/mask14.png""],[""img/mask40.png""],[""img/mask68.png""]]]","","[25,2,34,30,19,22,0,26,27,7,35,8,20,4,24,29,23,3,31,14,13,15,12,28,9,33,10,32,6,5,21,1,16,18,17,11]","main","58","many-guess-6"
"","","","","","html-keyboard-response","75","550473","0.0-10.0-0.28","63b6c76ff03d438cd09b8c56","640759fa512f630a2bdc333d","640768c9734f4cbfa9f2c5b9","null","","null","","","","","","","","","","","","","","","","","","","fixation","",""
"","","","","","color-precision2","76","556044","0.0-10.0-1.28-0.28","63b6c76ff03d438cd09b8c56","640759fa512f630a2bdc333d","640768c9734f4cbfa9f2c5b9","[2608]","","","[31]","[257]","257","105","349.5254108109438","[349.5254108109438]","[244.5254108109438]","[244]","0","0","1","0","148.7399999999907","1003.5999999999767","1000","[[[""img/mask48.png""]]]","","","main","105","color-precision2"
"","","","","","html-keyboard-response","77","556555","0.0-10.0-0.29","63b6c76ff03d438cd09b8c56","640759fa512f630a2bdc333d","640768c9734f4cbfa9f2c5b9","null","","null","","","","","","","","","","","","","","","","","","","fixation","",""
"","","","","","color-precision2","78","562100","0.0-10.0-1.29-0.29","63b6c76ff03d438cd09b8c56","640759fa512f630a2bdc333d","640768c9734f4cbfa9f2c5b9","[2062]","","","[25]","[136]","136","268","53.20328873934066","[53.20328873934066]","[145.20328873934065]","[143]","0","0","1","0","148.19999999995343","1005.1600000000326","1000","[[[""img/mask85.png""]]]","","","main","268","color-precision2"
"","","","","","html-keyboard-response","79","562610","0.0-10.0-0.30","63b6c76ff03d438cd09b8c56","640759fa512f630a2bdc333d","640768c9734f4cbfa9f2c5b9","null","","null","","","","","","","","","","","","","","","","","","","fixation","",""
"","","","","","many-guess-6","80","569275","0.0-10.0-1.30-0.30","63b6c76ff03d438cd09b8c56","640759fa512f630a2bdc333d","640768c9734f4cbfa9f2c5b9","[4604]","","","[2,11,25,21,9,8,20,6,28,27,33,26,22,4,31,32,30,5,34,15,10,23,19,16,24,13,18,17,12,14,0,3,35,1,29,7]","[243,64,233,263,14,343,303,34,94,4,313,213,183,273,333,123,84,44,203,323,143,133,283,353,113,153,74,173,193,293,104,163,223,24,253,54]","243","325","207.84482923935687","[207.84482923935687]","[242.84482923935687]","[243]","[120,120,300,210,210,30,120,120,30]","0","36","0","149.90000000002328","36.88000000000466","16","[[[""img/mask76.png""],[""img/mask82.png""],[""img/mask55.png""],[""img/mask91.png""],[""img/mask47.png""],[""img/mask49.png""],[""img/mask35.png""],[""img/mask49.png""],[""img/mask61.png""],[""img/mask84.png""],[""img/mask85.png""],[""img/mask59.png""],[""img/mask100.png""],[""img/mask58.png""],[""img/mask6.png""],[""img/mask92.png""],[""img/mask85.png""],[""img/mask100.png""],[""img/mask61.png""],[""img/mask43.png""],[""img/mask44.png""],[""img/mask100.png""],[""img/mask9.png""],[""img/mask90.png""],[""img/mask13.png""],[""img/mask64.png""],[""img/mask16.png""],[""img/mask43.png""],[""img/mask27.png""],[""img/mask34.png""],[""img/mask67.png""],[""img/mask54.png""],[""img/mask48.png""],[""img/mask19.png""],[""img/mask31.png""],[""img/mask93.png""]]]","","[2,11,25,21,9,8,20,6,28,27,33,26,22,4,31,32,30,5,34,15,10,23,19,16,24,13,18,17,12,14,0,3,35,1,29,7]","main","325","many-guess-6"
"","","","","","html-keyboard-response","81","569777","0.0-10.0-0.31","63b6c76ff03d438cd09b8c56","640759fa512f630a2bdc333d","640768c9734f4cbfa9f2c5b9","null","","null","","","","","","","","","","","","","","","","","","","fixation","",""
"","","","","","color-precision2","82","575441","0.0-10.0-1.31-0.31","63b6c76ff03d438cd09b8c56","640759fa512f630a2bdc333d","640768c9734f4cbfa9f2c5b9","[2482]","","","[34]","[241]","241","6","241.98283700314425","[241.98283700314425]","[235.98283700314425]","[236]","0","0","1","0","149.71999999997206","1004.3199999999488","1000","[[[""img/mask38.png""]]]","","","main","6","color-precision2"
"","","","","","html-keyboard-response","83","575944","0.0-10.0-0.32","63b6c76ff03d438cd09b8c56","640759fa512f630a2bdc333d","640768c9734f4cbfa9f2c5b9","null","","null","","","","","","","","","","","","","","","","","","","fixation","",""
"","","","","","color-precision2","84","581631","0.0-10.0-1.32-0.32","63b6c76ff03d438cd09b8c56","640759fa512f630a2bdc333d","640768c9734f4cbfa9f2c5b9","[2936]","","","[1]","[149]","149","159","303.67219319501334","[303.67219319501334]","[144.67219319501334]","[145]","0","0","1","0","149.43999999994412","1002.3000000000466","1000","[[[""img/mask15.png""]]]","","","main","159","color-precision2"
"","","","","","html-keyboard-response","85","582141","0.0-10.0-0.33","63b6c76ff03d438cd09b8c56","640759fa512f630a2bdc333d","640768c9734f4cbfa9f2c5b9","null","","null","","","","","","","","","","","","","","","","","","","fixation","",""
"","","","","","color-precision2","86","586768","0.0-10.0-1.33-0.33","63b6c76ff03d438cd09b8c56","640759fa512f630a2bdc333d","640768c9734f4cbfa9f2c5b9","[1805]","","","[30]","[184]","184","230","63.328015829509766","[63.328015829509766]","[193.32801582950975]","[191]","0","0","1","0","150.38000000000466","1002.4599999999627","1000","[[[""img/mask15.png""]]]","","","main","230","color-precision2"
"","","","","","html-keyboard-response","87","587282","0.0-10.0-0.34","63b6c76ff03d438cd09b8c56","640759fa512f630a2bdc333d","640768c9734f4cbfa9f2c5b9","null","","null","","","","","","","","","","","","","","","","","","","fixation","",""
"","","","","","color-precision2","88","592523","0.0-10.0-1.34-0.34","63b6c76ff03d438cd09b8c56","640759fa512f630a2bdc333d","640768c9734f4cbfa9f2c5b9","[1900]","","","[7]","[227]","227","191","60.575261063276436","[60.575261063276436]","[229.57526106327643]","[228]","0","0","1","0","148.52000000001863","1002.5600000000559","1000","[[[""img/mask93.png""]]]","","","main","191","color-precision2"
"","","","","","html-keyboard-response","89","593029","0.0-10.0-0.35","63b6c76ff03d438cd09b8c56","640759fa512f630a2bdc333d","640768c9734f4cbfa9f2c5b9","null","","null","","","","","","","","","","","","","","","","","","","fixation","",""
"","","","","","many-guess-6","90","598401","0.0-10.0-1.35-0.35","63b6c76ff03d438cd09b8c56","640759fa512f630a2bdc333d","640768c9734f4cbfa9f2c5b9","[3488]","","","[0,28,15,19,35,18,31,14,33,2,17,20,24,11,3,22,9,26,4,12,27,10,13,7,34,5,25,8,16,30,1,6,21,29,23,32]","[79,109,199,229,39,348,259,129,149,189,159,119,99,209,298,358,169,318,308,249,278,269,139,59,328,9,29,49,89,338,288,19,179,239,219,69]","79","235","4.137926624008605","[4.137926624008605]","[129.1379266240086]","[128]","[210,120,120,120,30,300,300,210,30]","0","36","0","148.93999999994412","36.18000000005122","16","[[[""img/mask4.png""],[""img/mask1.png""],[""img/mask10.png""],[""img/mask71.png""],[""img/mask91.png""],[""img/mask10.png""],[""img/mask76.png""],[""img/mask62.png""],[""img/mask75.png""],[""img/mask12.png""],[""img/mask25.png""],[""img/mask99.png""],[""img/mask36.png""],[""img/mask7.png""],[""img/mask40.png""],[""img/mask91.png""],[""img/mask13.png""],[""img/mask41.png""],[""img/mask37.png""],[""img/mask30.png""],[""img/mask32.png""],[""img/mask44.png""],[""img/mask27.png""],[""img/mask96.png""],[""img/mask62.png""],[""img/mask14.png""],[""img/mask32.png""],[""img/mask29.png""],[""img/mask20.png""],[""img/mask51.png""],[""img/mask49.png""],[""img/mask10.png""],[""img/mask41.png""],[""img/mask7.png""],[""img/mask63.png""],[""img/mask85.png""]]]","","[0,28,15,19,35,18,31,14,33,2,17,20,24,11,3,22,9,26,4,12,27,10,13,7,34,5,25,8,16,30,1,6,21,29,23,32]","main","235","many-guess-6"
"","","","","","html-keyboard-response","91","598913","0.0-10.0-0.36","63b6c76ff03d438cd09b8c56","640759fa512f630a2bdc333d","640768c9734f4cbfa9f2c5b9","null","","null","","","","","","","","","","","","","","","","","","","fixation","",""
"","","","","","many-guess-6","92","606604","0.0-10.0-1.36-0.36","63b6c76ff03d438cd09b8c56","640759fa512f630a2bdc333d","640768c9734f4cbfa9f2c5b9","[5035]","","","[4,9,17,30,3,12,20,14,34,2,19,6,21,5,33,13,23,1,11,7,29,31,15,35,25,27,10,8,32,22,0,24,26,28,18,16]","[236,27,326,87,57,187,336,306,196,316,77,37,346,276,177,167,157,97,356,147,117,226,256,137,286,216,67,246,47,296,206,7,17,266,107,127]","236","19","338.65555167306474","[338.65555167306474]","[319.65555167306474]","[320]","[210,300,30,30,120,120,30,300,300]","0","36","0","149.54000000003725","36.68000000005122","16","[[[""img/mask65.png""],[""img/mask92.png""],[""img/mask17.png""],[""img/mask100.png""],[""img/mask2.png""],[""img/mask4.png""],[""img/mask17.png""],[""img/mask96.png""],[""img/mask24.png""],[""img/mask71.png""],[""img/mask35.png""],[""img/mask29.png""],[""img/mask48.png""],[""img/mask71.png""],[""img/mask93.png""],[""img/mask88.png""],[""img/mask59.png""],[""img/mask88.png""],[""img/mask69.png""],[""img/mask25.png""],[""img/mask48.png""],[""img/mask4.png""],[""img/mask92.png""],[""img/mask97.png""],[""img/mask99.png""],[""img/mask79.png""],[""img/mask41.png""],[""img/mask45.png""],[""img/mask64.png""],[""img/mask82.png""],[""img/mask21.png""],[""img/mask73.png""],[""img/mask74.png""],[""img/mask96.png""],[""img/mask66.png""],[""img/mask34.png""]]]","","[4,9,17,30,3,12,20,14,34,2,19,6,21,5,33,13,23,1,11,7,29,31,15,35,25,27,10,8,32,22,0,24,26,28,18,16]","main","19","many-guess-6"
"","","","","","html-keyboard-response","93","607116","0.0-10.0-0.37","63b6c76ff03d438cd09b8c56","640759fa512f630a2bdc333d","640768c9734f4cbfa9f2c5b9","null","","null","","","","","","","","","","","","","","","","","","","fixation","",""
"","","","","","many-guess-6","94","616467","0.0-10.0-1.37-0.37","63b6c76ff03d438cd09b8c56","640759fa512f630a2bdc333d","640768c9734f4cbfa9f2c5b9","[4896]","","","[1,33,0,9,23,10,28,17,5,11,15,24,31,4,25,12,19,3,13,21,32,6,35,18,29,20,14,26,22,2,27,7,8,30,34,16]","[194,5,234,114,264,164,174,304,314,144,25,35,184,204,134,354,45,75,65,154,284,214,324,274,15,85,95,244,344,334,124,254,294,105,55,224]","194","355","153.6287450288202","[153.6287450288202]","[158.6287450288202]","[157]","[120,300,120,120,300,30,210,30,210]","0","36","0","150.28000000002794","20.300000000046566","16","[[[""img/mask73.png""],[""img/mask46.png""],[""img/mask48.png""],[""img/mask33.png""],[""img/mask13.png""],[""img/mask58.png""],[""img/mask81.png""],[""img/mask57.png""],[""img/mask96.png""],[""img/mask82.png""],[""img/mask35.png""],[""img/mask56.png""],[""img/mask62.png""],[""img/mask61.png""],[""img/mask53.png""],[""img/mask64.png""],[""img/mask20.png""],[""img/mask30.png""],[""img/mask87.png""],[""img/mask43.png""],[""img/mask48.png""],[""img/mask75.png""],[""img/mask61.png""],[""img/mask69.png""],[""img/mask43.png""],[""img/mask45.png""],[""img/mask11.png""],[""img/mask79.png""],[""img/mask83.png""],[""img/mask19.png""],[""img/mask44.png""],[""img/mask76.png""],[""img/mask52.png""],[""img/mask26.png""],[""img/mask80.png""],[""img/mask63.png""]]]","","[1,33,0,9,23,10,28,17,5,11,15,24,31,4,25,12,19,3,13,21,32,6,35,18,29,20,14,26,22,2,27,7,8,30,34,16]","main","355","many-guess-6"
"","","","","","html-keyboard-response","95","616974","0.0-10.0-0.38","63b6c76ff03d438cd09b8c56","640759fa512f630a2bdc333d","640768c9734f4cbfa9f2c5b9","null","","null","","","","","","","","","","","","","","","","","","","fixation","",""
"","","","","","color-precision2","96","622021","0.0-10.0-1.38-0.38","63b6c76ff03d438cd09b8c56","640759fa512f630a2bdc333d","640768c9734f4cbfa9f2c5b9","[1970]","","","[24]","[19]","19","283","281.5645019603753","[281.5645019603753]","[358.5645019603753]","[359]","0","0","1","0","149","1007.5200000000186","1000","[[[""img/mask3.png""]]]","","","main","283","color-precision2"
"","","","","","html-keyboard-response","97","634298","0.0-10.0-0.39","63b6c76ff03d438cd09b8c56","640759fa512f630a2bdc333d","640768c9734f4cbfa9f2c5b9","12276","Wow! You've completed 40 out of 180 trials! </p> <p>  </p><p> Take a quick break, then press any key when you're ready to continue."," ","","","","","","","","","","","","","","","","","","","fixation","",""
"","","","","","color-precision2","98","640153","0.0-10.0-1.39-0.39","63b6c76ff03d438cd09b8c56","640759fa512f630a2bdc333d","640768c9734f4cbfa9f2c5b9","[2155]","","","[11]","[187]","187","252","87.9206177442261","[87.9206177442261]","[195.9206177442261]","[194]","0","0","1","0","148.38000000000466","1003.3000000000466","1000","[[[""img/mask65.png""]]]","","","main","252","color-precision2"
"","","","","","html-keyboard-response","99","640656","0.0-10.0-0.40","63b6c76ff03d438cd09b8c56","640759fa512f630a2bdc333d","640768c9734f4cbfa9f2c5b9","null","","null","","","","","","","","","","","","","","","","","","","fixation","",""
"","","","","","color-precision2","100","647982","0.0-10.0-1.40-0.40","63b6c76ff03d438cd09b8c56","640759fa512f630a2bdc333d","640768c9734f4cbfa9f2c5b9","[1705]","","","[19]","[207]","207","131","327.00615480489915","[327.00615480489915]","[196.00615480489915]","[196]","0","0","1","0","148.95999999996275","1003.6199999999953","1000","[[[""img/mask51.png""]]]","","","main","131","color-precision2"
"","","","","","html-keyboard-response","101","648485","0.0-10.0-0.41","63b6c76ff03d438cd09b8c56","640759fa512f630a2bdc333d","640768c9734f4cbfa9f2c5b9","null","","null","","","","","","","","","","","","","","","","","","","fixation","",""
"","","","","","color-precision2","102","654698","0.0-10.0-1.41-0.41","63b6c76ff03d438cd09b8c56","640759fa512f630a2bdc333d","640768c9734f4cbfa9f2c5b9","[2205]","","","[7]","[328]","328","49","37.30608909686911","[37.30608909686911]","[348.30608909686913]","[347]","0","0","1","0","149.61999999999534","1003.2600000000093","1000","[[[""img/mask65.png""]]]","","","main","49","color-precision2"
"","","","","","html-keyboard-response","103","655214","0.0-10.0-0.42","63b6c76ff03d438cd09b8c56","640759fa512f630a2bdc333d","640768c9734f4cbfa9f2c5b9","null","","null","","","","","","","","","","","","","","","","","","","fixation","",""
"","","","","","many-guess-6","104","659668","0.0-10.0-1.42-0.42","63b6c76ff03d438cd09b8c56","640759fa512f630a2bdc333d","640768c9734f4cbfa9f2c5b9","[2558]","","","[29,4,30,28,7,26,6,13,1,10,11,2,31,25,12,8,20,14,16,0,32,27,23,21,22,24,35,15,5,17,3,34,9,33,18,19]","[82,62,292,352,212,242,102,222,92,52,252,232,322,142,312,342,112,12,182,162,72,202,152,262,32,122,22,132,332,192,3,42,172,272,302,282]","82","167","346.2314113909043","[346.2314113909043]","[179.23141139090433]","[179]","[210,210,120,30,30,30,120,30,120]","0","36","0","148.45999999996275","18.57999999995809","16","[[[""img/mask9.png""],[""img/mask73.png""],[""img/mask99.png""],[""img/mask80.png""],[""img/mask81.png""],[""img/mask51.png""],[""img/mask20.png""],[""img/mask85.png""],[""img/mask23.png""],[""img/mask78.png""],[""img/mask83.png""],[""img/mask61.png""],[""img/mask5.png""],[""img/mask17.png""],[""img/mask37.png""],[""img/mask7.png""],[""img/mask37.png""],[""img/mask45.png""],[""img/mask80.png""],[""img/mask49.png""],[""img/mask91.png""],[""img/mask9.png""],[""img/mask35.png""],[""img/mask83.png""],[""img/mask7.png""],[""img/mask70.png""],[""img/mask21.png""],[""img/mask19.png""],[""img/mask46.png""],[""img/mask70.png""],[""img/mask72.png""],[""img/mask7.png""],[""img/mask75.png""],[""img/mask12.png""],[""img/mask80.png""],[""img/mask15.png""]]]","","[29,4,30,28,7,26,6,13,1,10,11,2,31,25,12,8,20,14,16,0,32,27,23,21,22,24,35,15,5,17,3,34,9,33,18,19]","main","167","many-guess-6"
"","","","","","html-keyboard-response","105","660178","0.0-10.0-0.43","63b6c76ff03d438cd09b8c56","640759fa512f630a2bdc333d","640768c9734f4cbfa9f2c5b9","null","","null","","","","","","","","","","","","","","","","","","","fixation","",""
"","","","","","color-precision2","106","664625","0.0-10.0-1.43-0.43","63b6c76ff03d438cd09b8c56","640759fa512f630a2bdc333d","640768c9734f4cbfa9f2c5b9","[1695]","","","[1]","[215]","215","49","262.3658760606191","[262.3658760606191]","[213.3658760606191]","[215]","0","0","1","0","148.71999999997206","1002.5799999999581","1000","[[[""img/mask85.png""]]]","","","main","49","color-precision2"
"","","","","","html-keyboard-response","107","665136","0.0-10.0-0.44","63b6c76ff03d438cd09b8c56","640759fa512f630a2bdc333d","640768c9734f4cbfa9f2c5b9","null","","null","","","","","","","","","","","","","","","","","","","fixation","",""
"","","","","","color-precision2","108","669367","0.0-10.0-1.44-0.44","63b6c76ff03d438cd09b8c56","640759fa512f630a2bdc333d","640768c9734f4cbfa9f2c5b9","[1365]","","","[18]","[77]","77","2","80.6972307324408","[80.6972307324408]","[78.6972307324408]","[77]","0","0","1","0","149.35999999998603","1001.8399999999674","1000","[[[""img/mask66.png""]]]","","","main","2","color-precision2"
"","","","","","html-keyboard-response","109","669871","0.0-10.0-0.45","63b6c76ff03d438cd09b8c56","640759fa512f630a2bdc333d","640768c9734f4cbfa9f2c5b9","null","","null","","","","","","","","","","","","","","","","","","","fixation","",""
"","","","","","color-precision2","110","675517","0.0-10.0-1.45-0.45","63b6c76ff03d438cd09b8c56","640759fa512f630a2bdc333d","640768c9734f4cbfa9f2c5b9","[2673]","","","[19]","[76]","76","240","310.47774046215716","[310.47774046215716]","[70.47774046215716]","[70]","0","0","1","0","149.6600000000326","1004.140000000014","1000","[[[""img/mask53.png""]]]","","","main","240","color-precision2"
"","","","","","html-keyboard-response","111","676031","0.0-10.0-0.46","63b6c76ff03d438cd09b8c56","640759fa512f630a2bdc333d","640768c9734f4cbfa9f2c5b9","null","","null","","","","","","","","","","","","","","","","","","","fixation","",""
"","","","","","color-precision2","112","680538","0.0-10.0-1.46-0.46","63b6c76ff03d438cd09b8c56","640759fa512f630a2bdc333d","640768c9734f4cbfa9f2c5b9","[1686]","","","[25]","[170]","170","101","275.4928615952807","[275.4928615952807]","[174.49286159528071]","[175]","0","0","1","0","149.81999999994878","1002.9399999999441","1000","[[[""img/mask61.png""]]]","","","main","101","color-precision2"
"","","","","","html-keyboard-response","113","681043","0.0-10.0-0.47","63b6c76ff03d438cd09b8c56","640759fa512f630a2bdc333d","640768c9734f4cbfa9f2c5b9","null","","null","","","","","","","","","","","","","","","","","","","fixation","",""
"","","","","","color-precision2","114","687208","0.0-10.0-1.47-0.47","63b6c76ff03d438cd09b8c56","640759fa512f630a2bdc333d","640768c9734f4cbfa9f2c5b9","[3365]","","","[0]","[347]","347","39","31.507570457515673","[31.507570457515673]","[352.50757045751567]","[351]","0","0","1","0","149.5799999999581","1002.7800000000279","1000","[[[""img/mask44.png""]]]","","","main","39","color-precision2"
"","","","","","html-keyboard-response","115","687713","0.0-10.0-0.48","63b6c76ff03d438cd09b8c56","640759fa512f630a2bdc333d","640768c9734f4cbfa9f2c5b9","null","","null","","","","","","","","","","","","","","","","","","","fixation","",""
"","","","","","many-guess-6","116","698094","0.0-10.0-1.48-0.48","63b6c76ff03d438cd09b8c56","640759fa512f630a2bdc333d","640768c9734f4cbfa9f2c5b9","[5176]","","","[16,30,1,11,13,31,24,28,9,23,20,27,15,33,8,22,17,19,18,26,10,6,7,34,25,32,29,3,4,5,2,21,0,35,14,12]","[111,220,180,21,91,131,230,200,150,51,300,320,160,81,1,250,280,290,350,310,340,170,101,11,260,31,240,41,141,330,210,121,190,270,61,71]","111","264","197.1674238264917","[197.1674238264917]","[293.1674238264917]","[293]","[120,30,210,30,300,30,300,120,120]","0","36","0","149.19999999995343","19.540000000037253","16","[[[""img/mask20.png""],[""img/mask23.png""],[""img/mask50.png""],[""img/mask81.png""],[""img/mask58.png""],[""img/mask30.png""],[""img/mask56.png""],[""img/mask27.png""],[""img/mask67.png""],[""img/mask99.png""],[""img/mask86.png""],[""img/mask47.png""],[""img/mask43.png""],[""img/mask79.png""],[""img/mask3.png""],[""img/mask9.png""],[""img/mask37.png""],[""img/mask4.png""],[""img/mask57.png""],[""img/mask15.png""],[""img/mask94.png""],[""img/mask12.png""],[""img/mask71.png""],[""img/mask32.png""],[""img/mask51.png""],[""img/mask8.png""],[""img/mask58.png""],[""img/mask98.png""],[""img/mask70.png""],[""img/mask8.png""],[""img/mask11.png""],[""img/mask45.png""],[""img/mask74.png""],[""img/mask87.png""],[""img/mask27.png""],[""img/mask40.png""]]]","","[16,30,1,11,13,31,24,28,9,23,20,27,15,33,8,22,17,19,18,26,10,6,7,34,25,32,29,3,4,5,2,21,0,35,14,12]","main","264","many-guess-6"
"","","","","","html-keyboard-response","117","698608","0.0-10.0-0.49","63b6c76ff03d438cd09b8c56","640759fa512f630a2bdc333d","640768c9734f4cbfa9f2c5b9","null","","null","","","","","","","","","","","","","","","","","","","fixation","",""
"","","","","","many-guess-6","118","716905","0.0-10.0-1.49-0.49","63b6c76ff03d438cd09b8c56","640759fa512f630a2bdc333d","640768c9734f4cbfa9f2c5b9","[2710]","","","[26,0,25,12,24,16,17,13,34,9,15,3,22,30,4,20,14,28,33,11,29,1,8,32,31,27,7,2,21,23,10,35,18,5,6,19]","[94,324,54,64,204,353,234,294,284,104,304,84,274,134,144,174,264,344,14,334,314,164,74,24,224,244,4,124,184,154,44,254,194,214,34,114]","94","102","180.41402947505767","[180.41402947505767]","[78.41402947505767]","[78]","[30,120,300,300,300,120,120,120,30]","0","36","0","150.0799999999581","37.54000000003725","16","[[[""img/mask28.png""],[""img/mask14.png""],[""img/mask91.png""],[""img/mask54.png""],[""img/mask35.png""],[""img/mask49.png""],[""img/mask33.png""],[""img/mask72.png""],[""img/mask2.png""],[""img/mask48.png""],[""img/mask96.png""],[""img/mask17.png""],[""img/mask29.png""],[""img/mask49.png""],[""img/mask63.png""],[""img/mask49.png""],[""img/mask79.png""],[""img/mask71.png""],[""img/mask2.png""],[""img/mask63.png""],[""img/mask25.png""],[""img/mask94.png""],[""img/mask16.png""],[""img/mask51.png""],[""img/mask69.png""],[""img/mask92.png""],[""img/mask33.png""],[""img/mask9.png""],[""img/mask65.png""],[""img/mask15.png""],[""img/mask12.png""],[""img/mask11.png""],[""img/mask34.png""],[""img/mask48.png""],[""img/mask76.png""],[""img/mask65.png""]]]","","[26,0,25,12,24,16,17,13,34,9,15,3,22,30,4,20,14,28,33,11,29,1,8,32,31,27,7,2,21,23,10,35,18,5,6,19]","main","102","many-guess-6"
"","","","","","html-keyboard-response","119","717411","0.0-10.0-0.50","63b6c76ff03d438cd09b8c56","640759fa512f630a2bdc333d","640768c9734f4cbfa9f2c5b9","null","","null","","","","","","","","","","","","","","","","","","","fixation","",""
"","","","","","many-guess-6","120","724748","0.0-10.0-1.50-0.50","63b6c76ff03d438cd09b8c56","640759fa512f630a2bdc333d","640768c9734f4cbfa9f2c5b9","[5478]","","","[16,30,14,31,27,15,33,7,29,21,32,3,0,23,35,25,6,13,1,5,8,10,12,2,18,24,28,9,20,34,4,19,11,26,17,22]","[283,343,143,323,63,233,73,303,223,333,83,153,213,193,113,93,133,263,103,313,173,163,203,243,3,183,43,23,353,293,53,13,253,273,123,33]","283","90","100.92647162607993","[100.92647162607993]","[10.92647162607993]","[9]","[120,30,300,30,120,210,120,120,300]","0","36","0","149.5","19.339999999967404","16","[[[""img/mask86.png""],[""img/mask8.png""],[""img/mask31.png""],[""img/mask87.png""],[""img/mask28.png""],[""img/mask41.png""],[""img/mask10.png""],[""img/mask65.png""],[""img/mask44.png""],[""img/mask84.png""],[""img/mask89.png""],[""img/mask43.png""],[""img/mask50.png""],[""img/mask65.png""],[""img/mask82.png""],[""img/mask27.png""],[""img/mask26.png""],[""img/mask17.png""],[""img/mask51.png""],[""img/mask97.png""],[""img/mask7.png""],[""img/mask78.png""],[""img/mask9.png""],[""img/mask95.png""],[""img/mask95.png""],[""img/mask66.png""],[""img/mask92.png""],[""img/mask59.png""],[""img/mask27.png""],[""img/mask31.png""],[""img/mask54.png""],[""img/mask89.png""],[""img/mask96.png""],[""img/mask16.png""],[""img/mask24.png""],[""img/mask16.png""]]]","","[16,30,14,31,27,15,33,7,29,21,32,3,0,23,35,25,6,13,1,5,8,10,12,2,18,24,28,9,20,34,4,19,11,26,17,22]","main","90","many-guess-6"
"","","","","","html-keyboard-response","121","725264","0.0-10.0-0.51","63b6c76ff03d438cd09b8c56","640759fa512f630a2bdc333d","640768c9734f4cbfa9f2c5b9","null","","null","","","","","","","","","","","","","","","","","","","fixation","",""
"","","","","","color-precision2","122","730439","0.0-10.0-1.51-0.51","63b6c76ff03d438cd09b8c56","640759fa512f630a2bdc333d","640768c9734f4cbfa9f2c5b9","[1820]","","","[31]","[132]","132","112","248.5185918775694","[248.5185918775694]","[136.5185918775694]","[137]","0","0","1","0","149.47999999998137","1002","1000","[[[""img/mask11.png""]]]","","","main","112","color-precision2"
"","","","","","html-keyboard-response","123","730954","0.0-10.0-0.52","63b6c76ff03d438cd09b8c56","640759fa512f630a2bdc333d","640768c9734f4cbfa9f2c5b9","null","","null","","","","","","","","","","","","","","","","","","","fixation","",""
"","","","","","color-precision2","124","736403","0.0-10.0-1.52-0.52","63b6c76ff03d438cd09b8c56","640759fa512f630a2bdc333d","640768c9734f4cbfa9f2c5b9","[2038]","","","[4]","[307]","307","278","230.9510765764689","[230.9510765764689]","[312.9510765764689]","[313]","0","0","1","0","148.18000000005122","1004","1000","[[[""img/mask6.png""]]]","","","main","278","color-precision2"
"","","","","","html-keyboard-response","125","736918","0.0-10.0-0.53","63b6c76ff03d438cd09b8c56","640759fa512f630a2bdc333d","640768c9734f4cbfa9f2c5b9","null","","null","","","","","","","","","","","","","","","","","","","fixation","",""
"","","","","","color-precision2","126","743332","0.0-10.0-1.53-0.53","63b6c76ff03d438cd09b8c56","640759fa512f630a2bdc333d","640768c9734f4cbfa9f2c5b9","[3581]","","","[20]","[229]","229","10","236.87613652928002","[236.87613652928002]","[226.87613652928002]","[227]","0","0","1","0","149.35999999998603","1002.1600000000326","1000","[[[""img/mask32.png""]]]","","","main","10","color-precision2"
"","","","","","html-keyboard-response","127","743847","0.0-10.0-0.54","63b6c76ff03d438cd09b8c56","640759fa512f630a2bdc333d","640768c9734f4cbfa9f2c5b9","null","","null","","","","","","","","","","","","","","","","","","","fixation","",""
"","","","","","color-precision2","128","749617","0.0-10.0-1.54-0.54","63b6c76ff03d438cd09b8c56","640759fa512f630a2bdc333d","640768c9734f4cbfa9f2c5b9","[2705]","","","[3]","[357]","357","217","219.7922810010345","[219.7922810010345]","[2.792281001034496]","[3]","0","0","1","0","148.93999999994412","1003.4599999999627","1000","[[[""img/mask32.png""]]]","","","main","217","color-precision2"
"","","","","","html-keyboard-response","129","750118","0.0-10.0-0.55","63b6c76ff03d438cd09b8c56","640759fa512f630a2bdc333d","640768c9734f4cbfa9f2c5b9","null","","null","","","","","","","","","","","","","","","","","","","fixation","",""
"","","","","","color-precision2","130","758605","0.0-10.0-1.55-0.55","63b6c76ff03d438cd09b8c56","640759fa512f630a2bdc333d","640768c9734f4cbfa9f2c5b9","[5118]","","","[16]","[35]","35","275","310.15328023636636","[310.15328023636636]","[35.153280236366356]","[35]","0","0","1","0","145.06000000005588","1002.4799999999814","1000","[[[""img/mask76.png""]]]","","","main","275","color-precision2"
"","","","","","html-keyboard-response","131","759119","0.0-10.0-0.56","63b6c76ff03d438cd09b8c56","640759fa512f630a2bdc333d","640768c9734f4cbfa9f2c5b9","null","","null","","","","","","","","","","","","","","","","","","","fixation","",""
"","","","","","many-guess-6","132","765240","0.0-10.0-1.56-0.56","63b6c76ff03d438cd09b8c56","640759fa512f630a2bdc333d","640768c9734f4cbfa9f2c5b9","[3539]","","","[15,34,9,5,25,3,10,19,31,18,16,12,8,17,33,20,2,23,7,30,22,32,27,6,14,28,21,4,35,29,26,24,13,11,1,0]","[102,212,271,172,92,252,42,301,12,261,112,321,132,82,22,182,62,32,72,152,351,162,281,341,192,2,242,52,122,291,202,142,222,311,331,232]","102","357","207.7358997575616","[207.7358997575616]","[210.7358997575616]","[210]","[210,300,120,30,210,210,300,210,120]","0","36","0","149.95999999996275","21","16","[[[""img/mask86.png""],[""img/mask88.png""],[""img/mask32.png""],[""img/mask61.png""],[""img/mask55.png""],[""img/mask7.png""],[""img/mask4.png""],[""img/mask58.png""],[""img/mask100.png""],[""img/mask55.png""],[""img/mask5.png""],[""img/mask90.png""],[""img/mask53.png""],[""img/mask70.png""],[""img/mask22.png""],[""img/mask7.png""],[""img/mask35.png""],[""img/mask48.png""],[""img/mask77.png""],[""img/mask24.png""],[""img/mask6.png""],[""img/mask94.png""],[""img/mask7.png""],[""img/mask51.png""],[""img/mask36.png""],[""img/mask5.png""],[""img/mask71.png""],[""img/mask51.png""],[""img/mask43.png""],[""img/mask59.png""],[""img/mask93.png""],[""img/mask61.png""],[""img/mask12.png""],[""img/mask13.png""],[""img/mask19.png""],[""img/mask89.png""]]]","","[15,34,9,5,25,3,10,19,31,18,16,12,8,17,33,20,2,23,7,30,22,32,27,6,14,28,21,4,35,29,26,24,13,11,1,0]","main","357","many-guess-6"
"","","","","","html-keyboard-response","133","765742","0.0-10.0-0.57","63b6c76ff03d438cd09b8c56","640759fa512f630a2bdc333d","640768c9734f4cbfa9f2c5b9","null","","null","","","","","","","","","","","","","","","","","","","fixation","",""
"","","","","","color-precision2","134","770151","0.0-10.0-1.57-0.57","63b6c76ff03d438cd09b8c56","640759fa512f630a2bdc333d","640768c9734f4cbfa9f2c5b9","[1355]","","","[18]","[289]","289","99","33.06564950964448","[33.06564950964448]","[294.06564950964446]","[293]","0","0","1","0","149.40000000002328","1002.859999999986","1000","[[[""img/mask77.png""]]]","","","main","99","color-precision2"
"","","","","","html-keyboard-response","135","770656","0.0-10.0-0.58","63b6c76ff03d438cd09b8c56","640759fa512f630a2bdc333d","640768c9734f4cbfa9f2c5b9","null","","null","","","","","","","","","","","","","","","","","","","fixation","",""
"","","","","","color-precision2","136","776818","0.0-10.0-1.58-0.58","63b6c76ff03d438cd09b8c56","640759fa512f630a2bdc333d","640768c9734f4cbfa9f2c5b9","[3128]","","","[19]","[141]","141","325","115.78364273781492","[115.78364273781492]","[150.78364273781492]","[149]","0","0","1","0","149.1600000000326","1002.8800000000047","1000","[[[""img/mask100.png""]]]","","","main","325","color-precision2"
"","","","","","html-keyboard-response","137","781133","0.0-10.0-0.59","63b6c76ff03d438cd09b8c56","640759fa512f630a2bdc333d","640768c9734f4cbfa9f2c5b9","4314","Wow! You've completed 60 out of 180 trials! </p> <p>  </p><p> Take a quick break, then press any key when you're ready to continue."," ","","","","","","","","","","","","","","","","","","","fixation","",""
"","","","","","many-guess-6","138","787242","0.0-10.0-1.59-0.59","63b6c76ff03d438cd09b8c56","640759fa512f630a2bdc333d","640768c9734f4cbfa9f2c5b9","[3710]","","","[13,28,21,34,25,9,15,12,24,11,6,23,32,16,22,33,5,2,8,29,31,26,10,18,27,17,19,7,20,30,3,4,0,14,35,1]","[125,95,294,264,314,45,205,234,145,334,185,284,115,244,344,354,304,55,75,195,215,165,224,5,15,65,155,324,254,274,105,175,135,35,85,25]","125","337","355.31699490841515","[355.31699490841515]","[18.316994908415154]","[18]","[120,30,120,120,300,210,300,210,300]","0","36","0","149.68000000005122","19.839999999967404","16","[[[""img/mask27.png""],[""img/mask15.png""],[""img/mask48.png""],[""img/mask8.png""],[""img/mask10.png""],[""img/mask41.png""],[""img/mask22.png""],[""img/mask65.png""],[""img/mask91.png""],[""img/mask91.png""],[""img/mask30.png""],[""img/mask47.png""],[""img/mask15.png""],[""img/mask83.png""],[""img/mask17.png""],[""img/mask47.png""],[""img/mask100.png""],[""img/mask1.png""],[""img/mask28.png""],[""img/mask46.png""],[""img/mask23.png""],[""img/mask47.png""],[""img/mask26.png""],[""img/mask90.png""],[""img/mask73.png""],[""img/mask86.png""],[""img/mask79.png""],[""img/mask83.png""],[""img/mask15.png""],[""img/mask66.png""],[""img/mask35.png""],[""img/mask60.png""],[""img/mask59.png""],[""img/mask18.png""],[""img/mask36.png""],[""img/mask89.png""]]]","","[13,28,21,34,25,9,15,12,24,11,6,23,32,16,22,33,5,2,8,29,31,26,10,18,27,17,19,7,20,30,3,4,0,14,35,1]","main","337","many-guess-6"
"","","","","","html-keyboard-response","139","787745","0.0-10.0-0.60","63b6c76ff03d438cd09b8c56","640759fa512f630a2bdc333d","640768c9734f4cbfa9f2c5b9","null","","null","","","","","","","","","","","","","","","","","","","fixation","",""
"","","","","","many-guess-6","140","792868","0.0-10.0-1.60-0.60","63b6c76ff03d438cd09b8c56","640759fa512f630a2bdc333d","640768c9734f4cbfa9f2c5b9","[3072]","","","[17,3,5,25,26,29,27,12,8,9,14,6,15,28,23,10,11,0,4,2,34,31,13,1,22,24,16,32,19,33,30,21,20,35,18,7]","[169,338,149,358,229,9,49,219,39,99,298,89,129,318,189,119,258,209,328,79,288,348,248,239,29,308,268,199,179,19,109,159,278,139,59,69]","169","174","247.63834663723054","[247.63834663723054]","[73.63834663723054]","[74]","[120,120,120,210,30,300,120,210,30]","0","36","0","149.45999999996275","36.35999999998603","16","[[[""img/mask19.png""],[""img/mask72.png""],[""img/mask4.png""],[""img/mask82.png""],[""img/mask74.png""],[""img/mask72.png""],[""img/mask67.png""],[""img/mask51.png""],[""img/mask42.png""],[""img/mask69.png""],[""img/mask52.png""],[""img/mask49.png""],[""img/mask54.png""],[""img/mask11.png""],[""img/mask88.png""],[""img/mask45.png""],[""img/mask69.png""],[""img/mask19.png""],[""img/mask95.png""],[""img/mask6.png""],[""img/mask33.png""],[""img/mask34.png""],[""img/mask16.png""],[""img/mask19.png""],[""img/mask95.png""],[""img/mask93.png""],[""img/mask99.png""],[""img/mask82.png""],[""img/mask16.png""],[""img/mask84.png""],[""img/mask24.png""],[""img/mask33.png""],[""img/mask72.png""],[""img/mask67.png""],[""img/mask78.png""],[""img/mask39.png""]]]","","[17,3,5,25,26,29,27,12,8,9,14,6,15,28,23,10,11,0,4,2,34,31,13,1,22,24,16,32,19,33,30,21,20,35,18,7]","main","174","many-guess-6"
"","","","","","html-keyboard-response","141","793375","0.0-10.0-0.61","63b6c76ff03d438cd09b8c56","640759fa512f630a2bdc333d","640768c9734f4cbfa9f2c5b9","null","","null","","","","","","","","","","","","","","","","","","","fixation","",""
"","","","","","color-precision2","142","797936","0.0-10.0-1.61-0.61","63b6c76ff03d438cd09b8c56","640759fa512f630a2bdc333d","640768c9734f4cbfa9f2c5b9","[1779]","","","[13]","[249]","249","221","111.84665362532668","[111.84665362532668]","[250.84665362532667]","[249]","0","0","1","0","148.52000000001863","1003.0799999999581","1000","[[[""img/mask7.png""]]]","","","main","221","color-precision2"
"","","","","","html-keyboard-response","143","798439","0.0-10.0-0.62","63b6c76ff03d438cd09b8c56","640759fa512f630a2bdc333d","640768c9734f4cbfa9f2c5b9","null","","null","","","","","","","","","","","","","","","","","","","fixation","",""
"","","","","","color-precision2","144","803244","0.0-10.0-1.62-0.62","63b6c76ff03d438cd09b8c56","640759fa512f630a2bdc333d","640768c9734f4cbfa9f2c5b9","[1684]","","","[3]","[159]","159","10","169.0455015116081","[169.0455015116081]","[159.0455015116081]","[159]","0","0","1","0","149.47999999998137","1002.3199999999488","1000","[[[""img/mask43.png""]]]","","","main","10","color-precision2"
"","","","","","html-keyboard-response","145","803752","0.0-10.0-0.63","63b6c76ff03d438cd09b8c56","640759fa512f630a2bdc333d","640768c9734f4cbfa9f2c5b9","null","","null","","","","","","","","","","","","","","","","","","","fixation","",""
"","","","","","color-precision2","146","809360","0.0-10.0-1.63-0.63","63b6c76ff03d438cd09b8c56","640759fa512f630a2bdc333d","640768c9734f4cbfa9f2c5b9","[2731]","","","[10]","[166]","166","232","45.81368062910001","[45.81368062910001]","[173.81368062910002]","[172]","0","0","1","0","149.47999999998137","1003.140000000014","1000","[[[""img/mask100.png""]]]","","","main","232","color-precision2"
"","","","","","html-keyboard-response","147","809864","0.0-10.0-0.64","63b6c76ff03d438cd09b8c56","640759fa512f630a2bdc333d","640768c9734f4cbfa9f2c5b9","null","","null","","","","","","","","","","","","","","","","","","","fixation","",""
"","","","","","color-precision2","148","814769","0.0-10.0-1.64-0.64","63b6c76ff03d438cd09b8c56","640759fa512f630a2bdc333d","640768c9734f4cbfa9f2c5b9","[1793]","","","[2]","[82]","82","37","127.18982337535502","[127.18982337535502]","[90.18982337535502]","[88]","0","0","1","0","149.52000000001863","1003.1199999999953","1000","[[[""img/mask70.png""]]]","","","main","37","color-precision2"
"","","","","","html-keyboard-response","149","815277","0.0-10.0-0.65","63b6c76ff03d438cd09b8c56","640759fa512f630a2bdc333d","640768c9734f4cbfa9f2c5b9","null","","null","","","","","","","","","","","","","","","","","","","fixation","",""
"","","","","","many-guess-6","150","822119","0.0-10.0-1.65-0.65","63b6c76ff03d438cd09b8c56","640759fa512f630a2bdc333d","640768c9734f4cbfa9f2c5b9","[5034]","","","[6,16,14,24,9,3,29,18,25,21,11,26,13,32,7,15,28,12,17,30,5,22,10,27,0,23,20,19,2,1,4,31,33,34,8,35]","[177,197,336,217,247,276,137,266,167,207,67,107,306,227,316,326,77,237,147,286,157,57,296,37,47,356,346,97,117,7,17,256,187,87,27,127]","177","203","34.644550753900866","[34.644550753900866]","[191.64455075390086]","[190]","[30,120,300,120,300,300,30,120,30]","0","36","0","149.56000000005588","20.619999999995343","16","[[[""img/mask46.png""],[""img/mask47.png""],[""img/mask45.png""],[""img/mask49.png""],[""img/mask56.png""],[""img/mask71.png""],[""img/mask100.png""],[""img/mask26.png""],[""img/mask61.png""],[""img/mask34.png""],[""img/mask77.png""],[""img/mask21.png""],[""img/mask7.png""],[""img/mask60.png""],[""img/mask77.png""],[""img/mask35.png""],[""img/mask45.png""],[""img/mask2.png""],[""img/mask45.png""],[""img/mask96.png""],[""img/mask69.png""],[""img/mask54.png""],[""img/mask99.png""],[""img/mask77.png""],[""img/mask96.png""],[""img/mask21.png""],[""img/mask2.png""],[""img/mask44.png""],[""img/mask12.png""],[""img/mask80.png""],[""img/mask10.png""],[""img/mask20.png""],[""img/mask86.png""],[""img/mask76.png""],[""img/mask86.png""],[""img/mask13.png""]]]","","[6,16,14,24,9,3,29,18,25,21,11,26,13,32,7,15,28,12,17,30,5,22,10,27,0,23,20,19,2,1,4,31,33,34,8,35]","main","203","many-guess-6"
"","","","","","html-keyboard-response","151","822634","0.0-10.0-0.66","63b6c76ff03d438cd09b8c56","640759fa512f630a2bdc333d","640768c9734f4cbfa9f2c5b9","null","","null","","","","","","","","","","","","","","","","","","","fixation","",""
"","","","","","many-guess-6","152","827479","0.0-10.0-1.66-0.66","63b6c76ff03d438cd09b8c56","640759fa512f630a2bdc333d","640768c9734f4cbfa9f2c5b9","[2872]","","","[30,24,3,12,1,7,19,26,21,33,14,0,15,31,8,28,32,25,17,20,34,11,10,22,6,2,13,18,4,9,35,27,16,29,5,23]","[309,80,129,239,119,70,329,339,10,189,259,60,40,209,99,149,159,109,319,269,289,359,349,139,229,279,299,179,249,20,30,199,50,90,219,169]","309","231","228.12088330393482","[228.12088330393482]","[357.1208833039348]","[357]","[30,30,120,300,120,30,30,120,120]","0","36","0","150.28000000002794","19.239999999990687","16","[[[""img/mask85.png""],[""img/mask3.png""],[""img/mask60.png""],[""img/mask34.png""],[""img/mask53.png""],[""img/mask73.png""],[""img/mask64.png""],[""img/mask66.png""],[""img/mask27.png""],[""img/mask2.png""],[""img/mask33.png""],[""img/mask22.png""],[""img/mask32.png""],[""img/mask41.png""],[""img/mask49.png""],[""img/mask32.png""],[""img/mask65.png""],[""img/mask26.png""],[""img/mask85.png""],[""img/mask41.png""],[""img/mask3.png""],[""img/mask67.png""],[""img/mask67.png""],[""img/mask55.png""],[""img/mask75.png""],[""img/mask69.png""],[""img/mask40.png""],[""img/mask45.png""],[""img/mask17.png""],[""img/mask57.png""],[""img/mask64.png""],[""img/mask65.png""],[""img/mask17.png""],[""img/mask35.png""],[""img/mask22.png""],[""img/mask29.png""]]]","","[30,24,3,12,1,7,19,26,21,33,14,0,15,31,8,28,32,25,17,20,34,11,10,22,6,2,13,18,4,9,35,27,16,29,5,23]","main","231","many-guess-6"
"","","","","","html-keyboard-response","153","827980","0.0-10.0-0.67","63b6c76ff03d438cd09b8c56","640759fa512f630a2bdc333d","640768c9734f4cbfa9f2c5b9","null","","null","","","","","","","","","","","","","","","","","","","fixation","",""
"","","","","","many-guess-6","154","832382","0.0-10.0-1.67-0.67","63b6c76ff03d438cd09b8c56","640759fa512f630a2bdc333d","640768c9734f4cbfa9f2c5b9","[2504]","","","[15,24,20,11,34,27,13,0,8,26,18,21,12,16,9,22,2,1,33,35,17,4,29,23,32,31,3,28,30,25,10,19,7,6,14,5]","[353,43,283,113,73,163,203,123,93,213,173,4,263,83,343,303,313,293,143,333,193,243,63,253,133,103,33,233,153,183,23,53,223,14,273,323]","353","210","95.45451378094762","[95.45451378094762]","[245.45451378094762]","[244]","[30,120,120,30,210,30,120,120,210]","0","36","0","149.40000000002328","20.760000000009313","16","[[[""img/mask22.png""],[""img/mask96.png""],[""img/mask21.png""],[""img/mask92.png""],[""img/mask44.png""],[""img/mask85.png""],[""img/mask6.png""],[""img/mask59.png""],[""img/mask39.png""],[""img/mask48.png""],[""img/mask75.png""],[""img/mask88.png""],[""img/mask96.png""],[""img/mask14.png""],[""img/mask76.png""],[""img/mask90.png""],[""img/mask49.png""],[""img/mask4.png""],[""img/mask32.png""],[""img/mask54.png""],[""img/mask9.png""],[""img/mask74.png""],[""img/mask73.png""],[""img/mask12.png""],[""img/mask20.png""],[""img/mask34.png""],[""img/mask67.png""],[""img/mask76.png""],[""img/mask75.png""],[""img/mask84.png""],[""img/mask64.png""],[""img/mask50.png""],[""img/mask23.png""],[""img/mask85.png""],[""img/mask38.png""],[""img/mask3.png""]]]","","[15,24,20,11,34,27,13,0,8,26,18,21,12,16,9,22,2,1,33,35,17,4,29,23,32,31,3,28,30,25,10,19,7,6,14,5]","main","210","many-guess-6"
"","","","","","html-keyboard-response","155","832894","0.0-10.0-0.68","63b6c76ff03d438cd09b8c56","640759fa512f630a2bdc333d","640768c9734f4cbfa9f2c5b9","null","","null","","","","","","","","","","","","","","","","","","","fixation","",""
"","","","","","color-precision2","156","837140","0.0-10.0-1.68-0.68","63b6c76ff03d438cd09b8c56","640759fa512f630a2bdc333d","640768c9734f4cbfa9f2c5b9","[1523]","","","[16]","[171]","171","341","154.4273714863458","[154.4273714863458]","[173.4273714863458]","[172]","0","0","1","0","148.69999999995343","1002.140000000014","1000","[[[""img/mask37.png""]]]","","","main","341","color-precision2"
"","","","","","html-keyboard-response","157","837651","0.0-10.0-0.69","63b6c76ff03d438cd09b8c56","640759fa512f630a2bdc333d","640768c9734f4cbfa9f2c5b9","null","","null","","","","","","","","","","","","","","","","","","","fixation","",""
"","","","","","many-guess-6","158","843334","0.0-10.0-1.69-0.69","63b6c76ff03d438cd09b8c56","640759fa512f630a2bdc333d","640768c9734f4cbfa9f2c5b9","[2880]","","","[23,21,16,2,17,15,12,34,30,31,35,33,20,14,6,11,7,10,32,24,29,3,28,26,9,22,5,25,19,4,0,13,1,18,27,8]","[239,259,10,50,150,90,229,160,179,70,269,339,359,170,199,299,120,209,40,319,80,349,219,140,249,110,100,279,329,309,60,289,30,130,20,189]","239","136","31.488002851307293","[31.488002851307293]","[255.4880028513073]","[254]","[30,210,30,210,210,30,30,30,300]","0","36","0","149.78000000002794","19.619999999995343","16","[[[""img/mask92.png""],[""img/mask22.png""],[""img/mask29.png""],[""img/mask85.png""],[""img/mask68.png""],[""img/mask16.png""],[""img/mask92.png""],[""img/mask11.png""],[""img/mask43.png""],[""img/mask11.png""],[""img/mask36.png""],[""img/mask88.png""],[""img/mask80.png""],[""img/mask98.png""],[""img/mask50.png""],[""img/mask54.png""],[""img/mask1.png""],[""img/mask29.png""],[""img/mask71.png""],[""img/mask48.png""],[""img/mask37.png""],[""img/mask49.png""],[""img/mask98.png""],[""img/mask12.png""],[""img/mask40.png""],[""img/mask43.png""],[""img/mask11.png""],[""img/mask39.png""],[""img/mask78.png""],[""img/mask7.png""],[""img/mask54.png""],[""img/mask69.png""],[""img/mask56.png""],[""img/mask70.png""],[""img/mask67.png""],[""img/mask50.png""]]]","","[23,21,16,2,17,15,12,34,30,31,35,33,20,14,6,11,7,10,32,24,29,3,28,26,9,22,5,25,19,4,0,13,1,18,27,8]","main","136","many-guess-6"
"","","","","","html-keyboard-response","159","843844","0.0-10.0-0.70","63b6c76ff03d438cd09b8c56","640759fa512f630a2bdc333d","640768c9734f4cbfa9f2c5b9","null","","null","","","","","","","","","","","","","","","","","","","fixation","",""
"","","","","","color-precision2","160","848379","0.0-10.0-1.70-0.70","63b6c76ff03d438cd09b8c56","640759fa512f630a2bdc333d","640768c9734f4cbfa9f2c5b9","[1744]","","","[13]","[41]","41","131","184.88936098663052","[184.88936098663052]","[53.88936098663052]","[53]","0","0","1","0","148.59999999997672","1002.1600000000326","1000","[[[""img/mask37.png""]]]","","","main","131","color-precision2"
"","","","","","html-keyboard-response","161","848890","0.0-10.0-0.71","63b6c76ff03d438cd09b8c56","640759fa512f630a2bdc333d","640768c9734f4cbfa9f2c5b9","null","","null","","","","","","","","","","","","","","","","","","","fixation","",""
"","","","","","color-precision2","162","854364","0.0-10.0-1.71-0.71","63b6c76ff03d438cd09b8c56","640759fa512f630a2bdc333d","640768c9734f4cbfa9f2c5b9","[1208]","","","[17]","[80]","80","273","1.995313340755893","[1.995313340755893]","[88.9953133407559]","[88]","0","0","1","0","150.06000000005588","1002.0600000000559","1000","[[[""img/mask55.png""]]]","","","main","273","color-precision2"
"","","","","","html-keyboard-response","163","854880","0.0-10.0-0.72","63b6c76ff03d438cd09b8c56","640759fa512f630a2bdc333d","640768c9734f4cbfa9f2c5b9","null","","null","","","","","","","","","","","","","","","","","","","fixation","",""
"","","","","","many-guess-6","164","860076","0.0-10.0-1.72-0.72","63b6c76ff03d438cd09b8c56","640759fa512f630a2bdc333d","640768c9734f4cbfa9f2c5b9","[3220]","","","[4,18,7,22,19,14,16,10,21,26,30,1,15,12,35,24,34,8,23,6,25,0,17,33,11,29,3,13,28,20,27,9,32,2,5,31]","[346,257,287,297,107,277,157,67,57,207,217,326,127,37,7,307,356,167,97,247,47,117,77,227,187,336,237,147,137,267,177,17,317,87,197,27]","346","342","294.18878155476136","[294.18878155476136]","[312.18878155476136]","[312]","[300,30,120,300,30,300,300,300,300]","0","36","0","149.59999999997672","20.040000000037253","16","[[[""img/mask49.png""],[""img/mask52.png""],[""img/mask100.png""],[""img/mask99.png""],[""img/mask57.png""],[""img/mask24.png""],[""img/mask93.png""],[""img/mask47.png""],[""img/mask86.png""],[""img/mask25.png""],[""img/mask72.png""],[""img/mask29.png""],[""img/mask55.png""],[""img/mask86.png""],[""img/mask23.png""],[""img/mask65.png""],[""img/mask80.png""],[""img/mask93.png""],[""img/mask96.png""],[""img/mask93.png""],[""img/mask25.png""],[""img/mask95.png""],[""img/mask76.png""],[""img/mask97.png""],[""img/mask73.png""],[""img/mask4.png""],[""img/mask97.png""],[""img/mask73.png""],[""img/mask41.png""],[""img/mask53.png""],[""img/mask33.png""],[""img/mask26.png""],[""img/mask70.png""],[""img/mask54.png""],[""img/mask74.png""],[""img/mask93.png""]]]","","[4,18,7,22,19,14,16,10,21,26,30,1,15,12,35,24,34,8,23,6,25,0,17,33,11,29,3,13,28,20,27,9,32,2,5,31]","main","342","many-guess-6"
"","","","","","html-keyboard-response","165","860582","0.0-10.0-0.73","63b6c76ff03d438cd09b8c56","640759fa512f630a2bdc333d","640768c9734f4cbfa9f2c5b9","null","","null","","","","","","","","","","","","","","","","","","","fixation","",""
"","","","","","many-guess-6","166","865879","0.0-10.0-1.73-0.73","63b6c76ff03d438cd09b8c56","640759fa512f630a2bdc333d","640768c9734f4cbfa9f2c5b9","[3249]","","","[7,20,12,5,13,0,2,23,31,4,1,6,11,34,3,24,21,15,29,10,35,26,22,28,9,25,33,18,19,17,16,30,8,14,27,32]","[188,78,138,158,68,208,348,198,258,318,8,108,268,218,238,298,98,48,338,38,308,58,248,278,288,118,128,18,88,228,148,28,328,358,178,168]","188","268","100.12565671228828","[100.12565671228828]","[192.12565671228828]","[190]","[210,30,210,300,120,30,300,120,30]","0","36","0","150.2600000000093","36.31999999994878","16","[[[""img/mask79.png""],[""img/mask14.png""],[""img/mask92.png""],[""img/mask26.png""],[""img/mask99.png""],[""img/mask64.png""],[""img/mask91.png""],[""img/mask22.png""],[""img/mask18.png""],[""img/mask66.png""],[""img/mask15.png""],[""img/mask88.png""],[""img/mask88.png""],[""img/mask71.png""],[""img/mask49.png""],[""img/mask51.png""],[""img/mask9.png""],[""img/mask3.png""],[""img/mask31.png""],[""img/mask53.png""],[""img/mask32.png""],[""img/mask4.png""],[""img/mask12.png""],[""img/mask97.png""],[""img/mask12.png""],[""img/mask88.png""],[""img/mask66.png""],[""img/mask52.png""],[""img/mask40.png""],[""img/mask38.png""],[""img/mask47.png""],[""img/mask76.png""],[""img/mask38.png""],[""img/mask42.png""],[""img/mask84.png""],[""img/mask4.png""]]]","","[7,20,12,5,13,0,2,23,31,4,1,6,11,34,3,24,21,15,29,10,35,26,22,28,9,25,33,18,19,17,16,30,8,14,27,32]","main","268","many-guess-6"
"","","","","","html-keyboard-response","167","866381","0.0-10.0-0.74","63b6c76ff03d438cd09b8c56","640759fa512f630a2bdc333d","640768c9734f4cbfa9f2c5b9","null","","null","","","","","","","","","","","","","","","","","","","fixation","",""
"","","","","","many-guess-6","168","873080","0.0-10.0-1.74-0.74","63b6c76ff03d438cd09b8c56","640759fa512f630a2bdc333d","640768c9734f4cbfa9f2c5b9","[4561]","","","[29,6,13,25,10,1,28,12,8,34,19,20,32,33,21,2,0,23,31,30,7,16,15,35,22,9,14,26,27,17,11,24,5,18,3,4]","[132,202,62,162,82,322,42,222,192,32,122,341,252,292,312,52,142,102,112,152,282,302,12,172,331,242,351,22,72,92,212,2,272,262,182,232]","132","305","236.02118585557395","[236.02118585557395]","[291.02118585557395]","[291]","[210,120,210,120,120,30,300,30,120]","0","36","0","149.93999999994412","37.93999999994412","16","[[[""img/mask25.png""],[""img/mask55.png""],[""img/mask76.png""],[""img/mask55.png""],[""img/mask22.png""],[""img/mask49.png""],[""img/mask85.png""],[""img/mask85.png""],[""img/mask78.png""],[""img/mask29.png""],[""img/mask42.png""],[""img/mask11.png""],[""img/mask40.png""],[""img/mask30.png""],[""img/mask37.png""],[""img/mask63.png""],[""img/mask64.png""],[""img/mask97.png""],[""img/mask23.png""],[""img/mask37.png""],[""img/mask38.png""],[""img/mask94.png""],[""img/mask100.png""],[""img/mask33.png""],[""img/mask69.png""],[""img/mask43.png""],[""img/mask96.png""],[""img/mask14.png""],[""img/mask41.png""],[""img/mask89.png""],[""img/mask94.png""],[""img/mask16.png""],[""img/mask26.png""],[""img/mask43.png""],[""img/mask31.png""],[""img/mask84.png""]]]","","[29,6,13,25,10,1,28,12,8,34,19,20,32,33,21,2,0,23,31,30,7,16,15,35,22,9,14,26,27,17,11,24,5,18,3,4]","main","305","many-guess-6"
"","","","","","html-keyboard-response","169","873581","0.0-10.0-0.75","63b6c76ff03d438cd09b8c56","640759fa512f630a2bdc333d","640768c9734f4cbfa9f2c5b9","null","","null","","","","","","","","","","","","","","","","","","","fixation","",""
"","","","","","many-guess-6","170","878959","0.0-10.0-1.75-0.75","63b6c76ff03d438cd09b8c56","640759fa512f630a2bdc333d","640768c9734f4cbfa9f2c5b9","[2594]","","","[16,19,18,7,22,9,8,12,34,35,29,21,14,6,23,27,1,32,11,10,31,20,5,30,2,25,28,17,15,4,33,24,0,13,3,26]","[131,341,72,52,281,91,101,211,22,82,301,191,251,121,351,241,231,181,321,201,62,2,291,331,171,221,32,12,161,311,271,42,151,111,261,141]","131","262","20.95205114647293","[20.95205114647293]","[118.95205114647294]","[118]","[120,120,300,30,300,210,300,210,120]","0","36","0","149.21999999997206","20.64000000001397","16","[[[""img/mask38.png""],[""img/mask94.png""],[""img/mask79.png""],[""img/mask61.png""],[""img/mask80.png""],[""img/mask61.png""],[""img/mask10.png""],[""img/mask35.png""],[""img/mask37.png""],[""img/mask41.png""],[""img/mask70.png""],[""img/mask28.png""],[""img/mask99.png""],[""img/mask68.png""],[""img/mask82.png""],[""img/mask75.png""],[""img/mask75.png""],[""img/mask40.png""],[""img/mask43.png""],[""img/mask51.png""],[""img/mask49.png""],[""img/mask83.png""],[""img/mask100.png""],[""img/mask21.png""],[""img/mask68.png""],[""img/mask63.png""],[""img/mask93.png""],[""img/mask48.png""],[""img/mask76.png""],[""img/mask34.png""],[""img/mask53.png""],[""img/mask84.png""],[""img/mask85.png""],[""img/mask48.png""],[""img/mask83.png""],[""img/mask70.png""]]]","","[16,19,18,7,22,9,8,12,34,35,29,21,14,6,23,27,1,32,11,10,31,20,5,30,2,25,28,17,15,4,33,24,0,13,3,26]","main","262","many-guess-6"
"","","","","","html-keyboard-response","171","879459","0.0-10.0-0.76","63b6c76ff03d438cd09b8c56","640759fa512f630a2bdc333d","640768c9734f4cbfa9f2c5b9","null","","null","","","","","","","","","","","","","","","","","","","fixation","",""
"","","","","","color-precision2","172","884612","0.0-10.0-1.76-0.76","63b6c76ff03d438cd09b8c56","640759fa512f630a2bdc333d","640768c9734f4cbfa9f2c5b9","[1486]","","","[13]","[161]","161","27","190.32594859250932","[190.32594859250932]","[163.32594859250932]","[163]","0","0","1","0","148.7600000000093","1003.2800000000279","1000","[[[""img/mask38.png""]]]","","","main","27","color-precision2"
"","","","","","html-keyboard-response","173","885126","0.0-10.0-0.77","63b6c76ff03d438cd09b8c56","640759fa512f630a2bdc333d","640768c9734f4cbfa9f2c5b9","null","","null","","","","","","","","","","","","","","","","","","","fixation","",""
"","","","","","many-guess-6","174","889846","0.0-10.0-1.77-0.77","63b6c76ff03d438cd09b8c56","640759fa512f630a2bdc333d","640768c9734f4cbfa9f2c5b9","[2344]","","","[11,10,2,33,27,25,19,34,3,20,23,12,32,24,35,13,21,9,5,8,26,17,31,6,7,0,1,28,16,14,30,18,4,15,29,22]","[200,359,140,90,100,310,10,80,60,280,349,120,230,329,250,300,170,220,30,180,240,110,160,319,260,190,339,270,210,290,40,130,150,50,70,20]","200","180","258.0199766225495","[258.0199766225495]","[78.0199766225495]","[78]","[210,300,300,300,30,210,210,30,120]","0","36","0","149.28000000002794","20.459999999962747","16","[[[""img/mask79.png""],[""img/mask82.png""],[""img/mask74.png""],[""img/mask57.png""],[""img/mask69.png""],[""img/mask66.png""],[""img/mask50.png""],[""img/mask49.png""],[""img/mask100.png""],[""img/mask25.png""],[""img/mask34.png""],[""img/mask26.png""],[""img/mask63.png""],[""img/mask27.png""],[""img/mask26.png""],[""img/mask51.png""],[""img/mask5.png""],[""img/mask51.png""],[""img/mask43.png""],[""img/mask100.png""],[""img/mask31.png""],[""img/mask18.png""],[""img/mask49.png""],[""img/mask24.png""],[""img/mask41.png""],[""img/mask70.png""],[""img/mask79.png""],[""img/mask52.png""],[""img/mask55.png""],[""img/mask7.png""],[""img/mask73.png""],[""img/mask42.png""],[""img/mask6.png""],[""img/mask52.png""],[""img/mask92.png""],[""img/mask33.png""]]]","","[11,10,2,33,27,25,19,34,3,20,23,12,32,24,35,13,21,9,5,8,26,17,31,6,7,0,1,28,16,14,30,18,4,15,29,22]","main","180","many-guess-6"
"","","","","","html-keyboard-response","175","890359","0.0-10.0-0.78","63b6c76ff03d438cd09b8c56","640759fa512f630a2bdc333d","640768c9734f4cbfa9f2c5b9","null","","null","","","","","","","","","","","","","","","","","","","fixation","",""
"","","","","","many-guess-6","176","951898","0.0-10.0-1.78-0.78","63b6c76ff03d438cd09b8c56","640759fa512f630a2bdc333d","640768c9734f4cbfa9f2c5b9","[3245]","","","[11,17,26,21,22,16,35,20,27,31,4,15,10,30,18,23,13,1,7,14,32,6,33,19,3,8,0,29,12,24,25,9,28,5,2,34]","[305,46,106,295,126,226,36,156,246,146,186,315,136,206,335,355,86,66,76,96,196,325,255,236,176,275,345,6,56,16,116,216,265,285,166,26]","305","285","141.0525097362715","[141.0525097362715]","[216.0525097362715]","[215]","[30,120,30,120,120,300,120,210,30]","0","36","0","149.9200000000419","19.85999999998603","16","[[[""img/mask19.png""],[""img/mask13.png""],[""img/mask77.png""],[""img/mask23.png""],[""img/mask69.png""],[""img/mask17.png""],[""img/mask31.png""],[""img/mask22.png""],[""img/mask79.png""],[""img/mask58.png""],[""img/mask37.png""],[""img/mask39.png""],[""img/mask9.png""],[""img/mask46.png""],[""img/mask67.png""],[""img/mask40.png""],[""img/mask59.png""],[""img/mask18.png""],[""img/mask73.png""],[""img/mask61.png""],[""img/mask35.png""],[""img/mask100.png""],[""img/mask68.png""],[""img/mask23.png""],[""img/mask53.png""],[""img/mask54.png""],[""img/mask28.png""],[""img/mask56.png""],[""img/mask50.png""],[""img/mask64.png""],[""img/mask68.png""],[""img/mask23.png""],[""img/mask3.png""],[""img/mask18.png""],[""img/mask7.png""],[""img/mask15.png""]]]","","[11,17,26,21,22,16,35,20,27,31,4,15,10,30,18,23,13,1,7,14,32,6,33,19,3,8,0,29,12,24,25,9,28,5,2,34]","main","285","many-guess-6"
"","","","","","html-keyboard-response","177","964432","0.0-10.0-0.79","63b6c76ff03d438cd09b8c56","640759fa512f630a2bdc333d","640768c9734f4cbfa9f2c5b9","12532","Wow! You've completed 80 out of 180 trials! </p> <p>  </p><p> Take a quick break, then press any key when you're ready to continue."," ","","","","","","","","","","","","","","","","","","","fixation","",""
"","","","","","many-guess-6","178","969351","0.0-10.0-1.79-0.79","63b6c76ff03d438cd09b8c56","640759fa512f630a2bdc333d","640768c9734f4cbfa9f2c5b9","[2517]","","","[29,3,5,31,35,6,23,9,4,18,28,0,21,8,27,10,12,14,13,19,34,7,17,24,11,22,16,1,2,26,32,20,25,30,33,15]","[5,284,95,25,65,224,35,75,164,105,194,324,304,344,174,45,244,154,254,55,314,184,274,264,115,85,214,204,294,334,135,125,234,144,15,354]","5","307","92.7664605140378","[92.7664605140378]","[145.76646051403782]","[144]","[300,300,30,300,210,300,30,300,210]","0","36","0","148.4200000000419","19.680000000051223","16","[[[""img/mask25.png""],[""img/mask58.png""],[""img/mask8.png""],[""img/mask57.png""],[""img/mask79.png""],[""img/mask99.png""],[""img/mask75.png""],[""img/mask4.png""],[""img/mask49.png""],[""img/mask14.png""],[""img/mask10.png""],[""img/mask41.png""],[""img/mask39.png""],[""img/mask94.png""],[""img/mask38.png""],[""img/mask46.png""],[""img/mask81.png""],[""img/mask96.png""],[""img/mask23.png""],[""img/mask43.png""],[""img/mask50.png""],[""img/mask90.png""],[""img/mask93.png""],[""img/mask96.png""],[""img/mask2.png""],[""img/mask47.png""],[""img/mask9.png""],[""img/mask56.png""],[""img/mask21.png""],[""img/mask16.png""],[""img/mask1.png""],[""img/mask13.png""],[""img/mask83.png""],[""img/mask40.png""],[""img/mask44.png""],[""img/mask85.png""]]]","","[29,3,5,31,35,6,23,9,4,18,28,0,21,8,27,10,12,14,13,19,34,7,17,24,11,22,16,1,2,26,32,20,25,30,33,15]","main","307","many-guess-6"
"","","","","","html-keyboard-response","179","969852","0.0-10.0-0.80","63b6c76ff03d438cd09b8c56","640759fa512f630a2bdc333d","640768c9734f4cbfa9f2c5b9","null","","null","","","","","","","","","","","","","","","","","","","fixation","",""
