"success","timeout","failed_images","failed_audio","failed_video","trial_type","trial_index","time_elapsed","internal_node_id","subject_id","study_id","session_id","rt","stimulus","response","position_of_items","colors_of_items","color_of_target","wheel_spin","response_angle","physical_response_angle","reported_color_angle","reported_color_discrete","locs","which_test","set_size","wheel_num_options","actual_mask_duration","actual_stim_duration","CMDispTime","maskArray","maskRotation","item_positions","task","randomSpinAmount","mainTask"
"true","false","[]","[]","[]","preload","0","17034","0.0-0.0","63be2cfef5b782c28baec197","640759fa512f630a2bdc333d","64076874bd67919fdff07e50","","","","","","","","","","","","","","","","","","","","","","","",""
"true","","","","","fullscreen","1","1651283","0.0-1.0","63be2cfef5b782c28baec197","640759fa512f630a2bdc333d","64076874bd67919fdff07e50","","","","","","","","","","","","","","","","","","","","","","","",""
"","","","","","html-keyboard-response","2","1656687","0.0-2.0","63be2cfef5b782c28baec197","640759fa512f630a2bdc333d","64076874bd67919fdff07e50","5400.800000000745","What a beautiful Tuesday to do some awesome science! </p> <p>  </p><p> </p>
    By completing this survey or questionnaire, you are consenting to be in this research study. </p>
    Your participation is voluntary and you can stop at any time.<p> [Press any key to continue] </p>","x","","","","","","","","","","","","","","","","","","","","",""
"","","","","","html-keyboard-response","3","1666719","0.0-3.0","63be2cfef5b782c28baec197","640759fa512f630a2bdc333d","64076874bd67919fdff07e50","3723","
    <div style='width: 1000px;'>
    <div style='float: center;'><img src='img/TaskInstructions1.png'></img>
    </div>
    "," ","","","","","","","","","","","","","","","","","","","","",""
"","","","","","html-keyboard-response","4","1671715","0.0-4.0","63be2cfef5b782c28baec197","640759fa512f630a2bdc333d","64076874bd67919fdff07e50","4992","
    <div style='width: 1000px;'>
    <div style='float: center;'><img src='img/TaskInstructions1.png'></img>
    </div>
    ","control","","","","","","","","","","","","","","","","","","","","",""
"","","","","","html-keyboard-response","5","1682709","0.0-5.0","63be2cfef5b782c28baec197","640759fa512f630a2bdc333d","64076874bd67919fdff07e50","67.5","
    <div style='width: 1000px;'>
    <div style='float: center;'><img src='img/TaskInstructions2.png'></img>
    </div>
    ","meta","","","","","","","","","","","","","","","","","","","","",""
"","","","","","html-keyboard-response","6","2163297","0.0-6.0","63be2cfef5b782c28baec197","640759fa512f630a2bdc333d","64076874bd67919fdff07e50","480582.4000000004","
    <div style='width: 1000px;'>
    <div style='float: center;'><img src='img/TaskInstructions2.png'></img>
    </div>
    ","control","","","","","","","","","","","","","","","","","","","","",""
"","","","","","video-keyboard-response","7","2163324","0.0-7.0","63be2cfef5b782c28baec197","640759fa512f630a2bdc333d","64076874bd67919fdff07e50","22.40000000037253","[""video/TaskInstructions3.mp4""]","meta","","","","","","","","","","","","","","","","","","","","",""
"","","","","","image-keyboard-response","8","2375027","0.0-8.0-0.0","63be2cfef5b782c28baec197","640759fa512f630a2bdc333d","64076874bd67919fdff07e50","211700.29999999888","img/training1.png","f","","","","","","","","","","","","","","","","","","","","",""
"","","","","","color-precision2","9","2380168","0.0-8.0-1.0-0.0","63be2cfef5b782c28baec197","640759fa512f630a2bdc333d","64076874bd67919fdff07e50","[65.30000000074506]","","","[29]","[334]","334","246","","[null]","[null]","[336]","0","0","1","0","498.89099999982864","1003.3730000006035","1000","","","0","training","",""
"","","","","","image-keyboard-response","10","2390987","0.0-8.0-0.1","63be2cfef5b782c28baec197","640759fa512f630a2bdc333d","64076874bd67919fdff07e50","10816.699999999255","img/training2.png","f","","","","","","","","","","","","","","","","","","","","",""
"","","","","","many-guess-6","11","2399912","0.0-8.0-1.1-0.1","63be2cfef5b782c28baec197","640759fa512f630a2bdc333d","64076874bd67919fdff07e50","[3093]","","","[28,20,12]","[169,194,105]","169","323","141.87785289975892","[141.87785289975892]","[178.87785289975892]","[177]","[30,120,30,300,30,30,300,210,120,210,30,120,300,300,30,30,210,210,120,300,210,300,120,120,120,300,120,300,300,120,210,300,120,300,30,120]","0","3","0","1000.2949999999255","1000.2879999997094","1000","[[[""img/mask80.png""],[""img/mask35.png""],[""img/mask40.png""]]]","","[28,20,12]","training","",""
"","","","","","image-keyboard-response","12","2411371","0.0-8.0-0.2","63be2cfef5b782c28baec197","640759fa512f630a2bdc333d","64076874bd67919fdff07e50","11457.800000000745","img/training3.png","f","","","","","","","","","","","","","","","","","","","","",""
"","","","","","[""many-guess-6""]","13","2417670","0.0-8.0-1.2-0.2","63be2cfef5b782c28baec197","640759fa512f630a2bdc333d","64076874bd67919fdff07e50","[2866.2999999988824]","","","[14,23,17,9,15]","[43,293,218,5,259]","43","304","143.99931933991536","[143.99931933991536]","[199.99931933991536]","[198]","[30,210,210,120,120,120,210,300,300,210,120,210,300,210,210,210,30,30,120,120,30,210,30,120,120,30,120,120,300,120,30,300,300,30,120,300]","0","5","0","498.7810000004247","498.4279999998398","500","[[[""img/mask96.png""],[""img/mask16.png""],[""img/mask10.png""],[""img/mask83.png""],[""img/mask68.png""]]]","","[14,23,17,9,15]","training","",""
"","","","","","image-keyboard-response","14","2423411","0.0-8.0-0.3","63be2cfef5b782c28baec197","640759fa512f630a2bdc333d","64076874bd67919fdff07e50","5740.10000000149","img/training4.png","f","","","","","","","","","","","","","","","","","","","","",""
"","","","","","[""many-guess-6""]","15","2428852","0.0-8.0-1.3-0.3","63be2cfef5b782c28baec197","640759fa512f630a2bdc333d","64076874bd67919fdff07e50","[2553.39999999851]","","","[16,2,15,20,23,11,25,29,33,7]","[231,157,192,131,82,47,109,7,33,203]","231","149","149.48474588089644","[149.48474588089644]","[0.48474588089644044]","[359]","[30,120,210,30,120,30,300,30,210,120,120,120,300,300,300,210,300,300,120,210,210,120,210,210,120,120,30,30,120,300,120,210,30,210,300,120]","0","10","0","132.40800000121817","136.9769999999553","132","[[[""img/mask10.png""],[""img/mask9.png""],[""img/mask82.png""],[""img/mask76.png""],[""img/mask34.png""],[""img/mask18.png""],[""img/mask41.png""],[""img/mask82.png""],[""img/mask26.png""],[""img/mask48.png""]]]","","[16,2,15,20,23,11,25,29,33,7]","training","",""
"","","","","","image-keyboard-response","16","2435378","0.0-8.0-0.4","63be2cfef5b782c28baec197","640759fa512f630a2bdc333d","64076874bd67919fdff07e50","6525.5","img/training5.png","f","","","","","","","","","","","","","","","","","","","","",""
"","","","","","[""many-guess-6""]","17","2439597","0.0-8.0-1.4-0.4","63be2cfef5b782c28baec197","640759fa512f630a2bdc333d","64076874bd67919fdff07e50","[1321.7000000011176]","","","[1,14,19,21,0,8,2,23,11,35,17,34,5,32,7,9,13,3,29,24,28,16,33,30,27,12,25,6,20,10,15,31,22,4,26,18]","[33,163,323,53,123,63,352,223,23,342,13,153,243,263,313,103,3,113,93,83,173,143,293,273,43,193,303,253,213,133,283,183,233,203,332,73]","33","255","320.4864346767795","[320.4864346767795]","[65.48643467677948]","[65]","[30,300,120,120,300,30,120,120,300,120,120,210,300,30,30,300,300,300,30,120,210,30,210,210,30,210,210,300,210,210,120,30,300,120,30,120]","0","36","0","131.8050000006333","8.688000001013279","16","[[[""img/mask45.png""],[""img/mask19.png""],[""img/mask51.png""],[""img/mask66.png""],[""img/mask25.png""],[""img/mask25.png""],[""img/mask45.png""],[""img/mask14.png""],[""img/mask52.png""],[""img/mask53.png""],[""img/mask85.png""],[""img/mask81.png""],[""img/mask92.png""],[""img/mask93.png""],[""img/mask87.png""],[""img/mask65.png""],[""img/mask63.png""],[""img/mask65.png""],[""img/mask43.png""],[""img/mask15.png""],[""img/mask81.png""],[""img/mask56.png""],[""img/mask84.png""],[""img/mask82.png""],[""img/mask68.png""],[""img/mask76.png""],[""img/mask16.png""],[""img/mask12.png""],[""img/mask50.png""],[""img/mask38.png""],[""img/mask32.png""],[""img/mask73.png""],[""img/mask82.png""],[""img/mask91.png""],[""img/mask3.png""],[""img/mask60.png""]]]","","[1,14,19,21,0,8,2,23,11,35,17,34,5,32,7,9,13,3,29,24,28,16,33,30,27,12,25,6,20,10,15,31,22,4,26,18]","training","",""
"","","","","","image-keyboard-response","18","2442818","0.0-9.0","63be2cfef5b782c28baec197","640759fa512f630a2bdc333d","64076874bd67919fdff07e50","3219.2000000011176","[""img/endTraining.png""]","f","","","","","","","","","","","","","","","","","","","","",""
"","","","","","many-guess-6","19","2446695","0.0-10.0-0.0-0.0","63be2cfef5b782c28baec197","640759fa512f630a2bdc333d","64076874bd67919fdff07e50","[1629.199999999255]","","","[34,23,10,15,4,0,6,28,1,17,14,2,20,5,35,18,32,25,13,31,11,26,21,9,33,27,16,12,3,29,7,8,19,30,22,24]","[223,54,74,343,104,303,84,333,213,273,14,263,153,133,64,313,203,293,283,114,34,163,183,323,233,4,24,193,143,353,173,124,94,243,253,44]","223","103","221.2115341238582","[221.2115341238582]","[118.2115341238582]","[119]","[120,30,210,120,120,30,30,30,210]","0","36","0","149.4340000008233","18.882000000216067","16","[[[""img/mask12.png""],[""img/mask45.png""],[""img/mask19.png""],[""img/mask19.png""],[""img/mask63.png""],[""img/mask60.png""],[""img/mask8.png""],[""img/mask40.png""],[""img/mask52.png""],[""img/mask70.png""],[""img/mask73.png""],[""img/mask56.png""],[""img/mask49.png""],[""img/mask37.png""],[""img/mask54.png""],[""img/mask93.png""],[""img/mask82.png""],[""img/mask51.png""],[""img/mask90.png""],[""img/mask35.png""],[""img/mask31.png""],[""img/mask62.png""],[""img/mask88.png""],[""img/mask95.png""],[""img/mask37.png""],[""img/mask43.png""],[""img/mask98.png""],[""img/mask48.png""],[""img/mask32.png""],[""img/mask89.png""],[""img/mask76.png""],[""img/mask61.png""],[""img/mask52.png""],[""img/mask4.png""],[""img/mask6.png""],[""img/mask99.png""]]]","","[34,23,10,15,4,0,6,28,1,17,14,2,20,5,35,18,32,25,13,31,11,26,21,9,33,27,16,12,3,29,7,8,19,30,22,24]","main","103","many-guess-6"
"","","","","","html-keyboard-response","20","2447200","0.0-10.0-1.0","63be2cfef5b782c28baec197","640759fa512f630a2bdc333d","64076874bd67919fdff07e50","null","","null","","","","","","","","","","","","","","","","","","","fixation","",""
"","","","","","color-precision2","21","2451729","0.0-10.0-0.1-0.1","63be2cfef5b782c28baec197","640759fa512f630a2bdc333d","64076874bd67919fdff07e50","[823.1999999992549]","","","[7]","[159]","159","204","9.208537736155543","[9.208537736155543]","[165.20853773615553]","[164]","0","0","1","0","149.30200000014156","1000.1950000012293","1000","[[[""img/mask37.png""]]]","","","main","204","color-precision2"
"","","","","","html-keyboard-response","22","2452238","0.0-10.0-1.1","63be2cfef5b782c28baec197","640759fa512f630a2bdc333d","64076874bd67919fdff07e50","null","","null","","","","","","","","","","","","","","","","","","","fixation","",""
"","","","","","color-precision2","23","2455790","0.0-10.0-0.2-0.2","63be2cfef5b782c28baec197","640759fa512f630a2bdc333d","64076874bd67919fdff07e50","[495.6000000014901]","","","[23]","[122]","122","288","44.558212263187066","[44.558212263187066]","[116.55821226318707]","[115]","0","0","1","0","148.6660000011325","1004.030999999959","1000","[[[""img/mask97.png""]]]","","","main","288","color-precision2"
"","","","","","html-keyboard-response","24","2456293","0.0-10.0-1.2","63be2cfef5b782c28baec197","640759fa512f630a2bdc333d","64076874bd67919fdff07e50","null","","null","","","","","","","","","","","","","","","","","","","fixation","",""
"","","","","","many-guess-6","25","2459151","0.0-10.0-0.3-0.3","63be2cfef5b782c28baec197","640759fa512f630a2bdc333d","64076874bd67919fdff07e50","[1456.5]","","","[29,20,23,9,10,35,8,2,13,3,26,0,21,16,14,5,6,33,24,4,31,19,30,27,25,11,32,12,7,15,22,17,28,34,1,18]","[187,276,177,37,286,346,246,306,57,137,117,356,196,226,256,17,206,157,127,216,236,27,47,67,326,97,7,147,266,316,296,87,77,336,107,167]","187","2","218.70142103785437","[218.70142103785437]","[216.70142103785437]","[216]","[120,300,30,30,210,300,120,300,30]","0","36","0","148.831999999471","13.737000001128763","16","[[[""img/mask88.png""],[""img/mask61.png""],[""img/mask87.png""],[""img/mask39.png""],[""img/mask72.png""],[""img/mask79.png""],[""img/mask17.png""],[""img/mask78.png""],[""img/mask57.png""],[""img/mask55.png""],[""img/mask36.png""],[""img/mask91.png""],[""img/mask95.png""],[""img/mask59.png""],[""img/mask90.png""],[""img/mask7.png""],[""img/mask41.png""],[""img/mask50.png""],[""img/mask82.png""],[""img/mask63.png""],[""img/mask2.png""],[""img/mask6.png""],[""img/mask65.png""],[""img/mask1.png""],[""img/mask54.png""],[""img/mask26.png""],[""img/mask83.png""],[""img/mask24.png""],[""img/mask36.png""],[""img/mask27.png""],[""img/mask80.png""],[""img/mask40.png""],[""img/mask82.png""],[""img/mask3.png""],[""img/mask12.png""],[""img/mask15.png""]]]","","[29,20,23,9,10,35,8,2,13,3,26,0,21,16,14,5,6,33,24,4,31,19,30,27,25,11,32,12,7,15,22,17,28,34,1,18]","main","2","many-guess-6"
"","","","","","html-keyboard-response","26","2459657","0.0-10.0-1.3","63be2cfef5b782c28baec197","640759fa512f630a2bdc333d","64076874bd67919fdff07e50","null","","null","","","","","","","","","","","","","","","","","","","fixation","",""
"","","","","","many-guess-6","27","2462591","0.0-10.0-0.4-0.4","63be2cfef5b782c28baec197","640759fa512f630a2bdc333d","64076874bd67919fdff07e50","[1425.800000000745]","","","[21,15,10,31,14,25,9,23,32,34,20,33,18,35,26,22,2,8,27,16,7,6,5,0,19,13,1,12,4,17,28,24,29,11,30,3]","[188,298,288,29,78,248,68,108,148,338,308,98,168,348,158,88,138,208,49,328,318,178,228,128,358,218,9,118,39,268,19,59,258,238,278,198]","188","299","295.55018341917616","[295.55018341917616]","[356.55018341917616]","[357]","[300,300,210,30,120,210,210,300,210]","0","36","0","148.6319999997504","23.26699999999255","16","[[[""img/mask80.png""],[""img/mask62.png""],[""img/mask34.png""],[""img/mask60.png""],[""img/mask8.png""],[""img/mask85.png""],[""img/mask53.png""],[""img/mask52.png""],[""img/mask78.png""],[""img/mask42.png""],[""img/mask21.png""],[""img/mask32.png""],[""img/mask21.png""],[""img/mask1.png""],[""img/mask87.png""],[""img/mask72.png""],[""img/mask48.png""],[""img/mask69.png""],[""img/mask64.png""],[""img/mask70.png""],[""img/mask77.png""],[""img/mask47.png""],[""img/mask77.png""],[""img/mask9.png""],[""img/mask30.png""],[""img/mask6.png""],[""img/mask13.png""],[""img/mask95.png""],[""img/mask68.png""],[""img/mask89.png""],[""img/mask21.png""],[""img/mask83.png""],[""img/mask2.png""],[""img/mask98.png""],[""img/mask85.png""],[""img/mask41.png""]]]","","[21,15,10,31,14,25,9,23,32,34,20,33,18,35,26,22,2,8,27,16,7,6,5,0,19,13,1,12,4,17,28,24,29,11,30,3]","main","299","many-guess-6"
"","","","","","html-keyboard-response","28","2463097","0.0-10.0-1.4","63be2cfef5b782c28baec197","640759fa512f630a2bdc333d","64076874bd67919fdff07e50","null","","null","","","","","","","","","","","","","","","","","","","fixation","",""
"","","","","","many-guess-6","29","2468029","0.0-10.0-0.5-0.5","63be2cfef5b782c28baec197","640759fa512f630a2bdc333d","64076874bd67919fdff07e50","[1541.7999999988824]","","","[26,14,4,5,1,20,21,27,18,23,16,33,34,25,8,3,29,32,0,9,11,6,10,35,13,7,19,22,31,17,24,12,30,28,15,2]","[244,294,274,184,154,323,343,4,254,124,64,84,144,104,54,134,214,24,303,204,44,194,164,333,74,353,174,313,94,14,234,224,264,34,114,284]","244","223","103.60101816750291","[103.60101816750291]","[240.6010181675029]","[239]","[30,210,120,30,120,210,120,300,300]","0","36","0","149.1390000008978","14.496000000275671","16","[[[""img/mask61.png""],[""img/mask20.png""],[""img/mask8.png""],[""img/mask16.png""],[""img/mask78.png""],[""img/mask40.png""],[""img/mask10.png""],[""img/mask19.png""],[""img/mask72.png""],[""img/mask39.png""],[""img/mask73.png""],[""img/mask54.png""],[""img/mask23.png""],[""img/mask90.png""],[""img/mask5.png""],[""img/mask60.png""],[""img/mask30.png""],[""img/mask4.png""],[""img/mask37.png""],[""img/mask31.png""],[""img/mask23.png""],[""img/mask37.png""],[""img/mask27.png""],[""img/mask19.png""],[""img/mask45.png""],[""img/mask10.png""],[""img/mask49.png""],[""img/mask42.png""],[""img/mask58.png""],[""img/mask28.png""],[""img/mask89.png""],[""img/mask87.png""],[""img/mask91.png""],[""img/mask78.png""],[""img/mask23.png""],[""img/mask67.png""]]]","","[26,14,4,5,1,20,21,27,18,23,16,33,34,25,8,3,29,32,0,9,11,6,10,35,13,7,19,22,31,17,24,12,30,28,15,2]","main","223","many-guess-6"
"","","","","","html-keyboard-response","30","2468530","0.0-10.0-1.5","63be2cfef5b782c28baec197","640759fa512f630a2bdc333d","64076874bd67919fdff07e50","null","","null","","","","","","","","","","","","","","","","","","","fixation","",""
"","","","","","color-precision2","31","2472469","0.0-10.0-0.6-0.6","63be2cfef5b782c28baec197","640759fa512f630a2bdc333d","64076874bd67919fdff07e50","[726.8999999985099]","","","[22]","[352]","352","88","82.17567876363405","[82.17567876363405]","[354.17567876363404]","[352]","0","0","1","0","149.59999999962747","1005.2809999994934","1000","[[[""img/mask7.png""]]]","","","main","88","color-precision2"
"","","","","","html-keyboard-response","32","2472971","0.0-10.0-1.6","63be2cfef5b782c28baec197","640759fa512f630a2bdc333d","64076874bd67919fdff07e50","null","","null","","","","","","","","","","","","","","","","","","","fixation","",""
"","","","","","color-precision2","33","2476359","0.0-10.0-0.7-0.7","63be2cfef5b782c28baec197","640759fa512f630a2bdc333d","64076874bd67919fdff07e50","[262.3999999985099]","","","[16]","[131]","131","100","229.92315273284066","[229.92315273284066]","[129.92315273284066]","[131]","0","0","1","0","149.09500000067055","1000.0559999994002","1000","[[[""img/mask6.png""]]]","","","main","100","color-precision2"
"","","","","","html-keyboard-response","34","2476863","0.0-10.0-1.7","63be2cfef5b782c28baec197","640759fa512f630a2bdc333d","64076874bd67919fdff07e50","null","","null","","","","","","","","","","","","","","","","","","","fixation","",""
"","","","","","color-precision2","35","2479432","0.0-10.0-0.8-0.8","63be2cfef5b782c28baec197","640759fa512f630a2bdc333d","64076874bd67919fdff07e50","[264.59999999962747]","","","[35]","[201]","201","267","95.7932082120799","[95.7932082120799]","[188.7932082120799]","[187]","0","0","1","0","148.67999999970198","1002.9780000005849","1000","[[[""img/mask2.png""]]]","","","main","267","color-precision2"
"","","","","","html-keyboard-response","36","2479934","0.0-10.0-1.8","63be2cfef5b782c28baec197","640759fa512f630a2bdc333d","64076874bd67919fdff07e50","null","","null","","","","","","","","","","","","","","","","","","","fixation","",""
"","","","","","color-precision2","37","2483001","0.0-10.0-0.9-0.9","63be2cfef5b782c28baec197","640759fa512f630a2bdc333d","64076874bd67919fdff07e50","[513.7999999988824]","","","[2]","[135]","135","141","289.5288581945067","[289.5288581945067]","[148.5288581945067]","[149]","0","0","1","0","148.9879999998957","1004.6970000001602","1000","[[[""img/mask37.png""]]]","","","main","141","color-precision2"
"","","","","","html-keyboard-response","38","2483504","0.0-10.0-1.9","63be2cfef5b782c28baec197","640759fa512f630a2bdc333d","64076874bd67919fdff07e50","null","","null","","","","","","","","","","","","","","","","","","","fixation","",""
"","","","","","many-guess-6","39","2486301","0.0-10.0-0.10-0.10","63be2cfef5b782c28baec197","640759fa512f630a2bdc333d","64076874bd67919fdff07e50","[1495.9000000003725]","","","[32,30,18,11,17,7,28,27,31,5,0,16,3,35,10,21,6,15,22,29,20,13,24,9,33,4,23,1,12,8,34,19,14,25,2,26]","[293,64,303,343,223,154,313,233,353,323,24,243,134,263,193,183,4,203,94,333,213,84,273,253,44,144,34,14,164,114,104,124,283,173,74,54]","293","233","276.53222090134705","[276.53222090134705]","[43.532220901347046]","[44]","[300,120,120,300,120,120,30,210,120]","0","36","0","149.21100000105798","12.778999999631196","16","[[[""img/mask99.png""],[""img/mask50.png""],[""img/mask64.png""],[""img/mask85.png""],[""img/mask18.png""],[""img/mask31.png""],[""img/mask44.png""],[""img/mask30.png""],[""img/mask38.png""],[""img/mask68.png""],[""img/mask52.png""],[""img/mask19.png""],[""img/mask95.png""],[""img/mask64.png""],[""img/mask86.png""],[""img/mask69.png""],[""img/mask73.png""],[""img/mask69.png""],[""img/mask60.png""],[""img/mask20.png""],[""img/mask89.png""],[""img/mask90.png""],[""img/mask41.png""],[""img/mask59.png""],[""img/mask50.png""],[""img/mask73.png""],[""img/mask1.png""],[""img/mask3.png""],[""img/mask81.png""],[""img/mask20.png""],[""img/mask36.png""],[""img/mask4.png""],[""img/mask51.png""],[""img/mask58.png""],[""img/mask43.png""],[""img/mask56.png""]]]","","[32,30,18,11,17,7,28,27,31,5,0,16,3,35,10,21,6,15,22,29,20,13,24,9,33,4,23,1,12,8,34,19,14,25,2,26]","main","233","many-guess-6"
"","","","","","html-keyboard-response","40","2486802","0.0-10.0-1.10","63be2cfef5b782c28baec197","640759fa512f630a2bdc333d","64076874bd67919fdff07e50","null","","null","","","","","","","","","","","","","","","","","","","fixation","",""
"","","","","","color-precision2","41","2489291","0.0-10.0-0.11-0.11","63be2cfef5b782c28baec197","640759fa512f630a2bdc333d","64076874bd67919fdff07e50","[162.7000000011176]","","","[17]","[199]","199","169","349.20198513882116","[349.20198513882116]","[180.20198513882116]","[180]","0","0","1","0","148.6579999998212","1004.4220000011846","1000","[[[""img/mask87.png""]]]","","","main","169","color-precision2"
"","","","","","html-keyboard-response","42","2489803","0.0-10.0-1.11","63be2cfef5b782c28baec197","640759fa512f630a2bdc333d","64076874bd67919fdff07e50","null","","null","","","","","","","","","","","","","","","","","","","fixation","",""
"","","","","","color-precision2","43","2494035","0.0-10.0-0.12-0.12","63be2cfef5b782c28baec197","640759fa512f630a2bdc333d","64076874bd67919fdff07e50","[1471.199999999255]","","","[26]","[348]","348","321","322.38031415775","[322.38031415775]","[1.3803141577499787]","[1]","0","0","1","0","149.58700000029057","1007.8739999998361","1000","[[[""img/mask85.png""]]]","","","main","321","color-precision2"
"","","","","","html-keyboard-response","44","2494539","0.0-10.0-1.12","63be2cfef5b782c28baec197","640759fa512f630a2bdc333d","64076874bd67919fdff07e50","null","","null","","","","","","","","","","","","","","","","","","","fixation","",""
"","","","","","color-precision2","45","2497802","0.0-10.0-0.13-0.13","63be2cfef5b782c28baec197","640759fa512f630a2bdc333d","64076874bd67919fdff07e50","[1000.2999999988824]","","","[30]","[303]","303","109","48.637542729302474","[48.637542729302474]","[299.6375427293025]","[298]","0","0","1","0","148.3600000012666","1002.0049999994226","1000","[[[""img/mask79.png""]]]","","","main","109","color-precision2"
"","","","","","html-keyboard-response","46","2498306","0.0-10.0-1.13","63be2cfef5b782c28baec197","640759fa512f630a2bdc333d","64076874bd67919fdff07e50","null","","null","","","","","","","","","","","","","","","","","","","fixation","",""
"","","","","","color-precision2","47","2501274","0.0-10.0-0.14-0.14","63be2cfef5b782c28baec197","640759fa512f630a2bdc333d","64076874bd67919fdff07e50","[385.2999999988824]","","","[15]","[7]","7","91","75.17060654429703","[75.17060654429703]","[344.170606544297]","[342]","0","0","1","0","148.039000000339","1007.7990000001155","1000","[[[""img/mask81.png""]]]","","","main","91","color-precision2"
"","","","","","html-keyboard-response","48","2501779","0.0-10.0-1.14","63be2cfef5b782c28baec197","640759fa512f630a2bdc333d","64076874bd67919fdff07e50","null","","null","","","","","","","","","","","","","","","","","","","fixation","",""
"","","","","","many-guess-6","49","2505266","0.0-10.0-0.15-0.15","63be2cfef5b782c28baec197","640759fa512f630a2bdc333d","64076874bd67919fdff07e50","[1690.9000000003725]","","","[14,34,4,13,24,11,12,17,8,30,1,16,7,20,6,23,31,21,22,35,19,33,27,10,15,25,26,9,0,29,32,5,18,2,3,28]","[275,136,355,236,166,305,206,186,36,16,196,156,106,325,176,46,265,56,126,26,315,86,246,146,116,345,295,216,66,256,335,226,285,6,96,76]","275","118","190.88707280556886","[190.88707280556886]","[72.88707280556886]","[72]","[210,210,30,300,300,120,300,210,30]","0","36","0","148.68399999989197","11.401999999769032","16","[[[""img/mask42.png""],[""img/mask62.png""],[""img/mask75.png""],[""img/mask4.png""],[""img/mask3.png""],[""img/mask92.png""],[""img/mask81.png""],[""img/mask52.png""],[""img/mask58.png""],[""img/mask75.png""],[""img/mask56.png""],[""img/mask97.png""],[""img/mask100.png""],[""img/mask35.png""],[""img/mask85.png""],[""img/mask17.png""],[""img/mask35.png""],[""img/mask4.png""],[""img/mask80.png""],[""img/mask29.png""],[""img/mask13.png""],[""img/mask90.png""],[""img/mask85.png""],[""img/mask79.png""],[""img/mask80.png""],[""img/mask47.png""],[""img/mask80.png""],[""img/mask78.png""],[""img/mask41.png""],[""img/mask32.png""],[""img/mask61.png""],[""img/mask86.png""],[""img/mask67.png""],[""img/mask63.png""],[""img/mask20.png""],[""img/mask9.png""]]]","","[14,34,4,13,24,11,12,17,8,30,1,16,7,20,6,23,31,21,22,35,19,33,27,10,15,25,26,9,0,29,32,5,18,2,3,28]","main","118","many-guess-6"
"","","","","","html-keyboard-response","50","2505771","0.0-10.0-1.15","63be2cfef5b782c28baec197","640759fa512f630a2bdc333d","64076874bd67919fdff07e50","null","","null","","","","","","","","","","","","","","","","","","","fixation","",""
"","","","","","many-guess-6","51","2508988","0.0-10.0-0.16-0.16","63be2cfef5b782c28baec197","640759fa512f630a2bdc333d","64076874bd67919fdff07e50","[1292.5999999996275]","","","[34,21,20,27,14,19,23,0,1,26,9,16,17,11,10,28,7,33,5,35,6,15,32,24,22,31,13,2,8,4,25,12,3,18,29,30]","[198,178,118,268,308,38,168,98,128,188,78,298,148,248,218,138,28,328,358,348,9,108,68,58,258,318,208,238,228,48,278,338,18,88,158,288]","198","8","43.53991338584079","[43.53991338584079]","[35.53991338584079]","[34]","[120,120,30,300,30,300,120,120,210]","0","36","0","149.41399999987334","13.429000000469387","16","[[[""img/mask90.png""],[""img/mask47.png""],[""img/mask58.png""],[""img/mask95.png""],[""img/mask25.png""],[""img/mask47.png""],[""img/mask90.png""],[""img/mask66.png""],[""img/mask77.png""],[""img/mask94.png""],[""img/mask49.png""],[""img/mask62.png""],[""img/mask1.png""],[""img/mask66.png""],[""img/mask93.png""],[""img/mask68.png""],[""img/mask85.png""],[""img/mask53.png""],[""img/mask33.png""],[""img/mask41.png""],[""img/mask28.png""],[""img/mask71.png""],[""img/mask17.png""],[""img/mask65.png""],[""img/mask19.png""],[""img/mask81.png""],[""img/mask13.png""],[""img/mask13.png""],[""img/mask32.png""],[""img/mask58.png""],[""img/mask49.png""],[""img/mask15.png""],[""img/mask32.png""],[""img/mask57.png""],[""img/mask47.png""],[""img/mask14.png""]]]","","[34,21,20,27,14,19,23,0,1,26,9,16,17,11,10,28,7,33,5,35,6,15,32,24,22,31,13,2,8,4,25,12,3,18,29,30]","main","8","many-guess-6"
"","","","","","html-keyboard-response","52","2509493","0.0-10.0-1.16","63be2cfef5b782c28baec197","640759fa512f630a2bdc333d","64076874bd67919fdff07e50","null","","null","","","","","","","","","","","","","","","","","","","fixation","",""
"","","","","","many-guess-6","53","2514853","0.0-10.0-0.17-0.17","63be2cfef5b782c28baec197","640759fa512f630a2bdc333d","64076874bd67919fdff07e50","[1936.5]","","","[27,25,22,20,31,35,2,9,18,26,5,21,24,14,4,0,13,7,3,29,17,30,10,15,23,1,28,34,12,11,8,32,33,19,6,16]","[327,108,157,18,167,267,337,357,187,118,8,247,227,347,287,147,28,78,207,137,88,317,98,38,177,297,237,68,197,217,58,48,127,277,307,257]","327","180","286.2720854015286","[286.2720854015286]","[106.27208540152861]","[106]","[120,30,120,210,120,30,300,30,210]","0","36","0","148.953000000678","20.692000000737607","16","[[[""img/mask31.png""],[""img/mask24.png""],[""img/mask75.png""],[""img/mask96.png""],[""img/mask47.png""],[""img/mask26.png""],[""img/mask100.png""],[""img/mask36.png""],[""img/mask83.png""],[""img/mask87.png""],[""img/mask54.png""],[""img/mask77.png""],[""img/mask9.png""],[""img/mask35.png""],[""img/mask36.png""],[""img/mask27.png""],[""img/mask42.png""],[""img/mask83.png""],[""img/mask6.png""],[""img/mask44.png""],[""img/mask73.png""],[""img/mask20.png""],[""img/mask15.png""],[""img/mask94.png""],[""img/mask96.png""],[""img/mask22.png""],[""img/mask49.png""],[""img/mask91.png""],[""img/mask56.png""],[""img/mask80.png""],[""img/mask98.png""],[""img/mask86.png""],[""img/mask60.png""],[""img/mask41.png""],[""img/mask98.png""],[""img/mask54.png""]]]","","[27,25,22,20,31,35,2,9,18,26,5,21,24,14,4,0,13,7,3,29,17,30,10,15,23,1,28,34,12,11,8,32,33,19,6,16]","main","180","many-guess-6"
"","","","","","html-keyboard-response","54","2515362","0.0-10.0-1.17","63be2cfef5b782c28baec197","640759fa512f630a2bdc333d","64076874bd67919fdff07e50","null","","null","","","","","","","","","","","","","","","","","","","fixation","",""
"","","","","","many-guess-6","55","2518246","0.0-10.0-0.18-0.18","63be2cfef5b782c28baec197","640759fa512f630a2bdc333d","64076874bd67919fdff07e50","[1208]","","","[11,4,19,29,30,34,10,8,0,20,18,25,27,7,32,16,13,14,3,21,24,12,35,22,5,31,15,1,9,2,28,23,17,6,33,26]","[46,66,155,265,105,76,235,125,165,26,345,285,215,355,245,6,205,275,56,305,115,255,325,315,16,335,195,295,185,36,86,175,145,225,135,95]","46","34","168.24142566109757","[168.24142566109757]","[134.24142566109757]","[133]","[120,30,30,30,120,210,300,30,300]","0","36","0","148.53199999965727","19.84599999943748","16","[[[""img/mask45.png""],[""img/mask55.png""],[""img/mask59.png""],[""img/mask59.png""],[""img/mask47.png""],[""img/mask23.png""],[""img/mask37.png""],[""img/mask100.png""],[""img/mask69.png""],[""img/mask45.png""],[""img/mask84.png""],[""img/mask20.png""],[""img/mask91.png""],[""img/mask41.png""],[""img/mask21.png""],[""img/mask55.png""],[""img/mask6.png""],[""img/mask25.png""],[""img/mask79.png""],[""img/mask73.png""],[""img/mask73.png""],[""img/mask9.png""],[""img/mask21.png""],[""img/mask63.png""],[""img/mask97.png""],[""img/mask16.png""],[""img/mask10.png""],[""img/mask100.png""],[""img/mask28.png""],[""img/mask81.png""],[""img/mask13.png""],[""img/mask50.png""],[""img/mask73.png""],[""img/mask44.png""],[""img/mask47.png""],[""img/mask76.png""]]]","","[11,4,19,29,30,34,10,8,0,20,18,25,27,7,32,16,13,14,3,21,24,12,35,22,5,31,15,1,9,2,28,23,17,6,33,26]","main","34","many-guess-6"
"","","","","","html-keyboard-response","56","2518746","0.0-10.0-1.18","63be2cfef5b782c28baec197","640759fa512f630a2bdc333d","64076874bd67919fdff07e50","null","","null","","","","","","","","","","","","","","","","","","","fixation","",""
"","","","","","color-precision2","57","2522968","0.0-10.0-0.19-0.19","63be2cfef5b782c28baec197","640759fa512f630a2bdc333d","64076874bd67919fdff07e50","[924.9000000003725]","","","[27]","[96]","96","255","337.9882232044619","[337.9882232044619]","[82.98822320446192]","[83]","0","0","1","0","148.0770000005141","999.4080000007525","1000","[[[""img/mask3.png""]]]","","","main","255","color-precision2"
"","","","","","html-keyboard-response","58","2527393","0.0-10.0-1.19","63be2cfef5b782c28baec197","640759fa512f630a2bdc333d","64076874bd67919fdff07e50","4424.9000000003725","Wow! You've completed 20 out of 180 trials! </p> <p>  </p><p> Take a quick break, then press any key when you're ready to continue.","control","","","","","","","","","","","","","","","","","","","fixation","",""
"","","","","","color-precision2","59","2587900","0.0-10.0-0.20-0.20","63be2cfef5b782c28baec197","640759fa512f630a2bdc333d","64076874bd67919fdff07e50","[475.2999999988824]","","","[11]","[256]","256","271","175.18004539862451","[175.18004539862451]","[264.18004539862454]","[263]","0","0","1","0","149.1910000005737","1004.3410000000149","1000","[[[""img/mask73.png""]]]","","","main","271","color-precision2"
"","","","","","html-keyboard-response","60","2588403","0.0-10.0-1.20","63be2cfef5b782c28baec197","640759fa512f630a2bdc333d","64076874bd67919fdff07e50","null","","null","","","","","","","","","","","","","","","","","","","fixation","",""
"","","","","","color-precision2","61","2591104","0.0-10.0-0.21-0.21","63be2cfef5b782c28baec197","640759fa512f630a2bdc333d","64076874bd67919fdff07e50","[159.69999999925494]","","","[27]","[319]","319","113","77.9097662144757","[77.9097662144757]","[324.90976621447567]","[323]","0","0","1","0","149.09800000069663","995.180000001099","1000","[[[""img/mask48.png""]]]","","","main","113","color-precision2"
"","","","","","html-keyboard-response","62","2591610","0.0-10.0-1.21","63be2cfef5b782c28baec197","640759fa512f630a2bdc333d","64076874bd67919fdff07e50","null","","null","","","","","","","","","","","","","","","","","","","fixation","",""
"","","","","","color-precision2","63","2594174","0.0-10.0-0.22-0.22","63be2cfef5b782c28baec197","640759fa512f630a2bdc333d","64076874bd67919fdff07e50","[176.5]","","","[13]","[287]","287","331","","[null]","[null]","[283]","0","0","1","0","147.64200000092387","1001.2090000011958","1000","[[[""img/mask10.png""]]]","","","main","331","color-precision2"
"","","","","","html-keyboard-response","64","2594677","0.0-10.0-1.22","63be2cfef5b782c28baec197","640759fa512f630a2bdc333d","64076874bd67919fdff07e50","null","","null","","","","","","","","","","","","","","","","","","","fixation","",""
"","","","","","many-guess-6","65","2597323","0.0-10.0-0.23-0.23","63be2cfef5b782c28baec197","640759fa512f630a2bdc333d","64076874bd67919fdff07e50","[1437.4000000003725]","","","[20,23,2,26,12,10,33,1,29,5,15,6,27,28,34,32,13,25,14,4,31,0,11,35,3,30,9,19,22,17,21,8,7,18,24,16]","[118,298,48,248,318,328,9,128,98,148,188,38,58,208,238,258,358,78,278,19,88,29,108,348,158,218,288,68,178,168,198,268,228,138,308,338]","118","159","250.99670976069334","[250.99670976069334]","[91.99670976069334]","[92]","[30,30,210,300,30,210,300,300,300]","0","36","0","147.0610000002198","15.06800000090152","16","[[[""img/mask35.png""],[""img/mask17.png""],[""img/mask50.png""],[""img/mask20.png""],[""img/mask52.png""],[""img/mask73.png""],[""img/mask66.png""],[""img/mask61.png""],[""img/mask38.png""],[""img/mask49.png""],[""img/mask88.png""],[""img/mask86.png""],[""img/mask17.png""],[""img/mask67.png""],[""img/mask68.png""],[""img/mask35.png""],[""img/mask89.png""],[""img/mask40.png""],[""img/mask60.png""],[""img/mask80.png""],[""img/mask45.png""],[""img/mask76.png""],[""img/mask93.png""],[""img/mask65.png""],[""img/mask6.png""],[""img/mask36.png""],[""img/mask91.png""],[""img/mask94.png""],[""img/mask75.png""],[""img/mask55.png""],[""img/mask69.png""],[""img/mask89.png""],[""img/mask40.png""],[""img/mask92.png""],[""img/mask10.png""],[""img/mask12.png""]]]","","[20,23,2,26,12,10,33,1,29,5,15,6,27,28,34,32,13,25,14,4,31,0,11,35,3,30,9,19,22,17,21,8,7,18,24,16]","main","159","many-guess-6"
"","","","","","html-keyboard-response","66","2597827","0.0-10.0-1.23","63be2cfef5b782c28baec197","640759fa512f630a2bdc333d","64076874bd67919fdff07e50","null","","null","","","","","","","","","","","","","","","","","","","fixation","",""
"","","","","","color-precision2","67","2600842","0.0-10.0-0.24-0.24","63be2cfef5b782c28baec197","640759fa512f630a2bdc333d","64076874bd67919fdff07e50","[888.4000000003725]","","","[31]","[255]","255","197","69.9152920036658","[69.9152920036658]","[232.9152920036658]","[231]","0","0","1","0","147.63300000037998","992.6230000010692","1000","[[[""img/mask68.png""]]]","","","main","197","color-precision2"
"","","","","","html-keyboard-response","68","2601350","0.0-10.0-1.24","63be2cfef5b782c28baec197","640759fa512f630a2bdc333d","64076874bd67919fdff07e50","null","","null","","","","","","","","","","","","","","","","","","","fixation","",""
"","","","","","color-precision2","69","2604944","0.0-10.0-0.25-0.25","63be2cfef5b782c28baec197","640759fa512f630a2bdc333d","64076874bd67919fdff07e50","[136.10000000149012]","","","[0]","[203]","203","115","","[null]","[null]","[199]","0","0","1","0","148.73099999967963","995.3129999996163","1000","[[[""img/mask73.png""]]]","","","main","115","color-precision2"
"","","","","","html-keyboard-response","70","2605450","0.0-10.0-1.25","63be2cfef5b782c28baec197","640759fa512f630a2bdc333d","64076874bd67919fdff07e50","null","","null","","","","","","","","","","","","","","","","","","","fixation","",""
"","","","","","color-precision2","71","2611582","0.0-10.0-0.26-0.26","63be2cfef5b782c28baec197","640759fa512f630a2bdc333d","64076874bd67919fdff07e50","[3771.0999999996275]","","","[10]","[147]","147","98","257.3157868643915","[257.3157868643915]","[159.3157868643915]","[159]","0","0","1","0","149.3819999997504","997.8229999998584","1000","[[[""img/mask32.png""]]]","","","main","98","color-precision2"
"","","","","","html-keyboard-response","72","2612090","0.0-10.0-1.26","63be2cfef5b782c28baec197","640759fa512f630a2bdc333d","64076874bd67919fdff07e50","null","","null","","","","","","","","","","","","","","","","","","","fixation","",""
"","","","","","many-guess-6","73","2614523","0.0-10.0-0.27-0.27","63be2cfef5b782c28baec197","640759fa512f630a2bdc333d","64076874bd67919fdff07e50","[1239]","","","[2,11,25,26,14,16,18,29,5,15,9,24,19,27,12,23,3,35,30,13,31,7,22,32,10,21,0,8,34,4,33,17,1,6,28,20]","[165,125,6,65,145,195,85,315,36,46,26,75,235,105,56,215,115,335,16,95,245,275,155,185,175,265,225,285,345,295,355,205,305,325,135,255]","165","27","296.2619698590963","[296.2619698590963]","[269.2619698590963]","[269]","[30,300,210,120,120,210,120,30,30]","0","36","0","148.71599999954924","18.00099999969825","16","[[[""img/mask84.png""],[""img/mask88.png""],[""img/mask52.png""],[""img/mask43.png""],[""img/mask20.png""],[""img/mask36.png""],[""img/mask34.png""],[""img/mask7.png""],[""img/mask9.png""],[""img/mask57.png""],[""img/mask23.png""],[""img/mask47.png""],[""img/mask86.png""],[""img/mask58.png""],[""img/mask59.png""],[""img/mask21.png""],[""img/mask88.png""],[""img/mask43.png""],[""img/mask84.png""],[""img/mask48.png""],[""img/mask51.png""],[""img/mask91.png""],[""img/mask38.png""],[""img/mask51.png""],[""img/mask67.png""],[""img/mask59.png""],[""img/mask5.png""],[""img/mask53.png""],[""img/mask100.png""],[""img/mask60.png""],[""img/mask49.png""],[""img/mask20.png""],[""img/mask37.png""],[""img/mask21.png""],[""img/mask49.png""],[""img/mask59.png""]]]","","[2,11,25,26,14,16,18,29,5,15,9,24,19,27,12,23,3,35,30,13,31,7,22,32,10,21,0,8,34,4,33,17,1,6,28,20]","main","27","many-guess-6"
"","","","","","html-keyboard-response","74","2615026","0.0-10.0-1.27","63be2cfef5b782c28baec197","640759fa512f630a2bdc333d","64076874bd67919fdff07e50","null","","null","","","","","","","","","","","","","","","","","","","fixation","",""
"","","","","","many-guess-6","75","2617955","0.0-10.0-0.28-0.28","63be2cfef5b782c28baec197","640759fa512f630a2bdc333d","64076874bd67919fdff07e50","[1435.5999999996275]","","","[32,10,3,9,14,27,35,28,6,16,20,34,5,19,12,4,24,17,30,18,33,13,2,11,0,15,26,1,21,8,22,31,25,23,29,7]","[108,69,278,19,49,298,128,29,188,348,148,268,59,158,168,198,178,118,258,138,308,288,98,88,238,228,338,248,79,39,9,208,218,358,318,328]","108","286","322.1812338620173","[322.1812338620173]","[36.18123386201728]","[36]","[30,120,30,210,30,300,30,300,120]","0","36","0","148.7590000005439","21.4120000009425","16","[[[""img/mask22.png""],[""img/mask49.png""],[""img/mask59.png""],[""img/mask82.png""],[""img/mask67.png""],[""img/mask57.png""],[""img/mask53.png""],[""img/mask89.png""],[""img/mask47.png""],[""img/mask50.png""],[""img/mask80.png""],[""img/mask76.png""],[""img/mask22.png""],[""img/mask8.png""],[""img/mask67.png""],[""img/mask17.png""],[""img/mask22.png""],[""img/mask32.png""],[""img/mask44.png""],[""img/mask45.png""],[""img/mask80.png""],[""img/mask77.png""],[""img/mask52.png""],[""img/mask36.png""],[""img/mask36.png""],[""img/mask86.png""],[""img/mask39.png""],[""img/mask59.png""],[""img/mask77.png""],[""img/mask97.png""],[""img/mask22.png""],[""img/mask57.png""],[""img/mask83.png""],[""img/mask24.png""],[""img/mask26.png""],[""img/mask93.png""]]]","","[32,10,3,9,14,27,35,28,6,16,20,34,5,19,12,4,24,17,30,18,33,13,2,11,0,15,26,1,21,8,22,31,25,23,29,7]","main","286","many-guess-6"
"","","","","","html-keyboard-response","76","2618458","0.0-10.0-1.28","63be2cfef5b782c28baec197","640759fa512f630a2bdc333d","64076874bd67919fdff07e50","null","","null","","","","","","","","","","","","","","","","","","","fixation","",""
"","","","","","color-precision2","77","2621252","0.0-10.0-0.29-0.29","63be2cfef5b782c28baec197","640759fa512f630a2bdc333d","64076874bd67919fdff07e50","[411.2999999988824]","","","[25]","[316]","316","4","339.7221459956794","[339.7221459956794]","[335.7221459956794]","[335]","0","0","1","0","149.17400000011548","998.0280000013299","1000","[[[""img/mask72.png""]]]","","","main","4","color-precision2"
"","","","","","html-keyboard-response","78","2621754","0.0-10.0-1.29","63be2cfef5b782c28baec197","640759fa512f630a2bdc333d","64076874bd67919fdff07e50","null","","null","","","","","","","","","","","","","","","","","","","fixation","",""
"","","","","","color-precision2","79","2625686","0.0-10.0-0.30-0.30","63be2cfef5b782c28baec197","640759fa512f630a2bdc333d","64076874bd67919fdff07e50","[374]","","","[2]","[89]","89","174","272.6893372996026","[272.6893372996026]","[98.68933729960258]","[99]","0","0","1","0","149.27900000009686","997.2750000008382","1000","[[[""img/mask72.png""]]]","","","main","174","color-precision2"
"","","","","","html-keyboard-response","80","2626186","0.0-10.0-1.30","63be2cfef5b782c28baec197","640759fa512f630a2bdc333d","64076874bd67919fdff07e50","null","","null","","","","","","","","","","","","","","","","","","","fixation","",""
"","","","","","color-precision2","81","2629103","0.0-10.0-0.31-0.31","63be2cfef5b782c28baec197","640759fa512f630a2bdc333d","64076874bd67919fdff07e50","[704.8000000007451]","","","[6]","[258]","258","226","106.72451249233917","[106.72451249233917]","[240.72451249233916]","[239]","0","0","1","0","148.56600000010803","995.4900000011548","1000","[[[""img/mask50.png""]]]","","","main","226","color-precision2"
"","","","","","html-keyboard-response","82","2629611","0.0-10.0-1.31","63be2cfef5b782c28baec197","640759fa512f630a2bdc333d","64076874bd67919fdff07e50","null","","null","","","","","","","","","","","","","","","","","","","fixation","",""
"","","","","","many-guess-6","83","2632653","0.0-10.0-0.32-0.32","63be2cfef5b782c28baec197","640759fa512f630a2bdc333d","64076874bd67919fdff07e50","[1452.9000000003725]","","","[29,34,4,20,13,28,12,19,23,6,15,26,14,7,21,30,1,17,27,22,32,2,3,0,16,11,8,31,24,33,35,5,25,10,18,9]","[261,281,251,112,62,142,271,191,2,162,341,351,311,291,321,22,171,82,201,132,221,122,181,331,211,72,231,52,12,152,241,92,42,301,102,32]","261","227","146.3788244350454","[146.3788244350454]","[279.37882443504543]","[278]","[210,120,120,120,120,120,30,120,210]","0","36","0","148.61300000129268","16.204999999608845","16","[[[""img/mask50.png""],[""img/mask37.png""],[""img/mask78.png""],[""img/mask54.png""],[""img/mask97.png""],[""img/mask24.png""],[""img/mask64.png""],[""img/mask32.png""],[""img/mask44.png""],[""img/mask46.png""],[""img/mask84.png""],[""img/mask53.png""],[""img/mask50.png""],[""img/mask47.png""],[""img/mask5.png""],[""img/mask3.png""],[""img/mask97.png""],[""img/mask8.png""],[""img/mask11.png""],[""img/mask76.png""],[""img/mask80.png""],[""img/mask56.png""],[""img/mask70.png""],[""img/mask95.png""],[""img/mask65.png""],[""img/mask80.png""],[""img/mask52.png""],[""img/mask4.png""],[""img/mask70.png""],[""img/mask87.png""],[""img/mask79.png""],[""img/mask78.png""],[""img/mask61.png""],[""img/mask55.png""],[""img/mask80.png""],[""img/mask96.png""]]]","","[29,34,4,20,13,28,12,19,23,6,15,26,14,7,21,30,1,17,27,22,32,2,3,0,16,11,8,31,24,33,35,5,25,10,18,9]","main","227","many-guess-6"
"","","","","","html-keyboard-response","84","2633154","0.0-10.0-1.32","63be2cfef5b782c28baec197","640759fa512f630a2bdc333d","64076874bd67919fdff07e50","null","","null","","","","","","","","","","","","","","","","","","","fixation","",""
"","","","","","color-precision2","85","2636304","0.0-10.0-0.33-0.33","63be2cfef5b782c28baec197","640759fa512f630a2bdc333d","64076874bd67919fdff07e50","[531.5]","","","[23]","[105]","105","218","311.1364618705743","[311.1364618705743]","[93.1364618705743]","[94]","0","0","1","0","149.0570000000298","998.9160000011325","1000","[[[""img/mask46.png""]]]","","","main","218","color-precision2"
"","","","","","html-keyboard-response","86","2636810","0.0-10.0-1.33","63be2cfef5b782c28baec197","640759fa512f630a2bdc333d","64076874bd67919fdff07e50","null","","null","","","","","","","","","","","","","","","","","","","fixation","",""
"","","","","","color-precision2","87","2639460","0.0-10.0-0.34-0.34","63be2cfef5b782c28baec197","640759fa512f630a2bdc333d","64076874bd67919fdff07e50","[350.69999999925494]","","","[13]","[75]","75","227","286.6601153945195","[286.6601153945195]","[59.660115394519494]","[60]","0","0","1","0","148.99600000074133","998.0119999996386","1000","[[[""img/mask91.png""]]]","","","main","227","color-precision2"
"","","","","","html-keyboard-response","88","2639963","0.0-10.0-1.34","63be2cfef5b782c28baec197","640759fa512f630a2bdc333d","64076874bd67919fdff07e50","null","","null","","","","","","","","","","","","","","","","","","","fixation","",""
"","","","","","color-precision2","89","2642765","0.0-10.0-0.35-0.35","63be2cfef5b782c28baec197","640759fa512f630a2bdc333d","64076874bd67919fdff07e50","[187.09999999962747]","","","[10]","[167]","167","103","","[null]","[null]","[177]","0","0","1","0","148.96600000094622","996.6539999996312","1000","[[[""img/mask38.png""]]]","","","main","103","color-precision2"
"","","","","","html-keyboard-response","90","2643275","0.0-10.0-1.35","63be2cfef5b782c28baec197","640759fa512f630a2bdc333d","64076874bd67919fdff07e50","null","","null","","","","","","","","","","","","","","","","","","","fixation","",""
"","","","","","many-guess-6","91","2646049","0.0-10.0-0.36-0.36","63be2cfef5b782c28baec197","640759fa512f630a2bdc333d","64076874bd67919fdff07e50","[1469.300000000745]","","","[0,32,27,25,4,5,34,28,16,6,9,15,10,8,31,7,17,26,22,3,18,1,14,2,29,20,11,33,23,13,21,35,12,24,19,30]","[343,193,163,223,64,213,34,293,44,203,74,153,114,333,353,233,4,323,273,313,303,104,243,143,14,283,24,123,173,253,183,94,133,263,84,54]","343","244","311.337104849607","[311.337104849607]","[67.33710484960699]","[67]","[30,210,30,300,120,120,120,300,300]","0","36","0","148.79100000020117","10.126999999396503","16","[[[""img/mask82.png""],[""img/mask32.png""],[""img/mask64.png""],[""img/mask59.png""],[""img/mask71.png""],[""img/mask21.png""],[""img/mask53.png""],[""img/mask26.png""],[""img/mask71.png""],[""img/mask47.png""],[""img/mask93.png""],[""img/mask71.png""],[""img/mask63.png""],[""img/mask15.png""],[""img/mask8.png""],[""img/mask41.png""],[""img/mask65.png""],[""img/mask38.png""],[""img/mask37.png""],[""img/mask36.png""],[""img/mask98.png""],[""img/mask32.png""],[""img/mask47.png""],[""img/mask63.png""],[""img/mask69.png""],[""img/mask39.png""],[""img/mask43.png""],[""img/mask70.png""],[""img/mask18.png""],[""img/mask46.png""],[""img/mask39.png""],[""img/mask82.png""],[""img/mask4.png""],[""img/mask28.png""],[""img/mask29.png""],[""img/mask62.png""]]]","","[0,32,27,25,4,5,34,28,16,6,9,15,10,8,31,7,17,26,22,3,18,1,14,2,29,20,11,33,23,13,21,35,12,24,19,30]","main","244","many-guess-6"
"","","","","","html-keyboard-response","92","2646554","0.0-10.0-1.36","63be2cfef5b782c28baec197","640759fa512f630a2bdc333d","64076874bd67919fdff07e50","null","","null","","","","","","","","","","","","","","","","","","","fixation","",""
"","","","","","color-precision2","93","2649185","0.0-10.0-0.37-0.37","63be2cfef5b782c28baec197","640759fa512f630a2bdc333d","64076874bd67919fdff07e50","[350.5]","","","[7]","[65]","65","46","129.493699574715","[129.493699574715]","[83.49369957471501]","[82]","0","0","1","0","149.41900000115857","997.4540000008419","1000","[[[""img/mask14.png""]]]","","","main","46","color-precision2"
"","","","","","html-keyboard-response","94","2649686","0.0-10.0-1.37","63be2cfef5b782c28baec197","640759fa512f630a2bdc333d","64076874bd67919fdff07e50","null","","null","","","","","","","","","","","","","","","","","","","fixation","",""
"","","","","","many-guess-6","95","2652519","0.0-10.0-0.38-0.38","63be2cfef5b782c28baec197","640759fa512f630a2bdc333d","64076874bd67919fdff07e50","[1248.800000000745]","","","[14,11,5,2,23,19,31,8,33,34,12,30,27,13,6,17,32,10,15,1,4,22,24,29,0,3,25,35,26,18,21,9,20,16,28,7]","[124,44,194,303,64,34,224,243,154,134,104,214,343,164,253,174,84,54,353,333,283,24,144,323,293,234,114,204,263,184,94,14,4,313,273,74]","124","60","186.1283770234001","[186.1283770234001]","[126.1283770234001]","[126]","[30,30,300,120,30,300,300,120,30]","0","36","0","148.8980000000447","14.514000000432134","16","[[[""img/mask26.png""],[""img/mask61.png""],[""img/mask14.png""],[""img/mask30.png""],[""img/mask42.png""],[""img/mask7.png""],[""img/mask83.png""],[""img/mask4.png""],[""img/mask87.png""],[""img/mask53.png""],[""img/mask53.png""],[""img/mask14.png""],[""img/mask3.png""],[""img/mask59.png""],[""img/mask13.png""],[""img/mask9.png""],[""img/mask9.png""],[""img/mask13.png""],[""img/mask52.png""],[""img/mask70.png""],[""img/mask30.png""],[""img/mask84.png""],[""img/mask33.png""],[""img/mask97.png""],[""img/mask54.png""],[""img/mask45.png""],[""img/mask27.png""],[""img/mask86.png""],[""img/mask60.png""],[""img/mask39.png""],[""img/mask29.png""],[""img/mask42.png""],[""img/mask42.png""],[""img/mask40.png""],[""img/mask84.png""],[""img/mask35.png""]]]","","[14,11,5,2,23,19,31,8,33,34,12,30,27,13,6,17,32,10,15,1,4,22,24,29,0,3,25,35,26,18,21,9,20,16,28,7]","main","60","many-guess-6"
"","","","","","html-keyboard-response","96","2653021","0.0-10.0-1.38","63be2cfef5b782c28baec197","640759fa512f630a2bdc333d","64076874bd67919fdff07e50","null","","null","","","","","","","","","","","","","","","","","","","fixation","",""
"","","","","","color-precision2","97","2656279","0.0-10.0-0.39-0.39","63be2cfef5b782c28baec197","640759fa512f630a2bdc333d","64076874bd67919fdff07e50","[754.9000000003725]","","","[14]","[293]","293","137","57.053129857051466","[57.053129857051466]","[280.05312985705143]","[279]","0","0","1","0","149.24400000087917","993.0880000004545","1000","[[[""img/mask35.png""]]]","","","main","137","color-precision2"
"","","","","","html-keyboard-response","98","2658858","0.0-10.0-1.39","63be2cfef5b782c28baec197","640759fa512f630a2bdc333d","64076874bd67919fdff07e50","2578.0999999996275","Wow! You've completed 40 out of 180 trials! </p> <p>  </p><p> Take a quick break, then press any key when you're ready to continue.","control","","","","","","","","","","","","","","","","","","","fixation","",""
"","","","","","many-guess-6","99","2667783","0.0-10.0-0.40-0.40","63be2cfef5b782c28baec197","640759fa512f630a2bdc333d","64076874bd67919fdff07e50","[1331.699999999255]","","","[31,16,2,4,22,28,30,25,15,32,14,1,20,19,0,6,33,5,18,17,10,21,9,24,34,27,12,23,35,13,26,3,11,29,8,7]","[248,48,198,288,28,238,357,328,138,158,108,338,68,278,18,188,347,118,8,308,148,218,168,268,98,78,178,228,208,128,298,258,38,58,318,88]","248","154","303.40509683579256","[303.40509683579256]","[149.40509683579256]","[150]","[210,120,300,120,300,30,120,210,210]","0","36","0","148.49500000011176","21.859000000171363","16","[[[""img/mask10.png""],[""img/mask77.png""],[""img/mask92.png""],[""img/mask10.png""],[""img/mask57.png""],[""img/mask33.png""],[""img/mask45.png""],[""img/mask41.png""],[""img/mask58.png""],[""img/mask55.png""],[""img/mask11.png""],[""img/mask67.png""],[""img/mask47.png""],[""img/mask9.png""],[""img/mask54.png""],[""img/mask39.png""],[""img/mask13.png""],[""img/mask48.png""],[""img/mask79.png""],[""img/mask60.png""],[""img/mask17.png""],[""img/mask95.png""],[""img/mask36.png""],[""img/mask78.png""],[""img/mask38.png""],[""img/mask27.png""],[""img/mask89.png""],[""img/mask54.png""],[""img/mask78.png""],[""img/mask2.png""],[""img/mask3.png""],[""img/mask23.png""],[""img/mask59.png""],[""img/mask99.png""],[""img/mask54.png""],[""img/mask13.png""]]]","","[31,16,2,4,22,28,30,25,15,32,14,1,20,19,0,6,33,5,18,17,10,21,9,24,34,27,12,23,35,13,26,3,11,29,8,7]","main","154","many-guess-6"
"","","","","","html-keyboard-response","100","2668284","0.0-10.0-1.40","63be2cfef5b782c28baec197","640759fa512f630a2bdc333d","64076874bd67919fdff07e50","null","","null","","","","","","","","","","","","","","","","","","","fixation","",""
"","","","","","many-guess-6","101","2672219","0.0-10.0-0.41-0.41","63be2cfef5b782c28baec197","640759fa512f630a2bdc333d","64076874bd67919fdff07e50","[1079.5999999996275]","","","[29,13,16,27,15,1,24,32,30,31,22,7,5,19,9,17,4,10,33,18,26,8,12,14,28,20,2,21,34,23,0,6,3,25,35,11]","[67,296,306,266,17,127,87,107,186,206,57,97,326,226,117,77,336,37,236,27,346,7,196,246,176,286,157,166,147,316,137,356,216,47,276,256]","67","186","291.104802659252","[291.104802659252]","[105.10480265925202]","[105]","[30,300,210,120,300,210,300,120,30]","0","36","0","148.55699999956414","14.907000000588596","16","[[[""img/mask40.png""],[""img/mask68.png""],[""img/mask36.png""],[""img/mask67.png""],[""img/mask24.png""],[""img/mask15.png""],[""img/mask2.png""],[""img/mask5.png""],[""img/mask5.png""],[""img/mask11.png""],[""img/mask15.png""],[""img/mask76.png""],[""img/mask44.png""],[""img/mask94.png""],[""img/mask91.png""],[""img/mask60.png""],[""img/mask76.png""],[""img/mask41.png""],[""img/mask61.png""],[""img/mask69.png""],[""img/mask37.png""],[""img/mask25.png""],[""img/mask25.png""],[""img/mask98.png""],[""img/mask43.png""],[""img/mask11.png""],[""img/mask36.png""],[""img/mask37.png""],[""img/mask8.png""],[""img/mask6.png""],[""img/mask91.png""],[""img/mask74.png""],[""img/mask92.png""],[""img/mask21.png""],[""img/mask89.png""],[""img/mask37.png""]]]","","[29,13,16,27,15,1,24,32,30,31,22,7,5,19,9,17,4,10,33,18,26,8,12,14,28,20,2,21,34,23,0,6,3,25,35,11]","main","186","many-guess-6"
"","","","","","html-keyboard-response","102","2672722","0.0-10.0-1.41","63be2cfef5b782c28baec197","640759fa512f630a2bdc333d","64076874bd67919fdff07e50","null","","null","","","","","","","","","","","","","","","","","","","fixation","",""
"","","","","","many-guess-6","103","2674745","0.0-10.0-0.42-0.42","63be2cfef5b782c28baec197","640759fa512f630a2bdc333d","64076874bd67919fdff07e50","[569.5]","","","[20,4,22,14,1,29,8,13,17,34,27,30,10,26,0,25,3,19,21,16,35,31,2,18,23,9,28,32,24,6,15,7,12,11,5,33]","[173,113,352,143,193,133,302,223,163,213,153,33,53,43,83,293,93,342,63,203,253,13,123,283,332,183,243,23,322,273,73,263,312,233,103,3]","173","248","230.20579298404868","[230.20579298404868]","[342.2057929840487]","[343]","[30,120,300,300,300,300,30,120,210]","0","36","0","148.48900000099093","19.838000000920147","16","[[[""img/mask90.png""],[""img/mask1.png""],[""img/mask29.png""],[""img/mask14.png""],[""img/mask8.png""],[""img/mask38.png""],[""img/mask26.png""],[""img/mask81.png""],[""img/mask86.png""],[""img/mask34.png""],[""img/mask9.png""],[""img/mask43.png""],[""img/mask19.png""],[""img/mask89.png""],[""img/mask95.png""],[""img/mask44.png""],[""img/mask50.png""],[""img/mask88.png""],[""img/mask80.png""],[""img/mask39.png""],[""img/mask90.png""],[""img/mask5.png""],[""img/mask30.png""],[""img/mask31.png""],[""img/mask1.png""],[""img/mask6.png""],[""img/mask46.png""],[""img/mask58.png""],[""img/mask6.png""],[""img/mask90.png""],[""img/mask99.png""],[""img/mask39.png""],[""img/mask31.png""],[""img/mask30.png""],[""img/mask26.png""],[""img/mask64.png""]]]","","[20,4,22,14,1,29,8,13,17,34,27,30,10,26,0,25,3,19,21,16,35,31,2,18,23,9,28,32,24,6,15,7,12,11,5,33]","main","248","many-guess-6"
"","","","","","html-keyboard-response","104","2675250","0.0-10.0-1.42","63be2cfef5b782c28baec197","640759fa512f630a2bdc333d","64076874bd67919fdff07e50","null","","null","","","","","","","","","","","","","","","","","","","fixation","",""
"","","","","","color-precision2","105","2677937","0.0-10.0-0.43-0.43","63be2cfef5b782c28baec197","640759fa512f630a2bdc333d","64076874bd67919fdff07e50","[124.29999999888241]","","","[16]","[95]","95","344","73.05307455638577","[73.05307455638577]","[89.05307455638575]","[87]","0","0","1","0","148.36200000112876","1000.8440000005066","1000","[[[""img/mask41.png""]]]","","","main","344","color-precision2"
"","","","","","html-keyboard-response","106","2678441","0.0-10.0-1.43","63be2cfef5b782c28baec197","640759fa512f630a2bdc333d","64076874bd67919fdff07e50","null","","null","","","","","","","","","","","","","","","","","","","fixation","",""
"","","","","","color-precision2","107","2681277","0.0-10.0-0.44-0.44","63be2cfef5b782c28baec197","640759fa512f630a2bdc333d","64076874bd67919fdff07e50","[477.5]","","","[22]","[71]","71","118","203.63745000749856","[203.63745000749856]","[85.63745000749856]","[85]","0","0","1","0","148.3500000005588","1001.335999999661","1000","[[[""img/mask72.png""]]]","","","main","118","color-precision2"
"","","","","","html-keyboard-response","108","2681779","0.0-10.0-1.44","63be2cfef5b782c28baec197","640759fa512f630a2bdc333d","64076874bd67919fdff07e50","null","","null","","","","","","","","","","","","","","","","","","","fixation","",""
"","","","","","many-guess-6","109","2684235","0.0-10.0-0.45-0.45","63be2cfef5b782c28baec197","640759fa512f630a2bdc333d","64076874bd67919fdff07e50","[1266.4000000003725]","","","[23,16,18,31,27,28,33,29,4,15,3,26,10,14,7,19,13,17,6,12,34,20,21,0,5,25,35,8,11,30,24,1,9,22,2,32]","[205,325,36,215,345,125,315,285,135,275,305,145,245,255,65,195,95,16,46,6,85,26,155,335,225,265,75,115,355,235,55,105,295,175,185,165]","205","318","193.99809366962714","[193.99809366962714]","[235.99809366962714]","[235]","[300,300,210,120,120,300,210,120,30]","0","36","0","149.61499999975786","13.27900000102818","16","[[[""img/mask20.png""],[""img/mask34.png""],[""img/mask26.png""],[""img/mask73.png""],[""img/mask76.png""],[""img/mask16.png""],[""img/mask82.png""],[""img/mask100.png""],[""img/mask18.png""],[""img/mask57.png""],[""img/mask13.png""],[""img/mask95.png""],[""img/mask13.png""],[""img/mask55.png""],[""img/mask72.png""],[""img/mask23.png""],[""img/mask54.png""],[""img/mask40.png""],[""img/mask36.png""],[""img/mask37.png""],[""img/mask98.png""],[""img/mask56.png""],[""img/mask18.png""],[""img/mask28.png""],[""img/mask59.png""],[""img/mask44.png""],[""img/mask50.png""],[""img/mask55.png""],[""img/mask17.png""],[""img/mask86.png""],[""img/mask78.png""],[""img/mask30.png""],[""img/mask42.png""],[""img/mask30.png""],[""img/mask38.png""],[""img/mask16.png""]]]","","[23,16,18,31,27,28,33,29,4,15,3,26,10,14,7,19,13,17,6,12,34,20,21,0,5,25,35,8,11,30,24,1,9,22,2,32]","main","318","many-guess-6"
"","","","","","html-keyboard-response","110","2684738","0.0-10.0-1.45","63be2cfef5b782c28baec197","640759fa512f630a2bdc333d","64076874bd67919fdff07e50","null","","null","","","","","","","","","","","","","","","","","","","fixation","",""
"","","","","","many-guess-6","111","2687103","0.0-10.0-0.46-0.46","63be2cfef5b782c28baec197","640759fa512f630a2bdc333d","64076874bd67919fdff07e50","[998.3999999985099]","","","[25,21,16,20,3,11,6,33,4,19,12,26,1,22,31,5,24,17,18,14,35,27,23,0,28,9,7,15,2,29,13,8,30,34,32,10]","[117,356,236,216,206,346,326,266,256,296,17,107,176,146,136,336,77,286,37,246,226,67,276,47,186,316,196,27,7,126,97,166,57,156,87,306]","117","225","324.76034119785356","[324.76034119785356]","[99.76034119785356]","[100]","[120,300,300,30,120,210,300,300,30]","0","36","0","149.00799999944866","12.31000000052154","16","[[[""img/mask44.png""],[""img/mask100.png""],[""img/mask70.png""],[""img/mask88.png""],[""img/mask22.png""],[""img/mask75.png""],[""img/mask67.png""],[""img/mask77.png""],[""img/mask81.png""],[""img/mask84.png""],[""img/mask86.png""],[""img/mask36.png""],[""img/mask48.png""],[""img/mask8.png""],[""img/mask73.png""],[""img/mask27.png""],[""img/mask7.png""],[""img/mask70.png""],[""img/mask56.png""],[""img/mask95.png""],[""img/mask8.png""],[""img/mask5.png""],[""img/mask9.png""],[""img/mask67.png""],[""img/mask96.png""],[""img/mask46.png""],[""img/mask6.png""],[""img/mask68.png""],[""img/mask28.png""],[""img/mask8.png""],[""img/mask68.png""],[""img/mask72.png""],[""img/mask7.png""],[""img/mask73.png""],[""img/mask10.png""],[""img/mask44.png""]]]","","[25,21,16,20,3,11,6,33,4,19,12,26,1,22,31,5,24,17,18,14,35,27,23,0,28,9,7,15,2,29,13,8,30,34,32,10]","main","225","many-guess-6"
"","","","","","html-keyboard-response","112","2687605","0.0-10.0-1.46","63be2cfef5b782c28baec197","640759fa512f630a2bdc333d","64076874bd67919fdff07e50","null","","null","","","","","","","","","","","","","","","","","","","fixation","",""
"","","","","","many-guess-6","113","2690753","0.0-10.0-0.47-0.47","63be2cfef5b782c28baec197","640759fa512f630a2bdc333d","64076874bd67919fdff07e50","[1628.5]","","","[14,31,33,4,23,27,34,21,19,28,22,8,17,10,16,1,24,3,32,12,13,20,25,26,29,15,6,2,35,0,11,7,5,9,18,30]","[327,178,48,258,248,38,347,88,168,337,18,58,78,8,28,198,218,118,317,238,188,208,98,297,277,128,268,228,138,148,158,357,108,307,68,287]","327","304","224.74341039284155","[224.74341039284155]","[280.74341039284155]","[280]","[210,210,120,300,210,30,30,300,120]","0","36","0","148.66899999976158","17.00400000018999","16","[[[""img/mask51.png""],[""img/mask10.png""],[""img/mask37.png""],[""img/mask41.png""],[""img/mask19.png""],[""img/mask76.png""],[""img/mask28.png""],[""img/mask9.png""],[""img/mask55.png""],[""img/mask19.png""],[""img/mask68.png""],[""img/mask75.png""],[""img/mask81.png""],[""img/mask80.png""],[""img/mask96.png""],[""img/mask92.png""],[""img/mask41.png""],[""img/mask31.png""],[""img/mask55.png""],[""img/mask43.png""],[""img/mask99.png""],[""img/mask12.png""],[""img/mask58.png""],[""img/mask5.png""],[""img/mask52.png""],[""img/mask46.png""],[""img/mask76.png""],[""img/mask77.png""],[""img/mask98.png""],[""img/mask89.png""],[""img/mask27.png""],[""img/mask69.png""],[""img/mask64.png""],[""img/mask39.png""],[""img/mask73.png""],[""img/mask6.png""]]]","","[14,31,33,4,23,27,34,21,19,28,22,8,17,10,16,1,24,3,32,12,13,20,25,26,29,15,6,2,35,0,11,7,5,9,18,30]","main","304","many-guess-6"
"","","","","","html-keyboard-response","114","2691267","0.0-10.0-1.47","63be2cfef5b782c28baec197","640759fa512f630a2bdc333d","64076874bd67919fdff07e50","null","","null","","","","","","","","","","","","","","","","","","","fixation","",""
"","","","","","many-guess-6","115","2694213","0.0-10.0-0.48-0.48","63be2cfef5b782c28baec197","640759fa512f630a2bdc333d","64076874bd67919fdff07e50","[1284.5999999996275]","","","[12,9,14,11,27,13,21,8,35,17,30,16,33,4,1,6,2,3,26,34,0,23,24,25,31,28,5,20,19,29,7,10,15,18,32,22]","[133,33,253,342,143,213,83,13,123,63,243,163,203,233,223,263,53,43,292,93,332,103,312,352,183,193,23,302,173,3,73,153,273,282,113,322]","133","342","159.74409654515134","[159.74409654515134]","[177.74409654515134]","[177]","[120,120,30,210,210,210,300,30,120]","0","36","0","146.63800000026822","24.02100000018254","16","[[[""img/mask37.png""],[""img/mask61.png""],[""img/mask92.png""],[""img/mask97.png""],[""img/mask15.png""],[""img/mask62.png""],[""img/mask27.png""],[""img/mask37.png""],[""img/mask90.png""],[""img/mask75.png""],[""img/mask92.png""],[""img/mask28.png""],[""img/mask84.png""],[""img/mask20.png""],[""img/mask90.png""],[""img/mask18.png""],[""img/mask73.png""],[""img/mask62.png""],[""img/mask6.png""],[""img/mask20.png""],[""img/mask74.png""],[""img/mask72.png""],[""img/mask97.png""],[""img/mask43.png""],[""img/mask40.png""],[""img/mask49.png""],[""img/mask77.png""],[""img/mask27.png""],[""img/mask80.png""],[""img/mask96.png""],[""img/mask43.png""],[""img/mask36.png""],[""img/mask2.png""],[""img/mask73.png""],[""img/mask22.png""],[""img/mask37.png""]]]","","[12,9,14,11,27,13,21,8,35,17,30,16,33,4,1,6,2,3,26,34,0,23,24,25,31,28,5,20,19,29,7,10,15,18,32,22]","main","342","many-guess-6"
"","","","","","html-keyboard-response","116","2694714","0.0-10.0-1.48","63be2cfef5b782c28baec197","640759fa512f630a2bdc333d","64076874bd67919fdff07e50","null","","null","","","","","","","","","","","","","","","","","","","fixation","",""
"","","","","","color-precision2","117","2698411","0.0-10.0-0.49-0.49","63be2cfef5b782c28baec197","640759fa512f630a2bdc333d","64076874bd67919fdff07e50","[894.5]","","","[10]","[126]","126","239","11.999324914868783","[11.999324914868783]","[132.9993249148688]","[132]","0","0","1","0","149.14099999982864","997.4630000009201","1000","[[[""img/mask10.png""]]]","","","main","239","color-precision2"
"","","","","","html-keyboard-response","118","2698914","0.0-10.0-1.49","63be2cfef5b782c28baec197","640759fa512f630a2bdc333d","64076874bd67919fdff07e50","null","","null","","","","","","","","","","","","","","","","","","","fixation","",""
"","","","","","many-guess-6","119","2703111","0.0-10.0-0.50-0.50","63be2cfef5b782c28baec197","640759fa512f630a2bdc333d","64076874bd67919fdff07e50","[2342.2999999988824]","","","[18,27,21,2,29,10,4,22,24,19,3,30,9,25,35,14,13,1,7,11,20,8,0,31,33,34,17,12,26,23,6,15,5,32,28,16]","[205,116,235,106,66,136,186,86,146,255,46,245,265,166,275,26,285,315,345,96,16,215,36,305,225,156,195,6,355,176,56,335,126,76,295,325]","205","354","230.2416099017798","[230.2416099017798]","[236.2416099017798]","[236]","[120,210,210,210,210,210,300,30,120]","0","36","0","149.66900000022724","18.388999999966472","16","[[[""img/mask71.png""],[""img/mask74.png""],[""img/mask88.png""],[""img/mask38.png""],[""img/mask35.png""],[""img/mask55.png""],[""img/mask14.png""],[""img/mask9.png""],[""img/mask13.png""],[""img/mask70.png""],[""img/mask87.png""],[""img/mask52.png""],[""img/mask87.png""],[""img/mask99.png""],[""img/mask19.png""],[""img/mask32.png""],[""img/mask22.png""],[""img/mask3.png""],[""img/mask14.png""],[""img/mask19.png""],[""img/mask34.png""],[""img/mask81.png""],[""img/mask6.png""],[""img/mask99.png""],[""img/mask55.png""],[""img/mask99.png""],[""img/mask24.png""],[""img/mask49.png""],[""img/mask38.png""],[""img/mask6.png""],[""img/mask30.png""],[""img/mask58.png""],[""img/mask74.png""],[""img/mask84.png""],[""img/mask46.png""],[""img/mask12.png""]]]","","[18,27,21,2,29,10,4,22,24,19,3,30,9,25,35,14,13,1,7,11,20,8,0,31,33,34,17,12,26,23,6,15,5,32,28,16]","main","354","many-guess-6"
"","","","","","html-keyboard-response","120","2703618","0.0-10.0-1.50","63be2cfef5b782c28baec197","640759fa512f630a2bdc333d","64076874bd67919fdff07e50","null","","null","","","","","","","","","","","","","","","","","","","fixation","",""
"","","","","","color-precision2","121","2706390","0.0-10.0-0.51-0.51","63be2cfef5b782c28baec197","640759fa512f630a2bdc333d","64076874bd67919fdff07e50","[380.80000000074506]","","","[29]","[230]","230","244","115.5530392266529","[115.5530392266529]","[231.5530392266529]","[230]","0","0","1","0","149.0080000013113","1005.7550000012852","1000","[[[""img/mask77.png""]]]","","","main","244","color-precision2"
"","","","","","html-keyboard-response","122","2706892","0.0-10.0-1.51","63be2cfef5b782c28baec197","640759fa512f630a2bdc333d","64076874bd67919fdff07e50","null","","null","","","","","","","","","","","","","","","","","","","fixation","",""
"","","","","","color-precision2","123","2709853","0.0-10.0-0.52-0.52","63be2cfef5b782c28baec197","640759fa512f630a2bdc333d","64076874bd67919fdff07e50","[424.7999999988824]","","","[7]","[107]","107","274","14.665026784625487","[14.665026784625487]","[100.66502678462547]","[99]","0","0","1","0","148.67000000085682","997.1430000001565","1000","[[[""img/mask93.png""]]]","","","main","274","color-precision2"
"","","","","","html-keyboard-response","124","2710361","0.0-10.0-1.52","63be2cfef5b782c28baec197","640759fa512f630a2bdc333d","64076874bd67919fdff07e50","null","","null","","","","","","","","","","","","","","","","","","","fixation","",""
"","","","","","color-precision2","125","2712898","0.0-10.0-0.53-0.53","63be2cfef5b782c28baec197","640759fa512f630a2bdc333d","64076874bd67919fdff07e50","[232.2000000011176]","","","[7]","[231]","231","123","1.8086204133417931","[1.8086204133417931]","[238.8086204133418]","[238]","0","0","1","0","148.96100000012666","995.7200000011362","1000","[[[""img/mask18.png""]]]","","","main","123","color-precision2"
"","","","","","html-keyboard-response","126","2713400","0.0-10.0-1.53","63be2cfef5b782c28baec197","640759fa512f630a2bdc333d","64076874bd67919fdff07e50","null","","null","","","","","","","","","","","","","","","","","","","fixation","",""
"","","","","","color-precision2","127","2715843","0.0-10.0-0.54-0.54","63be2cfef5b782c28baec197","640759fa512f630a2bdc333d","64076874bd67919fdff07e50","[92.09999999962747]","","","[15]","[207]","207","304","135.94795436345618","[135.94795436345618]","[191.94795436345618]","[190]","0","0","1","0","148.73100000061095","1002.7770000007004","1000","[[[""img/mask14.png""]]]","","","main","304","color-precision2"
"","","","","","html-keyboard-response","128","2716346","0.0-10.0-1.54","63be2cfef5b782c28baec197","640759fa512f630a2bdc333d","64076874bd67919fdff07e50","null","","null","","","","","","","","","","","","","","","","","","","fixation","",""
"","","","","","many-guess-6","129","2719239","0.0-10.0-0.55-0.55","63be2cfef5b782c28baec197","640759fa512f630a2bdc333d","64076874bd67919fdff07e50","[1152.5]","","","[24,33,25,6,35,4,7,3,31,15,8,13,12,1,32,29,0,26,10,18,30,23,2,11,34,17,22,20,5,16,27,9,14,28,19,21]","[44,353,133,94,123,223,283,84,24,173,273,263,203,14,34,243,303,323,54,104,333,143,193,4,64,153,293,313,163,183,253,114,74,233,213,343]","44","229","190.7330328024088","[190.7330328024088]","[321.7330328024088]","[321]","[120,30,30,210,30,30,300,120,210]","0","36","0","148.40400000056252","14.055000000167638","16","[[[""img/mask24.png""],[""img/mask16.png""],[""img/mask91.png""],[""img/mask34.png""],[""img/mask18.png""],[""img/mask92.png""],[""img/mask93.png""],[""img/mask65.png""],[""img/mask76.png""],[""img/mask45.png""],[""img/mask23.png""],[""img/mask73.png""],[""img/mask77.png""],[""img/mask16.png""],[""img/mask100.png""],[""img/mask44.png""],[""img/mask50.png""],[""img/mask100.png""],[""img/mask12.png""],[""img/mask39.png""],[""img/mask52.png""],[""img/mask82.png""],[""img/mask34.png""],[""img/mask60.png""],[""img/mask33.png""],[""img/mask82.png""],[""img/mask88.png""],[""img/mask95.png""],[""img/mask5.png""],[""img/mask55.png""],[""img/mask1.png""],[""img/mask49.png""],[""img/mask84.png""],[""img/mask68.png""],[""img/mask58.png""],[""img/mask75.png""]]]","","[24,33,25,6,35,4,7,3,31,15,8,13,12,1,32,29,0,26,10,18,30,23,2,11,34,17,22,20,5,16,27,9,14,28,19,21]","main","229","many-guess-6"
"","","","","","html-keyboard-response","130","2719751","0.0-10.0-1.55","63be2cfef5b782c28baec197","640759fa512f630a2bdc333d","64076874bd67919fdff07e50","null","","null","","","","","","","","","","","","","","","","","","","fixation","",""
"","","","","","many-guess-6","131","2722770","0.0-10.0-0.56-0.56","63be2cfef5b782c28baec197","640759fa512f630a2bdc333d","64076874bd67919fdff07e50","[1346.0999999996275]","","","[1,34,11,33,20,12,23,19,3,13,17,25,30,16,27,32,7,2,0,14,21,31,24,22,9,28,4,35,8,10,18,29,6,15,5,26]","[165,125,235,305,25,105,205,15,295,195,265,215,334,5,315,55,145,65,354,275,225,35,344,75,245,85,115,325,135,155,285,45,185,175,95,255]","165","332","321.09397668600326","[321.09397668600326]","[349.09397668600326]","[349]","[30,210,120,120,210,300,300,30,210]","0","36","0","149.46100000105798","18.170000000391155","16","[[[""img/mask33.png""],[""img/mask52.png""],[""img/mask98.png""],[""img/mask11.png""],[""img/mask40.png""],[""img/mask28.png""],[""img/mask2.png""],[""img/mask26.png""],[""img/mask95.png""],[""img/mask66.png""],[""img/mask100.png""],[""img/mask69.png""],[""img/mask87.png""],[""img/mask63.png""],[""img/mask9.png""],[""img/mask9.png""],[""img/mask48.png""],[""img/mask47.png""],[""img/mask48.png""],[""img/mask22.png""],[""img/mask26.png""],[""img/mask2.png""],[""img/mask35.png""],[""img/mask82.png""],[""img/mask75.png""],[""img/mask81.png""],[""img/mask47.png""],[""img/mask74.png""],[""img/mask85.png""],[""img/mask33.png""],[""img/mask52.png""],[""img/mask39.png""],[""img/mask24.png""],[""img/mask95.png""],[""img/mask96.png""],[""img/mask63.png""]]]","","[1,34,11,33,20,12,23,19,3,13,17,25,30,16,27,32,7,2,0,14,21,31,24,22,9,28,4,35,8,10,18,29,6,15,5,26]","main","332","many-guess-6"
"","","","","","html-keyboard-response","132","2723275","0.0-10.0-1.56","63be2cfef5b782c28baec197","640759fa512f630a2bdc333d","64076874bd67919fdff07e50","null","","null","","","","","","","","","","","","","","","","","","","fixation","",""
"","","","","","many-guess-6","133","2726001","0.0-10.0-0.57-0.57","63be2cfef5b782c28baec197","640759fa512f630a2bdc333d","64076874bd67919fdff07e50","[1291.5]","","","[28,24,35,27,5,1,10,30,18,25,21,23,26,29,34,3,16,7,22,6,4,9,13,2,19,20,14,12,33,32,17,15,8,0,11,31]","[230,141,121,11,320,81,31,161,101,300,131,280,350,71,91,290,270,221,201,41,260,340,250,330,310,21,1,51,61,181,240,211,151,191,111,171]","230","118","18.99764285373797","[18.99764285373797]","[260.99764285373794]","[260]","[30,30,300,30,120,30,120,210,210]","0","36","0","148.53400000045076","11.584000001195818","16","[[[""img/mask48.png""],[""img/mask29.png""],[""img/mask99.png""],[""img/mask47.png""],[""img/mask26.png""],[""img/mask86.png""],[""img/mask23.png""],[""img/mask7.png""],[""img/mask37.png""],[""img/mask91.png""],[""img/mask67.png""],[""img/mask6.png""],[""img/mask25.png""],[""img/mask17.png""],[""img/mask11.png""],[""img/mask88.png""],[""img/mask19.png""],[""img/mask34.png""],[""img/mask33.png""],[""img/mask75.png""],[""img/mask90.png""],[""img/mask71.png""],[""img/mask74.png""],[""img/mask33.png""],[""img/mask61.png""],[""img/mask84.png""],[""img/mask87.png""],[""img/mask90.png""],[""img/mask10.png""],[""img/mask3.png""],[""img/mask29.png""],[""img/mask71.png""],[""img/mask68.png""],[""img/mask88.png""],[""img/mask71.png""],[""img/mask66.png""]]]","","[28,24,35,27,5,1,10,30,18,25,21,23,26,29,34,3,16,7,22,6,4,9,13,2,19,20,14,12,33,32,17,15,8,0,11,31]","main","118","many-guess-6"
"","","","","","html-keyboard-response","134","2726506","0.0-10.0-1.57","63be2cfef5b782c28baec197","640759fa512f630a2bdc333d","64076874bd67919fdff07e50","null","","null","","","","","","","","","","","","","","","","","","","fixation","",""
"","","","","","color-precision2","135","2729402","0.0-10.0-0.58-0.58","63be2cfef5b782c28baec197","640759fa512f630a2bdc333d","64076874bd67919fdff07e50","[537.0999999996275]","","","[34]","[298]","298","115","49.322572866112594","[49.322572866112594]","[294.3225728661126]","[293]","0","0","1","0","148.88799999980256","997.0639999997802","1000","[[[""img/mask31.png""]]]","","","main","115","color-precision2"
"","","","","","html-keyboard-response","136","2729906","0.0-10.0-1.58","63be2cfef5b782c28baec197","640759fa512f630a2bdc333d","64076874bd67919fdff07e50","null","","null","","","","","","","","","","","","","","","","","","","fixation","",""
"","","","","","many-guess-6","137","2732868","0.0-10.0-0.59-0.59","63be2cfef5b782c28baec197","640759fa512f630a2bdc333d","64076874bd67919fdff07e50","[1334.3999999985099]","","","[10,9,5,26,19,25,1,7,29,28,34,4,33,16,20,11,18,13,8,35,15,24,27,32,21,23,17,30,6,31,14,2,0,22,3,12]","[297,67,137,287,47,346,117,247,7,356,227,17,187,217,177,257,147,57,237,326,27,167,77,127,157,317,37,336,107,197,207,97,267,87,277,307]","297","263","155.3999754393124","[155.3999754393124]","[252.3999754393124]","[251]","[30,210,120,210,210,210,120,210,300]","0","36","0","148.9050000011921","12.024000001139939","16","[[[""img/mask85.png""],[""img/mask88.png""],[""img/mask54.png""],[""img/mask28.png""],[""img/mask69.png""],[""img/mask95.png""],[""img/mask6.png""],[""img/mask51.png""],[""img/mask30.png""],[""img/mask81.png""],[""img/mask20.png""],[""img/mask86.png""],[""img/mask7.png""],[""img/mask86.png""],[""img/mask13.png""],[""img/mask92.png""],[""img/mask20.png""],[""img/mask62.png""],[""img/mask40.png""],[""img/mask80.png""],[""img/mask94.png""],[""img/mask21.png""],[""img/mask14.png""],[""img/mask98.png""],[""img/mask16.png""],[""img/mask66.png""],[""img/mask63.png""],[""img/mask62.png""],[""img/mask45.png""],[""img/mask78.png""],[""img/mask43.png""],[""img/mask86.png""],[""img/mask13.png""],[""img/mask61.png""],[""img/mask37.png""],[""img/mask5.png""]]]","","[10,9,5,26,19,25,1,7,29,28,34,4,33,16,20,11,18,13,8,35,15,24,27,32,21,23,17,30,6,31,14,2,0,22,3,12]","main","263","many-guess-6"
"","","","","","html-keyboard-response","138","2736843","0.0-10.0-1.59","63be2cfef5b782c28baec197","640759fa512f630a2bdc333d","64076874bd67919fdff07e50","3973.5999999996275","Wow! You've completed 60 out of 180 trials! </p> <p>  </p><p> Take a quick break, then press any key when you're ready to continue.","f","","","","","","","","","","","","","","","","","","","fixation","",""
"","","","","","color-precision2","139","2743010","0.0-10.0-0.60-0.60","63be2cfef5b782c28baec197","640759fa512f630a2bdc333d","64076874bd67919fdff07e50","[1148.5]","","","[16]","[170]","170","156","330.18206068780637","[330.18206068780637]","[174.18206068780637]","[174]","0","0","1","0","149.30600000033155","997.4730000006966","1000","[[[""img/mask79.png""]]]","","","main","156","color-precision2"
"","","","","","html-keyboard-response","140","2743512","0.0-10.0-1.60","63be2cfef5b782c28baec197","640759fa512f630a2bdc333d","64076874bd67919fdff07e50","null","","null","","","","","","","","","","","","","","","","","","","fixation","",""
"","","","","","color-precision2","141","2746995","0.0-10.0-0.61-0.61","63be2cfef5b782c28baec197","640759fa512f630a2bdc333d","64076874bd67919fdff07e50","[696.8000000007451]","","","[22]","[45]","45","121","160.1368669074986","[160.1368669074986]","[39.136866907498586]","[38]","0","0","1","0","148.48099999967963","998.3739999998361","1000","[[[""img/mask38.png""]]]","","","main","121","color-precision2"
"","","","","","html-keyboard-response","142","2747498","0.0-10.0-1.61","63be2cfef5b782c28baec197","640759fa512f630a2bdc333d","64076874bd67919fdff07e50","null","","null","","","","","","","","","","","","","","","","","","","fixation","",""
"","","","","","color-precision2","143","2750591","0.0-10.0-0.62-0.62","63be2cfef5b782c28baec197","640759fa512f630a2bdc333d","64076874bd67919fdff07e50","[656.0999999996275]","","","[13]","[24]","24","102","125.46378144786914","[125.46378144786914]","[23.463781447869138]","[22]","0","0","1","0","148.58800000045449","1004.0610000006855","1000","[[[""img/mask72.png""]]]","","","main","102","color-precision2"
"","","","","","html-keyboard-response","144","2751099","0.0-10.0-1.62","63be2cfef5b782c28baec197","640759fa512f630a2bdc333d","64076874bd67919fdff07e50","null","","null","","","","","","","","","","","","","","","","","","","fixation","",""
"","","","","","many-guess-6","145","2754233","0.0-10.0-0.63-0.63","63be2cfef5b782c28baec197","640759fa512f630a2bdc333d","64076874bd67919fdff07e50","[1412.5]","","","[24,34,2,35,12,11,17,20,8,23,21,16,4,19,18,15,6,25,5,32,22,10,27,31,0,33,7,26,28,9,13,3,14,30,29,1]","[67,137,57,237,297,227,18,207,327,8,347,277,187,357,77,337,317,257,177,307,97,197,127,157,247,27,37,147,167,267,47,217,117,107,287,87]","67","241","334.11923604496724","[334.11923604496724]","[93.11923604496724]","[93]","[300,120,300,300,300,300,30,300,120]","0","36","0","149.40400000009686","14.535999999847263","16","[[[""img/mask72.png""],[""img/mask41.png""],[""img/mask59.png""],[""img/mask74.png""],[""img/mask3.png""],[""img/mask4.png""],[""img/mask87.png""],[""img/mask48.png""],[""img/mask80.png""],[""img/mask80.png""],[""img/mask31.png""],[""img/mask78.png""],[""img/mask79.png""],[""img/mask47.png""],[""img/mask47.png""],[""img/mask52.png""],[""img/mask85.png""],[""img/mask30.png""],[""img/mask99.png""],[""img/mask81.png""],[""img/mask20.png""],[""img/mask63.png""],[""img/mask71.png""],[""img/mask11.png""],[""img/mask17.png""],[""img/mask15.png""],[""img/mask17.png""],[""img/mask49.png""],[""img/mask6.png""],[""img/mask53.png""],[""img/mask9.png""],[""img/mask67.png""],[""img/mask37.png""],[""img/mask19.png""],[""img/mask33.png""],[""img/mask75.png""]]]","","[24,34,2,35,12,11,17,20,8,23,21,16,4,19,18,15,6,25,5,32,22,10,27,31,0,33,7,26,28,9,13,3,14,30,29,1]","main","241","many-guess-6"
"","","","","","html-keyboard-response","146","2754736","0.0-10.0-1.63","63be2cfef5b782c28baec197","640759fa512f630a2bdc333d","64076874bd67919fdff07e50","null","","null","","","","","","","","","","","","","","","","","","","fixation","",""
"","","","","","color-precision2","147","2757729","0.0-10.0-0.64-0.64","63be2cfef5b782c28baec197","640759fa512f630a2bdc333d","64076874bd67919fdff07e50","[419.5]","","","[30]","[46]","46","280","304.7371210501904","[304.7371210501904]","[24.73712105019041]","[25]","0","0","1","0","149.35700000124052","991.9230000013486","1000","[[[""img/mask100.png""]]]","","","main","280","color-precision2"
"","","","","","html-keyboard-response","148","2758234","0.0-10.0-1.64","63be2cfef5b782c28baec197","640759fa512f630a2bdc333d","64076874bd67919fdff07e50","null","","null","","","","","","","","","","","","","","","","","","","fixation","",""
"","","","","","many-guess-6","149","2761133","0.0-10.0-0.65-0.65","63be2cfef5b782c28baec197","640759fa512f630a2bdc333d","64076874bd67919fdff07e50","[1271.9000000003725]","","","[10,19,8,27,11,18,28,32,26,33,16,22,34,30,14,15,2,6,25,5,21,12,20,29,1,17,4,3,24,7,31,23,13,0,35,9]","[147,286,127,167,187,47,97,316,266,197,27,177,306,17,207,346,356,256,117,57,326,107,77,67,217,37,157,336,137,7,276,296,246,87,227,236]","147","244","177.47272316086597","[177.47272316086597]","[293.47272316086594]","[292]","[210,30,300,300,120,120,120,300,210]","0","36","0","149.25000000093132","16.692000000271946","16","[[[""img/mask98.png""],[""img/mask20.png""],[""img/mask51.png""],[""img/mask12.png""],[""img/mask23.png""],[""img/mask14.png""],[""img/mask42.png""],[""img/mask87.png""],[""img/mask9.png""],[""img/mask92.png""],[""img/mask38.png""],[""img/mask56.png""],[""img/mask7.png""],[""img/mask60.png""],[""img/mask53.png""],[""img/mask96.png""],[""img/mask99.png""],[""img/mask72.png""],[""img/mask29.png""],[""img/mask65.png""],[""img/mask15.png""],[""img/mask80.png""],[""img/mask25.png""],[""img/mask34.png""],[""img/mask27.png""],[""img/mask39.png""],[""img/mask1.png""],[""img/mask32.png""],[""img/mask39.png""],[""img/mask99.png""],[""img/mask54.png""],[""img/mask52.png""],[""img/mask51.png""],[""img/mask76.png""],[""img/mask93.png""],[""img/mask47.png""]]]","","[10,19,8,27,11,18,28,32,26,33,16,22,34,30,14,15,2,6,25,5,21,12,20,29,1,17,4,3,24,7,31,23,13,0,35,9]","main","244","many-guess-6"
"","","","","","html-keyboard-response","150","2761642","0.0-10.0-1.65","63be2cfef5b782c28baec197","640759fa512f630a2bdc333d","64076874bd67919fdff07e50","null","","null","","","","","","","","","","","","","","","","","","","fixation","",""
"","","","","","color-precision2","151","2765860","0.0-10.0-0.66-0.66","63be2cfef5b782c28baec197","640759fa512f630a2bdc333d","64076874bd67919fdff07e50","[1258.7999999988824]","","","[22]","[49]","49","191","231.6465207089402","[231.6465207089402]","[40.64652070894019]","[40]","0","0","1","0","149.43999999947846","997.5980000011623","1000","[[[""img/mask5.png""]]]","","","main","191","color-precision2"
"","","","","","html-keyboard-response","152","2766362","0.0-10.0-1.66","63be2cfef5b782c28baec197","640759fa512f630a2bdc333d","64076874bd67919fdff07e50","null","","null","","","","","","","","","","","","","","","","","","","fixation","",""
"","","","","","many-guess-6","153","2768931","0.0-10.0-0.67-0.67","63be2cfef5b782c28baec197","640759fa512f630a2bdc333d","64076874bd67919fdff07e50","[1228.699999999255]","","","[25,17,0,9,14,22,20,1,26,2,27,34,35,3,31,15,5,32,30,19,7,12,29,23,4,13,18,21,33,28,10,24,8,11,16,6]","[260,180,280,170,70,20,100,339,329,10,80,240,120,359,190,309,150,349,130,230,50,200,270,110,290,40,30,140,210,220,90,299,160,60,319,250]","260","293","315.9534884738071","[315.9534884738071]","[22.953488473807113]","[23]","[120,120,120,120,120,210,300,210,210]","0","36","0","148.3809999995865","14.544999999925494","16","[[[""img/mask39.png""],[""img/mask53.png""],[""img/mask72.png""],[""img/mask63.png""],[""img/mask94.png""],[""img/mask51.png""],[""img/mask51.png""],[""img/mask2.png""],[""img/mask8.png""],[""img/mask57.png""],[""img/mask36.png""],[""img/mask20.png""],[""img/mask32.png""],[""img/mask34.png""],[""img/mask26.png""],[""img/mask50.png""],[""img/mask86.png""],[""img/mask15.png""],[""img/mask71.png""],[""img/mask63.png""],[""img/mask11.png""],[""img/mask94.png""],[""img/mask19.png""],[""img/mask33.png""],[""img/mask79.png""],[""img/mask92.png""],[""img/mask15.png""],[""img/mask64.png""],[""img/mask8.png""],[""img/mask81.png""],[""img/mask96.png""],[""img/mask18.png""],[""img/mask40.png""],[""img/mask9.png""],[""img/mask33.png""],[""img/mask16.png""]]]","","[25,17,0,9,14,22,20,1,26,2,27,34,35,3,31,15,5,32,30,19,7,12,29,23,4,13,18,21,33,28,10,24,8,11,16,6]","main","293","many-guess-6"
"","","","","","html-keyboard-response","154","2769434","0.0-10.0-1.67","63be2cfef5b782c28baec197","640759fa512f630a2bdc333d","64076874bd67919fdff07e50","null","","null","","","","","","","","","","","","","","","","","","","fixation","",""
"","","","","","many-guess-6","155","2772026","0.0-10.0-0.68-0.68","63be2cfef5b782c28baec197","640759fa512f630a2bdc333d","64076874bd67919fdff07e50","[1203.4000000003725]","","","[34,27,30,18,25,31,17,2,32,13,28,35,6,10,1,8,15,0,20,24,11,16,3,5,12,19,29,23,33,7,26,21,14,22,9,4]","[137,357,28,18,247,97,197,38,317,227,257,337,307,167,127,48,347,77,237,147,287,277,187,267,157,87,177,107,217,297,117,207,67,57,8,327]","137","282","161.4197765005393","[161.4197765005393]","[239.4197765005393]","[238]","[120,210,120,120,30,120,210,300,30]","0","36","0","148.72900000121444","22.867999999783933","16","[[[""img/mask3.png""],[""img/mask87.png""],[""img/mask51.png""],[""img/mask67.png""],[""img/mask16.png""],[""img/mask24.png""],[""img/mask4.png""],[""img/mask7.png""],[""img/mask15.png""],[""img/mask59.png""],[""img/mask73.png""],[""img/mask29.png""],[""img/mask56.png""],[""img/mask48.png""],[""img/mask72.png""],[""img/mask20.png""],[""img/mask63.png""],[""img/mask66.png""],[""img/mask5.png""],[""img/mask31.png""],[""img/mask2.png""],[""img/mask71.png""],[""img/mask99.png""],[""img/mask8.png""],[""img/mask7.png""],[""img/mask52.png""],[""img/mask56.png""],[""img/mask55.png""],[""img/mask41.png""],[""img/mask17.png""],[""img/mask66.png""],[""img/mask53.png""],[""img/mask77.png""],[""img/mask13.png""],[""img/mask22.png""],[""img/mask71.png""]]]","","[34,27,30,18,25,31,17,2,32,13,28,35,6,10,1,8,15,0,20,24,11,16,3,5,12,19,29,23,33,7,26,21,14,22,9,4]","main","282","many-guess-6"
"","","","","","html-keyboard-response","156","2772534","0.0-10.0-1.68","63be2cfef5b782c28baec197","640759fa512f630a2bdc333d","64076874bd67919fdff07e50","null","","null","","","","","","","","","","","","","","","","","","","fixation","",""
"","","","","","color-precision2","157","2775310","0.0-10.0-0.69-0.69","63be2cfef5b782c28baec197","640759fa512f630a2bdc333d","64076874bd67919fdff07e50","[183.19999999925494]","","","[2]","[38]","38","327","2.934871844985808","[2.934871844985808]","[35.93487184498582]","[35]","0","0","1","0","149.3070000000298","1005.7130000009201","1000","[[[""img/mask49.png""]]]","","","main","327","color-precision2"
"","","","","","html-keyboard-response","158","2775819","0.0-10.0-1.69","63be2cfef5b782c28baec197","640759fa512f630a2bdc333d","64076874bd67919fdff07e50","null","","null","","","","","","","","","","","","","","","","","","","fixation","",""
"","","","","","many-guess-6","159","2779020","0.0-10.0-0.70-0.70","63be2cfef5b782c28baec197","640759fa512f630a2bdc333d","64076874bd67919fdff07e50","[1407.4000000003725]","","","[32,18,17,22,6,26,33,20,23,0,12,3,29,27,28,25,24,19,14,7,5,34,31,16,8,35,10,13,2,21,4,1,30,11,15,9]","[232,212,32,13,52,222,102,72,23,82,92,292,332,322,262,342,132,172,122,312,152,302,352,202,42,182,282,252,242,112,3,192,272,142,162,62]","232","84","2.3748062419448317","[2.3748062419448317]","[278.37480624194484]","[277]","[30,120,120,300,30,30,30,30,120]","0","36","0","148.88200000068173","10.119000000413507","16","[[[""img/mask14.png""],[""img/mask27.png""],[""img/mask25.png""],[""img/mask98.png""],[""img/mask86.png""],[""img/mask83.png""],[""img/mask42.png""],[""img/mask34.png""],[""img/mask78.png""],[""img/mask86.png""],[""img/mask83.png""],[""img/mask32.png""],[""img/mask15.png""],[""img/mask90.png""],[""img/mask29.png""],[""img/mask27.png""],[""img/mask7.png""],[""img/mask54.png""],[""img/mask36.png""],[""img/mask24.png""],[""img/mask28.png""],[""img/mask24.png""],[""img/mask61.png""],[""img/mask85.png""],[""img/mask33.png""],[""img/mask97.png""],[""img/mask71.png""],[""img/mask72.png""],[""img/mask52.png""],[""img/mask47.png""],[""img/mask53.png""],[""img/mask8.png""],[""img/mask73.png""],[""img/mask50.png""],[""img/mask77.png""],[""img/mask48.png""]]]","","[32,18,17,22,6,26,33,20,23,0,12,3,29,27,28,25,24,19,14,7,5,34,31,16,8,35,10,13,2,21,4,1,30,11,15,9]","main","84","many-guess-6"
"","","","","","html-keyboard-response","160","2779522","0.0-10.0-1.70","63be2cfef5b782c28baec197","640759fa512f630a2bdc333d","64076874bd67919fdff07e50","null","","null","","","","","","","","","","","","","","","","","","","fixation","",""
"","","","","","color-precision2","161","2782563","0.0-10.0-0.71-0.71","63be2cfef5b782c28baec197","640759fa512f630a2bdc333d","64076874bd67919fdff07e50","[413.5]","","","[35]","[237]","237","217","88.88689156196331","[88.88689156196331]","[231.8868915619633]","[230]","0","0","1","0","148.58900000108406","1001.9320000009611","1000","[[[""img/mask15.png""]]]","","","main","217","color-precision2"
"","","","","","html-keyboard-response","162","2783066","0.0-10.0-1.71","63be2cfef5b782c28baec197","640759fa512f630a2bdc333d","64076874bd67919fdff07e50","null","","null","","","","","","","","","","","","","","","","","","","fixation","",""
"","","","","","many-guess-6","163","2785770","0.0-10.0-0.72-0.72","63be2cfef5b782c28baec197","640759fa512f630a2bdc333d","64076874bd67919fdff07e50","[1250.0999999996275]","","","[9,11,20,26,2,29,14,5,21,12,10,13,25,0,3,32,30,4,17,24,28,22,33,18,1,19,31,6,34,15,7,16,27,23,35,8]","[152,162,62,331,322,92,2,252,42,222,102,182,72,52,282,122,22,202,12,272,341,192,112,312,232,302,172,262,132,351,82,212,242,142,32,292]","152","321","155.615787543094","[155.615787543094]","[194.615787543094]","[193]","[120,120,120,300,300,210,300,120,300]","0","36","0","148.66699999943376","21.851999999489635","16","[[[""img/mask75.png""],[""img/mask66.png""],[""img/mask84.png""],[""img/mask38.png""],[""img/mask85.png""],[""img/mask79.png""],[""img/mask42.png""],[""img/mask67.png""],[""img/mask94.png""],[""img/mask58.png""],[""img/mask65.png""],[""img/mask54.png""],[""img/mask11.png""],[""img/mask78.png""],[""img/mask98.png""],[""img/mask49.png""],[""img/mask57.png""],[""img/mask91.png""],[""img/mask44.png""],[""img/mask14.png""],[""img/mask1.png""],[""img/mask19.png""],[""img/mask23.png""],[""img/mask27.png""],[""img/mask47.png""],[""img/mask78.png""],[""img/mask81.png""],[""img/mask75.png""],[""img/mask59.png""],[""img/mask34.png""],[""img/mask15.png""],[""img/mask23.png""],[""img/mask64.png""],[""img/mask27.png""],[""img/mask89.png""],[""img/mask32.png""]]]","","[9,11,20,26,2,29,14,5,21,12,10,13,25,0,3,32,30,4,17,24,28,22,33,18,1,19,31,6,34,15,7,16,27,23,35,8]","main","321","many-guess-6"
"","","","","","html-keyboard-response","164","2786286","0.0-10.0-1.72","63be2cfef5b782c28baec197","640759fa512f630a2bdc333d","64076874bd67919fdff07e50","null","","null","","","","","","","","","","","","","","","","","","","fixation","",""
"","","","","","many-guess-6","165","2789026","0.0-10.0-0.73-0.73","63be2cfef5b782c28baec197","640759fa512f630a2bdc333d","64076874bd67919fdff07e50","[1352.7999999988824]","","","[25,6,13,31,8,29,30,9,4,20,11,27,7,2,28,0,14,34,16,35,3,23,10,33,15,24,26,12,32,22,18,19,5,1,17,21]","[168,128,298,158,288,308,317,178,357,28,108,38,208,68,58,8,238,88,98,198,327,118,347,278,48,138,148,258,18,78,248,218,268,337,228,188]","168","313","323.7080611014879","[323.7080611014879]","[10.708061101487885]","[11]","[120,210,300,120,300,120,210,210,300]","0","36","0","148.86500000115484","17.731999999843538","16","[[[""img/mask41.png""],[""img/mask93.png""],[""img/mask8.png""],[""img/mask12.png""],[""img/mask15.png""],[""img/mask53.png""],[""img/mask1.png""],[""img/mask40.png""],[""img/mask67.png""],[""img/mask15.png""],[""img/mask56.png""],[""img/mask31.png""],[""img/mask46.png""],[""img/mask28.png""],[""img/mask15.png""],[""img/mask2.png""],[""img/mask66.png""],[""img/mask31.png""],[""img/mask36.png""],[""img/mask49.png""],[""img/mask42.png""],[""img/mask11.png""],[""img/mask1.png""],[""img/mask97.png""],[""img/mask63.png""],[""img/mask91.png""],[""img/mask56.png""],[""img/mask25.png""],[""img/mask84.png""],[""img/mask86.png""],[""img/mask67.png""],[""img/mask89.png""],[""img/mask69.png""],[""img/mask13.png""],[""img/mask67.png""],[""img/mask27.png""]]]","","[25,6,13,31,8,29,30,9,4,20,11,27,7,2,28,0,14,34,16,35,3,23,10,33,15,24,26,12,32,22,18,19,5,1,17,21]","main","313","many-guess-6"
"","","","","","html-keyboard-response","166","2789531","0.0-10.0-1.73","63be2cfef5b782c28baec197","640759fa512f630a2bdc333d","64076874bd67919fdff07e50","null","","null","","","","","","","","","","","","","","","","","","","fixation","",""
"","","","","","color-precision2","167","2792570","0.0-10.0-0.74-0.74","63be2cfef5b782c28baec197","640759fa512f630a2bdc333d","64076874bd67919fdff07e50","[442.40000000037253]","","","[19]","[120]","120","249","18.46400886669655","[18.46400886669655]","[129.46400886669656]","[128]","0","0","1","0","148.78500000108033","995.511000000406","1000","[[[""img/mask45.png""]]]","","","main","249","color-precision2"
"","","","","","html-keyboard-response","168","2793079","0.0-10.0-1.74","63be2cfef5b782c28baec197","640759fa512f630a2bdc333d","64076874bd67919fdff07e50","null","","null","","","","","","","","","","","","","","","","","","","fixation","",""
"","","","","","color-precision2","169","2796691","0.0-10.0-0.75-0.75","63be2cfef5b782c28baec197","640759fa512f630a2bdc333d","64076874bd67919fdff07e50","[343.7999999988824]","","","[4]","[79]","79","147","234.7931351740469","[234.7931351740469]","[87.79313517404691]","[88]","0","0","1","0","149.2620000001043","997.4439999996684","1000","[[[""img/mask78.png""]]]","","","main","147","color-precision2"
"","","","","","html-keyboard-response","170","2797195","0.0-10.0-1.75","63be2cfef5b782c28baec197","640759fa512f630a2bdc333d","64076874bd67919fdff07e50","null","","null","","","","","","","","","","","","","","","","","","","fixation","",""
"","","","","","many-guess-6","171","2799703","0.0-10.0-0.76-0.76","63be2cfef5b782c28baec197","640759fa512f630a2bdc333d","64076874bd67919fdff07e50","[1087.0999999996275]","","","[22,12,7,30,8,29,31,27,2,26,35,10,20,21,19,4,15,17,28,25,32,13,1,0,14,5,9,16,24,11,18,33,3,34,23,6]","[156,236,266,146,7,336,107,77,246,216,176,356,17,296,37,166,346,196,316,47,206,306,97,186,67,87,276,127,137,226,256,27,57,117,326,286]","156","105","187.2075452268948","[187.2075452268948]","[82.20754522689481]","[81]","[120,210,300,120,300,30,30,30,120]","0","36","0","148.73899999959394","20.49500000011176","16","[[[""img/mask38.png""],[""img/mask46.png""],[""img/mask1.png""],[""img/mask23.png""],[""img/mask75.png""],[""img/mask32.png""],[""img/mask56.png""],[""img/mask4.png""],[""img/mask15.png""],[""img/mask97.png""],[""img/mask19.png""],[""img/mask45.png""],[""img/mask72.png""],[""img/mask54.png""],[""img/mask71.png""],[""img/mask41.png""],[""img/mask21.png""],[""img/mask11.png""],[""img/mask88.png""],[""img/mask58.png""],[""img/mask72.png""],[""img/mask61.png""],[""img/mask82.png""],[""img/mask41.png""],[""img/mask20.png""],[""img/mask47.png""],[""img/mask7.png""],[""img/mask39.png""],[""img/mask61.png""],[""img/mask87.png""],[""img/mask100.png""],[""img/mask24.png""],[""img/mask100.png""],[""img/mask63.png""],[""img/mask49.png""],[""img/mask72.png""]]]","","[22,12,7,30,8,29,31,27,2,26,35,10,20,21,19,4,15,17,28,25,32,13,1,0,14,5,9,16,24,11,18,33,3,34,23,6]","main","105","many-guess-6"
"","","","","","html-keyboard-response","172","2800210","0.0-10.0-1.76","63be2cfef5b782c28baec197","640759fa512f630a2bdc333d","64076874bd67919fdff07e50","null","","null","","","","","","","","","","","","","","","","","","","fixation","",""
"","","","","","color-precision2","173","2803209","0.0-10.0-0.77-0.77","63be2cfef5b782c28baec197","640759fa512f630a2bdc333d","64076874bd67919fdff07e50","[305.40000000037253]","","","[24]","[49]","49","346","33.212068741201136","[33.212068741201136]","[47.212068741201165]","[46]","0","0","1","0","148.01300000073388","1005.8889999999665","1000","[[[""img/mask53.png""]]]","","","main","346","color-precision2"
"","","","","","html-keyboard-response","174","2803714","0.0-10.0-1.77","63be2cfef5b782c28baec197","640759fa512f630a2bdc333d","64076874bd67919fdff07e50","null","","null","","","","","","","","","","","","","","","","","","","fixation","",""
"","","","","","color-precision2","175","2807306","0.0-10.0-0.78-0.78","63be2cfef5b782c28baec197","640759fa512f630a2bdc333d","64076874bd67919fdff07e50","[930.5]","","","[14]","[53]","53","195","257.78408373507864","[257.78408373507864]","[62.78408373507864]","[63]","0","0","1","0","148.83800000092015","1000.7250000010245","1000","[[[""img/mask22.png""]]]","","","main","195","color-precision2"
"","","","","","html-keyboard-response","176","2807808","0.0-10.0-1.78","63be2cfef5b782c28baec197","640759fa512f630a2bdc333d","64076874bd67919fdff07e50","null","","null","","","","","","","","","","","","","","","","","","","fixation","",""
"","","","","","color-precision2","177","2810995","0.0-10.0-0.79-0.79","63be2cfef5b782c28baec197","640759fa512f630a2bdc333d","64076874bd67919fdff07e50","[617.5]","","","[21]","[238]","238","289","158.55019422333734","[158.55019422333734]","[229.55019422333734]","[228]","0","0","1","0","149.02700000116602","1001.1610000012442","1000","[[[""img/mask12.png""]]]","","","main","289","color-precision2"
"","","","","","html-keyboard-response","178","2819394","0.0-10.0-1.79","63be2cfef5b782c28baec197","640759fa512f630a2bdc333d","64076874bd67919fdff07e50","8397.599999999627","Wow! You've completed 80 out of 180 trials! </p> <p>  </p><p> Take a quick break, then press any key when you're ready to continue.","d","","","","","","","","","","","","","","","","","","","fixation","",""
