"success","timeout","failed_images","failed_audio","failed_video","trial_type","trial_index","time_elapsed","internal_node_id","subject_id","study_id","session_id","rt","stimulus","response","position_of_items","colors_of_items","color_of_target","wheel_spin","response_angle","physical_response_angle","reported_color_angle","reported_color_discrete","locs","which_test","set_size","wheel_num_options","actual_mask_duration","actual_stim_duration","CMDispTime","maskArray","maskRotation","item_positions","task","randomSpinAmount","mainTask"
"true","false","[]","[]","[]","preload","0","5870","0.0-0.0","63d569384ae2cf6d4dce7c32","640759fa512f630a2bdc333d","6408c1809ba9b23e83d97a24","","","","","","","","","","","","","","","","","","","","","","","",""
"true","","","","","fullscreen","1","10801","0.0-1.0","63d569384ae2cf6d4dce7c32","640759fa512f630a2bdc333d","6408c1809ba9b23e83d97a24","","","","","","","","","","","","","","","","","","","","","","","",""
"","","","","","html-keyboard-response","2","14545","0.0-2.0","63d569384ae2cf6d4dce7c32","640759fa512f630a2bdc333d","6408c1809ba9b23e83d97a24","3742.5","What a beautiful Wednesday to do some awesome science! </p> <p>  </p><p> </p>
    By completing this survey or questionnaire, you are consenting to be in this research study. </p>
    Your participation is voluntary and you can stop at any time.<p> [Press any key to continue] </p>"," ","","","","","","","","","","","","","","","","","","","","",""
"","","","","","html-keyboard-response","3","24547","0.0-3.0","63d569384ae2cf6d4dce7c32","640759fa512f630a2bdc333d","6408c1809ba9b23e83d97a24","null","
    <div style='width: 1000px;'>
    <div style='float: center;'><img src='img/TaskInstructions1.png'></img>
    </div>
    ","null","","","","","","","","","","","","","","","","","","","","",""
"","","","","","html-keyboard-response","4","25607","0.0-4.0","63d569384ae2cf6d4dce7c32","640759fa512f630a2bdc333d","6408c1809ba9b23e83d97a24","1059.0999999046326","
    <div style='width: 1000px;'>
    <div style='float: center;'><img src='img/TaskInstructions1.png'></img>
    </div>
    "," ","","","","","","","","","","","","","","","","","","","","",""
"","","","","","html-keyboard-response","5","35618","0.0-5.0","63d569384ae2cf6d4dce7c32","640759fa512f630a2bdc333d","6408c1809ba9b23e83d97a24","null","
    <div style='width: 1000px;'>
    <div style='float: center;'><img src='img/TaskInstructions2.png'></img>
    </div>
    ","null","","","","","","","","","","","","","","","","","","","","",""
"","","","","","html-keyboard-response","6","44413","0.0-6.0","63d569384ae2cf6d4dce7c32","640759fa512f630a2bdc333d","6408c1809ba9b23e83d97a24","8794","
    <div style='width: 1000px;'>
    <div style='float: center;'><img src='img/TaskInstructions2.png'></img>
    </div>
    "," ","","","","","","","","","","","","","","","","","","","","",""
"","","","","","video-keyboard-response","7","77024","0.0-7.0","63d569384ae2cf6d4dce7c32","640759fa512f630a2bdc333d","6408c1809ba9b23e83d97a24","32553.700000047684","[""video/TaskInstructions3.mp4""]"," ","","","","","","","","","","","","","","","","","","","","",""
"","","","","","image-keyboard-response","8","80775","0.0-8.0-0.0","63d569384ae2cf6d4dce7c32","640759fa512f630a2bdc333d","6408c1809ba9b23e83d97a24","3749.0999999046326","img/training1.png"," ","","","","","","","","","","","","","","","","","","","","",""
"","","","","","color-precision2","9","90665","0.0-8.0-1.0-0.0","63d569384ae2cf6d4dce7c32","640759fa512f630a2bdc333d","6408c1809ba9b23e83d97a24","[2597.2000000476837]","","","[30]","[261]","261","210","119.27577464836659","[119.27577464836659]","[269.27577464836656]","[267]","0","0","1","0","498.8670000953716","1005.1599999523169","1000","","","0","training","",""
"","","","","","image-keyboard-response","10","94884","0.0-8.0-0.1","63d569384ae2cf6d4dce7c32","640759fa512f630a2bdc333d","6408c1809ba9b23e83d97a24","4217.200000047684","img/training2.png"," ","","","","","","","","","","","","","","","","","","","","",""
"","","","","","many-guess-6","11","110866","0.0-8.0-1.1-0.1","63d569384ae2cf6d4dce7c32","640759fa512f630a2bdc333d","6408c1809ba9b23e83d97a24","[2768.600000143051]","","","[25,14,0]","[295,271,225]","295","210","116.89751621720507","[116.89751621720507]","[266.89751621720507]","[265]","[210,120,120,300,210,210,120,300,30,30,300,210,300,300,120,210,210,210,300,30,30,300,210,210,120,30,30,210,300,120,210,300,120,30,210,300]","0","3","0","998.7170001430495","998.724000000002","1000","[[[""img/mask61.png""],[""img/mask93.png""],[""img/mask62.png""]]]","","[25,14,0]","training","",""
"","","","","","image-keyboard-response","12","115391","0.0-8.0-0.2","63d569384ae2cf6d4dce7c32","640759fa512f630a2bdc333d","6408c1809ba9b23e83d97a24","4524.300000190735","img/training3.png"," ","","","","","","","","","","","","","","","","","","","","",""
"","","","","","[""many-guess-6""]","13","122038","0.0-8.0-1.2-0.2","63d569384ae2cf6d4dce7c32","640759fa512f630a2bdc333d","6408c1809ba9b23e83d97a24","[2876.5]","","","[5,6,30,26,35]","[109,21,299,326,58]","109","24","61.6310309357338","[61.6310309357338]","[37.6310309357338]","[36]","[300,120,30,120,120,120,30,210,30,30,30,30,30,300,210,300,30,30,210,210,120,210,210,210,120,300,300,300,120,120,120,30,30,210,300,120]","0","5","0","499.3149999523157","495.2000000476837","500","[[[""img/mask33.png""],[""img/mask23.png""],[""img/mask38.png""],[""img/mask88.png""],[""img/mask2.png""]]]","","[5,6,30,26,35]","training","",""
"","","","","","image-keyboard-response","14","126155","0.0-8.0-0.3","63d569384ae2cf6d4dce7c32","640759fa512f630a2bdc333d","6408c1809ba9b23e83d97a24","4116","img/training4.png"," ","","","","","","","","","","","","","","","","","","","","",""
"","","","","","[""many-guess-6""]","15","131788","0.0-8.0-1.3-0.3","63d569384ae2cf6d4dce7c32","640759fa512f630a2bdc333d","6408c1809ba9b23e83d97a24","[2728.7000000476837]","","","[6,7,29,34,28,22,4,0,21,5]","[7,272,27,336,89,291,122,142,56,316]","7","79","27.203700156418407","[27.203700156418407]","[308.2037001564184]","[307]","[210,210,30,120,30,210,210,300,120,30,300,210,30,210,30,120,210,210,30,30,120,120,30,300,210,300,120,300,300,120,210,120,30,120,120,30]","0","10","0","132.70900004767464","128.18200004767277","132","[[[""img/mask75.png""],[""img/mask6.png""],[""img/mask3.png""],[""img/mask34.png""],[""img/mask17.png""],[""img/mask27.png""],[""img/mask33.png""],[""img/mask10.png""],[""img/mask62.png""],[""img/mask46.png""]]]","","[6,7,29,34,28,22,4,0,21,5]","training","",""
"","","","","","image-keyboard-response","16","136200","0.0-8.0-0.4","63d569384ae2cf6d4dce7c32","640759fa512f630a2bdc333d","6408c1809ba9b23e83d97a24","4411.099999904633","img/training5.png"," ","","","","","","","","","","","","","","","","","","","","",""
"","","","","","[""many-guess-6""]","17","142014","0.0-8.0-1.4-0.4","63d569384ae2cf6d4dce7c32","640759fa512f630a2bdc333d","6408c1809ba9b23e83d97a24","[2923.5]","","","[12,29,27,35,13,23,3,1,31,14,10,5,2,24,7,33,20,19,28,6,0,8,4,11,26,21,18,34,9,15,32,17,30,22,16,25]","[286,77,156,37,326,296,87,107,276,306,166,27,206,236,336,246,356,67,97,17,146,136,186,126,176,196,346,226,256,316,7,57,116,47,216,266]","286","161","338.53544779278434","[338.53544779278434]","[177.53544779278434]","[177]","[300,210,210,300,30,210,210,210,300,300,120,210,210,300,120,210,30,120,30,300,300,30,120,120,300,210,300,210,300,210,30,120,30,120,210,120]","0","36","0","132.83100014305091","14.215999999985797","16","[[[""img/mask1.png""],[""img/mask6.png""],[""img/mask31.png""],[""img/mask8.png""],[""img/mask27.png""],[""img/mask94.png""],[""img/mask42.png""],[""img/mask20.png""],[""img/mask93.png""],[""img/mask22.png""],[""img/mask64.png""],[""img/mask6.png""],[""img/mask10.png""],[""img/mask78.png""],[""img/mask77.png""],[""img/mask25.png""],[""img/mask1.png""],[""img/mask2.png""],[""img/mask55.png""],[""img/mask89.png""],[""img/mask32.png""],[""img/mask31.png""],[""img/mask66.png""],[""img/mask17.png""],[""img/mask80.png""],[""img/mask33.png""],[""img/mask52.png""],[""img/mask49.png""],[""img/mask96.png""],[""img/mask35.png""],[""img/mask17.png""],[""img/mask22.png""],[""img/mask42.png""],[""img/mask72.png""],[""img/mask78.png""],[""img/mask96.png""]]]","","[12,29,27,35,13,23,3,1,31,14,10,5,2,24,7,33,20,19,28,6,0,8,4,11,26,21,18,34,9,15,32,17,30,22,16,25]","training","",""
"","","","","","image-keyboard-response","18","145034","0.0-9.0","63d569384ae2cf6d4dce7c32","640759fa512f630a2bdc333d","6408c1809ba9b23e83d97a24","3018.7000000476837","[""img/endTraining.png""]"," ","","","","","","","","","","","","","","","","","","","","",""
"","","","","","color-precision2","19","150022","0.0-10.0-0.0-0.0","63d569384ae2cf6d4dce7c32","640759fa512f630a2bdc333d","6408c1809ba9b23e83d97a24","[1934.1000001430511]","","","[15]","[172]","172","337","141.65354304017066","[141.65354304017066]","[164.65354304017066]","[163]","0","0","1","0","149.32000000000698","1005.3640001430467","1000","[[[""img/mask17.png""]]]","","","main","337","color-precision2"
"","","","","","html-keyboard-response","20","150538","0.0-10.0-1.0","63d569384ae2cf6d4dce7c32","640759fa512f630a2bdc333d","6408c1809ba9b23e83d97a24","null","","null","","","","","","","","","","","","","","","","","","","fixation","",""
"","","","","","many-guess-6","21","155427","0.0-10.0-0.1-0.1","63d569384ae2cf6d4dce7c32","640759fa512f630a2bdc333d","6408c1809ba9b23e83d97a24","[2106.5]","","","[23,1,20,11,12,6,4,9,0,2,25,31,33,29,17,24,19,10,32,18,28,13,35,14,3,8,22,30,26,5,21,7,34,15,16,27]","[332,202,312,292,23,342,72,102,262,142,252,172,352,302,322,82,13,112,3,192,92,62,232,182,272,42,222,282,212,52,162,122,152,242,32,132]","332","150","52.88687657620657","[52.88687657620657]","[262.88687657620653]","[262]","[30,300,120,210,300,120,210,30,210]","0","36","0","149.3989999523037","22.115000143065117","16","[[[""img/mask73.png""],[""img/mask43.png""],[""img/mask41.png""],[""img/mask88.png""],[""img/mask4.png""],[""img/mask39.png""],[""img/mask2.png""],[""img/mask89.png""],[""img/mask81.png""],[""img/mask59.png""],[""img/mask24.png""],[""img/mask2.png""],[""img/mask97.png""],[""img/mask25.png""],[""img/mask67.png""],[""img/mask100.png""],[""img/mask31.png""],[""img/mask89.png""],[""img/mask34.png""],[""img/mask40.png""],[""img/mask57.png""],[""img/mask24.png""],[""img/mask78.png""],[""img/mask100.png""],[""img/mask99.png""],[""img/mask73.png""],[""img/mask58.png""],[""img/mask79.png""],[""img/mask82.png""],[""img/mask47.png""],[""img/mask17.png""],[""img/mask70.png""],[""img/mask66.png""],[""img/mask76.png""],[""img/mask90.png""],[""img/mask54.png""]]]","","[23,1,20,11,12,6,4,9,0,2,25,31,33,29,17,24,19,10,32,18,28,13,35,14,3,8,22,30,26,5,21,7,34,15,16,27]","main","150","many-guess-6"
"","","","","","html-keyboard-response","22","155928","0.0-10.0-1.1","63d569384ae2cf6d4dce7c32","640759fa512f630a2bdc333d","6408c1809ba9b23e83d97a24","null","","null","","","","","","","","","","","","","","","","","","","fixation","",""
"","","","","","many-guess-6","23","160756","0.0-10.0-0.2-0.2","63d569384ae2cf6d4dce7c32","640759fa512f630a2bdc333d","6408c1809ba9b23e83d97a24","[2419.5]","","","[5,22,9,18,3,25,6,26,4,15,24,34,16,8,28,29,13,14,35,7,31,20,10,19,1,27,12,2,33,32,30,21,0,17,23,11]","[42,271,151,261,181,351,161,2,111,62,131,171,71,91,121,291,201,281,231,32,101,211,81,301,241,251,22,341,311,221,191,52,331,321,12,141]","42","93","196.16677243702196","[196.16677243702196]","[103.16677243702196]","[102]","[300,30,120,300,300,210,120,210,300]","0","36","0","149.377000143053","22.01500009535812","16","[[[""img/mask48.png""],[""img/mask77.png""],[""img/mask50.png""],[""img/mask34.png""],[""img/mask44.png""],[""img/mask48.png""],[""img/mask70.png""],[""img/mask1.png""],[""img/mask73.png""],[""img/mask74.png""],[""img/mask11.png""],[""img/mask81.png""],[""img/mask68.png""],[""img/mask77.png""],[""img/mask7.png""],[""img/mask47.png""],[""img/mask80.png""],[""img/mask79.png""],[""img/mask48.png""],[""img/mask50.png""],[""img/mask71.png""],[""img/mask21.png""],[""img/mask63.png""],[""img/mask54.png""],[""img/mask14.png""],[""img/mask37.png""],[""img/mask28.png""],[""img/mask90.png""],[""img/mask8.png""],[""img/mask26.png""],[""img/mask91.png""],[""img/mask96.png""],[""img/mask12.png""],[""img/mask52.png""],[""img/mask52.png""],[""img/mask99.png""]]]","","[5,22,9,18,3,25,6,26,4,15,24,34,16,8,28,29,13,14,35,7,31,20,10,19,1,27,12,2,33,32,30,21,0,17,23,11]","main","93","many-guess-6"
"","","","","","html-keyboard-response","24","161257","0.0-10.0-1.2","63d569384ae2cf6d4dce7c32","640759fa512f630a2bdc333d","6408c1809ba9b23e83d97a24","null","","null","","","","","","","","","","","","","","","","","","","fixation","",""
"","","","","","many-guess-6","25","165294","0.0-10.0-0.3-0.3","63d569384ae2cf6d4dce7c32","640759fa512f630a2bdc333d","6408c1809ba9b23e83d97a24","[1942.2000000476837]","","","[23,31,35,1,20,34,18,16,17,33,15,25,3,21,26,5,13,2,19,14,7,24,28,11,8,27,6,0,22,29,4,9,12,32,10,30]","[130,110,170,300,330,290,30,220,60,40,70,270,80,120,150,200,230,340,240,21,210,260,190,350,320,1,250,180,100,280,11,160,140,310,50,90]","130","156","254.61485428338437","[254.61485428338437]","[98.61485428338437]","[99]","[210,300,120,300,300,30,120,30,210]","0","36","0","148.72599995232304","11.851000047696289","16","[[[""img/mask67.png""],[""img/mask74.png""],[""img/mask26.png""],[""img/mask28.png""],[""img/mask2.png""],[""img/mask91.png""],[""img/mask76.png""],[""img/mask22.png""],[""img/mask55.png""],[""img/mask63.png""],[""img/mask100.png""],[""img/mask8.png""],[""img/mask1.png""],[""img/mask78.png""],[""img/mask72.png""],[""img/mask41.png""],[""img/mask1.png""],[""img/mask55.png""],[""img/mask17.png""],[""img/mask64.png""],[""img/mask8.png""],[""img/mask57.png""],[""img/mask2.png""],[""img/mask44.png""],[""img/mask49.png""],[""img/mask6.png""],[""img/mask93.png""],[""img/mask35.png""],[""img/mask82.png""],[""img/mask49.png""],[""img/mask33.png""],[""img/mask2.png""],[""img/mask29.png""],[""img/mask46.png""],[""img/mask74.png""],[""img/mask19.png""]]]","","[23,31,35,1,20,34,18,16,17,33,15,25,3,21,26,5,13,2,19,14,7,24,28,11,8,27,6,0,22,29,4,9,12,32,10,30]","main","156","many-guess-6"
"","","","","","html-keyboard-response","26","165807","0.0-10.0-1.3","63d569384ae2cf6d4dce7c32","640759fa512f630a2bdc333d","6408c1809ba9b23e83d97a24","null","","null","","","","","","","","","","","","","","","","","","","fixation","",""
"","","","","","many-guess-6","27","170216","0.0-10.0-0.4-0.4","63d569384ae2cf6d4dce7c32","640759fa512f630a2bdc333d","6408c1809ba9b23e83d97a24","[1814.6000001430511]","","","[7,28,29,10,11,30,13,16,12,18,24,4,14,26,34,3,25,0,22,9,1,33,17,19,15,27,6,35,23,5,8,21,2,20,32,31]","[179,59,279,129,259,229,328,159,149,69,358,19,289,119,318,169,249,219,79,299,99,189,9,269,89,239,49,109,29,199,209,139,338,348,39,308]","179","323","107.69357542122673","[107.69357542122673]","[144.69357542122674]","[143]","[120,120,300,120,210,300,300,120,30]","0","36","0","149.4220001430367","16.564000095357187","16","[[[""img/mask79.png""],[""img/mask76.png""],[""img/mask7.png""],[""img/mask95.png""],[""img/mask76.png""],[""img/mask4.png""],[""img/mask61.png""],[""img/mask50.png""],[""img/mask41.png""],[""img/mask7.png""],[""img/mask95.png""],[""img/mask20.png""],[""img/mask39.png""],[""img/mask17.png""],[""img/mask89.png""],[""img/mask19.png""],[""img/mask79.png""],[""img/mask76.png""],[""img/mask65.png""],[""img/mask87.png""],[""img/mask94.png""],[""img/mask15.png""],[""img/mask58.png""],[""img/mask15.png""],[""img/mask67.png""],[""img/mask49.png""],[""img/mask42.png""],[""img/mask33.png""],[""img/mask94.png""],[""img/mask75.png""],[""img/mask16.png""],[""img/mask70.png""],[""img/mask74.png""],[""img/mask12.png""],[""img/mask90.png""],[""img/mask10.png""]]]","","[7,28,29,10,11,30,13,16,12,18,24,4,14,26,34,3,25,0,22,9,1,33,17,19,15,27,6,35,23,5,8,21,2,20,32,31]","main","323","many-guess-6"
"","","","","","html-keyboard-response","28","170719","0.0-10.0-1.4","63d569384ae2cf6d4dce7c32","640759fa512f630a2bdc333d","6408c1809ba9b23e83d97a24","null","","null","","","","","","","","","","","","","","","","","","","fixation","",""
"","","","","","many-guess-6","29","175840","0.0-10.0-0.5-0.5","63d569384ae2cf6d4dce7c32","640759fa512f630a2bdc333d","6408c1809ba9b23e83d97a24","[2556.699999809265]","","","[3,1,9,16,13,33,31,4,25,17,20,10,2,22,29,24,8,0,5,14,28,19,34,27,12,15,6,32,21,30,35,23,18,26,7,11]","[50,60,160,30,259,170,190,299,240,309,140,120,70,279,40,319,200,339,289,10,80,220,269,180,20,210,250,130,349,150,110,359,230,90,100,329]","50","277","319.26075098109163","[319.26075098109163]","[42.26075098109163]","[42]","[120,300,210,300,300,210,210,120,30]","0","36","0","149.38400009536417","14.961000047682319","16","[[[""img/mask55.png""],[""img/mask67.png""],[""img/mask73.png""],[""img/mask70.png""],[""img/mask48.png""],[""img/mask72.png""],[""img/mask12.png""],[""img/mask2.png""],[""img/mask69.png""],[""img/mask82.png""],[""img/mask56.png""],[""img/mask88.png""],[""img/mask51.png""],[""img/mask48.png""],[""img/mask71.png""],[""img/mask92.png""],[""img/mask20.png""],[""img/mask95.png""],[""img/mask86.png""],[""img/mask95.png""],[""img/mask1.png""],[""img/mask43.png""],[""img/mask56.png""],[""img/mask40.png""],[""img/mask62.png""],[""img/mask20.png""],[""img/mask76.png""],[""img/mask40.png""],[""img/mask82.png""],[""img/mask78.png""],[""img/mask82.png""],[""img/mask84.png""],[""img/mask37.png""],[""img/mask72.png""],[""img/mask47.png""],[""img/mask89.png""]]]","","[3,1,9,16,13,33,31,4,25,17,20,10,2,22,29,24,8,0,5,14,28,19,34,27,12,15,6,32,21,30,35,23,18,26,7,11]","main","277","many-guess-6"
"","","","","","html-keyboard-response","30","176356","0.0-10.0-1.5","63d569384ae2cf6d4dce7c32","640759fa512f630a2bdc333d","6408c1809ba9b23e83d97a24","null","","null","","","","","","","","","","","","","","","","","","","fixation","",""
"","","","","","color-precision2","31","181339","0.0-10.0-0.6-0.6","63d569384ae2cf6d4dce7c32","640759fa512f630a2bdc333d","6408c1809ba9b23e83d97a24","[1773.5]","","","[13]","[310]","310","275","226.06685149463974","[226.06685149463974]","[311.06685149463976]","[311]","0","0","1","0","148.9420000476821","1002.5819999999949","1000","[[[""img/mask22.png""]]]","","","main","275","color-precision2"
"","","","","","html-keyboard-response","32","181849","0.0-10.0-1.6","63d569384ae2cf6d4dce7c32","640759fa512f630a2bdc333d","6408c1809ba9b23e83d97a24","null","","null","","","","","","","","","","","","","","","","","","","fixation","",""
"","","","","","color-precision2","33","185668","0.0-10.0-0.7-0.7","63d569384ae2cf6d4dce7c32","640759fa512f630a2bdc333d","6408c1809ba9b23e83d97a24","[636.2999999523163]","","","[32]","[239]","239","86","318.1448559752867","[318.1448559752867]","[232.1448559752867]","[232]","0","0","1","0","148.50099995231722","999.55100009538","1000","[[[""img/mask50.png""]]]","","","main","86","color-precision2"
"","","","","","html-keyboard-response","34","186178","0.0-10.0-1.7","63d569384ae2cf6d4dce7c32","640759fa512f630a2bdc333d","6408c1809ba9b23e83d97a24","null","","null","","","","","","","","","","","","","","","","","","","fixation","",""
"","","","","","color-precision2","35","189730","0.0-10.0-0.8-0.8","63d569384ae2cf6d4dce7c32","640759fa512f630a2bdc333d","6408c1809ba9b23e83d97a24","[799.6999998092651]","","","[32]","[354]","354","109","104.25831697123569","[104.25831697123569]","[355.2583169712357]","[354]","0","0","1","0","148.85000009537907","1005.2240000953607","1000","[[[""img/mask72.png""]]]","","","main","109","color-precision2"
"","","","","","html-keyboard-response","36","190241","0.0-10.0-1.8","63d569384ae2cf6d4dce7c32","640759fa512f630a2bdc333d","6408c1809ba9b23e83d97a24","null","","null","","","","","","","","","","","","","","","","","","","fixation","",""
"","","","","","many-guess-6","37","194168","0.0-10.0-0.9-0.9","63d569384ae2cf6d4dce7c32","640759fa512f630a2bdc333d","6408c1809ba9b23e83d97a24","[1821.9000000953674]","","","[5,19,17,13,20,0,4,15,2,25,21,7,1,16,34,28,10,8,9,12,31,6,33,14,26,27,18,35,24,30,11,3,23,32,22,29]","[220,330,100,350,1,130,190,210,170,180,50,41,160,70,300,21,200,140,150,11,290,320,90,60,340,110,80,230,280,250,270,31,260,240,120,310]","220","76","261.6717568753014","[261.6717568753014]","[185.6717568753014]","[186]","[300,30,300,300,120,300,210,300,210]","0","36","0","147.83100009537884","15.467000095377443","16","[[[""img/mask17.png""],[""img/mask96.png""],[""img/mask47.png""],[""img/mask52.png""],[""img/mask56.png""],[""img/mask38.png""],[""img/mask91.png""],[""img/mask71.png""],[""img/mask76.png""],[""img/mask90.png""],[""img/mask34.png""],[""img/mask44.png""],[""img/mask17.png""],[""img/mask6.png""],[""img/mask89.png""],[""img/mask38.png""],[""img/mask72.png""],[""img/mask88.png""],[""img/mask4.png""],[""img/mask20.png""],[""img/mask26.png""],[""img/mask28.png""],[""img/mask47.png""],[""img/mask86.png""],[""img/mask91.png""],[""img/mask70.png""],[""img/mask95.png""],[""img/mask42.png""],[""img/mask61.png""],[""img/mask84.png""],[""img/mask43.png""],[""img/mask81.png""],[""img/mask54.png""],[""img/mask37.png""],[""img/mask28.png""],[""img/mask1.png""]]]","","[5,19,17,13,20,0,4,15,2,25,21,7,1,16,34,28,10,8,9,12,31,6,33,14,26,27,18,35,24,30,11,3,23,32,22,29]","main","76","many-guess-6"
"","","","","","html-keyboard-response","38","194669","0.0-10.0-1.9","63d569384ae2cf6d4dce7c32","640759fa512f630a2bdc333d","6408c1809ba9b23e83d97a24","null","","null","","","","","","","","","","","","","","","","","","","fixation","",""
"","","","","","color-precision2","39","198738","0.0-10.0-0.10-0.10","63d569384ae2cf6d4dce7c32","640759fa512f630a2bdc333d","6408c1809ba9b23e83d97a24","[1259.7000000476837]","","","[2]","[333]","333","125","107.09075309423798","[107.09075309423798]","[342.090753094238]","[340]","0","0","1","0","148.74600014305906","1007.0980001430435","1000","[[[""img/mask74.png""]]]","","","main","125","color-precision2"
"","","","","","html-keyboard-response","40","199242","0.0-10.0-1.10","63d569384ae2cf6d4dce7c32","640759fa512f630a2bdc333d","6408c1809ba9b23e83d97a24","null","","null","","","","","","","","","","","","","","","","","","","fixation","",""
"","","","","","many-guess-6","41","203544","0.0-10.0-0.11-0.11","63d569384ae2cf6d4dce7c32","640759fa512f630a2bdc333d","6408c1809ba9b23e83d97a24","[2432.7000000476837]","","","[23,27,16,35,19,8,17,10,13,11,12,21,18,31,6,25,26,24,32,20,3,33,22,0,29,30,9,15,5,14,4,28,1,7,2,34]","[16,206,106,66,256,186,56,326,116,76,246,136,345,216,355,146,46,286,6,316,166,296,335,196,26,226,96,86,236,266,36,126,176,306,156,276]","16","316","355.90291180714956","[355.90291180714956]","[39.902911807149565]","[39]","[120,120,30,120,210,30,300,120,30]","0","36","0","149.2609999999986","30.394999999989523","16","[[[""img/mask76.png""],[""img/mask95.png""],[""img/mask35.png""],[""img/mask75.png""],[""img/mask83.png""],[""img/mask83.png""],[""img/mask7.png""],[""img/mask46.png""],[""img/mask79.png""],[""img/mask15.png""],[""img/mask32.png""],[""img/mask80.png""],[""img/mask33.png""],[""img/mask74.png""],[""img/mask78.png""],[""img/mask40.png""],[""img/mask49.png""],[""img/mask98.png""],[""img/mask30.png""],[""img/mask56.png""],[""img/mask15.png""],[""img/mask29.png""],[""img/mask97.png""],[""img/mask46.png""],[""img/mask47.png""],[""img/mask83.png""],[""img/mask37.png""],[""img/mask90.png""],[""img/mask28.png""],[""img/mask2.png""],[""img/mask56.png""],[""img/mask100.png""],[""img/mask13.png""],[""img/mask8.png""],[""img/mask22.png""],[""img/mask55.png""]]]","","[23,27,16,35,19,8,17,10,13,11,12,21,18,31,6,25,26,24,32,20,3,33,22,0,29,30,9,15,5,14,4,28,1,7,2,34]","main","316","many-guess-6"
"","","","","","html-keyboard-response","42","204047","0.0-10.0-1.11","63d569384ae2cf6d4dce7c32","640759fa512f630a2bdc333d","6408c1809ba9b23e83d97a24","null","","null","","","","","","","","","","","","","","","","","","","fixation","",""
"","","","","","many-guess-6","43","208221","0.0-10.0-0.12-0.12","63d569384ae2cf6d4dce7c32","640759fa512f630a2bdc333d","6408c1809ba9b23e83d97a24","[2111.9000000953674]","","","[4,19,11,6,10,34,25,32,23,2,35,33,0,27,1,20,17,22,13,15,21,16,7,18,26,28,30,31,9,14,24,12,8,5,29,3]","[73,63,323,233,123,183,53,23,333,153,173,273,293,243,14,33,193,253,353,303,103,113,93,283,203,163,223,213,343,43,313,143,83,4,133,263]","73","94","161.4833795416056","[161.4833795416056]","[67.48337954160559]","[66]","[300,300,120,120,30,30,30,120,120]","0","36","0","149.42100004767417","22.713000143063255","16","[[[""img/mask25.png""],[""img/mask30.png""],[""img/mask94.png""],[""img/mask8.png""],[""img/mask58.png""],[""img/mask40.png""],[""img/mask91.png""],[""img/mask63.png""],[""img/mask74.png""],[""img/mask75.png""],[""img/mask9.png""],[""img/mask43.png""],[""img/mask37.png""],[""img/mask25.png""],[""img/mask74.png""],[""img/mask94.png""],[""img/mask96.png""],[""img/mask47.png""],[""img/mask71.png""],[""img/mask52.png""],[""img/mask46.png""],[""img/mask85.png""],[""img/mask93.png""],[""img/mask4.png""],[""img/mask56.png""],[""img/mask82.png""],[""img/mask19.png""],[""img/mask64.png""],[""img/mask91.png""],[""img/mask6.png""],[""img/mask41.png""],[""img/mask49.png""],[""img/mask28.png""],[""img/mask86.png""],[""img/mask53.png""],[""img/mask77.png""]]]","","[4,19,11,6,10,34,25,32,23,2,35,33,0,27,1,20,17,22,13,15,21,16,7,18,26,28,30,31,9,14,24,12,8,5,29,3]","main","94","many-guess-6"
"","","","","","html-keyboard-response","44","208723","0.0-10.0-1.12","63d569384ae2cf6d4dce7c32","640759fa512f630a2bdc333d","6408c1809ba9b23e83d97a24","null","","null","","","","","","","","","","","","","","","","","","","fixation","",""
"","","","","","many-guess-6","45","213433","0.0-10.0-0.13-0.13","63d569384ae2cf6d4dce7c32","640759fa512f630a2bdc333d","6408c1809ba9b23e83d97a24","[2974.7000000476837]","","","[4,2,31,20,13,17,25,27,19,5,28,0,24,6,26,9,1,35,30,12,18,22,11,3,21,32,29,16,23,15,7,34,8,10,33,14]","[88,337,197,58,217,48,347,168,277,68,357,297,267,118,8,207,78,317,108,327,138,178,128,187,158,18,287,307,98,148,237,38,257,227,28,247]","88","9","301.36474239636067","[301.36474239636067]","[292.36474239636067]","[293]","[120,210,300,300,120,30,300,300,210]","0","36","0","149.22800009537605","10.623000095365569","16","[[[""img/mask21.png""],[""img/mask45.png""],[""img/mask76.png""],[""img/mask93.png""],[""img/mask45.png""],[""img/mask89.png""],[""img/mask55.png""],[""img/mask87.png""],[""img/mask40.png""],[""img/mask80.png""],[""img/mask39.png""],[""img/mask89.png""],[""img/mask88.png""],[""img/mask5.png""],[""img/mask70.png""],[""img/mask27.png""],[""img/mask68.png""],[""img/mask70.png""],[""img/mask24.png""],[""img/mask19.png""],[""img/mask52.png""],[""img/mask92.png""],[""img/mask24.png""],[""img/mask74.png""],[""img/mask37.png""],[""img/mask53.png""],[""img/mask13.png""],[""img/mask26.png""],[""img/mask14.png""],[""img/mask2.png""],[""img/mask32.png""],[""img/mask12.png""],[""img/mask12.png""],[""img/mask73.png""],[""img/mask83.png""],[""img/mask28.png""]]]","","[4,2,31,20,13,17,25,27,19,5,28,0,24,6,26,9,1,35,30,12,18,22,11,3,21,32,29,16,23,15,7,34,8,10,33,14]","main","9","many-guess-6"
"","","","","","html-keyboard-response","46","213934","0.0-10.0-1.13","63d569384ae2cf6d4dce7c32","640759fa512f630a2bdc333d","6408c1809ba9b23e83d97a24","null","","null","","","","","","","","","","","","","","","","","","","fixation","",""
"","","","","","many-guess-6","47","217942","0.0-10.0-0.14-0.14","63d569384ae2cf6d4dce7c32","640759fa512f630a2bdc333d","6408c1809ba9b23e83d97a24","[1984.3000001907349]","","","[25,13,29,17,24,33,21,5,16,6,27,4,8,18,12,3,7,34,0,22,26,23,15,30,28,31,9,1,10,20,14,2,19,35,11,32]","[155,314,274,65,304,254,45,354,125,244,175,145,204,55,35,234,214,284,25,135,324,85,194,264,15,294,75,165,95,224,334,115,105,184,344,5]","155","342","215.09381668334936","[215.09381668334936]","[233.09381668334936]","[233]","[30,300,210,210,210,30,30,210,300]","0","36","0","149.15100000001257","16.309000047680456","16","[[[""img/mask26.png""],[""img/mask89.png""],[""img/mask89.png""],[""img/mask23.png""],[""img/mask19.png""],[""img/mask46.png""],[""img/mask7.png""],[""img/mask55.png""],[""img/mask13.png""],[""img/mask52.png""],[""img/mask62.png""],[""img/mask38.png""],[""img/mask100.png""],[""img/mask92.png""],[""img/mask50.png""],[""img/mask47.png""],[""img/mask21.png""],[""img/mask79.png""],[""img/mask8.png""],[""img/mask27.png""],[""img/mask8.png""],[""img/mask5.png""],[""img/mask34.png""],[""img/mask40.png""],[""img/mask23.png""],[""img/mask62.png""],[""img/mask88.png""],[""img/mask18.png""],[""img/mask35.png""],[""img/mask64.png""],[""img/mask24.png""],[""img/mask45.png""],[""img/mask98.png""],[""img/mask50.png""],[""img/mask5.png""],[""img/mask20.png""]]]","","[25,13,29,17,24,33,21,5,16,6,27,4,8,18,12,3,7,34,0,22,26,23,15,30,28,31,9,1,10,20,14,2,19,35,11,32]","main","342","many-guess-6"
"","","","","","html-keyboard-response","48","218444","0.0-10.0-1.14","63d569384ae2cf6d4dce7c32","640759fa512f630a2bdc333d","6408c1809ba9b23e83d97a24","null","","null","","","","","","","","","","","","","","","","","","","fixation","",""
"","","","","","color-precision2","49","222299","0.0-10.0-0.15-0.15","63d569384ae2cf6d4dce7c32","640759fa512f630a2bdc333d","6408c1809ba9b23e83d97a24","[893.0999999046326]","","","[29]","[240]","240","228","107.38956945950773","[107.38956945950773]","[239.38956945950773]","[237]","0","0","1","0","148.65800014304114","1004.734999952314","1000","[[[""img/mask88.png""]]]","","","main","228","color-precision2"
"","","","","","html-keyboard-response","50","222802","0.0-10.0-1.15","63d569384ae2cf6d4dce7c32","640759fa512f630a2bdc333d","6408c1809ba9b23e83d97a24","null","","null","","","","","","","","","","","","","","","","","","","fixation","",""
"","","","","","color-precision2","51","226791","0.0-10.0-0.16-0.16","63d569384ae2cf6d4dce7c32","640759fa512f630a2bdc333d","6408c1809ba9b23e83d97a24","[985.7999999523163]","","","[17]","[255]","255","103","3.7202982193283214","[3.7202982193283214]","[260.72029821932836]","[260]","0","0","1","0","149.23400014304207","1005.4400000953756","1000","[[[""img/mask45.png""]]]","","","main","103","color-precision2"
"","","","","","html-keyboard-response","52","227293","0.0-10.0-1.16","63d569384ae2cf6d4dce7c32","640759fa512f630a2bdc333d","6408c1809ba9b23e83d97a24","null","","null","","","","","","","","","","","","","","","","","","","fixation","",""
"","","","","","color-precision2","53","231417","0.0-10.0-0.17-0.17","63d569384ae2cf6d4dce7c32","640759fa512f630a2bdc333d","6408c1809ba9b23e83d97a24","[1013.1999998092651]","","","[3]","[219]","219","262","129.48126882767363","[129.48126882767363]","[227.48126882767363]","[226]","0","0","1","0","148.71199999999953","995.5629999999946","1000","[[[""img/mask6.png""]]]","","","main","262","color-precision2"
"","","","","","html-keyboard-response","54","231918","0.0-10.0-1.17","63d569384ae2cf6d4dce7c32","640759fa512f630a2bdc333d","6408c1809ba9b23e83d97a24","null","","null","","","","","","","","","","","","","","","","","","","fixation","",""
"","","","","","color-precision2","55","235291","0.0-10.0-0.18-0.18","63d569384ae2cf6d4dce7c32","640759fa512f630a2bdc333d","6408c1809ba9b23e83d97a24","[738.2000000476837]","","","[25]","[206]","206","101","292.36171239825086","[292.36171239825086]","[191.36171239825086]","[191]","0","0","1","0","147.98900014304672","997.8780001430423","1000","[[[""img/mask20.png""]]]","","","main","101","color-precision2"
"","","","","","html-keyboard-response","56","235794","0.0-10.0-1.18","63d569384ae2cf6d4dce7c32","640759fa512f630a2bdc333d","6408c1809ba9b23e83d97a24","null","","null","","","","","","","","","","","","","","","","","","","fixation","",""
"","","","","","many-guess-6","57","239237","0.0-10.0-0.19-0.19","63d569384ae2cf6d4dce7c32","640759fa512f630a2bdc333d","6408c1809ba9b23e83d97a24","[1734.2999999523163]","","","[20,28,19,4,34,27,30,22,1,14,35,9,29,17,8,3,26,25,15,13,31,32,11,16,5,0,24,12,23,33,18,10,21,7,2,6]","[173,332,3,23,113,342,302,13,253,163,83,243,203,282,43,263,33,292,193,223,53,322,63,93,153,312,273,123,73,133,103,233,183,143,213,352]","173","352","305.8976318271608","[305.8976318271608]","[313.8976318271608]","[314]","[300,300,300,120,120,300,210,120,300]","0","36","0","149.15900009535835","13.055000047694193","16","[[[""img/mask41.png""],[""img/mask35.png""],[""img/mask62.png""],[""img/mask89.png""],[""img/mask51.png""],[""img/mask75.png""],[""img/mask77.png""],[""img/mask29.png""],[""img/mask11.png""],[""img/mask54.png""],[""img/mask18.png""],[""img/mask44.png""],[""img/mask87.png""],[""img/mask18.png""],[""img/mask70.png""],[""img/mask30.png""],[""img/mask12.png""],[""img/mask9.png""],[""img/mask99.png""],[""img/mask74.png""],[""img/mask29.png""],[""img/mask27.png""],[""img/mask74.png""],[""img/mask67.png""],[""img/mask68.png""],[""img/mask75.png""],[""img/mask14.png""],[""img/mask35.png""],[""img/mask38.png""],[""img/mask17.png""],[""img/mask36.png""],[""img/mask90.png""],[""img/mask44.png""],[""img/mask43.png""],[""img/mask28.png""],[""img/mask72.png""]]]","","[20,28,19,4,34,27,30,22,1,14,35,9,29,17,8,3,26,25,15,13,31,32,11,16,5,0,24,12,23,33,18,10,21,7,2,6]","main","352","many-guess-6"
"","","","","","html-keyboard-response","58","264623","0.0-10.0-1.19","63d569384ae2cf6d4dce7c32","640759fa512f630a2bdc333d","6408c1809ba9b23e83d97a24","25385.599999904633","Wow! You've completed 20 out of 180 trials! </p> <p>  </p><p> Take a quick break, then press any key when you're ready to continue."," ","","","","","","","","","","","","","","","","","","","fixation","",""
"","","","","","many-guess-6","59","271859","0.0-10.0-0.20-0.20","63d569384ae2cf6d4dce7c32","640759fa512f630a2bdc333d","6408c1809ba9b23e83d97a24","[2312.899999856949]","","","[24,22,14,11,8,30,21,1,10,31,33,19,9,17,35,15,32,3,0,18,7,4,28,34,20,26,25,27,6,12,13,29,2,23,16,5]","[174,65,324,164,75,134,35,284,234,25,15,45,115,254,214,194,354,55,184,334,204,264,144,5,85,224,95,244,105,304,124,314,344,154,294,274]","174","69","322.28379442994674","[322.28379442994674]","[253.28379442994674]","[253]","[120,120,30,210,30,300,120,300,30]","0","36","0","149.22399995231535","14.605000143055804","16","[[[""img/mask2.png""],[""img/mask40.png""],[""img/mask40.png""],[""img/mask60.png""],[""img/mask71.png""],[""img/mask27.png""],[""img/mask29.png""],[""img/mask17.png""],[""img/mask70.png""],[""img/mask7.png""],[""img/mask72.png""],[""img/mask47.png""],[""img/mask92.png""],[""img/mask55.png""],[""img/mask97.png""],[""img/mask55.png""],[""img/mask58.png""],[""img/mask82.png""],[""img/mask22.png""],[""img/mask4.png""],[""img/mask2.png""],[""img/mask57.png""],[""img/mask100.png""],[""img/mask21.png""],[""img/mask70.png""],[""img/mask65.png""],[""img/mask89.png""],[""img/mask100.png""],[""img/mask30.png""],[""img/mask88.png""],[""img/mask45.png""],[""img/mask67.png""],[""img/mask18.png""],[""img/mask92.png""],[""img/mask84.png""],[""img/mask89.png""]]]","","[24,22,14,11,8,30,21,1,10,31,33,19,9,17,35,15,32,3,0,18,7,4,28,34,20,26,25,27,6,12,13,29,2,23,16,5]","main","69","many-guess-6"
"","","","","","html-keyboard-response","60","272363","0.0-10.0-1.20","63d569384ae2cf6d4dce7c32","640759fa512f630a2bdc333d","6408c1809ba9b23e83d97a24","null","","null","","","","","","","","","","","","","","","","","","","fixation","",""
"","","","","","many-guess-6","61","276538","0.0-10.0-0.21-0.21","63d569384ae2cf6d4dce7c32","640759fa512f630a2bdc333d","6408c1809ba9b23e83d97a24","[2509.2000000476837]","","","[21,8,5,6,34,25,28,7,14,29,26,32,10,11,31,9,2,35,17,23,30,13,20,3,22,1,16,0,27,4,18,12,33,15,24,19]","[320,61,210,31,160,11,310,21,350,71,170,101,250,180,260,220,1,240,111,230,81,140,41,270,300,330,190,130,150,340,290,280,51,120,200,91]","320","202","207.54383520281567","[207.54383520281567]","[5.543835202815671]","[5]","[120,30,30,210,120,30,120,120,120]","0","36","0","149.118000143033","23.38900000002468","16","[[[""img/mask19.png""],[""img/mask67.png""],[""img/mask29.png""],[""img/mask29.png""],[""img/mask81.png""],[""img/mask31.png""],[""img/mask22.png""],[""img/mask14.png""],[""img/mask33.png""],[""img/mask74.png""],[""img/mask52.png""],[""img/mask73.png""],[""img/mask42.png""],[""img/mask32.png""],[""img/mask36.png""],[""img/mask61.png""],[""img/mask70.png""],[""img/mask5.png""],[""img/mask44.png""],[""img/mask48.png""],[""img/mask53.png""],[""img/mask4.png""],[""img/mask38.png""],[""img/mask9.png""],[""img/mask19.png""],[""img/mask27.png""],[""img/mask4.png""],[""img/mask8.png""],[""img/mask3.png""],[""img/mask13.png""],[""img/mask53.png""],[""img/mask27.png""],[""img/mask19.png""],[""img/mask34.png""],[""img/mask96.png""],[""img/mask83.png""]]]","","[21,8,5,6,34,25,28,7,14,29,26,32,10,11,31,9,2,35,17,23,30,13,20,3,22,1,16,0,27,4,18,12,33,15,24,19]","main","202","many-guess-6"
"","","","","","html-keyboard-response","62","277039","0.0-10.0-1.21","63d569384ae2cf6d4dce7c32","640759fa512f630a2bdc333d","6408c1809ba9b23e83d97a24","null","","null","","","","","","","","","","","","","","","","","","","fixation","",""
"","","","","","many-guess-6","63","281561","0.0-10.0-0.22-0.22","63d569384ae2cf6d4dce7c32","640759fa512f630a2bdc333d","6408c1809ba9b23e83d97a24","[2433.7000000476837]","","","[33,32,9,17,7,24,5,2,22,0,28,12,16,35,15,20,34,10,27,3,11,14,25,26,1,6,8,19,13,23,30,18,29,31,4,21]","[203,343,183,134,173,333,323,154,293,84,273,313,64,193,54,94,74,223,253,34,14,104,4,213,164,283,44,124,353,24,233,144,114,243,263,303]","203","55","254.6906004530576","[254.6906004530576]","[199.6906004530576]","[200]","[30,120,120,210,210,300,210,210,120]","0","36","0","149.41000009537674","10.784999999974389","16","[[[""img/mask92.png""],[""img/mask13.png""],[""img/mask71.png""],[""img/mask12.png""],[""img/mask15.png""],[""img/mask88.png""],[""img/mask62.png""],[""img/mask57.png""],[""img/mask27.png""],[""img/mask30.png""],[""img/mask79.png""],[""img/mask20.png""],[""img/mask53.png""],[""img/mask64.png""],[""img/mask67.png""],[""img/mask39.png""],[""img/mask28.png""],[""img/mask58.png""],[""img/mask18.png""],[""img/mask53.png""],[""img/mask29.png""],[""img/mask93.png""],[""img/mask16.png""],[""img/mask69.png""],[""img/mask33.png""],[""img/mask92.png""],[""img/mask10.png""],[""img/mask63.png""],[""img/mask43.png""],[""img/mask79.png""],[""img/mask76.png""],[""img/mask86.png""],[""img/mask89.png""],[""img/mask44.png""],[""img/mask91.png""],[""img/mask82.png""]]]","","[33,32,9,17,7,24,5,2,22,0,28,12,16,35,15,20,34,10,27,3,11,14,25,26,1,6,8,19,13,23,30,18,29,31,4,21]","main","55","many-guess-6"
"","","","","","html-keyboard-response","64","282062","0.0-10.0-1.22","63d569384ae2cf6d4dce7c32","640759fa512f630a2bdc333d","6408c1809ba9b23e83d97a24","null","","null","","","","","","","","","","","","","","","","","","","fixation","",""
"","","","","","many-guess-6","65","286405","0.0-10.0-0.23-0.23","63d569384ae2cf6d4dce7c32","640759fa512f630a2bdc333d","6408c1809ba9b23e83d97a24","[2395.2000000476837]","","","[20,21,31,12,5,22,17,35,25,0,1,8,27,9,33,30,7,3,34,4,26,18,14,23,24,11,32,13,19,28,2,15,29,6,10,16]","[147,247,277,307,137,107,157,97,317,346,227,17,117,77,47,257,327,87,207,336,167,237,37,127,287,57,217,27,356,267,177,7,297,187,67,197]","147","46","74.71446880750328","[74.71446880750328]","[28.71446880750328]","[27]","[210,210,210,300,30,210,300,30,210]","0","36","0","149.27100000000792","11.220000047702342","16","[[[""img/mask85.png""],[""img/mask99.png""],[""img/mask8.png""],[""img/mask90.png""],[""img/mask32.png""],[""img/mask61.png""],[""img/mask56.png""],[""img/mask100.png""],[""img/mask67.png""],[""img/mask72.png""],[""img/mask92.png""],[""img/mask90.png""],[""img/mask39.png""],[""img/mask59.png""],[""img/mask8.png""],[""img/mask29.png""],[""img/mask53.png""],[""img/mask40.png""],[""img/mask54.png""],[""img/mask41.png""],[""img/mask31.png""],[""img/mask92.png""],[""img/mask99.png""],[""img/mask37.png""],[""img/mask78.png""],[""img/mask12.png""],[""img/mask10.png""],[""img/mask80.png""],[""img/mask57.png""],[""img/mask51.png""],[""img/mask66.png""],[""img/mask4.png""],[""img/mask16.png""],[""img/mask57.png""],[""img/mask66.png""],[""img/mask12.png""]]]","","[20,21,31,12,5,22,17,35,25,0,1,8,27,9,33,30,7,3,34,4,26,18,14,23,24,11,32,13,19,28,2,15,29,6,10,16]","main","46","many-guess-6"
"","","","","","html-keyboard-response","66","286918","0.0-10.0-1.23","63d569384ae2cf6d4dce7c32","640759fa512f630a2bdc333d","6408c1809ba9b23e83d97a24","null","","null","","","","","","","","","","","","","","","","","","","fixation","",""
"","","","","","many-guess-6","67","291061","0.0-10.0-0.24-0.24","63d569384ae2cf6d4dce7c32","640759fa512f630a2bdc333d","6408c1809ba9b23e83d97a24","[2119]","","","[11,23,29,30,9,31,28,14,20,26,25,19,17,24,5,34,21,32,22,0,12,4,16,18,3,33,15,13,35,10,2,7,1,27,8,6]","[67,157,336,227,27,87,147,7,47,267,316,137,107,296,77,57,356,117,247,257,127,237,197,167,287,177,17,187,97,37,207,326,306,346,277,217]","67","357","193.09375021480105","[193.09375021480105]","[196.09375021480105]","[195]","[300,210,300,30,210,120,30,210,120]","0","36","0","148.82400004769443","24.06700014305534","16","[[[""img/mask12.png""],[""img/mask18.png""],[""img/mask54.png""],[""img/mask35.png""],[""img/mask62.png""],[""img/mask6.png""],[""img/mask28.png""],[""img/mask3.png""],[""img/mask98.png""],[""img/mask83.png""],[""img/mask27.png""],[""img/mask18.png""],[""img/mask31.png""],[""img/mask16.png""],[""img/mask5.png""],[""img/mask12.png""],[""img/mask91.png""],[""img/mask29.png""],[""img/mask29.png""],[""img/mask73.png""],[""img/mask99.png""],[""img/mask67.png""],[""img/mask96.png""],[""img/mask60.png""],[""img/mask8.png""],[""img/mask61.png""],[""img/mask87.png""],[""img/mask70.png""],[""img/mask56.png""],[""img/mask51.png""],[""img/mask33.png""],[""img/mask72.png""],[""img/mask92.png""],[""img/mask65.png""],[""img/mask94.png""],[""img/mask75.png""]]]","","[11,23,29,30,9,31,28,14,20,26,25,19,17,24,5,34,21,32,22,0,12,4,16,18,3,33,15,13,35,10,2,7,1,27,8,6]","main","357","many-guess-6"
"","","","","","html-keyboard-response","68","291562","0.0-10.0-1.24","63d569384ae2cf6d4dce7c32","640759fa512f630a2bdc333d","6408c1809ba9b23e83d97a24","null","","null","","","","","","","","","","","","","","","","","","","fixation","",""
"","","","","","color-precision2","69","296201","0.0-10.0-0.25-0.25","63d569384ae2cf6d4dce7c32","640759fa512f630a2bdc333d","6408c1809ba9b23e83d97a24","[1860.2000000476837]","","","[34]","[62]","62","107","162.64357295075425","[162.64357295075425]","[55.64357295075425]","[54]","0","0","1","0","148.46100000001024","997.7270000953577","1000","[[[""img/mask46.png""]]]","","","main","107","color-precision2"
"","","","","","html-keyboard-response","70","296703","0.0-10.0-1.25","63d569384ae2cf6d4dce7c32","640759fa512f630a2bdc333d","6408c1809ba9b23e83d97a24","null","","null","","","","","","","","","","","","","","","","","","","fixation","",""
"","","","","","many-guess-6","71","300459","0.0-10.0-0.26-0.26","63d569384ae2cf6d4dce7c32","640759fa512f630a2bdc333d","6408c1809ba9b23e83d97a24","[1902.0999999046326]","","","[6,33,0,30,23,10,17,3,11,27,13,21,7,34,8,19,9,26,5,35,25,18,24,1,2,22,28,29,20,14,32,16,15,4,31,12]","[146,56,106,346,66,176,76,296,226,206,246,236,276,326,16,26,166,316,86,136,6,306,356,336,256,156,286,216,46,116,36,126,96,266,186,196]","146","355","0.5745770306211924","[0.5745770306211924]","[5.574577030621185]","[5]","[300,120,120,300,120,30,300,120,30]","0","36","0","148.76899999997113","13.274000143050216","16","[[[""img/mask78.png""],[""img/mask25.png""],[""img/mask63.png""],[""img/mask4.png""],[""img/mask63.png""],[""img/mask21.png""],[""img/mask40.png""],[""img/mask54.png""],[""img/mask45.png""],[""img/mask16.png""],[""img/mask99.png""],[""img/mask84.png""],[""img/mask83.png""],[""img/mask80.png""],[""img/mask40.png""],[""img/mask79.png""],[""img/mask89.png""],[""img/mask8.png""],[""img/mask93.png""],[""img/mask30.png""],[""img/mask27.png""],[""img/mask55.png""],[""img/mask69.png""],[""img/mask68.png""],[""img/mask80.png""],[""img/mask60.png""],[""img/mask6.png""],[""img/mask24.png""],[""img/mask77.png""],[""img/mask77.png""],[""img/mask66.png""],[""img/mask36.png""],[""img/mask72.png""],[""img/mask2.png""],[""img/mask67.png""],[""img/mask59.png""]]]","","[6,33,0,30,23,10,17,3,11,27,13,21,7,34,8,19,9,26,5,35,25,18,24,1,2,22,28,29,20,14,32,16,15,4,31,12]","main","355","many-guess-6"
"","","","","","html-keyboard-response","72","300963","0.0-10.0-1.26","63d569384ae2cf6d4dce7c32","640759fa512f630a2bdc333d","6408c1809ba9b23e83d97a24","null","","null","","","","","","","","","","","","","","","","","","","fixation","",""
"","","","","","color-precision2","73","304443","0.0-10.0-0.27-0.27","63d569384ae2cf6d4dce7c32","640759fa512f630a2bdc333d","6408c1809ba9b23e83d97a24","[853.1000001430511]","","","[5]","[251]","251","3","247.09425857102752","[247.09425857102752]","[244.09425857102752]","[244]","0","0","1","0","149.52100009535206","996.3310000953497","1000","[[[""img/mask3.png""]]]","","","main","3","color-precision2"
"","","","","","html-keyboard-response","74","304944","0.0-10.0-1.27","63d569384ae2cf6d4dce7c32","640759fa512f630a2bdc333d","6408c1809ba9b23e83d97a24","null","","null","","","","","","","","","","","","","","","","","","","fixation","",""
"","","","","","color-precision2","75","308201","0.0-10.0-0.28-0.28","63d569384ae2cf6d4dce7c32","640759fa512f630a2bdc333d","6408c1809ba9b23e83d97a24","[679.2000000476837]","","","[7]","[243]","243","282","158.30791748101987","[158.30791748101987]","[236.30791748101987]","[235]","0","0","1","0","148.5439999999944","993.9969999999739","1000","[[[""img/mask67.png""]]]","","","main","282","color-precision2"
"","","","","","html-keyboard-response","76","308703","0.0-10.0-1.28","63d569384ae2cf6d4dce7c32","640759fa512f630a2bdc333d","6408c1809ba9b23e83d97a24","null","","null","","","","","","","","","","","","","","","","","","","fixation","",""
"","","","","","color-precision2","77","312239","0.0-10.0-0.29-0.29","63d569384ae2cf6d4dce7c32","640759fa512f630a2bdc333d","6408c1809ba9b23e83d97a24","[517.7999999523163]","","","[0]","[310]","310","342","277.2968931094369","[277.2968931094369]","[295.2968931094369]","[295]","0","0","1","0","148.6070000953623","998.6560001430335","1000","[[[""img/mask66.png""]]]","","","main","342","color-precision2"
"","","","","","html-keyboard-response","78","312740","0.0-10.0-1.29","63d569384ae2cf6d4dce7c32","640759fa512f630a2bdc333d","6408c1809ba9b23e83d97a24","null","","null","","","","","","","","","","","","","","","","","","","fixation","",""
"","","","","","many-guess-6","79","317637","0.0-10.0-0.30-0.30","63d569384ae2cf6d4dce7c32","640759fa512f630a2bdc333d","6408c1809ba9b23e83d97a24","[3183.600000143051]","","","[5,31,18,34,30,6,1,7,0,12,10,11,9,3,33,19,2,29,21,27,32,22,4,14,20,25,35,28,23,17,13,16,15,8,26,24]","[10,110,220,200,160,80,30,210,309,319,70,90,140,190,329,339,150,269,40,130,249,359,100,60,180,120,299,170,289,230,349,20,279,50,259,239]","10","76","203.6059002882493","[203.6059002882493]","[127.6059002882493]","[127]","[30,300,300,210,120,30,210,210,30]","0","36","0","149.10300014307722","8.723000095342286","16","[[[""img/mask75.png""],[""img/mask28.png""],[""img/mask55.png""],[""img/mask9.png""],[""img/mask8.png""],[""img/mask12.png""],[""img/mask85.png""],[""img/mask40.png""],[""img/mask99.png""],[""img/mask36.png""],[""img/mask48.png""],[""img/mask45.png""],[""img/mask95.png""],[""img/mask19.png""],[""img/mask6.png""],[""img/mask10.png""],[""img/mask100.png""],[""img/mask69.png""],[""img/mask85.png""],[""img/mask68.png""],[""img/mask95.png""],[""img/mask1.png""],[""img/mask49.png""],[""img/mask3.png""],[""img/mask94.png""],[""img/mask12.png""],[""img/mask55.png""],[""img/mask51.png""],[""img/mask63.png""],[""img/mask45.png""],[""img/mask47.png""],[""img/mask94.png""],[""img/mask8.png""],[""img/mask21.png""],[""img/mask72.png""],[""img/mask76.png""]]]","","[5,31,18,34,30,6,1,7,0,12,10,11,9,3,33,19,2,29,21,27,32,22,4,14,20,25,35,28,23,17,13,16,15,8,26,24]","main","76","many-guess-6"
"","","","","","html-keyboard-response","80","318146","0.0-10.0-1.30","63d569384ae2cf6d4dce7c32","640759fa512f630a2bdc333d","6408c1809ba9b23e83d97a24","null","","null","","","","","","","","","","","","","","","","","","","fixation","",""
"","","","","","many-guess-6","81","321857","0.0-10.0-0.31-0.31","63d569384ae2cf6d4dce7c32","640759fa512f630a2bdc333d","6408c1809ba9b23e83d97a24","[2104.5]","","","[16,29,18,20,21,12,11,15,0,31,2,17,19,23,25,32,26,3,9,34,33,24,6,1,14,22,7,35,10,8,28,27,4,5,30,13]","[66,306,296,36,96,246,256,206,326,196,76,276,316,186,126,166,355,46,266,6,146,346,116,176,236,106,136,286,16,156,56,26,226,336,216,86]","66","97","90.15900932049998","[90.15900932049998]","[353.1590093205]","[351]","[300,210,30,30,30,300,120,300,300]","0","36","0","149.34499999997206","11.648000095388852","16","[[[""img/mask38.png""],[""img/mask53.png""],[""img/mask12.png""],[""img/mask23.png""],[""img/mask30.png""],[""img/mask37.png""],[""img/mask13.png""],[""img/mask40.png""],[""img/mask39.png""],[""img/mask23.png""],[""img/mask32.png""],[""img/mask100.png""],[""img/mask63.png""],[""img/mask13.png""],[""img/mask24.png""],[""img/mask64.png""],[""img/mask40.png""],[""img/mask82.png""],[""img/mask59.png""],[""img/mask92.png""],[""img/mask8.png""],[""img/mask64.png""],[""img/mask68.png""],[""img/mask74.png""],[""img/mask55.png""],[""img/mask69.png""],[""img/mask2.png""],[""img/mask38.png""],[""img/mask62.png""],[""img/mask74.png""],[""img/mask78.png""],[""img/mask28.png""],[""img/mask11.png""],[""img/mask25.png""],[""img/mask84.png""],[""img/mask49.png""]]]","","[16,29,18,20,21,12,11,15,0,31,2,17,19,23,25,32,26,3,9,34,33,24,6,1,14,22,7,35,10,8,28,27,4,5,30,13]","main","97","many-guess-6"
"","","","","","html-keyboard-response","82","322358","0.0-10.0-1.31","63d569384ae2cf6d4dce7c32","640759fa512f630a2bdc333d","6408c1809ba9b23e83d97a24","null","","null","","","","","","","","","","","","","","","","","","","fixation","",""
"","","","","","color-precision2","83","325809","0.0-10.0-0.32-0.32","63d569384ae2cf6d4dce7c32","640759fa512f630a2bdc333d","6408c1809ba9b23e83d97a24","[707.9000000953674]","","","[27]","[295]","295","348","284.3901291834218","[284.3901291834218]","[296.3901291834218]","[297]","0","0","1","0","149.13100014306838","996.0500000953907","1000","[[[""img/mask16.png""]]]","","","main","348","color-precision2"
"","","","","","html-keyboard-response","84","326315","0.0-10.0-1.32","63d569384ae2cf6d4dce7c32","640759fa512f630a2bdc333d","6408c1809ba9b23e83d97a24","null","","null","","","","","","","","","","","","","","","","","","","fixation","",""
"","","","","","color-precision2","85","329763","0.0-10.0-0.33-0.33","63d569384ae2cf6d4dce7c32","640759fa512f630a2bdc333d","6408c1809ba9b23e83d97a24","[578.4000000953674]","","","[31]","[267]","267","91","14.661810153026156","[14.661810153026156]","[283.6618101530262]","[283]","0","0","1","0","149.03700004768325","993.2450001430698","1000","[[[""img/mask97.png""]]]","","","main","91","color-precision2"
"","","","","","html-keyboard-response","86","330265","0.0-10.0-1.33","63d569384ae2cf6d4dce7c32","640759fa512f630a2bdc333d","6408c1809ba9b23e83d97a24","null","","null","","","","","","","","","","","","","","","","","","","fixation","",""
"","","","","","many-guess-6","87","334153","0.0-10.0-0.34-0.34","63d569384ae2cf6d4dce7c32","640759fa512f630a2bdc333d","6408c1809ba9b23e83d97a24","[2153.0999999046326]","","","[22,13,31,35,20,0,11,28,19,25,16,32,5,10,29,6,26,27,14,15,3,8,33,1,17,2,23,9,21,34,24,30,12,18,7,4]","[95,55,35,145,115,235,135,334,65,155,275,215,165,265,255,15,314,185,105,195,354,324,304,125,245,225,295,75,45,285,85,344,25,5,175,205]","95","310","295.41526023292573","[295.41526023292573]","[345.41526023292573]","[345]","[210,300,30,120,30,300,120,120,30]","0","36","0","148.3180000000284","24.32299995230278","16","[[[""img/mask46.png""],[""img/mask59.png""],[""img/mask79.png""],[""img/mask88.png""],[""img/mask11.png""],[""img/mask55.png""],[""img/mask32.png""],[""img/mask29.png""],[""img/mask62.png""],[""img/mask33.png""],[""img/mask86.png""],[""img/mask11.png""],[""img/mask91.png""],[""img/mask91.png""],[""img/mask96.png""],[""img/mask91.png""],[""img/mask30.png""],[""img/mask96.png""],[""img/mask11.png""],[""img/mask97.png""],[""img/mask28.png""],[""img/mask95.png""],[""img/mask71.png""],[""img/mask21.png""],[""img/mask38.png""],[""img/mask47.png""],[""img/mask54.png""],[""img/mask84.png""],[""img/mask20.png""],[""img/mask42.png""],[""img/mask90.png""],[""img/mask80.png""],[""img/mask63.png""],[""img/mask69.png""],[""img/mask95.png""],[""img/mask11.png""]]]","","[22,13,31,35,20,0,11,28,19,25,16,32,5,10,29,6,26,27,14,15,3,8,33,1,17,2,23,9,21,34,24,30,12,18,7,4]","main","310","many-guess-6"
"","","","","","html-keyboard-response","88","334655","0.0-10.0-1.34","63d569384ae2cf6d4dce7c32","640759fa512f630a2bdc333d","6408c1809ba9b23e83d97a24","null","","null","","","","","","","","","","","","","","","","","","","fixation","",""
"","","","","","color-precision2","89","338121","0.0-10.0-0.35-0.35","63d569384ae2cf6d4dce7c32","640759fa512f630a2bdc333d","6408c1809ba9b23e83d97a24","[939]","","","[19]","[201]","201","219","38.07391640240651","[38.07391640240651]","[179.0739164024065]","[177]","0","0","1","0","149.53200009535067","998.5590001430246","1000","[[[""img/mask73.png""]]]","","","main","219","color-precision2"
"","","","","","html-keyboard-response","90","338623","0.0-10.0-1.35","63d569384ae2cf6d4dce7c32","640759fa512f630a2bdc333d","6408c1809ba9b23e83d97a24","null","","null","","","","","","","","","","","","","","","","","","","fixation","",""
"","","","","","color-precision2","91","342575","0.0-10.0-0.36-0.36","63d569384ae2cf6d4dce7c32","640759fa512f630a2bdc333d","6408c1809ba9b23e83d97a24","[1143.7999999523163]","","","[16]","[337]","337","150","139.51379241373542","[139.51379241373542]","[349.5137924137354]","[348]","0","0","1","0","149.7600000476814","997.6860001430614","1000","[[[""img/mask61.png""]]]","","","main","150","color-precision2"
"","","","","","html-keyboard-response","92","343084","0.0-10.0-1.36","63d569384ae2cf6d4dce7c32","640759fa512f630a2bdc333d","6408c1809ba9b23e83d97a24","null","","null","","","","","","","","","","","","","","","","","","","fixation","",""
"","","","","","many-guess-6","93","346731","0.0-10.0-0.37-0.37","63d569384ae2cf6d4dce7c32","640759fa512f630a2bdc333d","6408c1809ba9b23e83d97a24","[1900.8000001907349]","","","[19,5,20,7,34,0,12,3,9,2,32,35,22,17,14,24,4,23,6,26,1,11,10,16,18,13,33,15,27,25,21,30,31,29,28,8]","[242,123,183,312,113,342,282,103,272,163,352,292,33,133,332,322,203,173,43,252,3,153,302,193,83,232,213,63,93,23,13,73,143,53,223,262]","242","113","275.1747939572187","[275.1747939572187]","[162.1747939572187]","[162]","[30,210,300,300,210,120,300,120,210]","0","36","0","149.82200014306","9.596000047691632","16","[[[""img/mask75.png""],[""img/mask82.png""],[""img/mask36.png""],[""img/mask6.png""],[""img/mask30.png""],[""img/mask10.png""],[""img/mask92.png""],[""img/mask54.png""],[""img/mask52.png""],[""img/mask19.png""],[""img/mask57.png""],[""img/mask84.png""],[""img/mask17.png""],[""img/mask36.png""],[""img/mask23.png""],[""img/mask51.png""],[""img/mask100.png""],[""img/mask89.png""],[""img/mask75.png""],[""img/mask79.png""],[""img/mask83.png""],[""img/mask1.png""],[""img/mask18.png""],[""img/mask66.png""],[""img/mask80.png""],[""img/mask81.png""],[""img/mask44.png""],[""img/mask16.png""],[""img/mask32.png""],[""img/mask31.png""],[""img/mask88.png""],[""img/mask95.png""],[""img/mask27.png""],[""img/mask67.png""],[""img/mask27.png""],[""img/mask99.png""]]]","","[19,5,20,7,34,0,12,3,9,2,32,35,22,17,14,24,4,23,6,26,1,11,10,16,18,13,33,15,27,25,21,30,31,29,28,8]","main","113","many-guess-6"
"","","","","","html-keyboard-response","94","347243","0.0-10.0-1.37","63d569384ae2cf6d4dce7c32","640759fa512f630a2bdc333d","6408c1809ba9b23e83d97a24","null","","null","","","","","","","","","","","","","","","","","","","fixation","",""
"","","","","","color-precision2","95","350317","0.0-10.0-0.38-0.38","63d569384ae2cf6d4dce7c32","640759fa512f630a2bdc333d","6408c1809ba9b23e83d97a24","[403.7999999523163]","","","[26]","[183]","183","121","297.3668068176354","[297.3668068176354]","[176.3668068176354]","[176]","0","0","1","0","148.7860000000219","999.9669999523321","1000","[[[""img/mask92.png""]]]","","","main","121","color-precision2"
"","","","","","html-keyboard-response","96","350819","0.0-10.0-1.38","63d569384ae2cf6d4dce7c32","640759fa512f630a2bdc333d","6408c1809ba9b23e83d97a24","null","","null","","","","","","","","","","","","","","","","","","","fixation","",""
"","","","","","many-guess-6","97","356067","0.0-10.0-0.39-0.39","63d569384ae2cf6d4dce7c32","640759fa512f630a2bdc333d","6408c1809ba9b23e83d97a24","[3555]","","","[4,13,18,7,19,28,22,26,34,5,0,30,9,1,11,32,20,31,25,35,14,16,27,17,24,15,8,12,6,2,23,3,21,33,29,10]","[41,221,171,201,91,211,251,320,151,191,310,11,260,241,121,300,81,51,350,71,61,290,31,270,161,131,330,280,340,101,1,181,141,231,111,21]","41","294","194.63936243199964","[194.63936243199964]","[260.63936243199964]","[260]","[30,120,30,30,120,120,30,30,300]","0","36","0","149.26200009539025","24.209000095375814","16","[[[""img/mask79.png""],[""img/mask86.png""],[""img/mask44.png""],[""img/mask33.png""],[""img/mask73.png""],[""img/mask94.png""],[""img/mask79.png""],[""img/mask81.png""],[""img/mask19.png""],[""img/mask68.png""],[""img/mask80.png""],[""img/mask65.png""],[""img/mask31.png""],[""img/mask43.png""],[""img/mask5.png""],[""img/mask96.png""],[""img/mask21.png""],[""img/mask100.png""],[""img/mask32.png""],[""img/mask9.png""],[""img/mask11.png""],[""img/mask87.png""],[""img/mask59.png""],[""img/mask82.png""],[""img/mask28.png""],[""img/mask94.png""],[""img/mask26.png""],[""img/mask82.png""],[""img/mask45.png""],[""img/mask48.png""],[""img/mask69.png""],[""img/mask95.png""],[""img/mask43.png""],[""img/mask8.png""],[""img/mask60.png""],[""img/mask50.png""]]]","","[4,13,18,7,19,28,22,26,34,5,0,30,9,1,11,32,20,31,25,35,14,16,27,17,24,15,8,12,6,2,23,3,21,33,29,10]","main","294","many-guess-6"
"","","","","","html-keyboard-response","98","360906","0.0-10.0-1.39","63d569384ae2cf6d4dce7c32","640759fa512f630a2bdc333d","6408c1809ba9b23e83d97a24","4837.200000047684","Wow! You've completed 40 out of 180 trials! </p> <p>  </p><p> Take a quick break, then press any key when you're ready to continue."," ","","","","","","","","","","","","","","","","","","","fixation","",""
"","","","","","color-precision2","99","365761","0.0-10.0-0.40-0.40","63d569384ae2cf6d4dce7c32","640759fa512f630a2bdc333d","6408c1809ba9b23e83d97a24","[1017]","","","[3]","[43]","43","159","194.8812041326207","[194.8812041326207]","[35.881204132620695]","[36]","0","0","1","0","148.4820000953623","993.6370001430623","1000","[[[""img/mask34.png""]]]","","","main","159","color-precision2"
"","","","","","html-keyboard-response","100","366273","0.0-10.0-1.40","63d569384ae2cf6d4dce7c32","640759fa512f630a2bdc333d","6408c1809ba9b23e83d97a24","null","","null","","","","","","","","","","","","","","","","","","","fixation","",""
"","","","","","color-precision2","101","369511","0.0-10.0-0.41-0.41","63d569384ae2cf6d4dce7c32","640759fa512f630a2bdc333d","6408c1809ba9b23e83d97a24","[467.89999985694885]","","","[13]","[329]","329","169","150.5914046528295","[150.5914046528295]","[341.5914046528295]","[340]","0","0","1","0","149.65100009535672","1002.4430000953726","1000","[[[""img/mask75.png""]]]","","","main","169","color-precision2"
"","","","","","html-keyboard-response","102","370012","0.0-10.0-1.41","63d569384ae2cf6d4dce7c32","640759fa512f630a2bdc333d","6408c1809ba9b23e83d97a24","null","","null","","","","","","","","","","","","","","","","","","","fixation","",""
"","","","","","color-precision2","103","373589","0.0-10.0-0.42-0.42","63d569384ae2cf6d4dce7c32","640759fa512f630a2bdc333d","6408c1809ba9b23e83d97a24","[847]","","","[24]","[115]","115","20","126.00249277079907","[126.00249277079907]","[106.00249277079907]","[104]","0","0","1","0","148.6120000476949","1006.9020001430763","1000","[[[""img/mask96.png""]]]","","","main","20","color-precision2"
"","","","","","html-keyboard-response","104","374089","0.0-10.0-1.42","63d569384ae2cf6d4dce7c32","640759fa512f630a2bdc333d","6408c1809ba9b23e83d97a24","null","","null","","","","","","","","","","","","","","","","","","","fixation","",""
"","","","","","color-precision2","105","378348","0.0-10.0-0.43-0.43","63d569384ae2cf6d4dce7c32","640759fa512f630a2bdc333d","6408c1809ba9b23e83d97a24","[1722.7000000476837]","","","[16]","[113]","113","157","276.4131529669106","[276.4131529669106]","[119.41315296691062]","[120]","0","0","1","0","149.50900000002002","1001.9680001430679","1000","[[[""img/mask78.png""]]]","","","main","157","color-precision2"
"","","","","","html-keyboard-response","106","378848","0.0-10.0-1.43","63d569384ae2cf6d4dce7c32","640759fa512f630a2bdc333d","6408c1809ba9b23e83d97a24","null","","null","","","","","","","","","","","","","","","","","","","fixation","",""
"","","","","","many-guess-6","107","383127","0.0-10.0-0.44-0.44","63d569384ae2cf6d4dce7c32","640759fa512f630a2bdc333d","6408c1809ba9b23e83d97a24","[2820.5]","","","[34,30,11,21,6,28,13,29,1,14,2,8,7,9,3,35,22,16,10,32,19,17,31,23,4,5,20,26,0,18,24,33,15,12,27,25]","[89,278,79,9,239,109,308,209,288,199,139,258,318,358,219,129,99,149,59,169,248,298,179,189,39,159,229,268,29,338,119,19,348,49,328,69]","89","257","332.6018917490403","[332.6018917490403]","[75.6018917490403]","[75]","[120,300,210,120,120,120,30,120,210]","0","36","0","149.49700009537628","12.622000047704205","16","[[[""img/mask92.png""],[""img/mask29.png""],[""img/mask12.png""],[""img/mask95.png""],[""img/mask73.png""],[""img/mask30.png""],[""img/mask28.png""],[""img/mask12.png""],[""img/mask44.png""],[""img/mask57.png""],[""img/mask20.png""],[""img/mask38.png""],[""img/mask51.png""],[""img/mask89.png""],[""img/mask18.png""],[""img/mask59.png""],[""img/mask49.png""],[""img/mask81.png""],[""img/mask22.png""],[""img/mask90.png""],[""img/mask79.png""],[""img/mask98.png""],[""img/mask95.png""],[""img/mask71.png""],[""img/mask40.png""],[""img/mask11.png""],[""img/mask25.png""],[""img/mask80.png""],[""img/mask50.png""],[""img/mask56.png""],[""img/mask62.png""],[""img/mask59.png""],[""img/mask14.png""],[""img/mask78.png""],[""img/mask78.png""],[""img/mask5.png""]]]","","[34,30,11,21,6,28,13,29,1,14,2,8,7,9,3,35,22,16,10,32,19,17,31,23,4,5,20,26,0,18,24,33,15,12,27,25]","main","257","many-guess-6"
"","","","","","html-keyboard-response","108","383643","0.0-10.0-1.44","63d569384ae2cf6d4dce7c32","640759fa512f630a2bdc333d","6408c1809ba9b23e83d97a24","null","","null","","","","","","","","","","","","","","","","","","","fixation","",""
"","","","","","many-guess-6","109","387480","0.0-10.0-0.45-0.45","63d569384ae2cf6d4dce7c32","640759fa512f630a2bdc333d","6408c1809ba9b23e83d97a24","[1973.8999998569489]","","","[30,0,6,35,17,33,2,4,21,11,1,27,3,8,26,7,20,14,29,16,5,25,9,10,32,23,19,15,34,12,22,31,13,28,18,24]","[319,349,209,159,299,20,119,359,229,269,60,249,179,199,289,89,99,69,30,129,50,169,40,329,239,139,149,309,279,189,109,79,259,339,219,10]","319","307","274.41113735625703","[274.41113735625703]","[327.41113735625703]","[328]","[210,30,30,120,210,30,120,300,210]","0","36","0","150.09000014304183","30.757000143057667","16","[[[""img/mask19.png""],[""img/mask53.png""],[""img/mask81.png""],[""img/mask97.png""],[""img/mask5.png""],[""img/mask53.png""],[""img/mask78.png""],[""img/mask28.png""],[""img/mask23.png""],[""img/mask61.png""],[""img/mask11.png""],[""img/mask90.png""],[""img/mask31.png""],[""img/mask76.png""],[""img/mask86.png""],[""img/mask46.png""],[""img/mask1.png""],[""img/mask38.png""],[""img/mask5.png""],[""img/mask97.png""],[""img/mask24.png""],[""img/mask52.png""],[""img/mask53.png""],[""img/mask7.png""],[""img/mask3.png""],[""img/mask84.png""],[""img/mask49.png""],[""img/mask71.png""],[""img/mask66.png""],[""img/mask35.png""],[""img/mask57.png""],[""img/mask26.png""],[""img/mask32.png""],[""img/mask4.png""],[""img/mask88.png""],[""img/mask50.png""]]]","","[30,0,6,35,17,33,2,4,21,11,1,27,3,8,26,7,20,14,29,16,5,25,9,10,32,23,19,15,34,12,22,31,13,28,18,24]","main","307","many-guess-6"
"","","","","","html-keyboard-response","110","387982","0.0-10.0-1.45","63d569384ae2cf6d4dce7c32","640759fa512f630a2bdc333d","6408c1809ba9b23e83d97a24","null","","null","","","","","","","","","","","","","","","","","","","fixation","",""
"","","","","","many-guess-6","111","393034","0.0-10.0-0.46-0.46","63d569384ae2cf6d4dce7c32","640759fa512f630a2bdc333d","6408c1809ba9b23e83d97a24","[3245.0999999046326]","","","[28,35,34,31,9,27,22,29,3,0,24,13,14,2,4,30,32,15,33,1,26,19,18,25,7,12,11,20,23,6,8,16,5,10,21,17]","[305,76,56,146,66,275,265,196,186,26,116,345,106,206,136,355,36,325,226,16,216,166,335,96,285,86,295,245,176,315,235,255,6,46,126,156]","305","103","354.1310015226768","[354.1310015226768]","[251.1310015226768]","[250]","[210,120,210,120,210,210,300,300,210]","0","36","0","149.0009999999893","13.799999952316284","16","[[[""img/mask50.png""],[""img/mask19.png""],[""img/mask81.png""],[""img/mask87.png""],[""img/mask56.png""],[""img/mask47.png""],[""img/mask21.png""],[""img/mask92.png""],[""img/mask48.png""],[""img/mask18.png""],[""img/mask100.png""],[""img/mask13.png""],[""img/mask2.png""],[""img/mask70.png""],[""img/mask68.png""],[""img/mask25.png""],[""img/mask57.png""],[""img/mask68.png""],[""img/mask28.png""],[""img/mask57.png""],[""img/mask56.png""],[""img/mask12.png""],[""img/mask99.png""],[""img/mask42.png""],[""img/mask73.png""],[""img/mask65.png""],[""img/mask25.png""],[""img/mask82.png""],[""img/mask82.png""],[""img/mask10.png""],[""img/mask80.png""],[""img/mask52.png""],[""img/mask81.png""],[""img/mask78.png""],[""img/mask74.png""],[""img/mask45.png""]]]","","[28,35,34,31,9,27,22,29,3,0,24,13,14,2,4,30,32,15,33,1,26,19,18,25,7,12,11,20,23,6,8,16,5,10,21,17]","main","103","many-guess-6"
"","","","","","html-keyboard-response","112","393535","0.0-10.0-1.46","63d569384ae2cf6d4dce7c32","640759fa512f630a2bdc333d","6408c1809ba9b23e83d97a24","null","","null","","","","","","","","","","","","","","","","","","","fixation","",""
"","","","","","color-precision2","113","397418","0.0-10.0-0.47-0.47","63d569384ae2cf6d4dce7c32","640759fa512f630a2bdc333d","6408c1809ba9b23e83d97a24","[530]","","","[22]","[103]","103","195","306.711697296268","[306.711697296268]","[111.71169729626803]","[112]","0","0","1","0","149.02800014306558","1007.6999999523396","1000","[[[""img/mask49.png""]]]","","","main","195","color-precision2"
"","","","","","html-keyboard-response","114","397918","0.0-10.0-1.47","63d569384ae2cf6d4dce7c32","640759fa512f630a2bdc333d","6408c1809ba9b23e83d97a24","null","","null","","","","","","","","","","","","","","","","","","","fixation","",""
"","","","","","many-guess-6","115","401846","0.0-10.0-0.48-0.48","63d569384ae2cf6d4dce7c32","640759fa512f630a2bdc333d","6408c1809ba9b23e83d97a24","[2209.100000143051]","","","[18,3,33,22,15,30,32,1,21,35,6,28,26,14,11,4,0,31,17,9,12,23,16,13,24,34,10,2,7,20,5,8,27,29,25,19]","[50,199,60,149,319,89,279,40,259,69,339,99,229,349,219,129,30,159,10,299,309,179,359,169,249,119,289,189,79,139,329,239,109,209,20,269]","50","37","343.4299852708431","[343.4299852708431]","[306.4299852708431]","[306]","[30,300,120,300,210,300,120,120,30]","0","36","0","148.4189999999944","20.76899999997113","16","[[[""img/mask98.png""],[""img/mask22.png""],[""img/mask51.png""],[""img/mask64.png""],[""img/mask1.png""],[""img/mask55.png""],[""img/mask24.png""],[""img/mask23.png""],[""img/mask71.png""],[""img/mask28.png""],[""img/mask63.png""],[""img/mask34.png""],[""img/mask31.png""],[""img/mask71.png""],[""img/mask53.png""],[""img/mask53.png""],[""img/mask22.png""],[""img/mask22.png""],[""img/mask61.png""],[""img/mask10.png""],[""img/mask8.png""],[""img/mask72.png""],[""img/mask40.png""],[""img/mask47.png""],[""img/mask52.png""],[""img/mask58.png""],[""img/mask22.png""],[""img/mask35.png""],[""img/mask61.png""],[""img/mask30.png""],[""img/mask90.png""],[""img/mask72.png""],[""img/mask26.png""],[""img/mask40.png""],[""img/mask44.png""],[""img/mask45.png""]]]","","[18,3,33,22,15,30,32,1,21,35,6,28,26,14,11,4,0,31,17,9,12,23,16,13,24,34,10,2,7,20,5,8,27,29,25,19]","main","37","many-guess-6"
"","","","","","html-keyboard-response","116","402358","0.0-10.0-1.48","63d569384ae2cf6d4dce7c32","640759fa512f630a2bdc333d","6408c1809ba9b23e83d97a24","null","","null","","","","","","","","","","","","","","","","","","","fixation","",""
"","","","","","many-guess-6","117","409050","0.0-10.0-0.49-0.49","63d569384ae2cf6d4dce7c32","640759fa512f630a2bdc333d","6408c1809ba9b23e83d97a24","[4597.899999856949]","","","[28,26,15,2,18,8,4,14,27,6,11,5,7,19,20,13,3,30,16,25,23,29,9,35,32,0,10,31,12,24,34,1,33,17,22,21]","[70,359,329,349,200,239,110,229,160,339,170,90,269,100,299,50,10,30,60,130,259,279,150,80,249,140,319,190,20,40,120,309,210,289,220,180]","70","16","20.824193061739244","[20.824193061739244]","[4.824193061739244]","[4]","[120,120,210,210,210,300,210,300,120]","0","36","0","149.12200014304835","13.85500009538373","16","[[[""img/mask41.png""],[""img/mask74.png""],[""img/mask69.png""],[""img/mask75.png""],[""img/mask45.png""],[""img/mask65.png""],[""img/mask53.png""],[""img/mask69.png""],[""img/mask65.png""],[""img/mask33.png""],[""img/mask53.png""],[""img/mask6.png""],[""img/mask53.png""],[""img/mask4.png""],[""img/mask69.png""],[""img/mask79.png""],[""img/mask23.png""],[""img/mask83.png""],[""img/mask90.png""],[""img/mask34.png""],[""img/mask84.png""],[""img/mask31.png""],[""img/mask65.png""],[""img/mask57.png""],[""img/mask13.png""],[""img/mask99.png""],[""img/mask81.png""],[""img/mask8.png""],[""img/mask97.png""],[""img/mask88.png""],[""img/mask36.png""],[""img/mask71.png""],[""img/mask22.png""],[""img/mask18.png""],[""img/mask33.png""],[""img/mask36.png""]]]","","[28,26,15,2,18,8,4,14,27,6,11,5,7,19,20,13,3,30,16,25,23,29,9,35,32,0,10,31,12,24,34,1,33,17,22,21]","main","16","many-guess-6"
"","","","","","html-keyboard-response","118","409559","0.0-10.0-1.49","63d569384ae2cf6d4dce7c32","640759fa512f630a2bdc333d","6408c1809ba9b23e83d97a24","null","","null","","","","","","","","","","","","","","","","","","","fixation","",""
"","","","","","color-precision2","119","413824","0.0-10.0-0.50-0.50","63d569384ae2cf6d4dce7c32","640759fa512f630a2bdc333d","6408c1809ba9b23e83d97a24","[1522.9000000953674]","","","[29]","[142]","142","44","205.56783883209349","[205.56783883209349]","[161.56783883209349]","[161]","0","0","1","0","148.84900009538978","998.7490000000107","1000","[[[""img/mask80.png""]]]","","","main","44","color-precision2"
"","","","","","html-keyboard-response","120","414332","0.0-10.0-1.50","63d569384ae2cf6d4dce7c32","640759fa512f630a2bdc333d","6408c1809ba9b23e83d97a24","null","","null","","","","","","","","","","","","","","","","","","","fixation","",""
"","","","","","color-precision2","121","417924","0.0-10.0-0.51-0.51","63d569384ae2cf6d4dce7c32","640759fa512f630a2bdc333d","6408c1809ba9b23e83d97a24","[991.2999999523163]","","","[3]","[152]","152","298","111.42878244026704","[111.42878244026704]","[173.42878244026704]","[172]","0","0","1","0","149.57799995230744","995.8080001430353","1000","[[[""img/mask42.png""]]]","","","main","298","color-precision2"
"","","","","","html-keyboard-response","122","418430","0.0-10.0-1.51","63d569384ae2cf6d4dce7c32","640759fa512f630a2bdc333d","6408c1809ba9b23e83d97a24","null","","null","","","","","","","","","","","","","","","","","","","fixation","",""
"","","","","","many-guess-6","123","422292","0.0-10.0-0.52-0.52","63d569384ae2cf6d4dce7c32","640759fa512f630a2bdc333d","6408c1809ba9b23e83d97a24","[2059]","","","[20,26,8,25,21,16,11,24,30,0,2,5,28,12,14,32,4,19,7,22,1,13,33,29,27,23,3,31,18,17,6,10,15,9,34,35]","[91,221,111,11,340,131,71,101,41,191,231,181,241,280,151,1,350,250,290,61,320,201,121,330,211,310,260,270,300,171,141,21,51,31,161,81]","91","105","273.7030974160905","[273.7030974160905]","[168.7030974160905]","[169]","[120,300,300,30,300,300,120,210,120]","0","36","0","148.65299999999115","21.98200009536231","16","[[[""img/mask84.png""],[""img/mask54.png""],[""img/mask42.png""],[""img/mask70.png""],[""img/mask84.png""],[""img/mask38.png""],[""img/mask86.png""],[""img/mask97.png""],[""img/mask39.png""],[""img/mask69.png""],[""img/mask25.png""],[""img/mask26.png""],[""img/mask16.png""],[""img/mask41.png""],[""img/mask51.png""],[""img/mask3.png""],[""img/mask90.png""],[""img/mask70.png""],[""img/mask8.png""],[""img/mask85.png""],[""img/mask64.png""],[""img/mask74.png""],[""img/mask37.png""],[""img/mask94.png""],[""img/mask45.png""],[""img/mask46.png""],[""img/mask26.png""],[""img/mask24.png""],[""img/mask46.png""],[""img/mask14.png""],[""img/mask27.png""],[""img/mask75.png""],[""img/mask99.png""],[""img/mask29.png""],[""img/mask98.png""],[""img/mask41.png""]]]","","[20,26,8,25,21,16,11,24,30,0,2,5,28,12,14,32,4,19,7,22,1,13,33,29,27,23,3,31,18,17,6,10,15,9,34,35]","main","105","many-guess-6"
"","","","","","html-keyboard-response","124","422793","0.0-10.0-1.52","63d569384ae2cf6d4dce7c32","640759fa512f630a2bdc333d","6408c1809ba9b23e83d97a24","null","","null","","","","","","","","","","","","","","","","","","","fixation","",""
"","","","","","color-precision2","125","427596","0.0-10.0-0.53-0.53","63d569384ae2cf6d4dce7c32","640759fa512f630a2bdc333d","6408c1809ba9b23e83d97a24","[2130.9000000953674]","","","[31]","[223]","223","249","131.93059003610398","[131.93059003610398]","[242.93059003610398]","[241]","0","0","1","0","149.48900014307583","1003.6570000953507","1000","[[[""img/mask53.png""]]]","","","main","249","color-precision2"
"","","","","","html-keyboard-response","126","428099","0.0-10.0-1.53","63d569384ae2cf6d4dce7c32","640759fa512f630a2bdc333d","6408c1809ba9b23e83d97a24","null","","null","","","","","","","","","","","","","","","","","","","fixation","",""
"","","","","","many-guess-6","127","433972","0.0-10.0-0.54-0.54","63d569384ae2cf6d4dce7c32","640759fa512f630a2bdc333d","6408c1809ba9b23e83d97a24","[3824.600000143051]","","","[12,8,33,22,11,24,18,31,30,10,27,35,15,20,0,5,1,25,32,34,13,28,23,19,2,26,3,17,9,14,21,4,29,7,6,16]","[165,46,26,175,305,36,355,325,86,125,315,16,105,155,76,115,6,335,235,185,66,255,135,145,295,215,96,205,195,225,56,285,245,265,345,275]","165","14","46.21621175529322","[46.21621175529322]","[32.21621175529322]","[30]","[30,300,300,210,120,120,300,300,30]","0","36","0","149.51999995228834","22.7530001430423","16","[[[""img/mask58.png""],[""img/mask11.png""],[""img/mask68.png""],[""img/mask80.png""],[""img/mask23.png""],[""img/mask48.png""],[""img/mask62.png""],[""img/mask74.png""],[""img/mask45.png""],[""img/mask54.png""],[""img/mask79.png""],[""img/mask74.png""],[""img/mask73.png""],[""img/mask7.png""],[""img/mask6.png""],[""img/mask23.png""],[""img/mask82.png""],[""img/mask54.png""],[""img/mask28.png""],[""img/mask62.png""],[""img/mask77.png""],[""img/mask45.png""],[""img/mask26.png""],[""img/mask57.png""],[""img/mask57.png""],[""img/mask22.png""],[""img/mask43.png""],[""img/mask10.png""],[""img/mask29.png""],[""img/mask4.png""],[""img/mask29.png""],[""img/mask52.png""],[""img/mask66.png""],[""img/mask19.png""],[""img/mask59.png""],[""img/mask82.png""]]]","","[12,8,33,22,11,24,18,31,30,10,27,35,15,20,0,5,1,25,32,34,13,28,23,19,2,26,3,17,9,14,21,4,29,7,6,16]","main","14","many-guess-6"
"","","","","","html-keyboard-response","128","434472","0.0-10.0-1.54","63d569384ae2cf6d4dce7c32","640759fa512f630a2bdc333d","6408c1809ba9b23e83d97a24","null","","null","","","","","","","","","","","","","","","","","","","fixation","",""
"","","","","","many-guess-6","129","439822","0.0-10.0-0.55-0.55","63d569384ae2cf6d4dce7c32","640759fa512f630a2bdc333d","6408c1809ba9b23e83d97a24","[3692.7000000476837]","","","[11,16,25,2,21,12,10,34,24,9,26,22,7,0,30,18,31,29,17,5,4,1,3,23,27,20,6,13,33,32,35,19,15,28,8,14]","[50,190,280,70,349,150,250,10,220,40,30,160,170,240,339,100,130,270,180,319,120,329,200,110,140,60,290,309,20,299,359,260,230,80,90,210]","50","319","166.81781024066302","[166.81781024066302]","[207.81781024066302]","[207]","[300,30,210,120,210,300,210,300,300]","0","36","0","149.31900009536184","16.644000095373485","16","[[[""img/mask69.png""],[""img/mask31.png""],[""img/mask58.png""],[""img/mask36.png""],[""img/mask58.png""],[""img/mask34.png""],[""img/mask13.png""],[""img/mask97.png""],[""img/mask63.png""],[""img/mask97.png""],[""img/mask85.png""],[""img/mask66.png""],[""img/mask13.png""],[""img/mask33.png""],[""img/mask49.png""],[""img/mask71.png""],[""img/mask56.png""],[""img/mask88.png""],[""img/mask77.png""],[""img/mask11.png""],[""img/mask73.png""],[""img/mask32.png""],[""img/mask66.png""],[""img/mask95.png""],[""img/mask32.png""],[""img/mask66.png""],[""img/mask96.png""],[""img/mask36.png""],[""img/mask35.png""],[""img/mask47.png""],[""img/mask72.png""],[""img/mask99.png""],[""img/mask27.png""],[""img/mask37.png""],[""img/mask49.png""],[""img/mask18.png""]]]","","[11,16,25,2,21,12,10,34,24,9,26,22,7,0,30,18,31,29,17,5,4,1,3,23,27,20,6,13,33,32,35,19,15,28,8,14]","main","319","many-guess-6"
"","","","","","html-keyboard-response","130","440329","0.0-10.0-1.55","63d569384ae2cf6d4dce7c32","640759fa512f630a2bdc333d","6408c1809ba9b23e83d97a24","null","","null","","","","","","","","","","","","","","","","","","","fixation","",""
"","","","","","color-precision2","131","444048","0.0-10.0-0.56-0.56","63d569384ae2cf6d4dce7c32","640759fa512f630a2bdc333d","6408c1809ba9b23e83d97a24","[1102.5]","","","[20]","[73]","73","56","116.77070987332621","[116.77070987332621]","[60.77070987332621]","[59]","0","0","1","0","147.95300009538187","994.8840000476921","1000","[[[""img/mask40.png""]]]","","","main","56","color-precision2"
"","","","","","html-keyboard-response","132","444549","0.0-10.0-1.56","63d569384ae2cf6d4dce7c32","640759fa512f630a2bdc333d","6408c1809ba9b23e83d97a24","null","","null","","","","","","","","","","","","","","","","","","","fixation","",""
"","","","","","color-precision2","133","449181","0.0-10.0-0.57-0.57","63d569384ae2cf6d4dce7c32","640759fa512f630a2bdc333d","6408c1809ba9b23e83d97a24","[1187.7000000476837]","","","[22]","[108]","108","65","186.2917970014541","[186.2917970014541]","[121.29179700145411]","[121]","0","0","1","0","149.15600014303345","993.8270000953926","1000","[[[""img/mask10.png""]]]","","","main","65","color-precision2"
"","","","","","html-keyboard-response","134","449687","0.0-10.0-1.57","63d569384ae2cf6d4dce7c32","640759fa512f630a2bdc333d","6408c1809ba9b23e83d97a24","null","","null","","","","","","","","","","","","","","","","","","","fixation","",""
"","","","","","many-guess-6","135","454195","0.0-10.0-0.58-0.58","63d569384ae2cf6d4dce7c32","640759fa512f630a2bdc333d","6408c1809ba9b23e83d97a24","[2386.5999999046326]","","","[21,33,7,12,32,13,19,5,22,27,20,25,11,31,29,10,17,35,9,6,15,14,28,4,18,8,23,26,30,16,0,24,34,2,3,1]","[4,333,24,283,204,234,273,54,124,114,214,353,164,254,194,144,174,154,84,134,74,303,14,94,263,313,323,44,104,184,244,64,293,343,34,224]","4","104","300.6288893418572","[300.6288893418572]","[196.6288893418572]","[197]","[30,30,120,300,120,300,300,30,120]","0","36","0","148.86300009535626","11.903000095393509","16","[[[""img/mask57.png""],[""img/mask77.png""],[""img/mask22.png""],[""img/mask59.png""],[""img/mask76.png""],[""img/mask11.png""],[""img/mask97.png""],[""img/mask38.png""],[""img/mask51.png""],[""img/mask57.png""],[""img/mask72.png""],[""img/mask90.png""],[""img/mask79.png""],[""img/mask92.png""],[""img/mask82.png""],[""img/mask90.png""],[""img/mask34.png""],[""img/mask88.png""],[""img/mask97.png""],[""img/mask18.png""],[""img/mask51.png""],[""img/mask89.png""],[""img/mask50.png""],[""img/mask23.png""],[""img/mask78.png""],[""img/mask58.png""],[""img/mask42.png""],[""img/mask8.png""],[""img/mask59.png""],[""img/mask82.png""],[""img/mask61.png""],[""img/mask57.png""],[""img/mask97.png""],[""img/mask98.png""],[""img/mask89.png""],[""img/mask9.png""]]]","","[21,33,7,12,32,13,19,5,22,27,20,25,11,31,29,10,17,35,9,6,15,14,28,4,18,8,23,26,30,16,0,24,34,2,3,1]","main","104","many-guess-6"
"","","","","","html-keyboard-response","136","454696","0.0-10.0-1.58","63d569384ae2cf6d4dce7c32","640759fa512f630a2bdc333d","6408c1809ba9b23e83d97a24","null","","null","","","","","","","","","","","","","","","","","","","fixation","",""
"","","","","","color-precision2","137","458103","0.0-10.0-0.59-0.59","63d569384ae2cf6d4dce7c32","640759fa512f630a2bdc333d","6408c1809ba9b23e83d97a24","[629]","","","[28]","[294]","294","240","173.94991158724991","[173.94991158724991]","[293.9499115872499]","[294]","0","0","1","0","148.5880000476609","995.8630001430283","1000","[[[""img/mask93.png""]]]","","","main","240","color-precision2"
"","","","","","html-keyboard-response","138","467906","0.0-10.0-1.59","63d569384ae2cf6d4dce7c32","640759fa512f630a2bdc333d","6408c1809ba9b23e83d97a24","9801.800000190735","Wow! You've completed 60 out of 180 trials! </p> <p>  </p><p> Take a quick break, then press any key when you're ready to continue."," ","","","","","","","","","","","","","","","","","","","fixation","",""
"","","","","","many-guess-6","139","474151","0.0-10.0-0.60-0.60","63d569384ae2cf6d4dce7c32","640759fa512f630a2bdc333d","6408c1809ba9b23e83d97a24","[1844.5999999046326]","","","[25,21,31,27,30,14,24,6,22,13,15,33,17,18,32,28,16,2,34,4,20,11,3,29,19,10,26,0,35,23,9,7,5,8,1,12]","[196,316,306,16,355,36,276,296,186,335,236,206,6,246,66,345,26,126,96,256,286,146,46,176,56,226,266,116,325,86,136,216,156,76,106,166]","196","56","304.5798732534614","[304.5798732534614]","[248.57987325346141]","[249]","[30,210,210,210,120,30,120,30,210]","0","36","0","149.4300000476651","11.86799995234469","16","[[[""img/mask68.png""],[""img/mask92.png""],[""img/mask12.png""],[""img/mask26.png""],[""img/mask100.png""],[""img/mask63.png""],[""img/mask7.png""],[""img/mask41.png""],[""img/mask6.png""],[""img/mask90.png""],[""img/mask89.png""],[""img/mask81.png""],[""img/mask48.png""],[""img/mask34.png""],[""img/mask23.png""],[""img/mask30.png""],[""img/mask67.png""],[""img/mask8.png""],[""img/mask51.png""],[""img/mask19.png""],[""img/mask42.png""],[""img/mask15.png""],[""img/mask40.png""],[""img/mask32.png""],[""img/mask57.png""],[""img/mask64.png""],[""img/mask5.png""],[""img/mask90.png""],[""img/mask35.png""],[""img/mask87.png""],[""img/mask6.png""],[""img/mask47.png""],[""img/mask73.png""],[""img/mask94.png""],[""img/mask53.png""],[""img/mask53.png""]]]","","[25,21,31,27,30,14,24,6,22,13,15,33,17,18,32,28,16,2,34,4,20,11,3,29,19,10,26,0,35,23,9,7,5,8,1,12]","main","56","many-guess-6"
"","","","","","html-keyboard-response","140","474653","0.0-10.0-1.60","63d569384ae2cf6d4dce7c32","640759fa512f630a2bdc333d","6408c1809ba9b23e83d97a24","null","","null","","","","","","","","","","","","","","","","","","","fixation","",""
"","","","","","many-guess-6","141","478134","0.0-10.0-0.61-0.61","63d569384ae2cf6d4dce7c32","640759fa512f630a2bdc333d","6408c1809ba9b23e83d97a24","[1897]","","","[10,9,30,14,11,4,18,20,1,6,3,24,8,17,23,31,22,27,29,21,5,15,34,28,7,16,0,13,12,32,2,33,19,35,25,26]","[187,107,307,137,257,267,356,277,47,227,197,97,177,57,237,87,117,207,167,127,67,17,217,297,287,317,346,157,327,27,147,336,247,77,37,7]","187","35","103.2356055217175","[103.2356055217175]","[68.2356055217175]","[66]","[30,30,30,30,30,300,300,210,210]","0","36","0","149.46599995234283","15.64100014307769","16","[[[""img/mask67.png""],[""img/mask66.png""],[""img/mask84.png""],[""img/mask54.png""],[""img/mask30.png""],[""img/mask93.png""],[""img/mask66.png""],[""img/mask3.png""],[""img/mask85.png""],[""img/mask66.png""],[""img/mask100.png""],[""img/mask23.png""],[""img/mask6.png""],[""img/mask28.png""],[""img/mask45.png""],[""img/mask29.png""],[""img/mask64.png""],[""img/mask67.png""],[""img/mask42.png""],[""img/mask95.png""],[""img/mask28.png""],[""img/mask85.png""],[""img/mask12.png""],[""img/mask32.png""],[""img/mask11.png""],[""img/mask58.png""],[""img/mask83.png""],[""img/mask24.png""],[""img/mask71.png""],[""img/mask16.png""],[""img/mask80.png""],[""img/mask20.png""],[""img/mask74.png""],[""img/mask4.png""],[""img/mask2.png""],[""img/mask96.png""]]]","","[10,9,30,14,11,4,18,20,1,6,3,24,8,17,23,31,22,27,29,21,5,15,34,28,7,16,0,13,12,32,2,33,19,35,25,26]","main","35","many-guess-6"
"","","","","","html-keyboard-response","142","478638","0.0-10.0-1.61","63d569384ae2cf6d4dce7c32","640759fa512f630a2bdc333d","6408c1809ba9b23e83d97a24","null","","null","","","","","","","","","","","","","","","","","","","fixation","",""
"","","","","","color-precision2","143","482297","0.0-10.0-0.62-0.62","63d569384ae2cf6d4dce7c32","640759fa512f630a2bdc333d","6408c1809ba9b23e83d97a24","[1044.0999999046326]","","","[23]","[285]","285","198","122.47700128604305","[122.47700128604305]","[284.47700128604305]","[285]","0","0","1","0","149.0040001430316","1003.81300014304","1000","[[[""img/mask59.png""]]]","","","main","198","color-precision2"
"","","","","","html-keyboard-response","144","482798","0.0-10.0-1.62","63d569384ae2cf6d4dce7c32","640759fa512f630a2bdc333d","6408c1809ba9b23e83d97a24","null","","null","","","","","","","","","","","","","","","","","","","fixation","",""
"","","","","","many-guess-6","145","486602","0.0-10.0-0.63-0.63","63d569384ae2cf6d4dce7c32","640759fa512f630a2bdc333d","6408c1809ba9b23e83d97a24","[1866.0999999046326]","","","[0,20,32,16,35,15,24,19,7,13,18,22,3,8,25,9,12,26,5,29,23,4,17,28,21,27,14,2,11,30,31,10,33,34,6,1]","[41,270,300,141,350,31,81,111,241,330,261,11,251,121,221,91,211,71,320,51,151,171,191,61,181,101,131,340,280,310,1,231,161,290,201,21]","41","33","236.68625099751466","[236.68625099751466]","[203.68625099751466]","[204]","[210,120,120,300,210,300,120,300,210]","0","36","0","149.38600009534275","31.37900004768744","16","[[[""img/mask58.png""],[""img/mask76.png""],[""img/mask36.png""],[""img/mask68.png""],[""img/mask14.png""],[""img/mask91.png""],[""img/mask8.png""],[""img/mask3.png""],[""img/mask38.png""],[""img/mask28.png""],[""img/mask40.png""],[""img/mask29.png""],[""img/mask73.png""],[""img/mask9.png""],[""img/mask39.png""],[""img/mask67.png""],[""img/mask87.png""],[""img/mask26.png""],[""img/mask22.png""],[""img/mask27.png""],[""img/mask96.png""],[""img/mask96.png""],[""img/mask90.png""],[""img/mask99.png""],[""img/mask67.png""],[""img/mask57.png""],[""img/mask60.png""],[""img/mask13.png""],[""img/mask50.png""],[""img/mask37.png""],[""img/mask37.png""],[""img/mask75.png""],[""img/mask38.png""],[""img/mask36.png""],[""img/mask11.png""],[""img/mask6.png""]]]","","[0,20,32,16,35,15,24,19,7,13,18,22,3,8,25,9,12,26,5,29,23,4,17,28,21,27,14,2,11,30,31,10,33,34,6,1]","main","33","many-guess-6"
"","","","","","html-keyboard-response","146","487112","0.0-10.0-1.63","63d569384ae2cf6d4dce7c32","640759fa512f630a2bdc333d","6408c1809ba9b23e83d97a24","null","","null","","","","","","","","","","","","","","","","","","","fixation","",""
"","","","","","color-precision2","147","490897","0.0-10.0-0.64-0.64","63d569384ae2cf6d4dce7c32","640759fa512f630a2bdc333d","6408c1809ba9b23e83d97a24","[1311.3999998569489]","","","[31]","[10]","10","350","7.336904831416088","[7.336904831416088]","[17.336904831416064]","[16]","0","0","1","0","149.4890000000014","1004.0270000476739","1000","[[[""img/mask9.png""]]]","","","main","350","color-precision2"
"","","","","","html-keyboard-response","148","491406","0.0-10.0-1.64","63d569384ae2cf6d4dce7c32","640759fa512f630a2bdc333d","6408c1809ba9b23e83d97a24","null","","null","","","","","","","","","","","","","","","","","","","fixation","",""
"","","","","","many-guess-6","149","495196","0.0-10.0-0.65-0.65","63d569384ae2cf6d4dce7c32","640759fa512f630a2bdc333d","6408c1809ba9b23e83d97a24","[1662.2999999523163]","","","[11,20,4,3,15,19,7,23,9,34,25,2,28,12,1,26,21,18,22,31,8,0,29,5,6,27,17,14,32,30,24,10,16,13,35,33]","[210,310,160,11,90,250,150,200,270,280,41,190,290,100,180,170,110,21,140,350,81,300,260,230,31,320,61,51,130,220,120,240,340,1,71,330]","210","29","268.16874461417785","[268.16874461417785]","[239.16874461417785]","[239]","[300,120,300,30,300,30,120,120,120]","0","36","0","149.21100014302647","11.206000047677662","16","[[[""img/mask94.png""],[""img/mask23.png""],[""img/mask25.png""],[""img/mask52.png""],[""img/mask98.png""],[""img/mask42.png""],[""img/mask97.png""],[""img/mask49.png""],[""img/mask92.png""],[""img/mask3.png""],[""img/mask6.png""],[""img/mask93.png""],[""img/mask73.png""],[""img/mask56.png""],[""img/mask41.png""],[""img/mask89.png""],[""img/mask44.png""],[""img/mask52.png""],[""img/mask75.png""],[""img/mask84.png""],[""img/mask77.png""],[""img/mask43.png""],[""img/mask53.png""],[""img/mask31.png""],[""img/mask21.png""],[""img/mask56.png""],[""img/mask90.png""],[""img/mask34.png""],[""img/mask61.png""],[""img/mask72.png""],[""img/mask27.png""],[""img/mask58.png""],[""img/mask94.png""],[""img/mask70.png""],[""img/mask92.png""],[""img/mask67.png""]]]","","[11,20,4,3,15,19,7,23,9,34,25,2,28,12,1,26,21,18,22,31,8,0,29,5,6,27,17,14,32,30,24,10,16,13,35,33]","main","29","many-guess-6"
"","","","","","html-keyboard-response","150","495697","0.0-10.0-1.65","63d569384ae2cf6d4dce7c32","640759fa512f630a2bdc333d","6408c1809ba9b23e83d97a24","null","","null","","","","","","","","","","","","","","","","","","","fixation","",""
"","","","","","color-precision2","151","500225","0.0-10.0-0.66-0.66","63d569384ae2cf6d4dce7c32","640759fa512f630a2bdc333d","6408c1809ba9b23e83d97a24","[1792.9000000953674]","","","[31]","[79]","79","183","254.017256598294","[254.017256598294]","[71.01725659829401]","[71]","0","0","1","0","149.00400009535952","1004.371000095387","1000","[[[""img/mask96.png""]]]","","","main","183","color-precision2"
"","","","","","html-keyboard-response","152","500727","0.0-10.0-1.66","63d569384ae2cf6d4dce7c32","640759fa512f630a2bdc333d","6408c1809ba9b23e83d97a24","null","","null","","","","","","","","","","","","","","","","","","","fixation","",""
"","","","","","many-guess-6","153","505578","0.0-10.0-0.67-0.67","63d569384ae2cf6d4dce7c32","640759fa512f630a2bdc333d","6408c1809ba9b23e83d97a24","[2496.5999999046326]","","","[31,19,24,28,14,21,27,9,8,0,15,17,35,6,23,12,32,34,26,20,4,16,2,22,7,1,13,30,5,33,3,11,10,29,25,18]","[139,209,109,279,159,249,179,119,40,70,149,189,90,359,299,199,269,20,349,99,339,289,80,169,60,219,30,319,229,329,309,10,259,239,50,129]","139","211","135.01356113099249","[135.01356113099249]","[284.01356113099246]","[282]","[30,120,300,120,300,210,30,120,300]","0","36","0","148.97399995231535","9.841999952332117","16","[[[""img/mask67.png""],[""img/mask82.png""],[""img/mask64.png""],[""img/mask60.png""],[""img/mask29.png""],[""img/mask92.png""],[""img/mask7.png""],[""img/mask33.png""],[""img/mask97.png""],[""img/mask77.png""],[""img/mask3.png""],[""img/mask56.png""],[""img/mask56.png""],[""img/mask5.png""],[""img/mask59.png""],[""img/mask67.png""],[""img/mask64.png""],[""img/mask92.png""],[""img/mask72.png""],[""img/mask40.png""],[""img/mask36.png""],[""img/mask88.png""],[""img/mask90.png""],[""img/mask80.png""],[""img/mask51.png""],[""img/mask62.png""],[""img/mask29.png""],[""img/mask79.png""],[""img/mask75.png""],[""img/mask70.png""],[""img/mask91.png""],[""img/mask8.png""],[""img/mask27.png""],[""img/mask54.png""],[""img/mask81.png""],[""img/mask37.png""]]]","","[31,19,24,28,14,21,27,9,8,0,15,17,35,6,23,12,32,34,26,20,4,16,2,22,7,1,13,30,5,33,3,11,10,29,25,18]","main","211","many-guess-6"
"","","","","","html-keyboard-response","154","506081","0.0-10.0-1.67","63d569384ae2cf6d4dce7c32","640759fa512f630a2bdc333d","6408c1809ba9b23e83d97a24","null","","null","","","","","","","","","","","","","","","","","","","fixation","",""
"","","","","","color-precision2","155","510123","0.0-10.0-0.68-0.68","63d569384ae2cf6d4dce7c32","640759fa512f630a2bdc333d","6408c1809ba9b23e83d97a24","[976.2000000476837]","","","[4]","[118]","118","255","15.891644342957362","[15.891644342957362]","[120.89164434295736]","[120]","0","0","1","0","148.71700014307862","1002.3540000953944","1000","[[[""img/mask57.png""]]]","","","main","255","color-precision2"
"","","","","","html-keyboard-response","156","510636","0.0-10.0-1.68","63d569384ae2cf6d4dce7c32","640759fa512f630a2bdc333d","6408c1809ba9b23e83d97a24","null","","null","","","","","","","","","","","","","","","","","","","fixation","",""
"","","","","","many-guess-6","157","514858","0.0-10.0-0.69-0.69","63d569384ae2cf6d4dce7c32","640759fa512f630a2bdc333d","6408c1809ba9b23e83d97a24","[2528.2000000476837]","","","[7,14,15,5,13,1,8,30,20,3,18,26,4,35,34,25,22,19,29,9,2,17,10,21,27,31,33,11,0,12,32,23,16,28,24,6]","[164,174,94,14,104,134,204,284,54,34,244,304,234,114,74,274,124,334,324,254,144,353,44,184,294,64,84,264,214,4,154,314,224,194,343,24]","164","110","43.40023930156032","[43.40023930156032]","[293.4002393015603]","[292]","[30,300,210,30,120,30,300,300,120]","0","36","0","148.88500014302554","22.4799999523093","16","[[[""img/mask4.png""],[""img/mask51.png""],[""img/mask86.png""],[""img/mask66.png""],[""img/mask10.png""],[""img/mask43.png""],[""img/mask22.png""],[""img/mask27.png""],[""img/mask28.png""],[""img/mask6.png""],[""img/mask68.png""],[""img/mask9.png""],[""img/mask54.png""],[""img/mask61.png""],[""img/mask48.png""],[""img/mask2.png""],[""img/mask94.png""],[""img/mask12.png""],[""img/mask84.png""],[""img/mask96.png""],[""img/mask62.png""],[""img/mask65.png""],[""img/mask14.png""],[""img/mask76.png""],[""img/mask65.png""],[""img/mask28.png""],[""img/mask94.png""],[""img/mask90.png""],[""img/mask56.png""],[""img/mask43.png""],[""img/mask6.png""],[""img/mask22.png""],[""img/mask30.png""],[""img/mask86.png""],[""img/mask69.png""],[""img/mask16.png""]]]","","[7,14,15,5,13,1,8,30,20,3,18,26,4,35,34,25,22,19,29,9,2,17,10,21,27,31,33,11,0,12,32,23,16,28,24,6]","main","110","many-guess-6"
"","","","","","html-keyboard-response","158","515359","0.0-10.0-1.69","63d569384ae2cf6d4dce7c32","640759fa512f630a2bdc333d","6408c1809ba9b23e83d97a24","null","","null","","","","","","","","","","","","","","","","","","","fixation","",""
"","","","","","color-precision2","159","519335","0.0-10.0-0.70-0.70","63d569384ae2cf6d4dce7c32","640759fa512f630a2bdc333d","6408c1809ba9b23e83d97a24","[689.8999998569489]","","","[30]","[168]","168","359","170.31768862783352","[170.31768862783352]","[171.31768862783352]","[170]","0","0","1","0","149.59899999998743","1002.3360000953544","1000","[[[""img/mask45.png""]]]","","","main","359","color-precision2"
"","","","","","html-keyboard-response","160","519837","0.0-10.0-1.70","63d569384ae2cf6d4dce7c32","640759fa512f630a2bdc333d","6408c1809ba9b23e83d97a24","null","","null","","","","","","","","","","","","","","","","","","","fixation","",""
"","","","","","color-precision2","161","523734","0.0-10.0-0.71-0.71","63d569384ae2cf6d4dce7c32","640759fa512f630a2bdc333d","6408c1809ba9b23e83d97a24","[989.6999998092651]","","","[33]","[134]","134","40","175.95549248722335","[175.95549248722335]","[135.95549248722335]","[135]","0","0","1","0","149.15000009536743","1003.91400004772","1000","[[[""img/mask19.png""]]]","","","main","40","color-precision2"
"","","","","","html-keyboard-response","162","524245","0.0-10.0-1.71","63d569384ae2cf6d4dce7c32","640759fa512f630a2bdc333d","6408c1809ba9b23e83d97a24","null","","null","","","","","","","","","","","","","","","","","","","fixation","",""
"","","","","","color-precision2","163","528545","0.0-10.0-0.72-0.72","63d569384ae2cf6d4dce7c32","640759fa512f630a2bdc333d","6408c1809ba9b23e83d97a24","[668.7000000476837]","","","[23]","[236]","236","294","167.6649547564941","[167.6649547564941]","[233.6649547564941]","[233]","0","0","1","0","148.75000004773028","991.9710000000196","1000","[[[""img/mask87.png""]]]","","","main","294","color-precision2"
"","","","","","html-keyboard-response","164","529048","0.0-10.0-1.72","63d569384ae2cf6d4dce7c32","640759fa512f630a2bdc333d","6408c1809ba9b23e83d97a24","null","","null","","","","","","","","","","","","","","","","","","","fixation","",""
"","","","","","many-guess-6","165","532718","0.0-10.0-0.73-0.73","63d569384ae2cf6d4dce7c32","640759fa512f630a2bdc333d","6408c1809ba9b23e83d97a24","[1458.6000001430511]","","","[23,10,21,9,35,17,29,34,32,31,11,25,19,26,13,28,8,33,6,0,18,24,22,15,4,20,30,5,1,16,7,27,12,2,14,3]","[95,185,324,205,304,125,215,354,135,35,265,245,165,145,85,334,5,235,344,25,255,105,75,175,115,15,275,155,294,55,225,65,314,284,195,45]","95","110","165.86864824481526","[165.86864824481526]","[55.86864824481526]","[55]","[300,210,300,30,300,30,30,300,210]","0","36","0","149.36800004763063","10.865000047720969","16","[[[""img/mask7.png""],[""img/mask43.png""],[""img/mask75.png""],[""img/mask30.png""],[""img/mask57.png""],[""img/mask63.png""],[""img/mask56.png""],[""img/mask85.png""],[""img/mask53.png""],[""img/mask47.png""],[""img/mask22.png""],[""img/mask39.png""],[""img/mask86.png""],[""img/mask41.png""],[""img/mask67.png""],[""img/mask33.png""],[""img/mask18.png""],[""img/mask12.png""],[""img/mask67.png""],[""img/mask73.png""],[""img/mask73.png""],[""img/mask60.png""],[""img/mask11.png""],[""img/mask86.png""],[""img/mask67.png""],[""img/mask83.png""],[""img/mask46.png""],[""img/mask14.png""],[""img/mask77.png""],[""img/mask7.png""],[""img/mask41.png""],[""img/mask12.png""],[""img/mask53.png""],[""img/mask46.png""],[""img/mask45.png""],[""img/mask32.png""]]]","","[23,10,21,9,35,17,29,34,32,31,11,25,19,26,13,28,8,33,6,0,18,24,22,15,4,20,30,5,1,16,7,27,12,2,14,3]","main","110","many-guess-6"
"","","","","","html-keyboard-response","166","533220","0.0-10.0-1.73","63d569384ae2cf6d4dce7c32","640759fa512f630a2bdc333d","6408c1809ba9b23e83d97a24","null","","null","","","","","","","","","","","","","","","","","","","fixation","",""
"","","","","","many-guess-6","167","536366","0.0-10.0-0.74-0.74","63d569384ae2cf6d4dce7c32","640759fa512f630a2bdc333d","6408c1809ba9b23e83d97a24","[1590.2000000476837]","","","[24,0,34,13,30,16,4,9,17,8,29,3,25,5,35,31,32,28,21,27,26,33,10,14,18,7,11,1,2,19,20,23,6,22,12,15]","[287,347,227,217,317,157,207,87,177,187,257,97,337,277,327,137,247,58,28,127,237,18,197,107,117,297,78,8,167,38,48,267,68,307,147,357]","287","286","167.9840764554393","[167.9840764554393]","[241.9840764554393]","[242]","[120,30,120,300,30,210,30,120,300]","0","36","0","148.84000004769769","13.51100000005681","16","[[[""img/mask8.png""],[""img/mask5.png""],[""img/mask14.png""],[""img/mask26.png""],[""img/mask55.png""],[""img/mask24.png""],[""img/mask18.png""],[""img/mask67.png""],[""img/mask26.png""],[""img/mask27.png""],[""img/mask54.png""],[""img/mask61.png""],[""img/mask53.png""],[""img/mask11.png""],[""img/mask29.png""],[""img/mask50.png""],[""img/mask20.png""],[""img/mask49.png""],[""img/mask36.png""],[""img/mask54.png""],[""img/mask28.png""],[""img/mask7.png""],[""img/mask4.png""],[""img/mask10.png""],[""img/mask24.png""],[""img/mask56.png""],[""img/mask90.png""],[""img/mask48.png""],[""img/mask95.png""],[""img/mask4.png""],[""img/mask46.png""],[""img/mask17.png""],[""img/mask85.png""],[""img/mask46.png""],[""img/mask22.png""],[""img/mask76.png""]]]","","[24,0,34,13,30,16,4,9,17,8,29,3,25,5,35,31,32,28,21,27,26,33,10,14,18,7,11,1,2,19,20,23,6,22,12,15]","main","286","many-guess-6"
"","","","","","html-keyboard-response","168","536867","0.0-10.0-1.74","63d569384ae2cf6d4dce7c32","640759fa512f630a2bdc333d","6408c1809ba9b23e83d97a24","null","","null","","","","","","","","","","","","","","","","","","","fixation","",""
