"success","timeout","failed_images","failed_audio","failed_video","trial_type","trial_index","time_elapsed","internal_node_id","subject_id","study_id","session_id","rt","stimulus","response","position_of_items","colors_of_items","color_of_target","wheel_spin","response_angle","physical_response_angle","reported_color_angle","reported_color_discrete","locs","which_test","set_size","wheel_num_options","actual_mask_duration","actual_stim_duration","CMDispTime","maskArray","maskRotation","item_positions","task","randomSpinAmount","mainTask"
"true","false","[]","[]","[]","preload","0","1269","0.0-0.0","63ed059a43d8d970d47c98a0","640759fa512f630a2bdc333d","6407b70ceb3ac6526f21459c","","","","","","","","","","","","","","","","","","","","","","","",""
"true","","","","","fullscreen","1","4672","0.0-1.0","63ed059a43d8d970d47c98a0","640759fa512f630a2bdc333d","6407b70ceb3ac6526f21459c","","","","","","","","","","","","","","","","","","","","","","","",""
"","","","","","html-keyboard-response","2","9107","0.0-2.0","63ed059a43d8d970d47c98a0","640759fa512f630a2bdc333d","6407b70ceb3ac6526f21459c","4432","What a beautiful Tuesday to do some awesome science! </p> <p>  </p><p> </p>
    By completing this survey or questionnaire, you are consenting to be in this research study. </p>
    Your participation is voluntary and you can stop at any time.<p> [Press any key to continue] </p>","enter","","","","","","","","","","","","","","","","","","","","",""
"","","","","","html-keyboard-response","3","19111","0.0-3.0","63ed059a43d8d970d47c98a0","640759fa512f630a2bdc333d","6407b70ceb3ac6526f21459c","5683","
    <div style='width: 1000px;'>
    <div style='float: center;'><img src='img/TaskInstructions1.png'></img>
    </div>
    ","enter","","","","","","","","","","","","","","","","","","","","",""
"","","","","","html-keyboard-response","4","24500","0.0-4.0","63ed059a43d8d970d47c98a0","640759fa512f630a2bdc333d","6407b70ceb3ac6526f21459c","5387","
    <div style='width: 1000px;'>
    <div style='float: center;'><img src='img/TaskInstructions1.png'></img>
    </div>
    ","enter","","","","","","","","","","","","","","","","","","","","",""
"","","","","","html-keyboard-response","5","34508","0.0-5.0","63ed059a43d8d970d47c98a0","640759fa512f630a2bdc333d","6407b70ceb3ac6526f21459c","null","
    <div style='width: 1000px;'>
    <div style='float: center;'><img src='img/TaskInstructions2.png'></img>
    </div>
    ","null","","","","","","","","","","","","","","","","","","","","",""
"","","","","","html-keyboard-response","6","46608","0.0-6.0","63ed059a43d8d970d47c98a0","640759fa512f630a2bdc333d","6407b70ceb3ac6526f21459c","12098","
    <div style='width: 1000px;'>
    <div style='float: center;'><img src='img/TaskInstructions2.png'></img>
    </div>
    ","enter","","","","","","","","","","","","","","","","","","","","",""
"","","","","","video-keyboard-response","7","58999","0.0-7.0","63ed059a43d8d970d47c98a0","640759fa512f630a2bdc333d","6407b70ceb3ac6526f21459c","12380","[""video/TaskInstructions3.mp4""]","enter","","","","","","","","","","","","","","","","","","","","",""
"","","","","","image-keyboard-response","8","63280","0.0-8.0-0.0","63ed059a43d8d970d47c98a0","640759fa512f630a2bdc333d","6407b70ceb3ac6526f21459c","4280","img/training1.png","enter","","","","","","","","","","","","","","","","","","","","",""
"","","","","","color-precision2","9","74817","0.0-8.0-1.0-0.0","63ed059a43d8d970d47c98a0","640759fa512f630a2bdc333d","6407b70ceb3ac6526f21459c","[5219]","","","[10]","[252]","252","222","90.71703343566112","[90.71703343566112]","[228.7170334356611]","[227]","0","0","1","0","499.9400000000023","1001.6000000000058","1000","","","0","training","",""
"","","","","","image-keyboard-response","10","87764","0.0-8.0-0.1","63ed059a43d8d970d47c98a0","640759fa512f630a2bdc333d","6407b70ceb3ac6526f21459c","12944","img/training2.png","enter","","","","","","","","","","","","","","","","","","","","",""
"","","","","","many-guess-6","11","95717","0.0-8.0-1.1-0.1","63ed059a43d8d970d47c98a0","640759fa512f630a2bdc333d","6407b70ceb3ac6526f21459c","[3050]","","","[22,16,4]","[353,34,99]","353","255","296.38576921801837","[296.38576921801837]","[41.38576921801837]","[42]","[30,300,210,30,300,210,300,300,210,120,30,120,210,210,30,210,300,210,300,300,120,300,120,30,210,30,300,30,300,120,210,30,300,30,210,120]","0","3","0","1000.9600000000064","998.5200000000041","1000","[[[""img/mask16.png""],[""img/mask97.png""],[""img/mask61.png""]]]","","[22,16,4]","training","",""
"","","","","","image-keyboard-response","12","101747","0.0-8.0-0.2","63ed059a43d8d970d47c98a0","640759fa512f630a2bdc333d","6407b70ceb3ac6526f21459c","6028","img/training3.png","enter","","","","","","","","","","","","","","","","","","","","",""
"","","","","","[""many-guess-6""]","13","108340","0.0-8.0-1.2-0.2","63ed059a43d8d970d47c98a0","640759fa512f630a2bdc333d","6407b70ceb3ac6526f21459c","[2354]","","","[11,29,12,16,34]","[72,134,48,105,120]","72","99","162.538550445754","[162.538550445754]","[63.538550445754]","[63]","[210,300,30,120,210,120,300,210,120,30,300,300,120,210,210,120,300,120,30,30,120,300,210,210,120,120,300,210,210,210,210,300,30,120,120,210]","0","5","0","499.6999999999971","501.0200000000041","500","[[[""img/mask54.png""],[""img/mask38.png""],[""img/mask67.png""],[""img/mask19.png""],[""img/mask24.png""]]]","","[11,29,12,16,34]","training","",""
"","","","","","image-keyboard-response","14","112684","0.0-8.0-0.3","63ed059a43d8d970d47c98a0","640759fa512f630a2bdc333d","6407b70ceb3ac6526f21459c","4343","img/training4.png","enter","","","","","","","","","","","","","","","","","","","","",""
"","","","","","[""many-guess-6""]","15","117791","0.0-8.0-1.3-0.3","63ed059a43d8d970d47c98a0","640759fa512f630a2bdc333d","6407b70ceb3ac6526f21459c","[2341]","","","[27,31,32,6,28,8,17,5,23,3]","[166,297,108,265,134,330,307,249,226,198]","166","99","326.7062600732057","[326.7062600732057]","[227.70626007320573]","[228]","[300,210,210,210,210,210,120,300,30,300,210,120,210,30,30,210,300,120,210,300,300,120,300,120,120,30,210,300,300,210,120,300,30,120,300,120]","0","10","0","130.47999999999593","135.63999999999942","132","[[[""img/mask1.png""],[""img/mask81.png""],[""img/mask35.png""],[""img/mask12.png""],[""img/mask12.png""],[""img/mask59.png""],[""img/mask6.png""],[""img/mask64.png""],[""img/mask22.png""],[""img/mask5.png""]]]","","[27,31,32,6,28,8,17,5,23,3]","training","",""
"","","","","","image-keyboard-response","16","123184","0.0-8.0-0.4","63ed059a43d8d970d47c98a0","640759fa512f630a2bdc333d","6407b70ceb3ac6526f21459c","5392","img/training5.png","enter","","","","","","","","","","","","","","","","","","","","",""
"","","","","","[""many-guess-6""]","17","128235","0.0-8.0-1.4-0.4","63ed059a43d8d970d47c98a0","640759fa512f630a2bdc333d","6407b70ceb3ac6526f21459c","[1948]","","","[12,9,2,31,25,14,16,29,18,32,8,4,27,24,34,13,3,11,19,23,6,22,15,5,17,21,1,26,28,30,33,7,20,10,0,35]","[136,57,236,276,306,266,176,256,107,27,126,67,356,206,246,97,326,186,226,166,346,296,336,47,77,37,316,7,146,17,117,286,156,196,216,87]","136","58","25.37209047355649","[25.37209047355649]","[327.3720904735565]","[326]","[30,30,210,210,300,30,120,300,300,120,300,210,120,30,210,210,30,210,120,30,30,300,120,210,300,120,120,120,30,30,300,30,210,300,120,120]","0","36","0","133.6600000000035","19.979999999995925","16","[[[""img/mask99.png""],[""img/mask57.png""],[""img/mask97.png""],[""img/mask81.png""],[""img/mask72.png""],[""img/mask4.png""],[""img/mask15.png""],[""img/mask93.png""],[""img/mask71.png""],[""img/mask56.png""],[""img/mask7.png""],[""img/mask69.png""],[""img/mask12.png""],[""img/mask18.png""],[""img/mask29.png""],[""img/mask74.png""],[""img/mask66.png""],[""img/mask26.png""],[""img/mask70.png""],[""img/mask60.png""],[""img/mask75.png""],[""img/mask79.png""],[""img/mask21.png""],[""img/mask39.png""],[""img/mask69.png""],[""img/mask62.png""],[""img/mask33.png""],[""img/mask18.png""],[""img/mask23.png""],[""img/mask58.png""],[""img/mask74.png""],[""img/mask46.png""],[""img/mask26.png""],[""img/mask83.png""],[""img/mask2.png""],[""img/mask65.png""]]]","","[12,9,2,31,25,14,16,29,18,32,8,4,27,24,34,13,3,11,19,23,6,22,15,5,17,21,1,26,28,30,33,7,20,10,0,35]","training","",""
"","","","","","image-keyboard-response","18","134064","0.0-9.0","63ed059a43d8d970d47c98a0","640759fa512f630a2bdc333d","6407b70ceb3ac6526f21459c","5820","[""img/endTraining.png""]","enter","","","","","","","","","","","","","","","","","","","","",""
"","","","","","html-keyboard-response","19","134570","0.0-10.0-0.0","63ed059a43d8d970d47c98a0","640759fa512f630a2bdc333d","6407b70ceb3ac6526f21459c","null","","null","","","","","","","","","","","","","","","","","","","fixation","",""
"","","","","","many-guess-6","20","139259","0.0-10.0-1.0-0.0","63ed059a43d8d970d47c98a0","640759fa512f630a2bdc333d","6407b70ceb3ac6526f21459c","[2455]","","","[35,0,32,34,7,23,6,15,3,2,8,29,25,12,18,4,31,22,1,24,33,16,26,27,19,17,9,28,5,30,20,14,13,10,21,11]","[51,121,31,21,41,191,11,290,211,260,340,141,181,251,280,241,111,270,131,201,310,161,91,171,221,1,101,300,231,151,61,320,81,350,71,330]","51","199","57.38911680139285","[57.38911680139285]","[218.38911680139284]","[217]","[120,210,210,120,210,120,300,300,120]","0","36","0","149.32000000000698","17.019999999989523","16","[[[""img/mask95.png""],[""img/mask1.png""],[""img/mask7.png""],[""img/mask81.png""],[""img/mask80.png""],[""img/mask11.png""],[""img/mask54.png""],[""img/mask46.png""],[""img/mask60.png""],[""img/mask5.png""],[""img/mask50.png""],[""img/mask75.png""],[""img/mask36.png""],[""img/mask71.png""],[""img/mask93.png""],[""img/mask1.png""],[""img/mask99.png""],[""img/mask79.png""],[""img/mask1.png""],[""img/mask57.png""],[""img/mask99.png""],[""img/mask77.png""],[""img/mask83.png""],[""img/mask18.png""],[""img/mask35.png""],[""img/mask49.png""],[""img/mask97.png""],[""img/mask82.png""],[""img/mask32.png""],[""img/mask28.png""],[""img/mask100.png""],[""img/mask62.png""],[""img/mask100.png""],[""img/mask46.png""],[""img/mask40.png""],[""img/mask39.png""]]]","","[35,0,32,34,7,23,6,15,3,2,8,29,25,12,18,4,31,22,1,24,33,16,26,27,19,17,9,28,5,30,20,14,13,10,21,11]","main","199","many-guess-6"
"","","","","","html-keyboard-response","21","139765","0.0-10.0-0.1","63ed059a43d8d970d47c98a0","640759fa512f630a2bdc333d","6407b70ceb3ac6526f21459c","null","","null","","","","","","","","","","","","","","","","","","","fixation","",""
"","","","","","many-guess-6","22","143666","0.0-10.0-1.1-0.1","63ed059a43d8d970d47c98a0","640759fa512f630a2bdc333d","6407b70ceb3ac6526f21459c","[2037]","","","[8,26,9,10,3,12,29,18,33,30,13,31,34,1,11,25,19,24,2,20,35,14,5,15,4,17,16,22,21,28,27,0,32,6,23,7]","[20,239,219,129,99,179,89,249,319,60,10,269,359,289,169,30,329,339,349,119,279,189,229,299,149,40,199,259,79,50,309,109,139,69,159,209]","20","18","302.99053918519695","[302.99053918519695]","[284.99053918519695]","[286]","[120,30,300,300,300,300,300,30,210]","0","36","0","149.3399999999965","18.980000000010477","16","[[[""img/mask62.png""],[""img/mask35.png""],[""img/mask58.png""],[""img/mask45.png""],[""img/mask17.png""],[""img/mask53.png""],[""img/mask2.png""],[""img/mask83.png""],[""img/mask59.png""],[""img/mask48.png""],[""img/mask71.png""],[""img/mask61.png""],[""img/mask72.png""],[""img/mask86.png""],[""img/mask22.png""],[""img/mask39.png""],[""img/mask17.png""],[""img/mask61.png""],[""img/mask90.png""],[""img/mask53.png""],[""img/mask25.png""],[""img/mask2.png""],[""img/mask99.png""],[""img/mask31.png""],[""img/mask65.png""],[""img/mask72.png""],[""img/mask98.png""],[""img/mask36.png""],[""img/mask2.png""],[""img/mask3.png""],[""img/mask70.png""],[""img/mask76.png""],[""img/mask5.png""],[""img/mask19.png""],[""img/mask83.png""],[""img/mask88.png""]]]","","[8,26,9,10,3,12,29,18,33,30,13,31,34,1,11,25,19,24,2,20,35,14,5,15,4,17,16,22,21,28,27,0,32,6,23,7]","main","18","many-guess-6"
"","","","","","html-keyboard-response","23","144172","0.0-10.0-0.2","63ed059a43d8d970d47c98a0","640759fa512f630a2bdc333d","6407b70ceb3ac6526f21459c","null","","null","","","","","","","","","","","","","","","","","","","fixation","",""
"","","","","","many-guess-6","24","147483","0.0-10.0-1.2-0.2","63ed059a43d8d970d47c98a0","640759fa512f630a2bdc333d","6407b70ceb3ac6526f21459c","[1846]","","","[29,0,23,1,32,34,17,30,5,3,15,12,16,20,4,19,9,28,21,7,22,14,8,11,26,35,33,10,25,18,2,13,31,24,6,27]","[135,155,35,165,265,185,145,295,45,354,325,115,205,5,175,215,335,105,65,345,285,195,225,95,75,305,255,25,315,55,245,85,125,235,15,275]","135","208","168.16866069888567","[168.16866069888567]","[320.1686606988857]","[319]","[210,30,120,210,300,120,120,210,210]","0","36","0","149.67999999999302","19.320000000006985","16","[[[""img/mask91.png""],[""img/mask15.png""],[""img/mask33.png""],[""img/mask78.png""],[""img/mask15.png""],[""img/mask97.png""],[""img/mask13.png""],[""img/mask7.png""],[""img/mask16.png""],[""img/mask51.png""],[""img/mask36.png""],[""img/mask25.png""],[""img/mask50.png""],[""img/mask77.png""],[""img/mask6.png""],[""img/mask8.png""],[""img/mask17.png""],[""img/mask6.png""],[""img/mask90.png""],[""img/mask85.png""],[""img/mask73.png""],[""img/mask84.png""],[""img/mask75.png""],[""img/mask68.png""],[""img/mask91.png""],[""img/mask18.png""],[""img/mask64.png""],[""img/mask35.png""],[""img/mask12.png""],[""img/mask1.png""],[""img/mask66.png""],[""img/mask18.png""],[""img/mask93.png""],[""img/mask54.png""],[""img/mask56.png""],[""img/mask84.png""]]]","","[29,0,23,1,32,34,17,30,5,3,15,12,16,20,4,19,9,28,21,7,22,14,8,11,26,35,33,10,25,18,2,13,31,24,6,27]","main","208","many-guess-6"
"","","","","","html-keyboard-response","25","147989","0.0-10.0-0.3","63ed059a43d8d970d47c98a0","640759fa512f630a2bdc333d","6407b70ceb3ac6526f21459c","null","","null","","","","","","","","","","","","","","","","","","","fixation","",""
"","","","","","color-precision2","26","154596","0.0-10.0-1.3-0.3","63ed059a43d8d970d47c98a0","640759fa512f630a2bdc333d","6407b70ceb3ac6526f21459c","[4259]","","","[25]","[160]","160","208","7.8441692791523705","[7.8441692791523705]","[159.84416927915237]","[160]","0","0","1","0","149.9200000000128","999.3800000000047","1000","[[[""img/mask17.png""]]]","","","main","208","color-precision2"
"","","","","","html-keyboard-response","27","155102","0.0-10.0-0.4","63ed059a43d8d970d47c98a0","640759fa512f630a2bdc333d","6407b70ceb3ac6526f21459c","null","","null","","","","","","","","","","","","","","","","","","","fixation","",""
"","","","","","many-guess-6","28","159891","0.0-10.0-1.4-0.4","63ed059a43d8d970d47c98a0","640759fa512f630a2bdc333d","6407b70ceb3ac6526f21459c","[2871]","","","[32,29,2,7,22,4,30,19,0,31,16,13,8,33,6,17,5,9,35,1,12,26,20,28,18,34,10,23,14,25,3,27,15,24,11,21]","[268,99,29,288,228,208,178,258,39,338,149,69,328,79,9,248,89,238,19,159,308,278,59,348,169,139,218,358,49,129,119,109,198,298,318,188]","268","233","311.3918013498903","[311.3918013498903]","[78.39180134989027]","[78]","[210,120,210,300,210,210,300,120,30]","0","36","0","149.98000000001048","20.720000000001164","16","[[[""img/mask73.png""],[""img/mask33.png""],[""img/mask44.png""],[""img/mask60.png""],[""img/mask63.png""],[""img/mask50.png""],[""img/mask19.png""],[""img/mask9.png""],[""img/mask38.png""],[""img/mask39.png""],[""img/mask61.png""],[""img/mask17.png""],[""img/mask41.png""],[""img/mask4.png""],[""img/mask2.png""],[""img/mask52.png""],[""img/mask85.png""],[""img/mask43.png""],[""img/mask3.png""],[""img/mask98.png""],[""img/mask38.png""],[""img/mask67.png""],[""img/mask94.png""],[""img/mask17.png""],[""img/mask52.png""],[""img/mask87.png""],[""img/mask81.png""],[""img/mask90.png""],[""img/mask56.png""],[""img/mask83.png""],[""img/mask50.png""],[""img/mask55.png""],[""img/mask26.png""],[""img/mask91.png""],[""img/mask9.png""],[""img/mask70.png""]]]","","[32,29,2,7,22,4,30,19,0,31,16,13,8,33,6,17,5,9,35,1,12,26,20,28,18,34,10,23,14,25,3,27,15,24,11,21]","main","233","many-guess-6"
"","","","","","html-keyboard-response","29","160392","0.0-10.0-0.5","63ed059a43d8d970d47c98a0","640759fa512f630a2bdc333d","6407b70ceb3ac6526f21459c","null","","null","","","","","","","","","","","","","","","","","","","fixation","",""
"","","","","","many-guess-6","30","164341","0.0-10.0-1.5-0.5","63ed059a43d8d970d47c98a0","640759fa512f630a2bdc333d","6407b70ceb3ac6526f21459c","[1994]","","","[17,12,23,10,9,28,0,19,30,16,11,6,29,34,31,22,5,4,20,15,1,13,24,21,25,18,2,8,3,33,32,35,7,26,27,14]","[322,33,23,123,232,332,162,292,142,262,192,302,63,242,282,152,202,172,53,43,212,252,272,352,222,182,133,83,312,73,342,93,3,103,113,13]","322","250","8.701158112396827","[8.701158112396827]","[118.70115811239683]","[118]","[30,300,210,120,210,300,210,120,120]","0","36","0","152.67999999999302","18.760000000009313","16","[[[""img/mask44.png""],[""img/mask55.png""],[""img/mask51.png""],[""img/mask46.png""],[""img/mask92.png""],[""img/mask28.png""],[""img/mask57.png""],[""img/mask59.png""],[""img/mask30.png""],[""img/mask86.png""],[""img/mask48.png""],[""img/mask86.png""],[""img/mask22.png""],[""img/mask91.png""],[""img/mask74.png""],[""img/mask34.png""],[""img/mask47.png""],[""img/mask27.png""],[""img/mask22.png""],[""img/mask98.png""],[""img/mask5.png""],[""img/mask89.png""],[""img/mask49.png""],[""img/mask49.png""],[""img/mask19.png""],[""img/mask100.png""],[""img/mask83.png""],[""img/mask22.png""],[""img/mask17.png""],[""img/mask40.png""],[""img/mask43.png""],[""img/mask73.png""],[""img/mask18.png""],[""img/mask22.png""],[""img/mask76.png""],[""img/mask38.png""]]]","","[17,12,23,10,9,28,0,19,30,16,11,6,29,34,31,22,5,4,20,15,1,13,24,21,25,18,2,8,3,33,32,35,7,26,27,14]","main","250","many-guess-6"
"","","","","","html-keyboard-response","31","164846","0.0-10.0-0.6","63ed059a43d8d970d47c98a0","640759fa512f630a2bdc333d","6407b70ceb3ac6526f21459c","null","","null","","","","","","","","","","","","","","","","","","","fixation","",""
"","","","","","color-precision2","32","169999","0.0-10.0-1.6-0.6","63ed059a43d8d970d47c98a0","640759fa512f630a2bdc333d","6407b70ceb3ac6526f21459c","[2561]","","","[0]","[346]","346","139","116.86040648611989","[116.86040648611989]","[337.86040648611987]","[336]","0","0","1","0","149.70000000001164","999.9599999999919","1000","[[[""img/mask1.png""]]]","","","main","139","color-precision2"
"","","","","","html-keyboard-response","33","170505","0.0-10.0-0.7","63ed059a43d8d970d47c98a0","640759fa512f630a2bdc333d","6407b70ceb3ac6526f21459c","null","","null","","","","","","","","","","","","","","","","","","","fixation","",""
"","","","","","color-precision2","34","176363","0.0-10.0-1.7-0.7","63ed059a43d8d970d47c98a0","640759fa512f630a2bdc333d","6407b70ceb3ac6526f21459c","[3201]","","","[1]","[47]","47","15","67.54435363145193","[67.54435363145193]","[52.544353631451926]","[51]","0","0","1","0","149.70000000001164","1000.359999999986","1000","[[[""img/mask31.png""]]]","","","main","15","color-precision2"
"","","","","","html-keyboard-response","35","176867","0.0-10.0-0.8","63ed059a43d8d970d47c98a0","640759fa512f630a2bdc333d","6407b70ceb3ac6526f21459c","null","","null","","","","","","","","","","","","","","","","","","","fixation","",""
"","","","","","many-guess-6","36","180690","0.0-10.0-1.8-0.8","63ed059a43d8d970d47c98a0","640759fa512f630a2bdc333d","6407b70ceb3ac6526f21459c","[2281]","","","[20,12,22,9,11,33,32,6,25,0,27,4,8,29,2,1,34,35,15,5,23,14,21,30,24,28,16,13,10,26,3,7,19,31,18,17]","[79,348,358,139,19,198,308,129,298,69,89,338,149,248,268,178,328,208,99,228,119,238,168,288,49,39,278,158,29,9,318,188,59,258,218,109]","79","286","351.09414466688446","[351.09414466688446]","[65.09414466688446]","[64]","[120,120,300,210,120,30,30,30,120]","0","36","0","148.95999999999185","18.35999999998603","16","[[[""img/mask35.png""],[""img/mask53.png""],[""img/mask11.png""],[""img/mask89.png""],[""img/mask85.png""],[""img/mask47.png""],[""img/mask95.png""],[""img/mask79.png""],[""img/mask21.png""],[""img/mask75.png""],[""img/mask6.png""],[""img/mask91.png""],[""img/mask70.png""],[""img/mask72.png""],[""img/mask44.png""],[""img/mask62.png""],[""img/mask18.png""],[""img/mask9.png""],[""img/mask64.png""],[""img/mask89.png""],[""img/mask52.png""],[""img/mask24.png""],[""img/mask11.png""],[""img/mask40.png""],[""img/mask38.png""],[""img/mask85.png""],[""img/mask6.png""],[""img/mask94.png""],[""img/mask31.png""],[""img/mask46.png""],[""img/mask23.png""],[""img/mask64.png""],[""img/mask46.png""],[""img/mask40.png""],[""img/mask86.png""],[""img/mask90.png""]]]","","[20,12,22,9,11,33,32,6,25,0,27,4,8,29,2,1,34,35,15,5,23,14,21,30,24,28,16,13,10,26,3,7,19,31,18,17]","main","286","many-guess-6"
"","","","","","html-keyboard-response","37","181197","0.0-10.0-0.9","63ed059a43d8d970d47c98a0","640759fa512f630a2bdc333d","6407b70ceb3ac6526f21459c","null","","null","","","","","","","","","","","","","","","","","","","fixation","",""
"","","","","","many-guess-6","38","184764","0.0-10.0-1.9-0.9","63ed059a43d8d970d47c98a0","640759fa512f630a2bdc333d","6407b70ceb3ac6526f21459c","[2056]","","","[33,1,14,4,18,20,3,7,30,10,29,24,0,16,17,26,13,35,32,8,34,15,23,5,31,19,6,9,11,27,21,2,22,25,28,12]","[18,167,78,317,257,108,147,217,127,187,8,347,197,297,177,68,117,48,327,137,58,357,247,157,98,227,237,88,38,277,307,337,267,207,28,287]","18","117","299.6400553629035","[299.6400553629035]","[182.64005536290352]","[183]","[300,120,210,210,300,120,30,300,120]","0","36","0","153","17.079999999987194","16","[[[""img/mask72.png""],[""img/mask40.png""],[""img/mask38.png""],[""img/mask26.png""],[""img/mask14.png""],[""img/mask89.png""],[""img/mask41.png""],[""img/mask46.png""],[""img/mask30.png""],[""img/mask97.png""],[""img/mask2.png""],[""img/mask85.png""],[""img/mask20.png""],[""img/mask62.png""],[""img/mask84.png""],[""img/mask10.png""],[""img/mask86.png""],[""img/mask47.png""],[""img/mask53.png""],[""img/mask49.png""],[""img/mask39.png""],[""img/mask6.png""],[""img/mask24.png""],[""img/mask32.png""],[""img/mask4.png""],[""img/mask13.png""],[""img/mask21.png""],[""img/mask13.png""],[""img/mask98.png""],[""img/mask19.png""],[""img/mask9.png""],[""img/mask41.png""],[""img/mask30.png""],[""img/mask82.png""],[""img/mask55.png""],[""img/mask62.png""]]]","","[33,1,14,4,18,20,3,7,30,10,29,24,0,16,17,26,13,35,32,8,34,15,23,5,31,19,6,9,11,27,21,2,22,25,28,12]","main","117","many-guess-6"
"","","","","","html-keyboard-response","39","185270","0.0-10.0-0.10","63ed059a43d8d970d47c98a0","640759fa512f630a2bdc333d","6407b70ceb3ac6526f21459c","null","","null","","","","","","","","","","","","","","","","","","","fixation","",""
"","","","","","color-precision2","40","189937","0.0-10.0-1.10-0.10","63ed059a43d8d970d47c98a0","640759fa512f630a2bdc333d","6407b70ceb3ac6526f21459c","[2352]","","","[2]","[334]","334","43","27.08033415820882","[27.08033415820882]","[344.0803341582088]","[343]","0","0","1","0","148.05999999999767","1003.3800000000047","1000","[[[""img/mask35.png""]]]","","","main","43","color-precision2"
"","","","","","html-keyboard-response","41","190441","0.0-10.0-0.11","63ed059a43d8d970d47c98a0","640759fa512f630a2bdc333d","6407b70ceb3ac6526f21459c","null","","null","","","","","","","","","","","","","","","","","","","fixation","",""
"","","","","","color-precision2","42","194966","0.0-10.0-1.11-0.11","63ed059a43d8d970d47c98a0","640759fa512f630a2bdc333d","6407b70ceb3ac6526f21459c","[1821]","","","[26]","[238]","238","316","179.38194656079136","[179.38194656079136]","[223.38194656079136]","[222]","0","0","1","0","150.05999999999767","1001.9800000000105","1000","[[[""img/mask46.png""]]]","","","main","316","color-precision2"
"","","","","","html-keyboard-response","43","195472","0.0-10.0-0.12","63ed059a43d8d970d47c98a0","640759fa512f630a2bdc333d","6407b70ceb3ac6526f21459c","null","","null","","","","","","","","","","","","","","","","","","","fixation","",""
"","","","","","many-guess-6","44","198728","0.0-10.0-1.12-0.12","63ed059a43d8d970d47c98a0","640759fa512f630a2bdc333d","6407b70ceb3ac6526f21459c","[1859]","","","[5,9,21,6,22,31,0,10,3,27,2,15,1,11,24,16,32,23,13,25,26,30,8,4,28,12,20,29,17,14,35,19,33,18,7,34]","[254,353,194,154,313,14,274,64,74,294,124,214,164,224,264,184,323,174,284,134,234,114,104,204,24,84,4,333,94,343,144,44,244,54,304,34]","254","28","245.14673111440595","[245.14673111440595]","[217.14673111440595]","[217]","[30,30,30,210,210,210,30,120,120]","0","36","0","149.14000000001397","17.720000000001164","16","[[[""img/mask95.png""],[""img/mask84.png""],[""img/mask75.png""],[""img/mask12.png""],[""img/mask100.png""],[""img/mask40.png""],[""img/mask66.png""],[""img/mask25.png""],[""img/mask68.png""],[""img/mask31.png""],[""img/mask33.png""],[""img/mask91.png""],[""img/mask37.png""],[""img/mask32.png""],[""img/mask72.png""],[""img/mask79.png""],[""img/mask96.png""],[""img/mask73.png""],[""img/mask35.png""],[""img/mask5.png""],[""img/mask92.png""],[""img/mask29.png""],[""img/mask72.png""],[""img/mask90.png""],[""img/mask8.png""],[""img/mask44.png""],[""img/mask25.png""],[""img/mask42.png""],[""img/mask65.png""],[""img/mask83.png""],[""img/mask35.png""],[""img/mask3.png""],[""img/mask54.png""],[""img/mask59.png""],[""img/mask83.png""],[""img/mask68.png""]]]","","[5,9,21,6,22,31,0,10,3,27,2,15,1,11,24,16,32,23,13,25,26,30,8,4,28,12,20,29,17,14,35,19,33,18,7,34]","main","28","many-guess-6"
"","","","","","html-keyboard-response","45","199232","0.0-10.0-0.13","63ed059a43d8d970d47c98a0","640759fa512f630a2bdc333d","6407b70ceb3ac6526f21459c","null","","null","","","","","","","","","","","","","","","","","","","fixation","",""
"","","","","","color-precision2","46","203028","0.0-10.0-1.13-0.13","63ed059a43d8d970d47c98a0","640759fa512f630a2bdc333d","6407b70ceb3ac6526f21459c","[1232]","","","[26]","[173]","173","18","191.64540401660503","[191.64540401660503]","[173.64540401660503]","[173]","0","0","1","0","153.54000000000815","1000.5400000000081","1000","[[[""img/mask66.png""]]]","","","main","18","color-precision2"
"","","","","","html-keyboard-response","47","203534","0.0-10.0-0.14","63ed059a43d8d970d47c98a0","640759fa512f630a2bdc333d","6407b70ceb3ac6526f21459c","null","","null","","","","","","","","","","","","","","","","","","","fixation","",""
"","","","","","many-guess-6","48","206533","0.0-10.0-1.14-0.14","63ed059a43d8d970d47c98a0","640759fa512f630a2bdc333d","6407b70ceb3ac6526f21459c","[1438]","","","[12,33,22,32,7,9,6,28,19,29,3,2,18,4,10,5,23,17,1,20,0,26,13,35,27,8,16,14,11,30,21,15,34,25,31,24]","[38,228,208,178,168,158,287,267,18,307,218,347,128,238,88,138,257,78,277,28,327,68,58,188,198,148,248,8,118,357,337,98,297,48,317,108]","38","115","203.6770300600336","[203.6770300600336]","[88.67703006003359]","[89]","[120,120,300,210,210,210,120,30,120]","0","36","0","150.05999999999767","13.799999999988358","16","[[[""img/mask30.png""],[""img/mask49.png""],[""img/mask83.png""],[""img/mask37.png""],[""img/mask28.png""],[""img/mask59.png""],[""img/mask50.png""],[""img/mask22.png""],[""img/mask69.png""],[""img/mask60.png""],[""img/mask83.png""],[""img/mask91.png""],[""img/mask94.png""],[""img/mask99.png""],[""img/mask57.png""],[""img/mask83.png""],[""img/mask69.png""],[""img/mask71.png""],[""img/mask63.png""],[""img/mask44.png""],[""img/mask42.png""],[""img/mask61.png""],[""img/mask87.png""],[""img/mask51.png""],[""img/mask34.png""],[""img/mask73.png""],[""img/mask68.png""],[""img/mask95.png""],[""img/mask72.png""],[""img/mask9.png""],[""img/mask34.png""],[""img/mask16.png""],[""img/mask90.png""],[""img/mask59.png""],[""img/mask37.png""],[""img/mask12.png""]]]","","[12,33,22,32,7,9,6,28,19,29,3,2,18,4,10,5,23,17,1,20,0,26,13,35,27,8,16,14,11,30,21,15,34,25,31,24]","main","115","many-guess-6"
"","","","","","html-keyboard-response","49","207036","0.0-10.0-0.15","63ed059a43d8d970d47c98a0","640759fa512f630a2bdc333d","6407b70ceb3ac6526f21459c","null","","null","","","","","","","","","","","","","","","","","","","fixation","",""
"","","","","","many-guess-6","50","210284","0.0-10.0-1.15-0.15","63ed059a43d8d970d47c98a0","640759fa512f630a2bdc333d","6407b70ceb3ac6526f21459c","[1764]","","","[22,24,34,33,10,27,3,14,21,29,0,11,5,28,4,2,8,1,20,7,23,30,35,17,16,9,32,26,18,15,31,12,19,6,13,25]","[42,282,312,82,242,302,102,132,252,142,212,172,22,192,32,332,162,3,262,62,352,292,272,72,222,13,182,322,232,202,92,152,52,342,112,122]","42","149","16.407488739808226","[16.407488739808226]","[227.40748873980823]","[226]","[210,30,300,30,210,210,120,210,120]","0","36","0","149.10000000000582","19.720000000001164","16","[[[""img/mask50.png""],[""img/mask6.png""],[""img/mask5.png""],[""img/mask13.png""],[""img/mask39.png""],[""img/mask2.png""],[""img/mask81.png""],[""img/mask18.png""],[""img/mask49.png""],[""img/mask68.png""],[""img/mask86.png""],[""img/mask100.png""],[""img/mask29.png""],[""img/mask62.png""],[""img/mask83.png""],[""img/mask25.png""],[""img/mask64.png""],[""img/mask22.png""],[""img/mask17.png""],[""img/mask27.png""],[""img/mask6.png""],[""img/mask26.png""],[""img/mask8.png""],[""img/mask96.png""],[""img/mask22.png""],[""img/mask59.png""],[""img/mask66.png""],[""img/mask81.png""],[""img/mask82.png""],[""img/mask88.png""],[""img/mask98.png""],[""img/mask18.png""],[""img/mask20.png""],[""img/mask5.png""],[""img/mask11.png""],[""img/mask67.png""]]]","","[22,24,34,33,10,27,3,14,21,29,0,11,5,28,4,2,8,1,20,7,23,30,35,17,16,9,32,26,18,15,31,12,19,6,13,25]","main","149","many-guess-6"
"","","","","","html-keyboard-response","51","210790","0.0-10.0-0.16","63ed059a43d8d970d47c98a0","640759fa512f630a2bdc333d","6407b70ceb3ac6526f21459c","null","","null","","","","","","","","","","","","","","","","","","","fixation","",""
"","","","","","many-guess-6","52","214354","0.0-10.0-1.16-0.16","63ed059a43d8d970d47c98a0","640759fa512f630a2bdc333d","6407b70ceb3ac6526f21459c","[2242]","","","[9,20,25,1,3,16,27,8,29,21,6,33,7,4,24,10,26,31,14,15,22,23,5,2,19,30,32,17,13,28,0,11,35,12,18,34]","[150,30,220,110,290,90,270,320,140,11,60,100,350,130,230,310,280,80,21,170,190,260,300,180,160,120,250,1,40,340,240,330,210,200,50,70]","150","137","286.38913985307937","[286.38913985307937]","[149.38913985307937]","[150]","[30,120,30,300,210,120,300,300,210]","0","36","0","149.7399999999907","15.440000000002328","16","[[[""img/mask61.png""],[""img/mask80.png""],[""img/mask1.png""],[""img/mask40.png""],[""img/mask88.png""],[""img/mask79.png""],[""img/mask85.png""],[""img/mask53.png""],[""img/mask88.png""],[""img/mask2.png""],[""img/mask9.png""],[""img/mask95.png""],[""img/mask51.png""],[""img/mask76.png""],[""img/mask1.png""],[""img/mask81.png""],[""img/mask80.png""],[""img/mask72.png""],[""img/mask83.png""],[""img/mask7.png""],[""img/mask84.png""],[""img/mask62.png""],[""img/mask5.png""],[""img/mask50.png""],[""img/mask13.png""],[""img/mask25.png""],[""img/mask99.png""],[""img/mask4.png""],[""img/mask39.png""],[""img/mask6.png""],[""img/mask34.png""],[""img/mask57.png""],[""img/mask92.png""],[""img/mask88.png""],[""img/mask3.png""],[""img/mask58.png""]]]","","[9,20,25,1,3,16,27,8,29,21,6,33,7,4,24,10,26,31,14,15,22,23,5,2,19,30,32,17,13,28,0,11,35,12,18,34]","main","137","many-guess-6"
"","","","","","html-keyboard-response","53","214860","0.0-10.0-0.17","63ed059a43d8d970d47c98a0","640759fa512f630a2bdc333d","6407b70ceb3ac6526f21459c","null","","null","","","","","","","","","","","","","","","","","","","fixation","",""
"","","","","","many-guess-6","54","218416","0.0-10.0-1.17-0.17","63ed059a43d8d970d47c98a0","640759fa512f630a2bdc333d","6407b70ceb3ac6526f21459c","[2141]","","","[26,35,27,22,6,28,32,2,1,8,30,10,7,29,13,19,5,31,18,3,24,20,11,9,15,33,16,0,4,21,25,34,17,23,12,14]","[243,54,144,263,124,64,194,273,333,174,253,134,24,44,343,184,4,303,353,283,164,154,323,104,313,14,224,34,74,114,214,293,234,84,94,204]","243","126","97.40060049339013","[97.40060049339013]","[331.40060049339013]","[330]","[210,120,120,30,120,300,30,210,30]","0","36","0","150.2399999999907","12.320000000006985","16","[[[""img/mask88.png""],[""img/mask17.png""],[""img/mask75.png""],[""img/mask3.png""],[""img/mask24.png""],[""img/mask27.png""],[""img/mask97.png""],[""img/mask11.png""],[""img/mask49.png""],[""img/mask20.png""],[""img/mask31.png""],[""img/mask63.png""],[""img/mask64.png""],[""img/mask85.png""],[""img/mask63.png""],[""img/mask80.png""],[""img/mask37.png""],[""img/mask60.png""],[""img/mask81.png""],[""img/mask91.png""],[""img/mask34.png""],[""img/mask81.png""],[""img/mask12.png""],[""img/mask19.png""],[""img/mask63.png""],[""img/mask94.png""],[""img/mask14.png""],[""img/mask33.png""],[""img/mask45.png""],[""img/mask56.png""],[""img/mask100.png""],[""img/mask48.png""],[""img/mask5.png""],[""img/mask94.png""],[""img/mask89.png""],[""img/mask52.png""]]]","","[26,35,27,22,6,28,32,2,1,8,30,10,7,29,13,19,5,31,18,3,24,20,11,9,15,33,16,0,4,21,25,34,17,23,12,14]","main","126","many-guess-6"
"","","","","","html-keyboard-response","55","218922","0.0-10.0-0.18","63ed059a43d8d970d47c98a0","640759fa512f630a2bdc333d","6407b70ceb3ac6526f21459c","null","","null","","","","","","","","","","","","","","","","","","","fixation","",""
"","","","","","color-precision2","56","223220","0.0-10.0-1.18-0.18","63ed059a43d8d970d47c98a0","640759fa512f630a2bdc333d","6407b70ceb3ac6526f21459c","[1917]","","","[27]","[341]","341","127","118.95882951473574","[118.95882951473574]","[351.9588295147357]","[350]","0","0","1","0","150.39999999999418","999.1000000000058","1000","[[[""img/mask27.png""]]]","","","main","127","color-precision2"
"","","","","","html-keyboard-response","57","226975","0.0-10.0-0.19","63ed059a43d8d970d47c98a0","640759fa512f630a2bdc333d","6407b70ceb3ac6526f21459c","3754","Wow! You've completed 20 out of 180 trials! </p> <p>  </p><p> Take a quick break, then press any key when you're ready to continue."," ","","","","","","","","","","","","","","","","","","","fixation","",""
"","","","","","many-guess-6","58","231056","0.0-10.0-1.19-0.19","63ed059a43d8d970d47c98a0","640759fa512f630a2bdc333d","6407b70ceb3ac6526f21459c","[1927]","","","[34,12,23,10,28,25,14,31,7,26,6,0,21,33,22,24,5,17,19,8,1,27,9,30,16,35,13,15,20,3,11,4,2,32,29,18]","[149,259,119,318,39,348,358,239,109,169,29,299,79,328,99,179,279,229,139,159,129,209,189,269,338,309,49,289,219,199,19,249,69,89,9,59]","149","304","202.32302747377472","[202.32302747377472]","[258.3230274737747]","[258]","[210,210,30,300,30,210,210,120,30]","0","36","0","150.45999999999185","16.119999999995343","16","[[[""img/mask23.png""],[""img/mask3.png""],[""img/mask68.png""],[""img/mask45.png""],[""img/mask16.png""],[""img/mask89.png""],[""img/mask69.png""],[""img/mask83.png""],[""img/mask42.png""],[""img/mask28.png""],[""img/mask92.png""],[""img/mask39.png""],[""img/mask65.png""],[""img/mask77.png""],[""img/mask88.png""],[""img/mask61.png""],[""img/mask66.png""],[""img/mask58.png""],[""img/mask8.png""],[""img/mask91.png""],[""img/mask55.png""],[""img/mask72.png""],[""img/mask33.png""],[""img/mask28.png""],[""img/mask68.png""],[""img/mask26.png""],[""img/mask78.png""],[""img/mask82.png""],[""img/mask37.png""],[""img/mask64.png""],[""img/mask51.png""],[""img/mask26.png""],[""img/mask16.png""],[""img/mask11.png""],[""img/mask24.png""],[""img/mask6.png""]]]","","[34,12,23,10,28,25,14,31,7,26,6,0,21,33,22,24,5,17,19,8,1,27,9,30,16,35,13,15,20,3,11,4,2,32,29,18]","main","304","many-guess-6"
"","","","","","html-keyboard-response","59","231561","0.0-10.0-0.20","63ed059a43d8d970d47c98a0","640759fa512f630a2bdc333d","6407b70ceb3ac6526f21459c","null","","null","","","","","","","","","","","","","","","","","","","fixation","",""
"","","","","","many-guess-6","60","235304","0.0-10.0-1.20-0.20","63ed059a43d8d970d47c98a0","640759fa512f630a2bdc333d","6407b70ceb3ac6526f21459c","[2353]","","","[16,10,6,22,17,29,18,20,27,19,14,32,15,4,5,13,0,35,8,31,30,34,28,7,33,23,26,11,2,25,3,9,24,21,12,1]","[208,178,188,278,88,148,78,318,198,128,288,9,68,19,338,268,348,218,298,138,59,118,328,29,98,238,308,248,228,358,49,39,108,158,258,168]","208","131","27.331516307039138","[27.331516307039138]","[256.3315163070391]","[255]","[210,30,120,120,30,210,300,120,300]","0","36","0","148.32000000000698","13.160000000003492","16","[[[""img/mask35.png""],[""img/mask4.png""],[""img/mask82.png""],[""img/mask90.png""],[""img/mask26.png""],[""img/mask14.png""],[""img/mask87.png""],[""img/mask78.png""],[""img/mask13.png""],[""img/mask53.png""],[""img/mask90.png""],[""img/mask42.png""],[""img/mask4.png""],[""img/mask62.png""],[""img/mask2.png""],[""img/mask86.png""],[""img/mask60.png""],[""img/mask3.png""],[""img/mask35.png""],[""img/mask89.png""],[""img/mask67.png""],[""img/mask83.png""],[""img/mask7.png""],[""img/mask82.png""],[""img/mask30.png""],[""img/mask96.png""],[""img/mask6.png""],[""img/mask44.png""],[""img/mask56.png""],[""img/mask21.png""],[""img/mask30.png""],[""img/mask80.png""],[""img/mask13.png""],[""img/mask59.png""],[""img/mask41.png""],[""img/mask59.png""]]]","","[16,10,6,22,17,29,18,20,27,19,14,32,15,4,5,13,0,35,8,31,30,34,28,7,33,23,26,11,2,25,3,9,24,21,12,1]","main","131","many-guess-6"
"","","","","","html-keyboard-response","61","235808","0.0-10.0-0.21","63ed059a43d8d970d47c98a0","640759fa512f630a2bdc333d","6407b70ceb3ac6526f21459c","null","","null","","","","","","","","","","","","","","","","","","","fixation","",""
"","","","","","many-guess-6","62","238869","0.0-10.0-1.21-0.21","63ed059a43d8d970d47c98a0","640759fa512f630a2bdc333d","6407b70ceb3ac6526f21459c","[1624]","","","[15,29,21,1,28,17,34,35,2,12,5,32,13,30,18,3,19,7,27,24,20,11,26,25,9,31,14,23,16,33,10,22,6,0,8,4]","[330,220,81,280,61,240,21,190,51,350,161,260,131,300,1,71,31,320,340,200,41,11,151,91,310,230,210,171,101,181,141,290,111,270,121,250]","330","93","156.40256897321575","[156.40256897321575]","[63.40256897321575]","[62]","[30,120,300,30,30,120,300,300,300]","0","36","0","150.10000000000582","14.820000000006985","16","[[[""img/mask58.png""],[""img/mask51.png""],[""img/mask23.png""],[""img/mask48.png""],[""img/mask3.png""],[""img/mask21.png""],[""img/mask40.png""],[""img/mask83.png""],[""img/mask89.png""],[""img/mask22.png""],[""img/mask20.png""],[""img/mask79.png""],[""img/mask70.png""],[""img/mask98.png""],[""img/mask12.png""],[""img/mask95.png""],[""img/mask54.png""],[""img/mask93.png""],[""img/mask72.png""],[""img/mask11.png""],[""img/mask87.png""],[""img/mask40.png""],[""img/mask31.png""],[""img/mask66.png""],[""img/mask83.png""],[""img/mask67.png""],[""img/mask70.png""],[""img/mask29.png""],[""img/mask83.png""],[""img/mask84.png""],[""img/mask4.png""],[""img/mask60.png""],[""img/mask57.png""],[""img/mask93.png""],[""img/mask84.png""],[""img/mask49.png""]]]","","[15,29,21,1,28,17,34,35,2,12,5,32,13,30,18,3,19,7,27,24,20,11,26,25,9,31,14,23,16,33,10,22,6,0,8,4]","main","93","many-guess-6"
"","","","","","html-keyboard-response","63","239374","0.0-10.0-0.22","63ed059a43d8d970d47c98a0","640759fa512f630a2bdc333d","6407b70ceb3ac6526f21459c","null","","null","","","","","","","","","","","","","","","","","","","fixation","",""
"","","","","","many-guess-6","64","243214","0.0-10.0-1.22-0.22","63ed059a43d8d970d47c98a0","640759fa512f630a2bdc333d","6407b70ceb3ac6526f21459c","[2304]","","","[2,26,27,22,7,15,14,17,25,30,11,21,28,35,24,6,0,9,5,29,32,19,16,10,3,8,20,13,12,33,31,4,34,18,1,23]","[101,340,330,231,320,121,11,41,141,61,51,181,191,151,350,171,271,161,281,21,251,31,131,261,311,71,211,291,241,1,301,221,81,91,201,111]","101","35","130.28849826773043","[130.28849826773043]","[95.28849826773043]","[94]","[120,30,300,120,30,120,300,300,210]","0","36","0","147.9200000000128","19.839999999996508","16","[[[""img/mask50.png""],[""img/mask76.png""],[""img/mask8.png""],[""img/mask75.png""],[""img/mask74.png""],[""img/mask31.png""],[""img/mask93.png""],[""img/mask79.png""],[""img/mask80.png""],[""img/mask13.png""],[""img/mask96.png""],[""img/mask59.png""],[""img/mask57.png""],[""img/mask7.png""],[""img/mask10.png""],[""img/mask25.png""],[""img/mask51.png""],[""img/mask14.png""],[""img/mask35.png""],[""img/mask87.png""],[""img/mask68.png""],[""img/mask96.png""],[""img/mask30.png""],[""img/mask3.png""],[""img/mask32.png""],[""img/mask54.png""],[""img/mask49.png""],[""img/mask70.png""],[""img/mask44.png""],[""img/mask52.png""],[""img/mask73.png""],[""img/mask75.png""],[""img/mask79.png""],[""img/mask26.png""],[""img/mask58.png""],[""img/mask62.png""]]]","","[2,26,27,22,7,15,14,17,25,30,11,21,28,35,24,6,0,9,5,29,32,19,16,10,3,8,20,13,12,33,31,4,34,18,1,23]","main","35","many-guess-6"
"","","","","","html-keyboard-response","65","243720","0.0-10.0-0.23","63ed059a43d8d970d47c98a0","640759fa512f630a2bdc333d","6407b70ceb3ac6526f21459c","null","","null","","","","","","","","","","","","","","","","","","","fixation","",""
"","","","","","color-precision2","66","248927","0.0-10.0-1.23-0.23","63ed059a43d8d970d47c98a0","640759fa512f630a2bdc333d","6407b70ceb3ac6526f21459c","[2638]","","","[0]","[338]","338","56","29.08606280409655","[29.08606280409655]","[333.08606280409657]","[332]","0","0","1","0","144.5799999999872","996.7600000000093","1000","[[[""img/mask31.png""]]]","","","main","56","color-precision2"
"","","","","","html-keyboard-response","67","249431","0.0-10.0-0.24","63ed059a43d8d970d47c98a0","640759fa512f630a2bdc333d","6407b70ceb3ac6526f21459c","null","","null","","","","","","","","","","","","","","","","","","","fixation","",""
"","","","","","color-precision2","68","252524","0.0-10.0-1.24-0.24","63ed059a43d8d970d47c98a0","640759fa512f630a2bdc333d","6407b70ceb3ac6526f21459c","[763]","","","[3]","[151]","151","92","261.50686508741126","[261.50686508741126]","[169.50686508741126]","[170]","0","0","1","0","148.95999999999185","999.4599999999919","1000","[[[""img/mask93.png""]]]","","","main","92","color-precision2"
"","","","","","html-keyboard-response","69","253031","0.0-10.0-0.25","63ed059a43d8d970d47c98a0","640759fa512f630a2bdc333d","6407b70ceb3ac6526f21459c","null","","null","","","","","","","","","","","","","","","","","","","fixation","",""
"","","","","","color-precision2","70","256607","0.0-10.0-1.25-0.25","63ed059a43d8d970d47c98a0","640759fa512f630a2bdc333d","6407b70ceb3ac6526f21459c","[961]","","","[32]","[174]","174","96","282.63051182242816","[282.63051182242816]","[186.63051182242816]","[187]","0","0","1","0","150.20000000001164","1001.7799999999988","1000","[[[""img/mask34.png""]]]","","","main","96","color-precision2"
"","","","","","html-keyboard-response","71","257113","0.0-10.0-0.26","63ed059a43d8d970d47c98a0","640759fa512f630a2bdc333d","6407b70ceb3ac6526f21459c","null","","null","","","","","","","","","","","","","","","","","","","fixation","",""
"","","","","","color-precision2","72","260791","0.0-10.0-1.26-0.26","63ed059a43d8d970d47c98a0","640759fa512f630a2bdc333d","6407b70ceb3ac6526f21459c","[1214]","","","[9]","[132]","132","157","317.7074810632936","[317.7074810632936]","[160.70748106329359]","[161]","0","0","1","0","162.61999999999534","1002.1000000000058","1000","[[[""img/mask15.png""]]]","","","main","157","color-precision2"
"","","","","","html-keyboard-response","73","261296","0.0-10.0-0.27","63ed059a43d8d970d47c98a0","640759fa512f630a2bdc333d","6407b70ceb3ac6526f21459c","null","","null","","","","","","","","","","","","","","","","","","","fixation","",""
"","","","","","color-precision2","74","265178","0.0-10.0-1.27-0.27","63ed059a43d8d970d47c98a0","640759fa512f630a2bdc333d","6407b70ceb3ac6526f21459c","[1411]","","","[12]","[20]","20","112","136.7531539780083","[136.7531539780083]","[24.7531539780083]","[24]","0","0","1","0","148.40000000002328","1001.7800000000279","1000","[[[""img/mask33.png""]]]","","","main","112","color-precision2"
"","","","","","html-keyboard-response","75","265684","0.0-10.0-0.28","63ed059a43d8d970d47c98a0","640759fa512f630a2bdc333d","6407b70ceb3ac6526f21459c","null","","null","","","","","","","","","","","","","","","","","","","fixation","",""
"","","","","","many-guess-6","76","268665","0.0-10.0-1.28-0.28","63ed059a43d8d970d47c98a0","640759fa512f630a2bdc333d","6407b70ceb3ac6526f21459c","[1488]","","","[1,18,23,14,24,15,11,17,32,3,20,16,12,9,10,2,25,21,35,4,33,29,22,7,13,6,19,5,30,28,8,0,26,34,27,31]","[225,265,334,95,324,55,195,245,175,25,354,275,235,125,305,75,295,85,35,145,185,115,344,65,45,285,215,105,155,135,205,165,15,315,255,5]","225","141","254.5115759283258","[254.5115759283258]","[113.51157592832581]","[114]","[120,30,210,210,300,210,30,300,120]","0","36","0","148.02000000001863","16.15999999997439","16","[[[""img/mask80.png""],[""img/mask85.png""],[""img/mask21.png""],[""img/mask94.png""],[""img/mask62.png""],[""img/mask5.png""],[""img/mask88.png""],[""img/mask14.png""],[""img/mask80.png""],[""img/mask75.png""],[""img/mask63.png""],[""img/mask86.png""],[""img/mask85.png""],[""img/mask94.png""],[""img/mask83.png""],[""img/mask20.png""],[""img/mask42.png""],[""img/mask17.png""],[""img/mask99.png""],[""img/mask73.png""],[""img/mask52.png""],[""img/mask27.png""],[""img/mask6.png""],[""img/mask24.png""],[""img/mask63.png""],[""img/mask73.png""],[""img/mask11.png""],[""img/mask13.png""],[""img/mask92.png""],[""img/mask47.png""],[""img/mask78.png""],[""img/mask39.png""],[""img/mask98.png""],[""img/mask45.png""],[""img/mask5.png""],[""img/mask81.png""]]]","","[1,18,23,14,24,15,11,17,32,3,20,16,12,9,10,2,25,21,35,4,33,29,22,7,13,6,19,5,30,28,8,0,26,34,27,31]","main","141","many-guess-6"
"","","","","","html-keyboard-response","77","269167","0.0-10.0-0.29","63ed059a43d8d970d47c98a0","640759fa512f630a2bdc333d","6407b70ceb3ac6526f21459c","null","","null","","","","","","","","","","","","","","","","","","","fixation","",""
"","","","","","color-precision2","78","272521","0.0-10.0-1.29-0.29","63ed059a43d8d970d47c98a0","640759fa512f630a2bdc333d","6407b70ceb3ac6526f21459c","[869]","","","[5]","[118]","118","24","147.06849537625678","[147.06849537625678]","[123.06849537625678]","[122]","0","0","1","0","148.67999999999302","1002.140000000014","1000","[[[""img/mask58.png""]]]","","","main","24","color-precision2"
"","","","","","html-keyboard-response","79","273027","0.0-10.0-0.30","63ed059a43d8d970d47c98a0","640759fa512f630a2bdc333d","6407b70ceb3ac6526f21459c","null","","null","","","","","","","","","","","","","","","","","","","fixation","",""
"","","","","","many-guess-6","80","276653","0.0-10.0-1.30-0.30","63ed059a43d8d970d47c98a0","640759fa512f630a2bdc333d","6407b70ceb3ac6526f21459c","[2349]","","","[33,25,12,29,13,6,17,15,18,30,22,10,11,32,5,34,8,7,26,24,31,27,21,35,4,16,23,2,1,28,0,3,9,14,20,19]","[162,102,122,92,42,251,52,211,351,231,152,331,62,191,301,261,321,112,12,82,181,172,32,221,311,241,72,281,201,341,22,142,132,291,2,271]","162","139","48.220020263405374","[48.220020263405374]","[269.2200202634054]","[268]","[210,300,120,210,300,300,300,300,210]","0","36","0","152.32000000000698","19.20000000001164","16","[[[""img/mask65.png""],[""img/mask21.png""],[""img/mask84.png""],[""img/mask34.png""],[""img/mask38.png""],[""img/mask6.png""],[""img/mask5.png""],[""img/mask81.png""],[""img/mask86.png""],[""img/mask55.png""],[""img/mask94.png""],[""img/mask8.png""],[""img/mask68.png""],[""img/mask97.png""],[""img/mask47.png""],[""img/mask60.png""],[""img/mask90.png""],[""img/mask69.png""],[""img/mask78.png""],[""img/mask49.png""],[""img/mask88.png""],[""img/mask41.png""],[""img/mask50.png""],[""img/mask97.png""],[""img/mask28.png""],[""img/mask2.png""],[""img/mask45.png""],[""img/mask92.png""],[""img/mask82.png""],[""img/mask9.png""],[""img/mask11.png""],[""img/mask87.png""],[""img/mask42.png""],[""img/mask65.png""],[""img/mask39.png""],[""img/mask41.png""]]]","","[33,25,12,29,13,6,17,15,18,30,22,10,11,32,5,34,8,7,26,24,31,27,21,35,4,16,23,2,1,28,0,3,9,14,20,19]","main","139","many-guess-6"
"","","","","","html-keyboard-response","81","277159","0.0-10.0-0.31","63ed059a43d8d970d47c98a0","640759fa512f630a2bdc333d","6407b70ceb3ac6526f21459c","null","","null","","","","","","","","","","","","","","","","","","","fixation","",""
"","","","","","many-guess-6","82","280232","0.0-10.0-1.31-0.31","63ed059a43d8d970d47c98a0","640759fa512f630a2bdc333d","6407b70ceb3ac6526f21459c","[1637]","","","[23,11,2,18,24,4,16,28,9,10,15,33,0,26,22,31,17,30,5,12,32,21,14,35,25,29,3,1,7,8,13,19,6,27,20,34]","[259,99,199,10,129,189,49,149,359,79,349,319,19,229,279,269,179,289,39,29,339,239,89,249,139,69,109,209,309,59,159,299,329,169,219,119]","259","262","335.3890387487898","[335.3890387487898]","[73.3890387487898]","[73]","[30,210,30,120,210,210,120,30,120]","0","36","0","152.64000000001397","15.840000000025611","16","[[[""img/mask36.png""],[""img/mask55.png""],[""img/mask56.png""],[""img/mask25.png""],[""img/mask85.png""],[""img/mask93.png""],[""img/mask90.png""],[""img/mask66.png""],[""img/mask87.png""],[""img/mask74.png""],[""img/mask95.png""],[""img/mask44.png""],[""img/mask43.png""],[""img/mask28.png""],[""img/mask88.png""],[""img/mask63.png""],[""img/mask61.png""],[""img/mask3.png""],[""img/mask76.png""],[""img/mask100.png""],[""img/mask95.png""],[""img/mask62.png""],[""img/mask47.png""],[""img/mask13.png""],[""img/mask88.png""],[""img/mask41.png""],[""img/mask82.png""],[""img/mask83.png""],[""img/mask68.png""],[""img/mask95.png""],[""img/mask64.png""],[""img/mask39.png""],[""img/mask57.png""],[""img/mask70.png""],[""img/mask36.png""],[""img/mask95.png""]]]","","[23,11,2,18,24,4,16,28,9,10,15,33,0,26,22,31,17,30,5,12,32,21,14,35,25,29,3,1,7,8,13,19,6,27,20,34]","main","262","many-guess-6"
"","","","","","html-keyboard-response","83","280736","0.0-10.0-0.32","63ed059a43d8d970d47c98a0","640759fa512f630a2bdc333d","6407b70ceb3ac6526f21459c","null","","null","","","","","","","","","","","","","","","","","","","fixation","",""
"","","","","","many-guess-6","84","284183","0.0-10.0-1.32-0.32","63ed059a43d8d970d47c98a0","640759fa512f630a2bdc333d","6407b70ceb3ac6526f21459c","[2097]","","","[18,35,22,23,25,16,30,33,19,2,28,6,14,5,31,32,8,20,11,27,0,17,3,21,10,34,24,15,4,7,26,1,13,12,29,9]","[116,306,256,96,77,216,57,166,226,17,196,156,286,296,206,326,276,126,37,146,246,236,47,186,7,67,86,176,136,266,356,336,27,106,346,316]","116","333","190.31963298651962","[190.31963298651962]","[217.31963298651962]","[217]","[210,300,210,300,300,300,30,30,30]","0","36","0","149.79999999998836","15.5","16","[[[""img/mask21.png""],[""img/mask9.png""],[""img/mask95.png""],[""img/mask9.png""],[""img/mask15.png""],[""img/mask87.png""],[""img/mask55.png""],[""img/mask16.png""],[""img/mask23.png""],[""img/mask8.png""],[""img/mask13.png""],[""img/mask90.png""],[""img/mask5.png""],[""img/mask64.png""],[""img/mask1.png""],[""img/mask46.png""],[""img/mask99.png""],[""img/mask54.png""],[""img/mask70.png""],[""img/mask98.png""],[""img/mask96.png""],[""img/mask50.png""],[""img/mask39.png""],[""img/mask82.png""],[""img/mask29.png""],[""img/mask76.png""],[""img/mask87.png""],[""img/mask63.png""],[""img/mask96.png""],[""img/mask34.png""],[""img/mask56.png""],[""img/mask29.png""],[""img/mask63.png""],[""img/mask75.png""],[""img/mask31.png""],[""img/mask13.png""]]]","","[18,35,22,23,25,16,30,33,19,2,28,6,14,5,31,32,8,20,11,27,0,17,3,21,10,34,24,15,4,7,26,1,13,12,29,9]","main","333","many-guess-6"
"","","","","","html-keyboard-response","85","284689","0.0-10.0-0.33","63ed059a43d8d970d47c98a0","640759fa512f630a2bdc333d","6407b70ceb3ac6526f21459c","null","","null","","","","","","","","","","","","","","","","","","","fixation","",""
"","","","","","color-precision2","86","289224","0.0-10.0-1.33-0.33","63ed059a43d8d970d47c98a0","640759fa512f630a2bdc333d","6407b70ceb3ac6526f21459c","[2187]","","","[6]","[40]","40","236","279.0071250664005","[279.0071250664005]","[43.00712506640048]","[43]","0","0","1","0","148.82000000000698","997.539999999979","1000","[[[""img/mask69.png""]]]","","","main","236","color-precision2"
"","","","","","html-keyboard-response","87","289730","0.0-10.0-0.34","63ed059a43d8d970d47c98a0","640759fa512f630a2bdc333d","6407b70ceb3ac6526f21459c","null","","null","","","","","","","","","","","","","","","","","","","fixation","",""
"","","","","","many-guess-6","88","292855","0.0-10.0-1.34-0.34","63ed059a43d8d970d47c98a0","640759fa512f630a2bdc333d","6407b70ceb3ac6526f21459c","[1776]","","","[19,14,22,12,29,34,30,0,6,31,35,8,17,15,10,21,26,16,33,28,2,18,1,25,7,9,20,4,13,32,27,23,3,11,24,5]","[16,126,106,66,275,36,215,146,255,186,205,325,86,136,225,235,76,176,335,285,166,56,6,245,305,46,195,96,295,116,345,315,355,156,26,265]","16","234","333.80563479162277","[333.80563479162277]","[99.80563479162277]","[99]","[210,300,120,30,30,300,120,30,300]","0","36","0","148.71999999997206","16.20000000001164","16","[[[""img/mask64.png""],[""img/mask66.png""],[""img/mask34.png""],[""img/mask19.png""],[""img/mask51.png""],[""img/mask68.png""],[""img/mask52.png""],[""img/mask87.png""],[""img/mask36.png""],[""img/mask98.png""],[""img/mask90.png""],[""img/mask97.png""],[""img/mask72.png""],[""img/mask47.png""],[""img/mask76.png""],[""img/mask24.png""],[""img/mask92.png""],[""img/mask17.png""],[""img/mask88.png""],[""img/mask78.png""],[""img/mask39.png""],[""img/mask46.png""],[""img/mask59.png""],[""img/mask99.png""],[""img/mask77.png""],[""img/mask75.png""],[""img/mask26.png""],[""img/mask5.png""],[""img/mask82.png""],[""img/mask34.png""],[""img/mask75.png""],[""img/mask16.png""],[""img/mask78.png""],[""img/mask76.png""],[""img/mask64.png""],[""img/mask12.png""]]]","","[19,14,22,12,29,34,30,0,6,31,35,8,17,15,10,21,26,16,33,28,2,18,1,25,7,9,20,4,13,32,27,23,3,11,24,5]","main","234","many-guess-6"
"","","","","","html-keyboard-response","89","293358","0.0-10.0-0.35","63ed059a43d8d970d47c98a0","640759fa512f630a2bdc333d","6407b70ceb3ac6526f21459c","null","","null","","","","","","","","","","","","","","","","","","","fixation","",""
"","","","","","color-precision2","90","296943","0.0-10.0-1.35-0.35","63ed059a43d8d970d47c98a0","640759fa512f630a2bdc333d","6407b70ceb3ac6526f21459c","[1207]","","","[27]","[35]","35","21","51.58136524906664","[51.58136524906664]","[30.581365249066643]","[29]","0","0","1","0","149.82000000000698","1003.4799999999814","1000","[[[""img/mask36.png""]]]","","","main","21","color-precision2"
"","","","","","html-keyboard-response","91","297446","0.0-10.0-0.36","63ed059a43d8d970d47c98a0","640759fa512f630a2bdc333d","6407b70ceb3ac6526f21459c","null","","null","","","","","","","","","","","","","","","","","","","fixation","",""
"","","","","","many-guess-6","92","300932","0.0-10.0-1.36-0.36","63ed059a43d8d970d47c98a0","640759fa512f630a2bdc333d","6407b70ceb3ac6526f21459c","[1988]","","","[9,31,14,30,2,11,32,7,10,29,20,1,17,25,18,34,8,22,13,35,16,33,4,24,28,5,6,0,27,23,19,26,3,21,12,15]","[10,349,79,169,319,109,299,239,209,189,129,159,40,179,20,249,289,359,309,199,259,30,229,279,149,119,219,59,339,89,99,269,139,49,69,329]","10","269","278.421480428673","[278.421480428673]","[9.421480428673021]","[10]","[300,300,300,300,30,300,300,210,300]","0","36","0","150.1599999999744","16.880000000004657","16","[[[""img/mask8.png""],[""img/mask7.png""],[""img/mask2.png""],[""img/mask51.png""],[""img/mask22.png""],[""img/mask71.png""],[""img/mask7.png""],[""img/mask43.png""],[""img/mask52.png""],[""img/mask19.png""],[""img/mask67.png""],[""img/mask100.png""],[""img/mask95.png""],[""img/mask96.png""],[""img/mask84.png""],[""img/mask96.png""],[""img/mask96.png""],[""img/mask37.png""],[""img/mask25.png""],[""img/mask74.png""],[""img/mask5.png""],[""img/mask86.png""],[""img/mask70.png""],[""img/mask11.png""],[""img/mask78.png""],[""img/mask7.png""],[""img/mask42.png""],[""img/mask28.png""],[""img/mask26.png""],[""img/mask80.png""],[""img/mask35.png""],[""img/mask78.png""],[""img/mask75.png""],[""img/mask63.png""],[""img/mask81.png""],[""img/mask10.png""]]]","","[9,31,14,30,2,11,32,7,10,29,20,1,17,25,18,34,8,22,13,35,16,33,4,24,28,5,6,0,27,23,19,26,3,21,12,15]","main","269","many-guess-6"
"","","","","","html-keyboard-response","93","301436","0.0-10.0-0.37","63ed059a43d8d970d47c98a0","640759fa512f630a2bdc333d","6407b70ceb3ac6526f21459c","null","","null","","","","","","","","","","","","","","","","","","","fixation","",""
"","","","","","many-guess-6","94","304238","0.0-10.0-1.37-0.37","63ed059a43d8d970d47c98a0","640759fa512f630a2bdc333d","6407b70ceb3ac6526f21459c","[1353]","","","[30,14,28,18,2,16,1,13,23,32,34,24,0,7,4,10,15,35,21,19,5,12,11,6,27,20,8,26,17,25,33,22,9,29,3,31]","[294,104,214,114,224,184,164,333,353,84,284,144,204,234,34,74,54,343,124,194,44,274,4,314,154,94,264,174,14,244,24,324,304,64,254,134]","294","113","141.08922651544307","[141.08922651544307]","[28.089226515443073]","[27]","[30,120,120,30,300,30,120,120,300]","0","36","0","149.88000000000466","11.580000000016298","16","[[[""img/mask41.png""],[""img/mask72.png""],[""img/mask42.png""],[""img/mask68.png""],[""img/mask43.png""],[""img/mask46.png""],[""img/mask68.png""],[""img/mask63.png""],[""img/mask3.png""],[""img/mask54.png""],[""img/mask17.png""],[""img/mask8.png""],[""img/mask70.png""],[""img/mask60.png""],[""img/mask49.png""],[""img/mask98.png""],[""img/mask13.png""],[""img/mask41.png""],[""img/mask79.png""],[""img/mask14.png""],[""img/mask55.png""],[""img/mask73.png""],[""img/mask27.png""],[""img/mask64.png""],[""img/mask23.png""],[""img/mask2.png""],[""img/mask92.png""],[""img/mask84.png""],[""img/mask7.png""],[""img/mask97.png""],[""img/mask5.png""],[""img/mask51.png""],[""img/mask56.png""],[""img/mask64.png""],[""img/mask72.png""],[""img/mask84.png""]]]","","[30,14,28,18,2,16,1,13,23,32,34,24,0,7,4,10,15,35,21,19,5,12,11,6,27,20,8,26,17,25,33,22,9,29,3,31]","main","113","many-guess-6"
"","","","","","html-keyboard-response","95","304745","0.0-10.0-0.38","63ed059a43d8d970d47c98a0","640759fa512f630a2bdc333d","6407b70ceb3ac6526f21459c","null","","null","","","","","","","","","","","","","","","","","","","fixation","",""
"","","","","","color-precision2","96","308808","0.0-10.0-1.38-0.38","63ed059a43d8d970d47c98a0","640759fa512f630a2bdc333d","6407b70ceb3ac6526f21459c","[1729]","","","[30]","[170]","170","323","137.87377697583747","[137.87377697583747]","[174.87377697583747]","[173]","0","0","1","0","148.52000000001863","1001.2999999999884","1000","[[[""img/mask47.png""]]]","","","main","323","color-precision2"
"","","","","","html-keyboard-response","97","311259","0.0-10.0-0.39","63ed059a43d8d970d47c98a0","640759fa512f630a2bdc333d","6407b70ceb3ac6526f21459c","2450","Wow! You've completed 40 out of 180 trials! </p> <p>  </p><p> Take a quick break, then press any key when you're ready to continue.","enter","","","","","","","","","","","","","","","","","","","fixation","",""
"","","","","","color-precision2","98","315761","0.0-10.0-1.39-0.39","63ed059a43d8d970d47c98a0","640759fa512f630a2bdc333d","6407b70ceb3ac6526f21459c","[1317]","","","[25]","[38]","38","43","71.56279581179157","[71.56279581179157]","[28.562795811791574]","[27]","0","0","1","0","150.1599999999744","998.8400000000256","1000","[[[""img/mask22.png""]]]","","","main","43","color-precision2"
"","","","","","html-keyboard-response","99","316263","0.0-10.0-0.40","63ed059a43d8d970d47c98a0","640759fa512f630a2bdc333d","6407b70ceb3ac6526f21459c","null","","null","","","","","","","","","","","","","","","","","","","fixation","",""
"","","","","","many-guess-6","100","319142","0.0-10.0-1.40-0.40","63ed059a43d8d970d47c98a0","640759fa512f630a2bdc333d","6407b70ceb3ac6526f21459c","[1423]","","","[26,12,10,24,1,20,8,21,11,18,28,19,6,5,34,16,15,2,31,32,4,27,33,3,13,9,23,22,25,29,17,35,0,14,7,30]","[97,356,247,27,87,157,177,77,227,37,127,147,107,237,207,67,217,57,336,187,346,326,197,267,17,277,137,287,257,316,297,167,306,117,7,47]","97","118","28.57039704581397","[28.57039704581397]","[270.57039704581393]","[270]","[120,300,210,120,300,210,300,120,30]","0","36","0","150.79999999998836","18.820000000006985","16","[[[""img/mask3.png""],[""img/mask68.png""],[""img/mask43.png""],[""img/mask88.png""],[""img/mask57.png""],[""img/mask25.png""],[""img/mask52.png""],[""img/mask47.png""],[""img/mask3.png""],[""img/mask82.png""],[""img/mask77.png""],[""img/mask73.png""],[""img/mask98.png""],[""img/mask90.png""],[""img/mask26.png""],[""img/mask89.png""],[""img/mask7.png""],[""img/mask73.png""],[""img/mask71.png""],[""img/mask5.png""],[""img/mask69.png""],[""img/mask25.png""],[""img/mask21.png""],[""img/mask82.png""],[""img/mask19.png""],[""img/mask71.png""],[""img/mask70.png""],[""img/mask28.png""],[""img/mask14.png""],[""img/mask43.png""],[""img/mask75.png""],[""img/mask37.png""],[""img/mask87.png""],[""img/mask45.png""],[""img/mask27.png""],[""img/mask34.png""]]]","","[26,12,10,24,1,20,8,21,11,18,28,19,6,5,34,16,15,2,31,32,4,27,33,3,13,9,23,22,25,29,17,35,0,14,7,30]","main","118","many-guess-6"
"","","","","","html-keyboard-response","101","319648","0.0-10.0-0.41","63ed059a43d8d970d47c98a0","640759fa512f630a2bdc333d","6407b70ceb3ac6526f21459c","null","","null","","","","","","","","","","","","","","","","","","","fixation","",""
"","","","","","many-guess-6","102","325087","0.0-10.0-1.41-0.41","63ed059a43d8d970d47c98a0","640759fa512f630a2bdc333d","6407b70ceb3ac6526f21459c","[4061]","","","[17,1,9,26,6,25,11,2,29,23,15,28,24,16,12,30,27,19,20,21,13,34,31,22,32,14,10,5,8,18,35,0,7,33,4,3]","[198,328,9,108,168,78,38,138,88,208,318,148,348,358,338,48,238,158,118,28,278,188,298,228,248,128,308,58,258,178,19,218,98,68,288,268]","198","346","279.476237658128","[279.476237658128]","[293.476237658128]","[294]","[120,210,210,210,120,30,300,120,210]","0","36","0","148.64000000001397","17.84000000002561","16","[[[""img/mask70.png""],[""img/mask43.png""],[""img/mask92.png""],[""img/mask68.png""],[""img/mask73.png""],[""img/mask50.png""],[""img/mask19.png""],[""img/mask18.png""],[""img/mask27.png""],[""img/mask91.png""],[""img/mask47.png""],[""img/mask32.png""],[""img/mask21.png""],[""img/mask86.png""],[""img/mask25.png""],[""img/mask77.png""],[""img/mask79.png""],[""img/mask93.png""],[""img/mask56.png""],[""img/mask26.png""],[""img/mask77.png""],[""img/mask89.png""],[""img/mask62.png""],[""img/mask45.png""],[""img/mask67.png""],[""img/mask82.png""],[""img/mask59.png""],[""img/mask57.png""],[""img/mask81.png""],[""img/mask36.png""],[""img/mask41.png""],[""img/mask79.png""],[""img/mask15.png""],[""img/mask73.png""],[""img/mask23.png""],[""img/mask7.png""]]]","","[17,1,9,26,6,25,11,2,29,23,15,28,24,16,12,30,27,19,20,21,13,34,31,22,32,14,10,5,8,18,35,0,7,33,4,3]","main","346","many-guess-6"
"","","","","","html-keyboard-response","103","325591","0.0-10.0-0.42","63ed059a43d8d970d47c98a0","640759fa512f630a2bdc333d","6407b70ceb3ac6526f21459c","null","","null","","","","","","","","","","","","","","","","","","","fixation","",""
"","","","","","many-guess-6","104","328925","0.0-10.0-1.42-0.42","63ed059a43d8d970d47c98a0","640759fa512f630a2bdc333d","6407b70ceb3ac6526f21459c","[1913]","","","[33,17,8,28,9,18,15,3,35,30,6,32,2,22,19,23,31,4,10,27,1,12,29,0,25,21,26,7,24,16,14,13,34,20,11,5]","[172,192,302,272,182,212,13,62,292,132,142,262,222,242,92,202,342,312,102,252,282,33,3,72,332,122,232,112,352,82,43,53,23,152,162,322]","172","348","213.92354812143157","[213.92354812143157]","[225.92354812143157]","[226]","[210,30,30,30,30,210,30,30,30]","0","36","0","149.85999999998603","17.520000000018626","16","[[[""img/mask26.png""],[""img/mask43.png""],[""img/mask79.png""],[""img/mask85.png""],[""img/mask10.png""],[""img/mask73.png""],[""img/mask68.png""],[""img/mask9.png""],[""img/mask26.png""],[""img/mask53.png""],[""img/mask10.png""],[""img/mask8.png""],[""img/mask13.png""],[""img/mask52.png""],[""img/mask87.png""],[""img/mask29.png""],[""img/mask41.png""],[""img/mask77.png""],[""img/mask56.png""],[""img/mask15.png""],[""img/mask34.png""],[""img/mask50.png""],[""img/mask55.png""],[""img/mask5.png""],[""img/mask13.png""],[""img/mask42.png""],[""img/mask70.png""],[""img/mask74.png""],[""img/mask87.png""],[""img/mask66.png""],[""img/mask85.png""],[""img/mask92.png""],[""img/mask87.png""],[""img/mask30.png""],[""img/mask16.png""],[""img/mask26.png""]]]","","[33,17,8,28,9,18,15,3,35,30,6,32,2,22,19,23,31,4,10,27,1,12,29,0,25,21,26,7,24,16,14,13,34,20,11,5]","main","348","many-guess-6"
"","","","","","html-keyboard-response","105","329429","0.0-10.0-0.43","63ed059a43d8d970d47c98a0","640759fa512f630a2bdc333d","6407b70ceb3ac6526f21459c","null","","null","","","","","","","","","","","","","","","","","","","fixation","",""
"","","","","","color-precision2","106","333721","0.0-10.0-1.43-0.43","63ed059a43d8d970d47c98a0","640759fa512f630a2bdc333d","6407b70ceb3ac6526f21459c","[1742]","","","[3]","[157]","157","346","150.78780219262035","[150.78780219262035]","[164.78780219262035]","[163]","0","0","1","0","149.55999999999767","1002.7000000000116","1000","[[[""img/mask75.png""]]]","","","main","346","color-precision2"
"","","","","","html-keyboard-response","107","334222","0.0-10.0-0.44","63ed059a43d8d970d47c98a0","640759fa512f630a2bdc333d","6407b70ceb3ac6526f21459c","null","","null","","","","","","","","","","","","","","","","","","","fixation","",""
"","","","","","color-precision2","108","338467","0.0-10.0-1.44-0.44","63ed059a43d8d970d47c98a0","640759fa512f630a2bdc333d","6407b70ceb3ac6526f21459c","[1189]","","","[7]","[231]","231","99","317.7074810632936","[317.7074810632936]","[218.70748106329359]","[219]","0","0","1","0","149.59999999997672","999.2399999999907","1000","[[[""img/mask72.png""]]]","","","main","99","color-precision2"
"","","","","","html-keyboard-response","109","338971","0.0-10.0-0.45","63ed059a43d8d970d47c98a0","640759fa512f630a2bdc333d","6407b70ceb3ac6526f21459c","null","","null","","","","","","","","","","","","","","","","","","","fixation","",""
"","","","","","many-guess-6","110","343671","0.0-10.0-1.45-0.45","63ed059a43d8d970d47c98a0","640759fa512f630a2bdc333d","6407b70ceb3ac6526f21459c","[3317]","","","[0,9,34,15,18,29,3,27,7,23,10,35,25,16,31,24,8,17,12,2,5,20,33,28,19,14,1,11,30,26,22,6,32,13,4,21]","[105,224,25,244,294,314,274,304,195,55,175,85,35,254,284,135,185,234,45,344,205,145,264,95,165,115,15,125,324,5,334,65,214,75,155,354]","105","338","181.69204534088186","[181.69204534088186]","[203.69204534088186]","[203]","[210,210,300,210,300,120,210,120,30]","0","36","0","150.79999999998836","16.21999999997206","16","[[[""img/mask74.png""],[""img/mask96.png""],[""img/mask38.png""],[""img/mask24.png""],[""img/mask17.png""],[""img/mask95.png""],[""img/mask78.png""],[""img/mask98.png""],[""img/mask82.png""],[""img/mask9.png""],[""img/mask61.png""],[""img/mask67.png""],[""img/mask71.png""],[""img/mask70.png""],[""img/mask38.png""],[""img/mask2.png""],[""img/mask79.png""],[""img/mask76.png""],[""img/mask55.png""],[""img/mask4.png""],[""img/mask27.png""],[""img/mask87.png""],[""img/mask100.png""],[""img/mask15.png""],[""img/mask96.png""],[""img/mask7.png""],[""img/mask28.png""],[""img/mask86.png""],[""img/mask81.png""],[""img/mask13.png""],[""img/mask37.png""],[""img/mask58.png""],[""img/mask65.png""],[""img/mask53.png""],[""img/mask70.png""],[""img/mask96.png""]]]","","[0,9,34,15,18,29,3,27,7,23,10,35,25,16,31,24,8,17,12,2,5,20,33,28,19,14,1,11,30,26,22,6,32,13,4,21]","main","338","many-guess-6"
"","","","","","html-keyboard-response","111","344177","0.0-10.0-0.46","63ed059a43d8d970d47c98a0","640759fa512f630a2bdc333d","6407b70ceb3ac6526f21459c","null","","null","","","","","","","","","","","","","","","","","","","fixation","",""
"","","","","","many-guess-6","112","348008","0.0-10.0-1.46-0.46","63ed059a43d8d970d47c98a0","640759fa512f630a2bdc333d","6407b70ceb3ac6526f21459c","[2364]","","","[20,8,0,22,12,9,19,6,11,31,7,32,28,1,15,30,33,25,14,35,10,26,13,21,17,34,29,27,5,16,18,3,2,4,24,23]","[218,188,78,257,18,28,168,138,198,158,208,277,58,227,48,347,307,267,68,247,357,237,38,317,128,98,297,148,108,327,178,287,8,118,337,88]","218","7","19.443159017346336","[19.443159017346336]","[12.443159017346336]","[11]","[210,300,300,30,210,210,30,120,300]","0","36","0","150.2399999999907","18.84000000002561","16","[[[""img/mask53.png""],[""img/mask77.png""],[""img/mask15.png""],[""img/mask74.png""],[""img/mask73.png""],[""img/mask80.png""],[""img/mask79.png""],[""img/mask98.png""],[""img/mask70.png""],[""img/mask41.png""],[""img/mask77.png""],[""img/mask61.png""],[""img/mask24.png""],[""img/mask91.png""],[""img/mask88.png""],[""img/mask26.png""],[""img/mask12.png""],[""img/mask96.png""],[""img/mask95.png""],[""img/mask74.png""],[""img/mask71.png""],[""img/mask91.png""],[""img/mask97.png""],[""img/mask56.png""],[""img/mask73.png""],[""img/mask10.png""],[""img/mask94.png""],[""img/mask73.png""],[""img/mask81.png""],[""img/mask36.png""],[""img/mask57.png""],[""img/mask66.png""],[""img/mask1.png""],[""img/mask68.png""],[""img/mask92.png""],[""img/mask83.png""]]]","","[20,8,0,22,12,9,19,6,11,31,7,32,28,1,15,30,33,25,14,35,10,26,13,21,17,34,29,27,5,16,18,3,2,4,24,23]","main","7","many-guess-6"
"","","","","","html-keyboard-response","113","348514","0.0-10.0-0.47","63ed059a43d8d970d47c98a0","640759fa512f630a2bdc333d","6407b70ceb3ac6526f21459c","null","","null","","","","","","","","","","","","","","","","","","","fixation","",""
"","","","","","color-precision2","114","352386","0.0-10.0-1.47-0.47","63ed059a43d8d970d47c98a0","640759fa512f630a2bdc333d","6407b70ceb3ac6526f21459c","[1342]","","","[2]","[123]","123","199","325.5442534525176","[325.5442534525176]","[126.54425345251758]","[127]","0","0","1","0","148.47999999998137","998.9000000000233","1000","[[[""img/mask60.png""]]]","","","main","199","color-precision2"
"","","","","","html-keyboard-response","115","352893","0.0-10.0-0.48","63ed059a43d8d970d47c98a0","640759fa512f630a2bdc333d","6407b70ceb3ac6526f21459c","null","","null","","","","","","","","","","","","","","","","","","","fixation","",""
"","","","","","color-precision2","116","356354","0.0-10.0-1.48-0.48","63ed059a43d8d970d47c98a0","640759fa512f630a2bdc333d","6407b70ceb3ac6526f21459c","[1041]","","","[9]","[326]","326","259","222.11647551707748","[222.11647551707748]","[323.11647551707745]","[323]","0","0","1","0","149.90000000002328","1001.539999999979","1000","[[[""img/mask14.png""]]]","","","main","259","color-precision2"
"","","","","","html-keyboard-response","117","356856","0.0-10.0-0.49","63ed059a43d8d970d47c98a0","640759fa512f630a2bdc333d","6407b70ceb3ac6526f21459c","null","","null","","","","","","","","","","","","","","","","","","","fixation","",""
"","","","","","many-guess-6","118","360392","0.0-10.0-1.49-0.49","63ed059a43d8d970d47c98a0","640759fa512f630a2bdc333d","6407b70ceb3ac6526f21459c","[2122]","","","[28,27,10,4,9,31,13,32,6,19,35,7,8,3,5,14,1,25,15,30,23,21,0,20,26,17,33,24,22,2,34,12,18,16,29,11]","[116,146,206,76,176,186,126,196,246,17,336,67,356,7,37,226,266,96,47,316,276,156,326,166,286,216,236,57,256,106,27,346,296,136,86,306]","116","51","345.7853456686321","[345.7853456686321]","[294.7853456686321]","[294]","[300,210,30,210,300,120,210,210,210]","0","36","0","146.6599999999744","18.419999999983702","16","[[[""img/mask26.png""],[""img/mask3.png""],[""img/mask33.png""],[""img/mask6.png""],[""img/mask73.png""],[""img/mask24.png""],[""img/mask76.png""],[""img/mask87.png""],[""img/mask50.png""],[""img/mask78.png""],[""img/mask97.png""],[""img/mask13.png""],[""img/mask71.png""],[""img/mask92.png""],[""img/mask46.png""],[""img/mask71.png""],[""img/mask65.png""],[""img/mask60.png""],[""img/mask61.png""],[""img/mask86.png""],[""img/mask67.png""],[""img/mask74.png""],[""img/mask59.png""],[""img/mask97.png""],[""img/mask54.png""],[""img/mask14.png""],[""img/mask61.png""],[""img/mask12.png""],[""img/mask39.png""],[""img/mask17.png""],[""img/mask22.png""],[""img/mask49.png""],[""img/mask20.png""],[""img/mask58.png""],[""img/mask69.png""],[""img/mask5.png""]]]","","[28,27,10,4,9,31,13,32,6,19,35,7,8,3,5,14,1,25,15,30,23,21,0,20,26,17,33,24,22,2,34,12,18,16,29,11]","main","51","many-guess-6"
"","","","","","html-keyboard-response","119","360897","0.0-10.0-0.50","63ed059a43d8d970d47c98a0","640759fa512f630a2bdc333d","6407b70ceb3ac6526f21459c","null","","null","","","","","","","","","","","","","","","","","","","fixation","",""
"","","","","","many-guess-6","120","364357","0.0-10.0-1.50-0.50","63ed059a43d8d970d47c98a0","640759fa512f630a2bdc333d","6407b70ceb3ac6526f21459c","[2021]","","","[20,26,31,34,21,3,18,7,9,22,28,33,5,6,14,15,35,1,13,29,24,12,4,0,16,8,10,2,25,23,30,17,27,11,19,32]","[208,308,258,278,168,228,338,59,9,118,98,78,128,218,148,288,49,158,358,248,138,298,198,318,108,19,88,39,69,188,348,29,268,178,328,238]","208","154","250.18921779598026","[250.18921779598026]","[96.18921779598026]","[96]","[300,120,30,210,120,120,120,300,210]","0","36","0","149.88000000000466","18.55999999999767","16","[[[""img/mask54.png""],[""img/mask34.png""],[""img/mask13.png""],[""img/mask75.png""],[""img/mask77.png""],[""img/mask48.png""],[""img/mask38.png""],[""img/mask44.png""],[""img/mask64.png""],[""img/mask73.png""],[""img/mask59.png""],[""img/mask44.png""],[""img/mask17.png""],[""img/mask57.png""],[""img/mask72.png""],[""img/mask15.png""],[""img/mask67.png""],[""img/mask66.png""],[""img/mask30.png""],[""img/mask99.png""],[""img/mask58.png""],[""img/mask38.png""],[""img/mask32.png""],[""img/mask61.png""],[""img/mask37.png""],[""img/mask39.png""],[""img/mask71.png""],[""img/mask89.png""],[""img/mask62.png""],[""img/mask86.png""],[""img/mask40.png""],[""img/mask74.png""],[""img/mask35.png""],[""img/mask48.png""],[""img/mask50.png""],[""img/mask67.png""]]]","","[20,26,31,34,21,3,18,7,9,22,28,33,5,6,14,15,35,1,13,29,24,12,4,0,16,8,10,2,25,23,30,17,27,11,19,32]","main","154","many-guess-6"
"","","","","","html-keyboard-response","121","364859","0.0-10.0-0.51","63ed059a43d8d970d47c98a0","640759fa512f630a2bdc333d","6407b70ceb3ac6526f21459c","null","","null","","","","","","","","","","","","","","","","","","","fixation","",""
"","","","","","many-guess-6","122","368175","0.0-10.0-1.51-0.51","63ed059a43d8d970d47c98a0","640759fa512f630a2bdc333d","6407b70ceb3ac6526f21459c","[1930]","","","[2,7,16,32,35,21,8,17,14,13,22,20,9,34,29,4,26,15,27,0,18,19,33,28,24,11,5,25,12,31,3,30,23,10,1,6]","[88,29,338,168,278,248,258,138,178,68,78,308,49,318,59,118,328,298,19,188,228,128,148,268,98,238,108,158,358,39,288,218,208,198,9,348]","88","119","45.97102442888038","[45.97102442888038]","[286.97102442888036]","[285]","[210,210,120,30,30,300,300,120,300]","0","36","0","149.21999999997206","16.919999999983702","16","[[[""img/mask5.png""],[""img/mask16.png""],[""img/mask65.png""],[""img/mask78.png""],[""img/mask24.png""],[""img/mask91.png""],[""img/mask21.png""],[""img/mask79.png""],[""img/mask31.png""],[""img/mask18.png""],[""img/mask33.png""],[""img/mask91.png""],[""img/mask9.png""],[""img/mask76.png""],[""img/mask54.png""],[""img/mask95.png""],[""img/mask25.png""],[""img/mask31.png""],[""img/mask26.png""],[""img/mask64.png""],[""img/mask49.png""],[""img/mask24.png""],[""img/mask43.png""],[""img/mask29.png""],[""img/mask45.png""],[""img/mask76.png""],[""img/mask45.png""],[""img/mask31.png""],[""img/mask28.png""],[""img/mask36.png""],[""img/mask60.png""],[""img/mask98.png""],[""img/mask53.png""],[""img/mask9.png""],[""img/mask23.png""],[""img/mask4.png""]]]","","[2,7,16,32,35,21,8,17,14,13,22,20,9,34,29,4,26,15,27,0,18,19,33,28,24,11,5,25,12,31,3,30,23,10,1,6]","main","119","many-guess-6"
"","","","","","html-keyboard-response","123","368680","0.0-10.0-0.52","63ed059a43d8d970d47c98a0","640759fa512f630a2bdc333d","6407b70ceb3ac6526f21459c","null","","null","","","","","","","","","","","","","","","","","","","fixation","",""
"","","","","","many-guess-6","124","372730","0.0-10.0-1.52-0.52","63ed059a43d8d970d47c98a0","640759fa512f630a2bdc333d","6407b70ceb3ac6526f21459c","[2642]","","","[20,9,26,30,16,3,28,25,17,35,27,33,1,13,5,34,24,10,2,22,0,11,8,7,12,21,4,14,32,15,31,6,18,29,19,23]","[197,77,207,87,357,277,177,287,307,8,167,117,187,327,257,47,247,267,217,227,337,317,67,237,107,127,157,18,97,38,297,347,57,137,147,28]","197","340","127.49105228239112","[127.49105228239112]","[147.49105228239114]","[146]","[120,210,210,210,300,30,120,300,300]","0","36","0","151.1599999999744","16.580000000016298","16","[[[""img/mask87.png""],[""img/mask72.png""],[""img/mask68.png""],[""img/mask85.png""],[""img/mask51.png""],[""img/mask58.png""],[""img/mask63.png""],[""img/mask83.png""],[""img/mask30.png""],[""img/mask16.png""],[""img/mask56.png""],[""img/mask7.png""],[""img/mask38.png""],[""img/mask87.png""],[""img/mask4.png""],[""img/mask37.png""],[""img/mask6.png""],[""img/mask67.png""],[""img/mask30.png""],[""img/mask23.png""],[""img/mask61.png""],[""img/mask59.png""],[""img/mask49.png""],[""img/mask1.png""],[""img/mask68.png""],[""img/mask15.png""],[""img/mask20.png""],[""img/mask56.png""],[""img/mask80.png""],[""img/mask11.png""],[""img/mask54.png""],[""img/mask58.png""],[""img/mask61.png""],[""img/mask35.png""],[""img/mask33.png""],[""img/mask33.png""]]]","","[20,9,26,30,16,3,28,25,17,35,27,33,1,13,5,34,24,10,2,22,0,11,8,7,12,21,4,14,32,15,31,6,18,29,19,23]","main","340","many-guess-6"
"","","","","","html-keyboard-response","125","373235","0.0-10.0-0.53","63ed059a43d8d970d47c98a0","640759fa512f630a2bdc333d","6407b70ceb3ac6526f21459c","null","","null","","","","","","","","","","","","","","","","","","","fixation","",""
"","","","","","many-guess-6","126","376434","0.0-10.0-1.53-0.53","63ed059a43d8d970d47c98a0","640759fa512f630a2bdc333d","6407b70ceb3ac6526f21459c","[1712]","","","[30,25,15,31,16,10,11,34,0,3,14,7,23,18,9,6,27,17,32,5,21,19,2,28,8,12,22,33,29,24,20,35,1,26,13,4]","[32,322,112,142,52,82,262,172,12,292,332,92,302,72,252,162,242,352,232,342,22,272,102,62,122,282,42,3,152,192,182,202,312,222,132,212]","32","309","343.2403076068173","[343.2403076068173]","[34.24030760681728]","[34]","[120,120,30,210,300,210,210,210,300]","0","36","0","152.85999999998603","18.94000000000233","16","[[[""img/mask16.png""],[""img/mask76.png""],[""img/mask32.png""],[""img/mask30.png""],[""img/mask89.png""],[""img/mask69.png""],[""img/mask63.png""],[""img/mask32.png""],[""img/mask32.png""],[""img/mask70.png""],[""img/mask75.png""],[""img/mask1.png""],[""img/mask48.png""],[""img/mask58.png""],[""img/mask22.png""],[""img/mask13.png""],[""img/mask62.png""],[""img/mask50.png""],[""img/mask44.png""],[""img/mask82.png""],[""img/mask33.png""],[""img/mask60.png""],[""img/mask85.png""],[""img/mask60.png""],[""img/mask95.png""],[""img/mask22.png""],[""img/mask18.png""],[""img/mask37.png""],[""img/mask98.png""],[""img/mask25.png""],[""img/mask53.png""],[""img/mask54.png""],[""img/mask26.png""],[""img/mask28.png""],[""img/mask70.png""],[""img/mask99.png""]]]","","[30,25,15,31,16,10,11,34,0,3,14,7,23,18,9,6,27,17,32,5,21,19,2,28,8,12,22,33,29,24,20,35,1,26,13,4]","main","309","many-guess-6"
"","","","","","html-keyboard-response","127","376940","0.0-10.0-0.54","63ed059a43d8d970d47c98a0","640759fa512f630a2bdc333d","6407b70ceb3ac6526f21459c","null","","null","","","","","","","","","","","","","","","","","","","fixation","",""
"","","","","","color-precision2","128","380707","0.0-10.0-1.54-0.54","63ed059a43d8d970d47c98a0","640759fa512f630a2bdc333d","6407b70ceb3ac6526f21459c","[1303]","","","[32]","[247]","247","173","60.343097437430266","[60.343097437430266]","[247.34309743743026]","[247]","0","0","1","0","150.5800000000163","998.2399999999907","1000","[[[""img/mask98.png""]]]","","","main","173","color-precision2"
"","","","","","html-keyboard-response","129","381212","0.0-10.0-0.55","63ed059a43d8d970d47c98a0","640759fa512f630a2bdc333d","6407b70ceb3ac6526f21459c","null","","null","","","","","","","","","","","","","","","","","","","fixation","",""
"","","","","","color-precision2","130","384551","0.0-10.0-1.55-0.55","63ed059a43d8d970d47c98a0","640759fa512f630a2bdc333d","6407b70ceb3ac6526f21459c","[1064]","","","[21]","[66]","66","243","315.735737663431","[315.735737663431]","[72.735737663431]","[72]","0","0","1","0","149.94000000000233","998.5599999999977","1000","[[[""img/mask14.png""]]]","","","main","243","color-precision2"
"","","","","","html-keyboard-response","131","385056","0.0-10.0-0.56","63ed059a43d8d970d47c98a0","640759fa512f630a2bdc333d","6407b70ceb3ac6526f21459c","null","","null","","","","","","","","","","","","","","","","","","","fixation","",""
"","","","","","color-precision2","132","388564","0.0-10.0-1.56-0.56","63ed059a43d8d970d47c98a0","640759fa512f630a2bdc333d","6407b70ceb3ac6526f21459c","[1156]","","","[17]","[256]","256","295","191.48000409341083","[191.48000409341083]","[256.4800040934108]","[256]","0","0","1","0","147.46000000002095","1000.5999999999767","1000","[[[""img/mask23.png""]]]","","","main","295","color-precision2"
"","","","","","html-keyboard-response","133","389070","0.0-10.0-0.57","63ed059a43d8d970d47c98a0","640759fa512f630a2bdc333d","6407b70ceb3ac6526f21459c","null","","null","","","","","","","","","","","","","","","","","","","fixation","",""
"","","","","","many-guess-6","134","392828","0.0-10.0-1.57-0.57","63ed059a43d8d970d47c98a0","640759fa512f630a2bdc333d","6407b70ceb3ac6526f21459c","[1853]","","","[27,16,3,14,26,29,34,23,17,21,13,11,2,12,25,6,30,1,5,22,9,35,15,19,31,33,20,8,28,4,24,32,18,0,7,10]","[230,250,50,40,300,320,200,240,210,340,140,80,220,290,180,10,110,310,330,100,120,190,70,60,280,30,90,150,160,260,170,130,20,349,270,359]","230","110","301.8301345990418","[301.8301345990418]","[191.8301345990418]","[192]","[30,30,30,30,300,120,120,210,120]","0","36","0","148.1599999999744","14.320000000006985","16","[[[""img/mask57.png""],[""img/mask7.png""],[""img/mask86.png""],[""img/mask44.png""],[""img/mask41.png""],[""img/mask11.png""],[""img/mask76.png""],[""img/mask37.png""],[""img/mask88.png""],[""img/mask74.png""],[""img/mask93.png""],[""img/mask62.png""],[""img/mask73.png""],[""img/mask31.png""],[""img/mask71.png""],[""img/mask12.png""],[""img/mask1.png""],[""img/mask96.png""],[""img/mask45.png""],[""img/mask46.png""],[""img/mask77.png""],[""img/mask72.png""],[""img/mask14.png""],[""img/mask17.png""],[""img/mask20.png""],[""img/mask97.png""],[""img/mask16.png""],[""img/mask25.png""],[""img/mask80.png""],[""img/mask39.png""],[""img/mask86.png""],[""img/mask42.png""],[""img/mask1.png""],[""img/mask18.png""],[""img/mask62.png""],[""img/mask52.png""]]]","","[27,16,3,14,26,29,34,23,17,21,13,11,2,12,25,6,30,1,5,22,9,35,15,19,31,33,20,8,28,4,24,32,18,0,7,10]","main","110","many-guess-6"
"","","","","","html-keyboard-response","135","393334","0.0-10.0-0.58","63ed059a43d8d970d47c98a0","640759fa512f630a2bdc333d","6407b70ceb3ac6526f21459c","null","","null","","","","","","","","","","","","","","","","","","","fixation","",""
"","","","","","many-guess-6","136","396659","0.0-10.0-1.58-0.58","63ed059a43d8d970d47c98a0","640759fa512f630a2bdc333d","6407b70ceb3ac6526f21459c","[1799]","","","[11,35,4,8,23,16,17,22,9,31,33,7,14,27,20,25,21,0,6,15,29,13,30,32,12,26,5,10,2,3,18,1,19,24,34,28]","[86,206,106,6,56,46,235,126,265,285,355,76,186,275,136,166,255,176,305,345,16,196,146,26,295,116,96,335,36,245,325,66,315,216,156,225]","86","106","154.51249665432954","[154.51249665432954]","[48.51249665432954]","[48]","[210,300,300,120,30,120,300,210,300]","0","36","0","151.5800000000163","19.55999999999767","16","[[[""img/mask1.png""],[""img/mask77.png""],[""img/mask47.png""],[""img/mask27.png""],[""img/mask5.png""],[""img/mask55.png""],[""img/mask65.png""],[""img/mask31.png""],[""img/mask89.png""],[""img/mask83.png""],[""img/mask44.png""],[""img/mask7.png""],[""img/mask50.png""],[""img/mask74.png""],[""img/mask11.png""],[""img/mask88.png""],[""img/mask52.png""],[""img/mask43.png""],[""img/mask13.png""],[""img/mask91.png""],[""img/mask89.png""],[""img/mask33.png""],[""img/mask68.png""],[""img/mask65.png""],[""img/mask47.png""],[""img/mask95.png""],[""img/mask72.png""],[""img/mask57.png""],[""img/mask35.png""],[""img/mask7.png""],[""img/mask89.png""],[""img/mask27.png""],[""img/mask29.png""],[""img/mask75.png""],[""img/mask84.png""],[""img/mask94.png""]]]","","[11,35,4,8,23,16,17,22,9,31,33,7,14,27,20,25,21,0,6,15,29,13,30,32,12,26,5,10,2,3,18,1,19,24,34,28]","main","106","many-guess-6"
"","","","","","html-keyboard-response","137","398744","0.0-10.0-0.59","63ed059a43d8d970d47c98a0","640759fa512f630a2bdc333d","6407b70ceb3ac6526f21459c","2084","Wow! You've completed 60 out of 180 trials! </p> <p>  </p><p> Take a quick break, then press any key when you're ready to continue.","enter","","","","","","","","","","","","","","","","","","","fixation","",""
"","","","","","color-precision2","138","403529","0.0-10.0-1.59-0.59","63ed059a43d8d970d47c98a0","640759fa512f630a2bdc333d","6407b70ceb3ac6526f21459c","[1169]","","","[14]","[305]","305","96","28.592459164015672","[28.592459164015672]","[292.5924591640157]","[291]","0","0","1","0","149.47999999998137","1002.5800000000163","1000","[[[""img/mask75.png""]]]","","","main","96","color-precision2"
"","","","","","html-keyboard-response","139","404035","0.0-10.0-0.60","63ed059a43d8d970d47c98a0","640759fa512f630a2bdc333d","6407b70ceb3ac6526f21459c","null","","null","","","","","","","","","","","","","","","","","","","fixation","",""
"","","","","","color-precision2","140","406893","0.0-10.0-1.60-0.60","63ed059a43d8d970d47c98a0","640759fa512f630a2bdc333d","6407b70ceb3ac6526f21459c","[499]","","","[28]","[2]","2","131","135.35647879801397","[135.35647879801397]","[4.356478798013967]","[3]","0","0","1","0","149.2600000000093","995.9199999999837","1000","[[[""img/mask54.png""]]]","","","main","131","color-precision2"
"","","","","","html-keyboard-response","141","407398","0.0-10.0-0.61","63ed059a43d8d970d47c98a0","640759fa512f630a2bdc333d","6407b70ceb3ac6526f21459c","null","","null","","","","","","","","","","","","","","","","","","","fixation","",""
"","","","","","many-guess-6","142","410239","0.0-10.0-1.61-0.61","63ed059a43d8d970d47c98a0","640759fa512f630a2bdc333d","6407b70ceb3ac6526f21459c","[1703]","","","[26,7,2,15,17,0,34,22,19,35,1,21,12,29,11,13,30,5,16,27,28,8,20,18,32,6,23,10,14,33,24,31,9,4,25,3]","[288,318,169,268,79,29,69,328,39,49,199,149,179,139,89,189,249,99,239,159,258,219,358,338,348,229,109,119,129,19,9,278,209,298,59,308]","288","44","55.85580934637999","[55.85580934637999]","[11.855809346379992]","[10]","[30,30,30,120,210,300,210,30,30]","0","36","0","149.94000000000233","15.619999999995343","16","[[[""img/mask32.png""],[""img/mask47.png""],[""img/mask44.png""],[""img/mask80.png""],[""img/mask51.png""],[""img/mask4.png""],[""img/mask92.png""],[""img/mask76.png""],[""img/mask79.png""],[""img/mask93.png""],[""img/mask37.png""],[""img/mask96.png""],[""img/mask69.png""],[""img/mask29.png""],[""img/mask45.png""],[""img/mask22.png""],[""img/mask90.png""],[""img/mask87.png""],[""img/mask68.png""],[""img/mask67.png""],[""img/mask34.png""],[""img/mask25.png""],[""img/mask5.png""],[""img/mask64.png""],[""img/mask38.png""],[""img/mask23.png""],[""img/mask58.png""],[""img/mask50.png""],[""img/mask98.png""],[""img/mask96.png""],[""img/mask95.png""],[""img/mask18.png""],[""img/mask27.png""],[""img/mask84.png""],[""img/mask63.png""],[""img/mask69.png""]]]","","[26,7,2,15,17,0,34,22,19,35,1,21,12,29,11,13,30,5,16,27,28,8,20,18,32,6,23,10,14,33,24,31,9,4,25,3]","main","44","many-guess-6"
"","","","","","html-keyboard-response","143","410744","0.0-10.0-0.62","63ed059a43d8d970d47c98a0","640759fa512f630a2bdc333d","6407b70ceb3ac6526f21459c","null","","null","","","","","","","","","","","","","","","","","","","fixation","",""
"","","","","","color-precision2","144","414979","0.0-10.0-1.62-0.62","63ed059a43d8d970d47c98a0","640759fa512f630a2bdc333d","6407b70ceb3ac6526f21459c","[779]","","","[31]","[184]","184","157","327.5336863845388","[327.5336863845388]","[170.53368638453878]","[170]","0","0","1","0","152.9199999999837","1001.9400000000023","1000","[[[""img/mask85.png""]]]","","","main","157","color-precision2"
"","","","","","html-keyboard-response","145","415483","0.0-10.0-0.63","63ed059a43d8d970d47c98a0","640759fa512f630a2bdc333d","6407b70ceb3ac6526f21459c","null","","null","","","","","","","","","","","","","","","","","","","fixation","",""
"","","","","","many-guess-6","146","418624","0.0-10.0-1.63-0.63","63ed059a43d8d970d47c98a0","640759fa512f630a2bdc333d","6407b70ceb3ac6526f21459c","[1644]","","","[27,16,25,34,19,33,10,18,35,0,21,29,3,30,12,1,32,9,17,7,5,15,20,23,26,22,24,4,14,13,11,28,2,6,8,31]","[351,152,291,281,12,161,132,311,171,42,211,181,122,251,271,92,2,341,201,82,221,62,231,72,52,112,191,32,321,22,102,301,142,261,241,331]","351","123","351.29884188760315","[351.29884188760315]","[228.29884188760315]","[228]","[210,120,210,120,300,120,120,210,210]","0","36","0","152.2399999999907","17.28000000002794","16","[[[""img/mask23.png""],[""img/mask59.png""],[""img/mask77.png""],[""img/mask60.png""],[""img/mask100.png""],[""img/mask71.png""],[""img/mask72.png""],[""img/mask84.png""],[""img/mask14.png""],[""img/mask5.png""],[""img/mask36.png""],[""img/mask28.png""],[""img/mask84.png""],[""img/mask81.png""],[""img/mask75.png""],[""img/mask52.png""],[""img/mask32.png""],[""img/mask63.png""],[""img/mask66.png""],[""img/mask11.png""],[""img/mask78.png""],[""img/mask10.png""],[""img/mask7.png""],[""img/mask15.png""],[""img/mask94.png""],[""img/mask55.png""],[""img/mask2.png""],[""img/mask6.png""],[""img/mask18.png""],[""img/mask99.png""],[""img/mask47.png""],[""img/mask47.png""],[""img/mask47.png""],[""img/mask47.png""],[""img/mask81.png""],[""img/mask56.png""]]]","","[27,16,25,34,19,33,10,18,35,0,21,29,3,30,12,1,32,9,17,7,5,15,20,23,26,22,24,4,14,13,11,28,2,6,8,31]","main","123","many-guess-6"
"","","","","","html-keyboard-response","147","419129","0.0-10.0-0.64","63ed059a43d8d970d47c98a0","640759fa512f630a2bdc333d","6407b70ceb3ac6526f21459c","null","","null","","","","","","","","","","","","","","","","","","","fixation","",""
"","","","","","many-guess-6","148","422308","0.0-10.0-1.64-0.64","63ed059a43d8d970d47c98a0","640759fa512f630a2bdc333d","6407b70ceb3ac6526f21459c","[1815]","","","[30,35,22,13,21,14,16,19,3,20,17,2,29,5,1,4,15,24,10,12,25,27,34,6,32,11,28,23,18,8,26,0,7,33,31,9]","[283,134,154,14,203,164,213,94,64,24,54,293,223,44,114,84,34,333,4,253,243,313,343,353,183,144,74,174,233,193,104,323,303,263,124,273]","283","200","247.09484416605568","[247.09484416605568]","[47.09484416605568]","[48]","[120,300,210,30,210,210,120,210,30]","0","36","0","149.52000000001863","12.64000000001397","16","[[[""img/mask16.png""],[""img/mask40.png""],[""img/mask65.png""],[""img/mask15.png""],[""img/mask81.png""],[""img/mask23.png""],[""img/mask11.png""],[""img/mask75.png""],[""img/mask21.png""],[""img/mask28.png""],[""img/mask12.png""],[""img/mask18.png""],[""img/mask59.png""],[""img/mask67.png""],[""img/mask80.png""],[""img/mask23.png""],[""img/mask98.png""],[""img/mask69.png""],[""img/mask90.png""],[""img/mask50.png""],[""img/mask88.png""],[""img/mask18.png""],[""img/mask2.png""],[""img/mask36.png""],[""img/mask97.png""],[""img/mask100.png""],[""img/mask53.png""],[""img/mask67.png""],[""img/mask90.png""],[""img/mask71.png""],[""img/mask56.png""],[""img/mask51.png""],[""img/mask59.png""],[""img/mask24.png""],[""img/mask1.png""],[""img/mask76.png""]]]","","[30,35,22,13,21,14,16,19,3,20,17,2,29,5,1,4,15,24,10,12,25,27,34,6,32,11,28,23,18,8,26,0,7,33,31,9]","main","200","many-guess-6"
"","","","","","html-keyboard-response","149","422814","0.0-10.0-0.65","63ed059a43d8d970d47c98a0","640759fa512f630a2bdc333d","6407b70ceb3ac6526f21459c","null","","null","","","","","","","","","","","","","","","","","","","fixation","",""
"","","","","","many-guess-6","150","426782","0.0-10.0-1.65-0.65","63ed059a43d8d970d47c98a0","640759fa512f630a2bdc333d","6407b70ceb3ac6526f21459c","[2487]","","","[13,12,7,32,16,33,22,19,23,9,1,10,2,5,20,6,21,14,28,15,17,25,35,11,31,34,26,29,4,0,3,24,30,8,18,27]","[58,88,98,307,258,337,68,317,208,48,28,287,148,118,297,248,38,218,138,277,188,198,78,18,228,108,168,8,238,178,347,267,357,128,158,327]","58","307","176.38239320633758","[176.38239320633758]","[229.38239320633758]","[228]","[120,300,300,30,210,120,300,30,30]","0","36","0","149.29999999998836","15","16","[[[""img/mask66.png""],[""img/mask69.png""],[""img/mask15.png""],[""img/mask55.png""],[""img/mask6.png""],[""img/mask9.png""],[""img/mask56.png""],[""img/mask95.png""],[""img/mask93.png""],[""img/mask71.png""],[""img/mask12.png""],[""img/mask84.png""],[""img/mask47.png""],[""img/mask65.png""],[""img/mask32.png""],[""img/mask64.png""],[""img/mask17.png""],[""img/mask20.png""],[""img/mask25.png""],[""img/mask43.png""],[""img/mask63.png""],[""img/mask59.png""],[""img/mask63.png""],[""img/mask61.png""],[""img/mask41.png""],[""img/mask65.png""],[""img/mask80.png""],[""img/mask88.png""],[""img/mask23.png""],[""img/mask49.png""],[""img/mask58.png""],[""img/mask27.png""],[""img/mask3.png""],[""img/mask30.png""],[""img/mask65.png""],[""img/mask2.png""]]]","","[13,12,7,32,16,33,22,19,23,9,1,10,2,5,20,6,21,14,28,15,17,25,35,11,31,34,26,29,4,0,3,24,30,8,18,27]","main","307","many-guess-6"
"","","","","","html-keyboard-response","151","427288","0.0-10.0-0.66","63ed059a43d8d970d47c98a0","640759fa512f630a2bdc333d","6407b70ceb3ac6526f21459c","null","","null","","","","","","","","","","","","","","","","","","","fixation","",""
"","","","","","color-precision2","152","431279","0.0-10.0-1.66-0.66","63ed059a43d8d970d47c98a0","640759fa512f630a2bdc333d","6407b70ceb3ac6526f21459c","[1492]","","","[18]","[166]","166","299","102.08114968146357","[102.08114968146357]","[163.08114968146356]","[161]","0","0","1","0","149.05999999999767","996.5999999999767","1000","[[[""img/mask16.png""]]]","","","main","299","color-precision2"
"","","","","","html-keyboard-response","153","431782","0.0-10.0-0.67","63ed059a43d8d970d47c98a0","640759fa512f630a2bdc333d","6407b70ceb3ac6526f21459c","null","","null","","","","","","","","","","","","","","","","","","","fixation","",""
"","","","","","color-precision2","154","434898","0.0-10.0-1.67-0.67","63ed059a43d8d970d47c98a0","640759fa512f630a2bdc333d","6407b70ceb3ac6526f21459c","[879]","","","[3]","[113]","113","125","237.06024345043585","[237.06024345043585]","[112.06024345043585]","[113]","0","0","1","0","148.82000000000698","1000.0200000000186","1000","[[[""img/mask42.png""]]]","","","main","125","color-precision2"
"","","","","","html-keyboard-response","155","435406","0.0-10.0-0.68","63ed059a43d8d970d47c98a0","640759fa512f630a2bdc333d","6407b70ceb3ac6526f21459c","null","","null","","","","","","","","","","","","","","","","","","","fixation","",""
"","","","","","many-guess-6","156","439320","0.0-10.0-1.68-0.68","63ed059a43d8d970d47c98a0","640759fa512f630a2bdc333d","6407b70ceb3ac6526f21459c","[2030]","","","[6,20,11,14,23,2,5,12,18,28,3,16,9,31,19,30,35,10,29,26,27,4,13,7,21,1,33,8,24,25,32,17,0,15,34,22]","[343,233,104,223,183,273,243,303,4,14,173,54,333,34,133,113,253,153,323,143,44,74,283,293,24,123,353,84,263,64,94,203,213,193,163,313]","343","76","322.1305779535462","[322.1305779535462]","[246.1305779535462]","[246]","[30,120,30,30,120,120,300,210,300]","0","36","0","150.1599999999744","14.840000000025611","16","[[[""img/mask86.png""],[""img/mask68.png""],[""img/mask27.png""],[""img/mask36.png""],[""img/mask83.png""],[""img/mask44.png""],[""img/mask62.png""],[""img/mask9.png""],[""img/mask10.png""],[""img/mask4.png""],[""img/mask24.png""],[""img/mask4.png""],[""img/mask45.png""],[""img/mask30.png""],[""img/mask48.png""],[""img/mask26.png""],[""img/mask55.png""],[""img/mask87.png""],[""img/mask74.png""],[""img/mask24.png""],[""img/mask44.png""],[""img/mask14.png""],[""img/mask49.png""],[""img/mask73.png""],[""img/mask71.png""],[""img/mask20.png""],[""img/mask51.png""],[""img/mask26.png""],[""img/mask28.png""],[""img/mask1.png""],[""img/mask1.png""],[""img/mask97.png""],[""img/mask92.png""],[""img/mask27.png""],[""img/mask38.png""],[""img/mask97.png""]]]","","[6,20,11,14,23,2,5,12,18,28,3,16,9,31,19,30,35,10,29,26,27,4,13,7,21,1,33,8,24,25,32,17,0,15,34,22]","main","76","many-guess-6"
"","","","","","html-keyboard-response","157","439827","0.0-10.0-0.69","63ed059a43d8d970d47c98a0","640759fa512f630a2bdc333d","6407b70ceb3ac6526f21459c","null","","null","","","","","","","","","","","","","","","","","","","fixation","",""
"","","","","","many-guess-6","158","442804","0.0-10.0-1.69-0.69","63ed059a43d8d970d47c98a0","640759fa512f630a2bdc333d","6407b70ceb3ac6526f21459c","[1377]","","","[29,28,9,16,11,5,22,21,26,23,2,32,1,7,34,14,4,33,19,13,18,17,30,0,25,20,3,35,31,24,6,15,8,10,12,27]","[171,101,121,191,2,231,32,141,321,52,291,151,241,62,311,72,42,251,181,111,261,91,281,82,22,12,131,161,201,341,331,211,301,221,271,351]","171","41","187.7062475337608","[187.7062475337608]","[146.7062475337608]","[146]","[210,30,210,300,210,210,120,30,210]","0","36","0","149.64000000001397","13.35999999998603","16","[[[""img/mask65.png""],[""img/mask82.png""],[""img/mask81.png""],[""img/mask49.png""],[""img/mask38.png""],[""img/mask20.png""],[""img/mask2.png""],[""img/mask80.png""],[""img/mask32.png""],[""img/mask11.png""],[""img/mask33.png""],[""img/mask72.png""],[""img/mask49.png""],[""img/mask57.png""],[""img/mask15.png""],[""img/mask31.png""],[""img/mask19.png""],[""img/mask98.png""],[""img/mask26.png""],[""img/mask69.png""],[""img/mask28.png""],[""img/mask20.png""],[""img/mask19.png""],[""img/mask39.png""],[""img/mask53.png""],[""img/mask8.png""],[""img/mask27.png""],[""img/mask39.png""],[""img/mask15.png""],[""img/mask11.png""],[""img/mask86.png""],[""img/mask22.png""],[""img/mask44.png""],[""img/mask28.png""],[""img/mask95.png""],[""img/mask66.png""]]]","","[29,28,9,16,11,5,22,21,26,23,2,32,1,7,34,14,4,33,19,13,18,17,30,0,25,20,3,35,31,24,6,15,8,10,12,27]","main","41","many-guess-6"
"","","","","","html-keyboard-response","159","443309","0.0-10.0-0.70","63ed059a43d8d970d47c98a0","640759fa512f630a2bdc333d","6407b70ceb3ac6526f21459c","null","","null","","","","","","","","","","","","","","","","","","","fixation","",""
"","","","","","many-guess-6","160","446568","0.0-10.0-1.70-0.70","63ed059a43d8d970d47c98a0","640759fa512f630a2bdc333d","6407b70ceb3ac6526f21459c","[1898]","","","[4,28,20,11,18,24,3,34,13,2,14,32,0,23,35,21,29,25,22,10,27,19,30,1,12,8,15,31,9,7,16,17,5,26,33,6]","[28,327,357,297,167,227,67,287,257,197,177,107,77,247,87,57,337,97,127,267,38,347,237,117,137,147,187,157,317,277,207,8,307,217,48,18]","28","134","131.60277952424138","[131.60277952424138]","[357.6027795242414]","[356]","[30,30,30,30,300,30,300,30,300]","0","36","0","149.29999999998836","18.960000000020955","16","[[[""img/mask99.png""],[""img/mask52.png""],[""img/mask4.png""],[""img/mask35.png""],[""img/mask16.png""],[""img/mask16.png""],[""img/mask20.png""],[""img/mask30.png""],[""img/mask20.png""],[""img/mask93.png""],[""img/mask40.png""],[""img/mask26.png""],[""img/mask100.png""],[""img/mask60.png""],[""img/mask87.png""],[""img/mask50.png""],[""img/mask8.png""],[""img/mask38.png""],[""img/mask34.png""],[""img/mask69.png""],[""img/mask78.png""],[""img/mask73.png""],[""img/mask57.png""],[""img/mask27.png""],[""img/mask82.png""],[""img/mask12.png""],[""img/mask36.png""],[""img/mask94.png""],[""img/mask19.png""],[""img/mask35.png""],[""img/mask29.png""],[""img/mask91.png""],[""img/mask49.png""],[""img/mask77.png""],[""img/mask1.png""],[""img/mask9.png""]]]","","[4,28,20,11,18,24,3,34,13,2,14,32,0,23,35,21,29,25,22,10,27,19,30,1,12,8,15,31,9,7,16,17,5,26,33,6]","main","134","many-guess-6"
"","","","","","html-keyboard-response","161","447074","0.0-10.0-0.71","63ed059a43d8d970d47c98a0","640759fa512f630a2bdc333d","6407b70ceb3ac6526f21459c","null","","null","","","","","","","","","","","","","","","","","","","fixation","",""
"","","","","","color-precision2","162","451307","0.0-10.0-1.71-0.71","63ed059a43d8d970d47c98a0","640759fa512f630a2bdc333d","6407b70ceb3ac6526f21459c","[1822]","","","[35]","[288]","288","322","246.37141537064898","[246.37141537064898]","[284.37141537064895]","[284]","0","0","1","0","149.96000000002095","998.640000000014","1000","[[[""img/mask24.png""]]]","","","main","322","color-precision2"
