"success","timeout","failed_images","failed_audio","failed_video","trial_type","trial_index","time_elapsed","internal_node_id","subject_id","study_id","session_id","rt","stimulus","response","position_of_items","colors_of_items","color_of_target","wheel_spin","response_angle","physical_response_angle","reported_color_angle","reported_color_discrete","locs","which_test","set_size","wheel_num_options","actual_mask_duration","actual_stim_duration","CMDispTime","maskArray","maskRotation","item_positions","task","randomSpinAmount","mainTask"
"true","false","[]","[]","[]","preload","0","7010","0.0-0.0","63ed04d2ce3b27bda2fbbb9c","640759fa512f630a2bdc333d","6408c174d622b9d5c03a5603","","","","","","","","","","","","","","","","","","","","","","","",""
"true","","","","","fullscreen","1","9919","0.0-1.0","63ed04d2ce3b27bda2fbbb9c","640759fa512f630a2bdc333d","6408c174d622b9d5c03a5603","","","","","","","","","","","","","","","","","","","","","","","",""
"","","","","","html-keyboard-response","2","18862","0.0-2.0","63ed04d2ce3b27bda2fbbb9c","640759fa512f630a2bdc333d","6408c174d622b9d5c03a5603","8939","What a beautiful Wednesday to do some awesome science! </p> <p>  </p><p> </p>
    By completing this survey or questionnaire, you are consenting to be in this research study. </p>
    Your participation is voluntary and you can stop at any time.<p> [Press any key to continue] </p>"," ","","","","","","","","","","","","","","","","","","","","",""
"","","","","","html-keyboard-response","3","28864","0.0-3.0","63ed04d2ce3b27bda2fbbb9c","640759fa512f630a2bdc333d","6408c174d622b9d5c03a5603","null","
    <div style='width: 1000px;'>
    <div style='float: center;'><img src='img/TaskInstructions1.png'></img>
    </div>
    ","null","","","","","","","","","","","","","","","","","","","","",""
"","","","","","html-keyboard-response","4","36671","0.0-4.0","63ed04d2ce3b27bda2fbbb9c","640759fa512f630a2bdc333d","6408c174d622b9d5c03a5603","7807","
    <div style='width: 1000px;'>
    <div style='float: center;'><img src='img/TaskInstructions1.png'></img>
    </div>
    "," ","","","","","","","","","","","","","","","","","","","","",""
"","","","","","html-keyboard-response","5","46675","0.0-5.0","63ed04d2ce3b27bda2fbbb9c","640759fa512f630a2bdc333d","6408c174d622b9d5c03a5603","null","
    <div style='width: 1000px;'>
    <div style='float: center;'><img src='img/TaskInstructions2.png'></img>
    </div>
    ","null","","","","","","","","","","","","","","","","","","","","",""
"","","","","","html-keyboard-response","6","69692","0.0-6.0","63ed04d2ce3b27bda2fbbb9c","640759fa512f630a2bdc333d","6408c174d622b9d5c03a5603","23016","
    <div style='width: 1000px;'>
    <div style='float: center;'><img src='img/TaskInstructions2.png'></img>
    </div>
    "," ","","","","","","","","","","","","","","","","","","","","",""
"","","","","","video-keyboard-response","7","90975","0.0-7.0","63ed04d2ce3b27bda2fbbb9c","640759fa512f630a2bdc333d","6408c174d622b9d5c03a5603","21261","[""video/TaskInstructions3.mp4""]"," ","","","","","","","","","","","","","","","","","","","","",""
"","","","","","image-keyboard-response","8","96511","0.0-8.0-0.0","63ed04d2ce3b27bda2fbbb9c","640759fa512f630a2bdc333d","6408c174d622b9d5c03a5603","5533","img/training1.png"," ","","","","","","","","","","","","","","","","","","","","",""
"","","","","","color-precision2","9","109643","0.0-8.0-1.0-0.0","63ed04d2ce3b27bda2fbbb9c","640759fa512f630a2bdc333d","6408c174d622b9d5c03a5603","[5238]","","","[30]","[160]","160","25","193.31449940737897","[193.31449940737897]","[168.31449940737897]","[168]","0","0","1","0","500.11999999999534","993.7400000000052","1000","","","0","training","",""
"","","","","","image-keyboard-response","10","123330","0.0-8.0-0.1","63ed04d2ce3b27bda2fbbb9c","640759fa512f630a2bdc333d","6408c174d622b9d5c03a5603","13685","img/training2.png"," ","","","","","","","","","","","","","","","","","","","","",""
"","","","","","many-guess-6","11","133955","0.0-8.0-1.1-0.1","63ed04d2ce3b27bda2fbbb9c","640759fa512f630a2bdc333d","6408c174d622b9d5c03a5603","[2830]","","","[13,11,2]","[358,38,329]","358","131","129.20355099700035","[129.20355099700035]","[358.2035509970003]","[358]","[30,120,210,210,120,120,120,210,210,30,300,120,30,30,210,300,300,30,120,30,120,120,300,120,120,30,120,120,300,30,30,120,120,30,30,30]","0","3","0","999.359999999986","997.179999999993","1000","[[[""img/mask27.png""],[""img/mask95.png""],[""img/mask99.png""]]]","","[13,11,2]","training","",""
"","","","","","image-keyboard-response","12","138268","0.0-8.0-0.2","63ed04d2ce3b27bda2fbbb9c","640759fa512f630a2bdc333d","6408c174d622b9d5c03a5603","4312","img/training3.png"," ","","","","","","","","","","","","","","","","","","","","",""
"","","","","","[""many-guess-6""]","13","145162","0.0-8.0-1.2-0.2","63ed04d2ce3b27bda2fbbb9c","640759fa512f630a2bdc333d","6408c174d622b9d5c03a5603","[2338]","","","[8,15,18,11,2]","[319,47,296,358,99]","319","332","211.17888780274126","[211.17888780274126]","[239.17888780274126]","[239]","[120,300,30,210,300,210,120,300,30,300,300,120,120,120,30,30,30,210,300,120,300,210,30,30,30,120,120,120,300,120,210,30,120,120,300,120]","0","5","0","498.679999999993","501.20000000001164","500","[[[""img/mask19.png""],[""img/mask73.png""],[""img/mask55.png""],[""img/mask47.png""],[""img/mask48.png""]]]","","[8,15,18,11,2]","training","",""
"","","","","","image-keyboard-response","14","147693","0.0-8.0-0.3","63ed04d2ce3b27bda2fbbb9c","640759fa512f630a2bdc333d","6408c174d622b9d5c03a5603","2529","img/training4.png"," ","","","","","","","","","","","","","","","","","","","","",""
"","","","","","[""many-guess-6""]","15","155499","0.0-8.0-1.3-0.3","63ed04d2ce3b27bda2fbbb9c","640759fa512f630a2bdc333d","6408c174d622b9d5c03a5603","[4646]","","","[18,27,0,33,15,10,3,31,34,6]","[219,133,275,110,146,84,159,54,242,194]","219","245","47.87066031549114","[47.87066031549114]","[162.87066031549114]","[161]","[30,120,120,30,30,30,210,120,120,210,30,300,120,210,120,30,30,120,30,300,210,120,300,210,300,210,120,210,300,120,120,210,30,30,300,210]","0","10","0","132.55999999999767","138.61999999999534","132","[[[""img/mask48.png""],[""img/mask18.png""],[""img/mask7.png""],[""img/mask96.png""],[""img/mask75.png""],[""img/mask73.png""],[""img/mask100.png""],[""img/mask46.png""],[""img/mask54.png""],[""img/mask82.png""]]]","","[18,27,0,33,15,10,3,31,34,6]","training","",""
"","","","","","image-keyboard-response","16","158351","0.0-8.0-0.4","63ed04d2ce3b27bda2fbbb9c","640759fa512f630a2bdc333d","6408c174d622b9d5c03a5603","2852","img/training5.png"," ","","","","","","","","","","","","","","","","","","","","",""
"","","","","","[""many-guess-6""]","17","164091","0.0-8.0-1.4-0.4","63ed04d2ce3b27bda2fbbb9c","640759fa512f630a2bdc333d","6408c174d622b9d5c03a5603","[2958]","","","[29,2,5,24,23,4,26,0,20,19,22,33,10,28,12,3,17,8,34,16,25,15,11,1,13,31,35,21,9,6,32,27,14,18,30,7]","[229,309,359,189,70,279,149,289,199,239,40,110,130,60,179,90,20,100,259,269,159,169,120,319,339,219,50,140,80,349,299,329,249,30,209,10]","229","55","31.99426336695468","[31.99426336695468]","[336.99426336695467]","[336]","[120,120,30,210,300,210,210,120,210,300,210,300,120,120,210,120,120,300,300,300,120,30,30,300,210,300,210,120,300,30,30,300,120,210,210,30]","0","36","0","132.32000000000698","27.380000000004657","16","[[[""img/mask73.png""],[""img/mask91.png""],[""img/mask50.png""],[""img/mask18.png""],[""img/mask99.png""],[""img/mask5.png""],[""img/mask99.png""],[""img/mask89.png""],[""img/mask29.png""],[""img/mask2.png""],[""img/mask48.png""],[""img/mask53.png""],[""img/mask54.png""],[""img/mask64.png""],[""img/mask43.png""],[""img/mask56.png""],[""img/mask42.png""],[""img/mask40.png""],[""img/mask21.png""],[""img/mask91.png""],[""img/mask15.png""],[""img/mask73.png""],[""img/mask62.png""],[""img/mask50.png""],[""img/mask54.png""],[""img/mask89.png""],[""img/mask50.png""],[""img/mask82.png""],[""img/mask1.png""],[""img/mask23.png""],[""img/mask5.png""],[""img/mask13.png""],[""img/mask22.png""],[""img/mask28.png""],[""img/mask21.png""],[""img/mask66.png""]]]","","[29,2,5,24,23,4,26,0,20,19,22,33,10,28,12,3,17,8,34,16,25,15,11,1,13,31,35,21,9,6,32,27,14,18,30,7]","training","",""
"","","","","","image-keyboard-response","18","165728","0.0-9.0","63ed04d2ce3b27bda2fbbb9c","640759fa512f630a2bdc333d","6408c174d622b9d5c03a5603","1621","[""img/endTraining.png""]"," ","","","","","","","","","","","","","","","","","","","","",""
"","","","","","many-guess-6","19","174579","0.0-10.0-0.0-0.0","63ed04d2ce3b27bda2fbbb9c","640759fa512f630a2bdc333d","6408c174d622b9d5c03a5603","[4700]","","","[0,34,24,33,13,17,19,5,32,21,3,23,31,9,10,14,7,16,11,8,2,26,30,20,4,29,15,25,12,22,6,27,1,28,35,18]","[133,153,203,242,342,33,272,223,282,93,23,143,252,103,123,73,83,43,352,262,322,13,173,3,113,292,53,312,213,332,63,183,302,193,163,233]","133","39","289.5488342454855","[289.5488342454855]","[250.54883424548552]","[251]","[120,120,120,30,120,30,120,120,120]","0","36","0","148.5","21.89999999999418","16","[[[""img/mask43.png""],[""img/mask56.png""],[""img/mask62.png""],[""img/mask48.png""],[""img/mask88.png""],[""img/mask55.png""],[""img/mask36.png""],[""img/mask1.png""],[""img/mask24.png""],[""img/mask56.png""],[""img/mask59.png""],[""img/mask29.png""],[""img/mask50.png""],[""img/mask36.png""],[""img/mask13.png""],[""img/mask32.png""],[""img/mask67.png""],[""img/mask89.png""],[""img/mask70.png""],[""img/mask41.png""],[""img/mask25.png""],[""img/mask10.png""],[""img/mask1.png""],[""img/mask21.png""],[""img/mask67.png""],[""img/mask37.png""],[""img/mask71.png""],[""img/mask55.png""],[""img/mask91.png""],[""img/mask29.png""],[""img/mask40.png""],[""img/mask35.png""],[""img/mask63.png""],[""img/mask90.png""],[""img/mask91.png""],[""img/mask24.png""]]]","","[0,34,24,33,13,17,19,5,32,21,3,23,31,9,10,14,7,16,11,8,2,26,30,20,4,29,15,25,12,22,6,27,1,28,35,18]","main","39","many-guess-6"
"","","","","","html-keyboard-response","20","175092","0.0-10.0-1.0","63ed04d2ce3b27bda2fbbb9c","640759fa512f630a2bdc333d","6408c174d622b9d5c03a5603","null","","null","","","","","","","","","","","","","","","","","","","fixation","",""
"","","","","","many-guess-6","21","180299","0.0-10.0-0.1-0.1","63ed04d2ce3b27bda2fbbb9c","640759fa512f630a2bdc333d","6408c174d622b9d5c03a5603","[2776]","","","[26,6,34,0,32,8,17,18,28,11,33,30,5,24,16,7,31,35,3,21,27,23,14,19,9,22,15,20,4,1,13,29,25,2,10,12]","[159,278,139,248,29,79,129,9,39,348,168,19,149,268,89,298,99,218,358,178,109,288,318,208,69,228,258,328,188,119,338,308,49,198,59,238]","159","87","135.06284255300332","[135.06284255300332]","[48.06284255300332]","[47]","[30,300,210,120,210,300,120,210,120]","0","36","0","148.54000000000815","19.94000000000233","16","[[[""img/mask25.png""],[""img/mask43.png""],[""img/mask24.png""],[""img/mask32.png""],[""img/mask21.png""],[""img/mask14.png""],[""img/mask63.png""],[""img/mask78.png""],[""img/mask22.png""],[""img/mask62.png""],[""img/mask24.png""],[""img/mask39.png""],[""img/mask48.png""],[""img/mask60.png""],[""img/mask81.png""],[""img/mask6.png""],[""img/mask71.png""],[""img/mask91.png""],[""img/mask85.png""],[""img/mask74.png""],[""img/mask39.png""],[""img/mask96.png""],[""img/mask51.png""],[""img/mask9.png""],[""img/mask32.png""],[""img/mask40.png""],[""img/mask44.png""],[""img/mask72.png""],[""img/mask62.png""],[""img/mask20.png""],[""img/mask69.png""],[""img/mask31.png""],[""img/mask23.png""],[""img/mask4.png""],[""img/mask7.png""],[""img/mask61.png""]]]","","[26,6,34,0,32,8,17,18,28,11,33,30,5,24,16,7,31,35,3,21,27,23,14,19,9,22,15,20,4,1,13,29,25,2,10,12]","main","87","many-guess-6"
"","","","","","html-keyboard-response","22","180807","0.0-10.0-1.1","63ed04d2ce3b27bda2fbbb9c","640759fa512f630a2bdc333d","6408c174d622b9d5c03a5603","null","","null","","","","","","","","","","","","","","","","","","","fixation","",""
"","","","","","many-guess-6","23","187427","0.0-10.0-0.2-0.2","63ed04d2ce3b27bda2fbbb9c","640759fa512f630a2bdc333d","6408c174d622b9d5c03a5603","[4863]","","","[25,35,2,13,20,16,34,11,27,26,23,4,17,0,3,18,7,30,31,14,10,1,21,9,19,5,33,24,6,32,12,29,8,28,22,15]","[11,31,250,80,110,160,200,71,240,340,290,140,320,350,51,330,270,150,280,130,190,1,120,310,230,21,300,220,180,61,170,100,41,90,260,210]","11","324","207.51136431369204","[207.51136431369204]","[243.51136431369204]","[243]","[120,30,30,300,30,120,120,30,300]","0","36","0","149.8399999999965","19.239999999990687","16","[[[""img/mask88.png""],[""img/mask97.png""],[""img/mask49.png""],[""img/mask75.png""],[""img/mask20.png""],[""img/mask38.png""],[""img/mask53.png""],[""img/mask45.png""],[""img/mask4.png""],[""img/mask6.png""],[""img/mask82.png""],[""img/mask35.png""],[""img/mask99.png""],[""img/mask16.png""],[""img/mask31.png""],[""img/mask8.png""],[""img/mask75.png""],[""img/mask41.png""],[""img/mask62.png""],[""img/mask58.png""],[""img/mask15.png""],[""img/mask59.png""],[""img/mask2.png""],[""img/mask50.png""],[""img/mask78.png""],[""img/mask86.png""],[""img/mask1.png""],[""img/mask80.png""],[""img/mask65.png""],[""img/mask86.png""],[""img/mask95.png""],[""img/mask10.png""],[""img/mask6.png""],[""img/mask76.png""],[""img/mask5.png""],[""img/mask74.png""]]]","","[25,35,2,13,20,16,34,11,27,26,23,4,17,0,3,18,7,30,31,14,10,1,21,9,19,5,33,24,6,32,12,29,8,28,22,15]","main","324","many-guess-6"
"","","","","","html-keyboard-response","24","187935","0.0-10.0-1.2","63ed04d2ce3b27bda2fbbb9c","640759fa512f630a2bdc333d","6408c174d622b9d5c03a5603","null","","null","","","","","","","","","","","","","","","","","","","fixation","",""
"","","","","","color-precision2","25","198234","0.0-10.0-0.3-0.3","63ed04d2ce3b27bda2fbbb9c","640759fa512f630a2bdc333d","6408c174d622b9d5c03a5603","[7294]","","","[34]","[89]","89","17","89.8078320161766","[89.8078320161766]","[72.8078320161766]","[71]","0","0","1","0","149.45999999999185","999.8399999999965","1000","[[[""img/mask38.png""]]]","","","main","17","color-precision2"
"","","","","","html-keyboard-response","26","198737","0.0-10.0-1.3","63ed04d2ce3b27bda2fbbb9c","640759fa512f630a2bdc333d","6408c174d622b9d5c03a5603","null","","null","","","","","","","","","","","","","","","","","","","fixation","",""
"","","","","","many-guess-6","27","203946","0.0-10.0-0.4-0.4","63ed04d2ce3b27bda2fbbb9c","640759fa512f630a2bdc333d","6408c174d622b9d5c03a5603","[2774]","","","[8,14,35,34,5,6,25,29,19,15,12,20,32,3,16,9,18,23,17,28,24,10,1,33,13,21,7,11,31,22,27,26,4,2,0,30]","[158,198,258,68,39,268,318,108,238,128,78,188,58,208,228,358,248,298,118,138,98,348,328,148,48,9,218,88,29,19,308,168,178,338,288,278]","158","342","335.31592191259415","[335.31592191259415]","[353.31592191259415]","[353]","[300,120,210,30,30,210,120,210,300]","0","36","0","148.72000000000116","21.119999999995343","16","[[[""img/mask19.png""],[""img/mask49.png""],[""img/mask89.png""],[""img/mask30.png""],[""img/mask4.png""],[""img/mask36.png""],[""img/mask62.png""],[""img/mask34.png""],[""img/mask98.png""],[""img/mask39.png""],[""img/mask25.png""],[""img/mask78.png""],[""img/mask53.png""],[""img/mask7.png""],[""img/mask43.png""],[""img/mask13.png""],[""img/mask5.png""],[""img/mask83.png""],[""img/mask63.png""],[""img/mask22.png""],[""img/mask60.png""],[""img/mask43.png""],[""img/mask32.png""],[""img/mask82.png""],[""img/mask69.png""],[""img/mask85.png""],[""img/mask93.png""],[""img/mask42.png""],[""img/mask55.png""],[""img/mask33.png""],[""img/mask100.png""],[""img/mask34.png""],[""img/mask86.png""],[""img/mask21.png""],[""img/mask45.png""],[""img/mask62.png""]]]","","[8,14,35,34,5,6,25,29,19,15,12,20,32,3,16,9,18,23,17,28,24,10,1,33,13,21,7,11,31,22,27,26,4,2,0,30]","main","342","many-guess-6"
"","","","","","html-keyboard-response","28","204448","0.0-10.0-1.4","63ed04d2ce3b27bda2fbbb9c","640759fa512f630a2bdc333d","6408c174d622b9d5c03a5603","null","","null","","","","","","","","","","","","","","","","","","","fixation","",""
"","","","","","many-guess-6","29","212362","0.0-10.0-0.5-0.5","63ed04d2ce3b27bda2fbbb9c","640759fa512f630a2bdc333d","6408c174d622b9d5c03a5603","[5734]","","","[17,21,26,5,6,18,25,16,11,4,35,13,3,34,31,1,24,8,22,12,0,32,28,20,7,33,29,30,14,19,15,9,2,23,27,10]","[261,42,281,52,271,151,211,201,2,221,301,72,251,131,321,351,331,171,121,22,32,112,161,92,12,311,62,82,102,191,231,181,241,141,341,291]","261","133","139.24806886162955","[139.24806886162955]","[6.248068861629548]","[5]","[120,120,300,300,210,300,120,120,30]","0","36","0","149.01999999998952","19.420000000012806","16","[[[""img/mask80.png""],[""img/mask71.png""],[""img/mask8.png""],[""img/mask43.png""],[""img/mask42.png""],[""img/mask31.png""],[""img/mask93.png""],[""img/mask55.png""],[""img/mask37.png""],[""img/mask3.png""],[""img/mask70.png""],[""img/mask2.png""],[""img/mask96.png""],[""img/mask15.png""],[""img/mask59.png""],[""img/mask99.png""],[""img/mask5.png""],[""img/mask81.png""],[""img/mask94.png""],[""img/mask30.png""],[""img/mask31.png""],[""img/mask60.png""],[""img/mask25.png""],[""img/mask74.png""],[""img/mask41.png""],[""img/mask91.png""],[""img/mask44.png""],[""img/mask36.png""],[""img/mask5.png""],[""img/mask65.png""],[""img/mask33.png""],[""img/mask97.png""],[""img/mask67.png""],[""img/mask2.png""],[""img/mask88.png""],[""img/mask51.png""]]]","","[17,21,26,5,6,18,25,16,11,4,35,13,3,34,31,1,24,8,22,12,0,32,28,20,7,33,29,30,14,19,15,9,2,23,27,10]","main","133","many-guess-6"
"","","","","","html-keyboard-response","30","212877","0.0-10.0-1.5","63ed04d2ce3b27bda2fbbb9c","640759fa512f630a2bdc333d","6408c174d622b9d5c03a5603","null","","null","","","","","","","","","","","","","","","","","","","fixation","",""
"","","","","","many-guess-6","31","218194","0.0-10.0-0.6-0.6","63ed04d2ce3b27bda2fbbb9c","640759fa512f630a2bdc333d","6408c174d622b9d5c03a5603","[3171]","","","[17,29,7,25,16,24,13,30,15,27,11,33,26,12,14,10,3,31,32,22,0,20,28,9,8,4,2,6,5,23,34,19,18,1,35,21]","[297,87,8,117,357,237,38,48,147,67,107,327,317,287,97,227,277,197,157,137,57,257,77,207,187,177,217,18,267,247,307,347,337,127,167,28]","297","141","39.60917421329672","[39.60917421329672]","[258.6091742132967]","[257]","[120,300,120,120,30,30,120,30,300]","0","36","0","149.22000000000116","11.619999999995343","16","[[[""img/mask33.png""],[""img/mask90.png""],[""img/mask90.png""],[""img/mask79.png""],[""img/mask100.png""],[""img/mask91.png""],[""img/mask77.png""],[""img/mask32.png""],[""img/mask57.png""],[""img/mask2.png""],[""img/mask26.png""],[""img/mask88.png""],[""img/mask35.png""],[""img/mask95.png""],[""img/mask92.png""],[""img/mask63.png""],[""img/mask1.png""],[""img/mask22.png""],[""img/mask86.png""],[""img/mask44.png""],[""img/mask67.png""],[""img/mask70.png""],[""img/mask33.png""],[""img/mask86.png""],[""img/mask89.png""],[""img/mask70.png""],[""img/mask49.png""],[""img/mask76.png""],[""img/mask33.png""],[""img/mask38.png""],[""img/mask25.png""],[""img/mask66.png""],[""img/mask59.png""],[""img/mask42.png""],[""img/mask26.png""],[""img/mask62.png""]]]","","[17,29,7,25,16,24,13,30,15,27,11,33,26,12,14,10,3,31,32,22,0,20,28,9,8,4,2,6,5,23,34,19,18,1,35,21]","main","141","many-guess-6"
"","","","","","html-keyboard-response","32","218703","0.0-10.0-1.6","63ed04d2ce3b27bda2fbbb9c","640759fa512f630a2bdc333d","6408c174d622b9d5c03a5603","null","","null","","","","","","","","","","","","","","","","","","","fixation","",""
"","","","","","color-precision2","33","223682","0.0-10.0-0.7-0.7","63ed04d2ce3b27bda2fbbb9c","640759fa512f630a2bdc333d","6408c174d622b9d5c03a5603","[2132]","","","[21]","[260]","260","161","49.098178685251234","[49.098178685251234]","[248.09817868525124]","[247]","0","0","1","0","150.04000000000815","999.4400000000023","1000","[[[""img/mask74.png""]]]","","","main","161","color-precision2"
"","","","","","html-keyboard-response","34","224193","0.0-10.0-1.7","63ed04d2ce3b27bda2fbbb9c","640759fa512f630a2bdc333d","6408c174d622b9d5c03a5603","null","","null","","","","","","","","","","","","","","","","","","","fixation","",""
"","","","","","color-precision2","35","227930","0.0-10.0-0.8-0.8","63ed04d2ce3b27bda2fbbb9c","640759fa512f630a2bdc333d","6408c174d622b9d5c03a5603","[990]","","","[5]","[346]","346","142","130.8498592095743","[130.8498592095743]","[348.84985920957433]","[347]","0","0","1","0","148.77999999999884","999.2799999999988","1000","[[[""img/mask8.png""]]]","","","main","142","color-precision2"
"","","","","","html-keyboard-response","36","228431","0.0-10.0-1.8","63ed04d2ce3b27bda2fbbb9c","640759fa512f630a2bdc333d","6408c174d622b9d5c03a5603","null","","null","","","","","","","","","","","","","","","","","","","fixation","",""
"","","","","","color-precision2","37","233235","0.0-10.0-0.9-0.9","63ed04d2ce3b27bda2fbbb9c","640759fa512f630a2bdc333d","6408c174d622b9d5c03a5603","[1973]","","","[15]","[61]","61","332","35.68869625728416","[35.68869625728416]","[63.688696257284164]","[62]","0","0","1","0","149.44000000000233","996.8800000000047","1000","[[[""img/mask82.png""]]]","","","main","332","color-precision2"
"","","","","","html-keyboard-response","38","233747","0.0-10.0-1.9","63ed04d2ce3b27bda2fbbb9c","640759fa512f630a2bdc333d","6408c174d622b9d5c03a5603","null","","null","","","","","","","","","","","","","","","","","","","fixation","",""
"","","","","","many-guess-6","39","239251","0.0-10.0-0.10-0.10","63ed04d2ce3b27bda2fbbb9c","640759fa512f630a2bdc333d","6408c174d622b9d5c03a5603","[3214]","","","[22,23,0,18,32,27,21,31,30,7,16,24,4,8,13,19,5,14,11,17,29,28,15,1,34,26,33,9,25,12,35,10,6,2,20,3]","[352,252,123,262,93,212,312,133,43,282,63,292,302,272,202,163,342,73,3,232,192,332,153,13,143,23,322,53,182,242,173,83,222,103,113,33]","352","184","349.2924156737161","[349.2924156737161]","[165.2924156737161]","[165]","[300,30,210,120,210,30,300,120,30]","0","36","0","149.4200000000128","18.820000000006985","16","[[[""img/mask8.png""],[""img/mask17.png""],[""img/mask31.png""],[""img/mask11.png""],[""img/mask63.png""],[""img/mask26.png""],[""img/mask50.png""],[""img/mask9.png""],[""img/mask60.png""],[""img/mask45.png""],[""img/mask92.png""],[""img/mask83.png""],[""img/mask39.png""],[""img/mask82.png""],[""img/mask92.png""],[""img/mask43.png""],[""img/mask91.png""],[""img/mask68.png""],[""img/mask89.png""],[""img/mask25.png""],[""img/mask37.png""],[""img/mask27.png""],[""img/mask20.png""],[""img/mask33.png""],[""img/mask68.png""],[""img/mask31.png""],[""img/mask19.png""],[""img/mask84.png""],[""img/mask35.png""],[""img/mask29.png""],[""img/mask47.png""],[""img/mask83.png""],[""img/mask30.png""],[""img/mask92.png""],[""img/mask16.png""],[""img/mask75.png""]]]","","[22,23,0,18,32,27,21,31,30,7,16,24,4,8,13,19,5,14,11,17,29,28,15,1,34,26,33,9,25,12,35,10,6,2,20,3]","main","184","many-guess-6"
"","","","","","html-keyboard-response","40","239761","0.0-10.0-1.10","63ed04d2ce3b27bda2fbbb9c","640759fa512f630a2bdc333d","6408c174d622b9d5c03a5603","null","","null","","","","","","","","","","","","","","","","","","","fixation","",""
"","","","","","many-guess-6","41","244450","0.0-10.0-0.11-0.11","63ed04d2ce3b27bda2fbbb9c","640759fa512f630a2bdc333d","6408c174d622b9d5c03a5603","[2923]","","","[14,5,1,21,18,26,7,23,19,11,16,10,24,12,20,13,31,8,15,3,29,35,25,9,2,32,27,28,33,0,17,4,34,22,6,30]","[220,10,299,120,309,230,339,269,100,160,279,190,130,259,210,80,319,329,20,60,359,110,140,180,90,349,200,40,239,289,170,30,50,70,249,150]","220","249","239.60488178038233","[239.60488178038233]","[350.60488178038236]","[351]","[120,120,120,210,120,30,300,120,120]","0","36","0","149.29999999998836","24.70000000001164","16","[[[""img/mask11.png""],[""img/mask42.png""],[""img/mask88.png""],[""img/mask55.png""],[""img/mask95.png""],[""img/mask17.png""],[""img/mask86.png""],[""img/mask42.png""],[""img/mask88.png""],[""img/mask45.png""],[""img/mask4.png""],[""img/mask45.png""],[""img/mask83.png""],[""img/mask73.png""],[""img/mask53.png""],[""img/mask93.png""],[""img/mask54.png""],[""img/mask53.png""],[""img/mask20.png""],[""img/mask26.png""],[""img/mask19.png""],[""img/mask69.png""],[""img/mask55.png""],[""img/mask39.png""],[""img/mask44.png""],[""img/mask1.png""],[""img/mask33.png""],[""img/mask6.png""],[""img/mask95.png""],[""img/mask34.png""],[""img/mask67.png""],[""img/mask24.png""],[""img/mask44.png""],[""img/mask56.png""],[""img/mask29.png""],[""img/mask22.png""]]]","","[14,5,1,21,18,26,7,23,19,11,16,10,24,12,20,13,31,8,15,3,29,35,25,9,2,32,27,28,33,0,17,4,34,22,6,30]","main","249","many-guess-6"
"","","","","","html-keyboard-response","42","244958","0.0-10.0-1.11","63ed04d2ce3b27bda2fbbb9c","640759fa512f630a2bdc333d","6408c174d622b9d5c03a5603","null","","null","","","","","","","","","","","","","","","","","","","fixation","",""
"","","","","","color-precision2","43","251378","0.0-10.0-0.12-0.12","63ed04d2ce3b27bda2fbbb9c","640759fa512f630a2bdc333d","6408c174d622b9d5c03a5603","[3208]","","","[8]","[62]","62","72","136.24376405771156","[136.24376405771156]","[64.24376405771156]","[63]","0","0","1","0","149.59999999997672","1002","1000","[[[""img/mask4.png""]]]","","","main","72","color-precision2"
"","","","","","html-keyboard-response","44","251886","0.0-10.0-1.12","63ed04d2ce3b27bda2fbbb9c","640759fa512f630a2bdc333d","6408c174d622b9d5c03a5603","null","","null","","","","","","","","","","","","","","","","","","","fixation","",""
"","","","","","many-guess-6","45","257266","0.0-10.0-0.13-0.13","63ed04d2ce3b27bda2fbbb9c","640759fa512f630a2bdc333d","6408c174d622b9d5c03a5603","[3539]","","","[29,18,27,5,26,12,8,15,19,16,3,31,11,17,28,21,1,24,33,20,14,22,9,6,35,34,10,2,30,0,32,13,7,25,23,4]","[14,163,263,44,153,303,233,293,113,353,24,63,333,213,193,203,223,103,143,273,83,323,123,343,4,53,93,133,313,253,34,243,183,283,173,73]","14","340","140.4097351925398","[140.4097351925398]","[160.4097351925398]","[159]","[120,30,210,120,120,300,210,210,300]","0","36","0","149.44000000000233","11.840000000025611","16","[[[""img/mask25.png""],[""img/mask21.png""],[""img/mask3.png""],[""img/mask2.png""],[""img/mask99.png""],[""img/mask22.png""],[""img/mask98.png""],[""img/mask29.png""],[""img/mask26.png""],[""img/mask43.png""],[""img/mask45.png""],[""img/mask69.png""],[""img/mask68.png""],[""img/mask2.png""],[""img/mask65.png""],[""img/mask22.png""],[""img/mask9.png""],[""img/mask94.png""],[""img/mask98.png""],[""img/mask80.png""],[""img/mask92.png""],[""img/mask10.png""],[""img/mask22.png""],[""img/mask98.png""],[""img/mask79.png""],[""img/mask99.png""],[""img/mask7.png""],[""img/mask27.png""],[""img/mask56.png""],[""img/mask86.png""],[""img/mask91.png""],[""img/mask33.png""],[""img/mask60.png""],[""img/mask68.png""],[""img/mask28.png""],[""img/mask22.png""]]]","","[29,18,27,5,26,12,8,15,19,16,3,31,11,17,28,21,1,24,33,20,14,22,9,6,35,34,10,2,30,0,32,13,7,25,23,4]","main","340","many-guess-6"
"","","","","","html-keyboard-response","46","257770","0.0-10.0-1.13","63ed04d2ce3b27bda2fbbb9c","640759fa512f630a2bdc333d","6408c174d622b9d5c03a5603","null","","null","","","","","","","","","","","","","","","","","","","fixation","",""
"","","","","","color-precision2","47","262273","0.0-10.0-0.14-0.14","63ed04d2ce3b27bda2fbbb9c","640759fa512f630a2bdc333d","6408c174d622b9d5c03a5603","[1771]","","","[8]","[270]","270","309","231.91107915253352","[231.91107915253352]","[282.9110791525335]","[283]","0","0","1","0","149.44000000000233","995.8400000000256","1000","[[[""img/mask52.png""]]]","","","main","309","color-precision2"
"","","","","","html-keyboard-response","48","262789","0.0-10.0-1.14","63ed04d2ce3b27bda2fbbb9c","640759fa512f630a2bdc333d","6408c174d622b9d5c03a5603","null","","null","","","","","","","","","","","","","","","","","","","fixation","",""
"","","","","","color-precision2","49","267745","0.0-10.0-0.15-0.15","63ed04d2ce3b27bda2fbbb9c","640759fa512f630a2bdc333d","6408c174d622b9d5c03a5603","[1969]","","","[20]","[272]","272","188","125.09294404767745","[125.09294404767745]","[297.09294404767746]","[296]","0","0","1","0","147.78000000002794","994.179999999993","1000","[[[""img/mask59.png""]]]","","","main","188","color-precision2"
"","","","","","html-keyboard-response","50","268260","0.0-10.0-1.15","63ed04d2ce3b27bda2fbbb9c","640759fa512f630a2bdc333d","6408c174d622b9d5c03a5603","null","","null","","","","","","","","","","","","","","","","","","","fixation","",""
"","","","","","color-precision2","51","274561","0.0-10.0-0.16-0.16","63ed04d2ce3b27bda2fbbb9c","640759fa512f630a2bdc333d","6408c174d622b9d5c03a5603","[3562]","","","[30]","[171]","171","335","147.40335561061295","[147.40335561061295]","[172.40335561061295]","[171]","0","0","1","0","150.3400000000256","996.859999999986","1000","[[[""img/mask2.png""]]]","","","main","335","color-precision2"
"","","","","","html-keyboard-response","52","275068","0.0-10.0-1.16","63ed04d2ce3b27bda2fbbb9c","640759fa512f630a2bdc333d","6408c174d622b9d5c03a5603","null","","null","","","","","","","","","","","","","","","","","","","fixation","",""
"","","","","","color-precision2","53","280121","0.0-10.0-0.17-0.17","63ed04d2ce3b27bda2fbbb9c","640759fa512f630a2bdc333d","6408c174d622b9d5c03a5603","[2362]","","","[35]","[351]","351","261","233.11323095850378","[233.11323095850378]","[332.1132309585038]","[332]","0","0","1","0","149.64000000001397","994.140000000014","1000","[[[""img/mask5.png""]]]","","","main","261","color-precision2"
"","","","","","html-keyboard-response","54","280625","0.0-10.0-1.17","63ed04d2ce3b27bda2fbbb9c","640759fa512f630a2bdc333d","6408c174d622b9d5c03a5603","null","","null","","","","","","","","","","","","","","","","","","","fixation","",""
"","","","","","many-guess-6","55","285987","0.0-10.0-0.18-0.18","63ed04d2ce3b27bda2fbbb9c","640759fa512f630a2bdc333d","6408c174d622b9d5c03a5603","[3419]","","","[34,11,24,10,6,23,31,1,32,29,33,16,9,3,18,35,8,5,4,27,12,20,30,19,15,7,13,28,14,2,22,0,21,25,17,26]","[240,110,20,310,50,30,120,210,60,350,160,70,220,1,90,180,150,130,40,140,250,170,330,11,80,190,280,200,320,230,270,300,260,290,100,340]","240","200","351.39184538815334","[351.39184538815334]","[151.39184538815334]","[151]","[210,300,210,300,210,300,120,30,300]","0","36","0","149.03999999997905","16.44000000000233","16","[[[""img/mask65.png""],[""img/mask22.png""],[""img/mask70.png""],[""img/mask27.png""],[""img/mask19.png""],[""img/mask72.png""],[""img/mask29.png""],[""img/mask26.png""],[""img/mask97.png""],[""img/mask40.png""],[""img/mask90.png""],[""img/mask16.png""],[""img/mask1.png""],[""img/mask81.png""],[""img/mask57.png""],[""img/mask89.png""],[""img/mask87.png""],[""img/mask8.png""],[""img/mask35.png""],[""img/mask64.png""],[""img/mask89.png""],[""img/mask53.png""],[""img/mask63.png""],[""img/mask3.png""],[""img/mask27.png""],[""img/mask18.png""],[""img/mask40.png""],[""img/mask92.png""],[""img/mask6.png""],[""img/mask72.png""],[""img/mask75.png""],[""img/mask82.png""],[""img/mask8.png""],[""img/mask95.png""],[""img/mask55.png""],[""img/mask81.png""]]]","","[34,11,24,10,6,23,31,1,32,29,33,16,9,3,18,35,8,5,4,27,12,20,30,19,15,7,13,28,14,2,22,0,21,25,17,26]","main","200","many-guess-6"
"","","","","","html-keyboard-response","56","286488","0.0-10.0-1.18","63ed04d2ce3b27bda2fbbb9c","640759fa512f630a2bdc333d","6408c174d622b9d5c03a5603","null","","null","","","","","","","","","","","","","","","","","","","fixation","",""
"","","","","","color-precision2","57","290225","0.0-10.0-0.19-0.19","63ed04d2ce3b27bda2fbbb9c","640759fa512f630a2bdc333d","6408c174d622b9d5c03a5603","[917]","","","[16]","[352]","352","132","125.96748188920817","[125.96748188920817]","[353.96748188920816]","[352]","0","0","1","0","147.55999999999767","1004.960000000021","1000","[[[""img/mask30.png""]]]","","","main","132","color-precision2"
"","","","","","html-keyboard-response","58","294457","0.0-10.0-1.19","63ed04d2ce3b27bda2fbbb9c","640759fa512f630a2bdc333d","6408c174d622b9d5c03a5603","4230","Wow! You've completed 20 out of 180 trials! </p> <p>  </p><p> Take a quick break, then press any key when you're ready to continue."," ","","","","","","","","","","","","","","","","","","","fixation","",""
"","","","","","color-precision2","59","298642","0.0-10.0-0.20-0.20","63ed04d2ce3b27bda2fbbb9c","640759fa512f630a2bdc333d","6408c174d622b9d5c03a5603","[1053]","","","[14]","[192]","192","176","6.78647381235936","[6.78647381235936]","[190.78647381235936]","[190]","0","0","1","0","148.82000000000698","1004.2999999999884","1000","[[[""img/mask82.png""]]]","","","main","176","color-precision2"
"","","","","","html-keyboard-response","60","299141","0.0-10.0-1.20","63ed04d2ce3b27bda2fbbb9c","640759fa512f630a2bdc333d","6408c174d622b9d5c03a5603","null","","null","","","","","","","","","","","","","","","","","","","fixation","",""
"","","","","","many-guess-6","61","302585","0.0-10.0-0.21-0.21","63ed04d2ce3b27bda2fbbb9c","640759fa512f630a2bdc333d","6408c174d622b9d5c03a5603","[1760]","","","[19,28,35,2,25,18,4,6,33,11,21,5,20,8,32,24,10,7,34,31,30,3,12,22,27,29,1,15,14,9,23,0,26,17,16,13]","[314,244,94,304,114,294,34,104,204,353,74,214,164,264,274,44,64,284,174,4,144,234,84,254,344,154,124,134,24,324,184,224,194,334,54,14]","314","33","44.96496527935174","[44.96496527935174]","[11.964965279351738]","[10]","[300,30,300,30,210,120,300,30,30]","0","36","0","149.46000000002095","24.85999999998603","16","[[[""img/mask93.png""],[""img/mask93.png""],[""img/mask85.png""],[""img/mask83.png""],[""img/mask69.png""],[""img/mask65.png""],[""img/mask73.png""],[""img/mask82.png""],[""img/mask55.png""],[""img/mask95.png""],[""img/mask94.png""],[""img/mask57.png""],[""img/mask73.png""],[""img/mask41.png""],[""img/mask91.png""],[""img/mask34.png""],[""img/mask43.png""],[""img/mask89.png""],[""img/mask34.png""],[""img/mask4.png""],[""img/mask24.png""],[""img/mask75.png""],[""img/mask15.png""],[""img/mask3.png""],[""img/mask63.png""],[""img/mask17.png""],[""img/mask49.png""],[""img/mask23.png""],[""img/mask34.png""],[""img/mask46.png""],[""img/mask55.png""],[""img/mask19.png""],[""img/mask52.png""],[""img/mask49.png""],[""img/mask23.png""],[""img/mask30.png""]]]","","[19,28,35,2,25,18,4,6,33,11,21,5,20,8,32,24,10,7,34,31,30,3,12,22,27,29,1,15,14,9,23,0,26,17,16,13]","main","33","many-guess-6"
"","","","","","html-keyboard-response","62","303098","0.0-10.0-1.21","63ed04d2ce3b27bda2fbbb9c","640759fa512f630a2bdc333d","6408c174d622b9d5c03a5603","null","","null","","","","","","","","","","","","","","","","","","","fixation","",""
"","","","","","color-precision2","63","307033","0.0-10.0-0.22-0.22","63ed04d2ce3b27bda2fbbb9c","640759fa512f630a2bdc333d","6408c174d622b9d5c03a5603","[1119]","","","[10]","[107]","107","11","126.08002827932306","[126.08002827932306]","[115.08002827932306]","[113]","0","0","1","0","148.97999999998137","1000.4000000000233","1000","[[[""img/mask94.png""]]]","","","main","11","color-precision2"
"","","","","","html-keyboard-response","64","307538","0.0-10.0-1.22","63ed04d2ce3b27bda2fbbb9c","640759fa512f630a2bdc333d","6408c174d622b9d5c03a5603","null","","null","","","","","","","","","","","","","","","","","","","fixation","",""
"","","","","","color-precision2","65","312025","0.0-10.0-0.23-0.23","63ed04d2ce3b27bda2fbbb9c","640759fa512f630a2bdc333d","6408c174d622b9d5c03a5603","[1152]","","","[26]","[47]","47","135","183.26544503054023","[183.26544503054023]","[48.265445030540235]","[48]","0","0","1","0","148.5800000000163","1000.960000000021","1000","[[[""img/mask23.png""]]]","","","main","135","color-precision2"
"","","","","","html-keyboard-response","66","312530","0.0-10.0-1.23","63ed04d2ce3b27bda2fbbb9c","640759fa512f630a2bdc333d","6408c174d622b9d5c03a5603","null","","null","","","","","","","","","","","","","","","","","","","fixation","",""
"","","","","","color-precision2","67","317049","0.0-10.0-0.24-0.24","63ed04d2ce3b27bda2fbbb9c","640759fa512f630a2bdc333d","6408c174d622b9d5c03a5603","[1804]","","","[16]","[303]","303","217","159.34627537255355","[159.34627537255355]","[302.3462753725536]","[303]","0","0","1","0","149.17999999999302","1003.5599999999977","1000","[[[""img/mask91.png""]]]","","","main","217","color-precision2"
"","","","","","html-keyboard-response","68","317552","0.0-10.0-1.24","63ed04d2ce3b27bda2fbbb9c","640759fa512f630a2bdc333d","6408c174d622b9d5c03a5603","null","","null","","","","","","","","","","","","","","","","","","","fixation","",""
"","","","","","many-guess-6","69","321250","0.0-10.0-0.25-0.25","63ed04d2ce3b27bda2fbbb9c","640759fa512f630a2bdc333d","6408c174d622b9d5c03a5603","[2082]","","","[23,27,1,2,20,5,13,32,10,35,25,33,12,17,7,18,16,29,19,34,9,0,6,4,26,28,14,11,15,31,22,3,21,24,30,8]","[309,329,349,49,59,159,259,119,69,189,359,179,109,279,299,19,219,39,139,319,169,199,79,229,99,10,269,289,239,249,149,209,89,29,129,339]","309","169","225.22757199262645","[225.22757199262645]","[56.22757199262645]","[56]","[210,300,300,120,300,120,120,210,300]","0","36","0","147.94000000000233","24.34000000002561","16","[[[""img/mask69.png""],[""img/mask32.png""],[""img/mask62.png""],[""img/mask15.png""],[""img/mask3.png""],[""img/mask43.png""],[""img/mask64.png""],[""img/mask79.png""],[""img/mask3.png""],[""img/mask46.png""],[""img/mask95.png""],[""img/mask1.png""],[""img/mask52.png""],[""img/mask27.png""],[""img/mask43.png""],[""img/mask51.png""],[""img/mask90.png""],[""img/mask7.png""],[""img/mask23.png""],[""img/mask44.png""],[""img/mask44.png""],[""img/mask78.png""],[""img/mask49.png""],[""img/mask67.png""],[""img/mask46.png""],[""img/mask84.png""],[""img/mask79.png""],[""img/mask28.png""],[""img/mask59.png""],[""img/mask5.png""],[""img/mask100.png""],[""img/mask32.png""],[""img/mask2.png""],[""img/mask76.png""],[""img/mask97.png""],[""img/mask1.png""]]]","","[23,27,1,2,20,5,13,32,10,35,25,33,12,17,7,18,16,29,19,34,9,0,6,4,26,28,14,11,15,31,22,3,21,24,30,8]","main","169","many-guess-6"
"","","","","","html-keyboard-response","70","321754","0.0-10.0-1.25","63ed04d2ce3b27bda2fbbb9c","640759fa512f630a2bdc333d","6408c174d622b9d5c03a5603","null","","null","","","","","","","","","","","","","","","","","","","fixation","",""
"","","","","","color-precision2","71","328153","0.0-10.0-0.26-0.26","63ed04d2ce3b27bda2fbbb9c","640759fa512f630a2bdc333d","6408c174d622b9d5c03a5603","[3780]","","","[32]","[182]","182","138","324.7223447936974","[324.7223447936974]","[186.7223447936974]","[186]","0","0","1","0","149.38000000000466","999.7800000000279","1000","[[[""img/mask93.png""]]]","","","main","138","color-precision2"
"","","","","","html-keyboard-response","72","328664","0.0-10.0-1.26","63ed04d2ce3b27bda2fbbb9c","640759fa512f630a2bdc333d","6408c174d622b9d5c03a5603","null","","null","","","","","","","","","","","","","","","","","","","fixation","",""
"","","","","","many-guess-6","73","333633","0.0-10.0-0.27-0.27","63ed04d2ce3b27bda2fbbb9c","640759fa512f630a2bdc333d","6408c174d622b9d5c03a5603","[3084]","","","[3,4,5,6,16,15,31,34,21,18,12,0,28,10,7,17,14,27,8,13,2,9,19,11,26,20,32,24,35,1,23,29,22,25,33,30]","[137,107,87,276,157,306,187,147,266,257,37,217,286,207,57,167,237,127,47,356,296,316,27,7,77,227,326,97,247,117,67,177,336,197,346,17]","137","341","39.00708707000056","[39.00708707000056]","[58.00708707000058]","[57]","[120,300,300,210,120,210,120,120,210]","0","36","0","149.3400000000256","15.739999999990687","16","[[[""img/mask95.png""],[""img/mask35.png""],[""img/mask61.png""],[""img/mask41.png""],[""img/mask33.png""],[""img/mask56.png""],[""img/mask80.png""],[""img/mask29.png""],[""img/mask26.png""],[""img/mask100.png""],[""img/mask92.png""],[""img/mask34.png""],[""img/mask27.png""],[""img/mask44.png""],[""img/mask95.png""],[""img/mask71.png""],[""img/mask83.png""],[""img/mask78.png""],[""img/mask31.png""],[""img/mask30.png""],[""img/mask50.png""],[""img/mask28.png""],[""img/mask31.png""],[""img/mask96.png""],[""img/mask50.png""],[""img/mask85.png""],[""img/mask34.png""],[""img/mask10.png""],[""img/mask81.png""],[""img/mask14.png""],[""img/mask10.png""],[""img/mask39.png""],[""img/mask71.png""],[""img/mask51.png""],[""img/mask22.png""],[""img/mask53.png""]]]","","[3,4,5,6,16,15,31,34,21,18,12,0,28,10,7,17,14,27,8,13,2,9,19,11,26,20,32,24,35,1,23,29,22,25,33,30]","main","341","many-guess-6"
"","","","","","html-keyboard-response","74","334136","0.0-10.0-1.27","63ed04d2ce3b27bda2fbbb9c","640759fa512f630a2bdc333d","6408c174d622b9d5c03a5603","null","","null","","","","","","","","","","","","","","","","","","","fixation","",""
"","","","","","many-guess-6","75","338121","0.0-10.0-0.28-0.28","63ed04d2ce3b27bda2fbbb9c","640759fa512f630a2bdc333d","6408c174d622b9d5c03a5603","[2298]","","","[4,32,3,35,11,10,16,8,9,17,18,1,27,12,19,13,15,25,2,0,34,29,6,24,21,22,33,20,5,26,31,30,28,7,14,23]","[91,201,171,260,111,320,71,211,181,280,1,191,231,141,51,330,161,270,11,41,221,250,240,131,340,31,350,121,81,300,290,61,151,310,101,21]","91","114","127.74030937705224","[127.74030937705224]","[13.740309377052242]","[12]","[300,30,30,30,210,300,300,210,30]","0","36","0","149.5800000000163","26.979999999981374","16","[[[""img/mask42.png""],[""img/mask65.png""],[""img/mask6.png""],[""img/mask7.png""],[""img/mask53.png""],[""img/mask67.png""],[""img/mask97.png""],[""img/mask91.png""],[""img/mask24.png""],[""img/mask63.png""],[""img/mask44.png""],[""img/mask97.png""],[""img/mask62.png""],[""img/mask78.png""],[""img/mask77.png""],[""img/mask39.png""],[""img/mask91.png""],[""img/mask5.png""],[""img/mask33.png""],[""img/mask90.png""],[""img/mask6.png""],[""img/mask68.png""],[""img/mask1.png""],[""img/mask72.png""],[""img/mask23.png""],[""img/mask16.png""],[""img/mask43.png""],[""img/mask87.png""],[""img/mask43.png""],[""img/mask18.png""],[""img/mask67.png""],[""img/mask25.png""],[""img/mask70.png""],[""img/mask22.png""],[""img/mask93.png""],[""img/mask6.png""]]]","","[4,32,3,35,11,10,16,8,9,17,18,1,27,12,19,13,15,25,2,0,34,29,6,24,21,22,33,20,5,26,31,30,28,7,14,23]","main","114","many-guess-6"
"","","","","","html-keyboard-response","76","338622","0.0-10.0-1.28","63ed04d2ce3b27bda2fbbb9c","640759fa512f630a2bdc333d","6408c174d622b9d5c03a5603","null","","null","","","","","","","","","","","","","","","","","","","fixation","",""
"","","","","","many-guess-6","77","343274","0.0-10.0-0.29-0.29","63ed04d2ce3b27bda2fbbb9c","640759fa512f630a2bdc333d","6408c174d622b9d5c03a5603","[3028]","","","[10,32,1,35,19,6,0,4,34,21,23,33,13,26,27,16,29,15,8,3,31,11,20,25,5,28,2,17,24,18,14,7,30,9,22,12]","[131,310,71,91,181,340,290,270,161,250,300,1,121,141,220,111,330,51,101,31,81,240,41,191,151,61,171,21,350,210,201,11,260,230,280,320]","131","163","314.93526785219365","[314.93526785219365]","[151.93526785219365]","[152]","[30,300,300,300,30,120,210,300,30]","0","36","0","149.17999999999302","16.580000000016298","16","[[[""img/mask26.png""],[""img/mask27.png""],[""img/mask87.png""],[""img/mask63.png""],[""img/mask13.png""],[""img/mask46.png""],[""img/mask84.png""],[""img/mask44.png""],[""img/mask54.png""],[""img/mask30.png""],[""img/mask37.png""],[""img/mask16.png""],[""img/mask96.png""],[""img/mask71.png""],[""img/mask25.png""],[""img/mask95.png""],[""img/mask54.png""],[""img/mask48.png""],[""img/mask56.png""],[""img/mask52.png""],[""img/mask59.png""],[""img/mask62.png""],[""img/mask36.png""],[""img/mask67.png""],[""img/mask73.png""],[""img/mask22.png""],[""img/mask46.png""],[""img/mask56.png""],[""img/mask23.png""],[""img/mask33.png""],[""img/mask64.png""],[""img/mask3.png""],[""img/mask2.png""],[""img/mask91.png""],[""img/mask2.png""],[""img/mask64.png""]]]","","[10,32,1,35,19,6,0,4,34,21,23,33,13,26,27,16,29,15,8,3,31,11,20,25,5,28,2,17,24,18,14,7,30,9,22,12]","main","163","many-guess-6"
"","","","","","html-keyboard-response","78","343783","0.0-10.0-1.29","63ed04d2ce3b27bda2fbbb9c","640759fa512f630a2bdc333d","6408c174d622b9d5c03a5603","null","","null","","","","","","","","","","","","","","","","","","","fixation","",""
"","","","","","color-precision2","79","349112","0.0-10.0-0.30-0.30","63ed04d2ce3b27bda2fbbb9c","640759fa512f630a2bdc333d","6408c174d622b9d5c03a5603","[1692]","","","[33]","[179]","179","4","192.5838582847965","[192.5838582847965]","[188.5838582847965]","[188]","0","0","1","0","150","992.5","1000","[[[""img/mask32.png""]]]","","","main","4","color-precision2"
"","","","","","html-keyboard-response","80","349624","0.0-10.0-1.30","63ed04d2ce3b27bda2fbbb9c","640759fa512f630a2bdc333d","6408c174d622b9d5c03a5603","null","","null","","","","","","","","","","","","","","","","","","","fixation","",""
"","","","","","many-guess-6","81","354658","0.0-10.0-0.31-0.31","63ed04d2ce3b27bda2fbbb9c","640759fa512f630a2bdc333d","6408c174d622b9d5c03a5603","[3214]","","","[21,4,17,26,27,29,19,28,13,0,22,8,18,32,16,14,5,12,35,10,6,31,30,9,1,25,34,2,24,7,33,23,15,20,3,11]","[249,99,239,199,209,39,79,219,279,89,169,189,9,149,109,328,269,358,139,29,259,129,119,229,289,299,59,308,338,69,179,49,19,348,318,159]","249","50","298.8231805352892","[298.8231805352892]","[248.82318053528923]","[249]","[300,210,210,300,300,300,210,120,120]","0","36","0","149","13.400000000023283","16","[[[""img/mask46.png""],[""img/mask15.png""],[""img/mask70.png""],[""img/mask98.png""],[""img/mask53.png""],[""img/mask62.png""],[""img/mask34.png""],[""img/mask44.png""],[""img/mask88.png""],[""img/mask55.png""],[""img/mask30.png""],[""img/mask90.png""],[""img/mask38.png""],[""img/mask58.png""],[""img/mask19.png""],[""img/mask48.png""],[""img/mask22.png""],[""img/mask53.png""],[""img/mask65.png""],[""img/mask55.png""],[""img/mask25.png""],[""img/mask30.png""],[""img/mask94.png""],[""img/mask17.png""],[""img/mask57.png""],[""img/mask49.png""],[""img/mask1.png""],[""img/mask46.png""],[""img/mask81.png""],[""img/mask81.png""],[""img/mask11.png""],[""img/mask42.png""],[""img/mask22.png""],[""img/mask12.png""],[""img/mask59.png""],[""img/mask3.png""]]]","","[21,4,17,26,27,29,19,28,13,0,22,8,18,32,16,14,5,12,35,10,6,31,30,9,1,25,34,2,24,7,33,23,15,20,3,11]","main","50","many-guess-6"
"","","","","","html-keyboard-response","82","355170","0.0-10.0-1.31","63ed04d2ce3b27bda2fbbb9c","640759fa512f630a2bdc333d","6408c174d622b9d5c03a5603","null","","null","","","","","","","","","","","","","","","","","","","fixation","",""
"","","","","","color-precision2","83","359584","0.0-10.0-0.32-0.32","63ed04d2ce3b27bda2fbbb9c","640759fa512f630a2bdc333d","6408c174d622b9d5c03a5603","[1498]","","","[35]","[355]","355","42","47.746622808727984","[47.746622808727984]","[5.7466228087279845]","[4]","0","0","1","0","149.64000000001397","1004.1199999999953","1000","[[[""img/mask89.png""]]]","","","main","42","color-precision2"
"","","","","","html-keyboard-response","84","360090","0.0-10.0-1.32","63ed04d2ce3b27bda2fbbb9c","640759fa512f630a2bdc333d","6408c174d622b9d5c03a5603","null","","null","","","","","","","","","","","","","","","","","","","fixation","",""
"","","","","","color-precision2","85","364088","0.0-10.0-0.33-0.33","63ed04d2ce3b27bda2fbbb9c","640759fa512f630a2bdc333d","6408c174d622b9d5c03a5603","[1279]","","","[28]","[318]","318","248","207.0201616294325","[207.0201616294325]","[319.0201616294325]","[319]","0","0","1","0","147.53999999997905","1007.9400000000023","1000","[[[""img/mask54.png""]]]","","","main","248","color-precision2"
"","","","","","html-keyboard-response","86","364592","0.0-10.0-1.33","63ed04d2ce3b27bda2fbbb9c","640759fa512f630a2bdc333d","6408c174d622b9d5c03a5603","null","","null","","","","","","","","","","","","","","","","","","","fixation","",""
"","","","","","color-precision2","87","371489","0.0-10.0-0.34-0.34","63ed04d2ce3b27bda2fbbb9c","640759fa512f630a2bdc333d","6408c174d622b9d5c03a5603","[4107]","","","[32]","[312]","312","3","311.89679025922374","[311.89679025922374]","[308.89679025922374]","[309]","0","0","1","0","149.7399999999907","998.2600000000093","1000","[[[""img/mask4.png""]]]","","","main","3","color-precision2"
"","","","","","html-keyboard-response","88","372000","0.0-10.0-1.34","63ed04d2ce3b27bda2fbbb9c","640759fa512f630a2bdc333d","6408c174d622b9d5c03a5603","null","","null","","","","","","","","","","","","","","","","","","","fixation","",""
"","","","","","many-guess-6","89","376225","0.0-10.0-0.35-0.35","63ed04d2ce3b27bda2fbbb9c","640759fa512f630a2bdc333d","6408c174d622b9d5c03a5603","[2501]","","","[19,0,7,18,14,8,12,23,1,13,25,9,3,27,21,29,20,35,17,15,30,32,6,2,33,4,22,31,11,28,34,16,10,26,5,24]","[231,121,311,271,201,81,71,191,341,291,321,281,331,181,12,32,51,41,251,141,101,151,61,221,22,161,171,261,241,301,2,211,111,351,91,131]","231","173","325.7464676191667","[325.7464676191667]","[152.7464676191667]","[152]","[120,210,30,210,120,210,300,30,30]","0","36","0","149.5800000000163","11.979999999981374","16","[[[""img/mask52.png""],[""img/mask96.png""],[""img/mask53.png""],[""img/mask63.png""],[""img/mask53.png""],[""img/mask85.png""],[""img/mask25.png""],[""img/mask8.png""],[""img/mask46.png""],[""img/mask80.png""],[""img/mask45.png""],[""img/mask73.png""],[""img/mask6.png""],[""img/mask18.png""],[""img/mask58.png""],[""img/mask45.png""],[""img/mask35.png""],[""img/mask37.png""],[""img/mask47.png""],[""img/mask15.png""],[""img/mask12.png""],[""img/mask20.png""],[""img/mask18.png""],[""img/mask85.png""],[""img/mask16.png""],[""img/mask45.png""],[""img/mask59.png""],[""img/mask40.png""],[""img/mask97.png""],[""img/mask24.png""],[""img/mask14.png""],[""img/mask45.png""],[""img/mask77.png""],[""img/mask53.png""],[""img/mask14.png""],[""img/mask76.png""]]]","","[19,0,7,18,14,8,12,23,1,13,25,9,3,27,21,29,20,35,17,15,30,32,6,2,33,4,22,31,11,28,34,16,10,26,5,24]","main","173","many-guess-6"
"","","","","","html-keyboard-response","90","376728","0.0-10.0-1.35","63ed04d2ce3b27bda2fbbb9c","640759fa512f630a2bdc333d","6408c174d622b9d5c03a5603","null","","null","","","","","","","","","","","","","","","","","","","fixation","",""
"","","","","","many-guess-6","91","381705","0.0-10.0-0.36-0.36","63ed04d2ce3b27bda2fbbb9c","640759fa512f630a2bdc333d","6408c174d622b9d5c03a5603","[2623]","","","[7,21,3,18,28,16,23,15,9,4,24,30,31,5,14,10,34,2,32,1,27,17,29,12,26,22,11,25,8,20,6,13,19,35,33,0]","[209,239,99,49,279,289,318,229,249,39,179,129,89,269,308,159,259,9,358,189,109,19,59,299,348,338,169,29,219,149,199,79,139,119,328,69]","209","51","228.0904656910074","[228.0904656910074]","[177.0904656910074]","[177]","[300,120,300,120,210,210,30,210,210]","0","36","0","148.96000000002095","22.35999999998603","16","[[[""img/mask11.png""],[""img/mask56.png""],[""img/mask70.png""],[""img/mask95.png""],[""img/mask68.png""],[""img/mask27.png""],[""img/mask40.png""],[""img/mask88.png""],[""img/mask88.png""],[""img/mask100.png""],[""img/mask47.png""],[""img/mask45.png""],[""img/mask35.png""],[""img/mask25.png""],[""img/mask92.png""],[""img/mask18.png""],[""img/mask14.png""],[""img/mask41.png""],[""img/mask9.png""],[""img/mask70.png""],[""img/mask25.png""],[""img/mask39.png""],[""img/mask67.png""],[""img/mask64.png""],[""img/mask33.png""],[""img/mask94.png""],[""img/mask10.png""],[""img/mask94.png""],[""img/mask26.png""],[""img/mask37.png""],[""img/mask69.png""],[""img/mask50.png""],[""img/mask43.png""],[""img/mask30.png""],[""img/mask12.png""],[""img/mask86.png""]]]","","[7,21,3,18,28,16,23,15,9,4,24,30,31,5,14,10,34,2,32,1,27,17,29,12,26,22,11,25,8,20,6,13,19,35,33,0]","main","51","many-guess-6"
"","","","","","html-keyboard-response","92","382218","0.0-10.0-1.36","63ed04d2ce3b27bda2fbbb9c","640759fa512f630a2bdc333d","6408c174d622b9d5c03a5603","null","","null","","","","","","","","","","","","","","","","","","","fixation","",""
"","","","","","many-guess-6","93","389145","0.0-10.0-0.37-0.37","63ed04d2ce3b27bda2fbbb9c","640759fa512f630a2bdc333d","6408c174d622b9d5c03a5603","[5039]","","","[12,23,25,20,15,14,16,6,2,24,4,11,32,7,22,0,1,30,9,34,5,27,21,35,18,26,19,10,17,28,29,8,3,33,13,31]","[145,215,86,325,285,335,6,295,315,26,125,205,255,195,76,116,175,355,235,16,96,275,36,66,345,265,46,245,135,305,185,165,106,155,56,225]","145","166","184.01030641865216","[184.01030641865216]","[18.010306418652164]","[17]","[300,300,30,120,30,30,120,300,120]","0","36","0","149.46000000002095","24.84000000002561","16","[[[""img/mask50.png""],[""img/mask27.png""],[""img/mask3.png""],[""img/mask9.png""],[""img/mask18.png""],[""img/mask73.png""],[""img/mask35.png""],[""img/mask22.png""],[""img/mask10.png""],[""img/mask33.png""],[""img/mask63.png""],[""img/mask74.png""],[""img/mask33.png""],[""img/mask36.png""],[""img/mask23.png""],[""img/mask95.png""],[""img/mask56.png""],[""img/mask89.png""],[""img/mask19.png""],[""img/mask19.png""],[""img/mask81.png""],[""img/mask80.png""],[""img/mask52.png""],[""img/mask19.png""],[""img/mask85.png""],[""img/mask64.png""],[""img/mask71.png""],[""img/mask10.png""],[""img/mask6.png""],[""img/mask64.png""],[""img/mask89.png""],[""img/mask74.png""],[""img/mask86.png""],[""img/mask17.png""],[""img/mask69.png""],[""img/mask4.png""]]]","","[12,23,25,20,15,14,16,6,2,24,4,11,32,7,22,0,1,30,9,34,5,27,21,35,18,26,19,10,17,28,29,8,3,33,13,31]","main","166","many-guess-6"
"","","","","","html-keyboard-response","94","389646","0.0-10.0-1.37","63ed04d2ce3b27bda2fbbb9c","640759fa512f630a2bdc333d","6408c174d622b9d5c03a5603","null","","null","","","","","","","","","","","","","","","","","","","fixation","",""
"","","","","","color-precision2","95","394256","0.0-10.0-0.38-0.38","63ed04d2ce3b27bda2fbbb9c","640759fa512f630a2bdc333d","6408c174d622b9d5c03a5603","[1604]","","","[13]","[263]","263","106","7.382273605941723","[7.382273605941723]","[261.3822736059417]","[260]","0","0","1","0","149.97999999998137","997.359999999986","1000","[[[""img/mask79.png""]]]","","","main","106","color-precision2"
"","","","","","html-keyboard-response","96","394768","0.0-10.0-1.38","63ed04d2ce3b27bda2fbbb9c","640759fa512f630a2bdc333d","6408c174d622b9d5c03a5603","null","","null","","","","","","","","","","","","","","","","","","","fixation","",""
"","","","","","many-guess-6","97","402665","0.0-10.0-0.39-0.39","63ed04d2ce3b27bda2fbbb9c","640759fa512f630a2bdc333d","6408c174d622b9d5c03a5603","[6343]","","","[32,24,1,20,14,19,26,9,18,2,0,12,29,13,6,11,30,35,8,17,25,31,4,5,33,7,10,28,16,34,22,3,15,21,27,23]","[265,155,135,305,255,75,25,195,345,145,275,45,35,295,215,85,315,55,125,335,185,225,65,285,205,175,95,105,115,355,245,325,165,6,15,235]","265","273","64.6864287620752","[64.6864287620752]","[151.6864287620752]","[150]","[300,120,300,30,210,210,300,120,120]","0","36","0","149.1599999999744","11.559999999997672","16","[[[""img/mask10.png""],[""img/mask22.png""],[""img/mask27.png""],[""img/mask87.png""],[""img/mask92.png""],[""img/mask92.png""],[""img/mask16.png""],[""img/mask86.png""],[""img/mask58.png""],[""img/mask80.png""],[""img/mask64.png""],[""img/mask34.png""],[""img/mask55.png""],[""img/mask23.png""],[""img/mask47.png""],[""img/mask70.png""],[""img/mask33.png""],[""img/mask3.png""],[""img/mask11.png""],[""img/mask73.png""],[""img/mask83.png""],[""img/mask66.png""],[""img/mask75.png""],[""img/mask3.png""],[""img/mask61.png""],[""img/mask99.png""],[""img/mask5.png""],[""img/mask43.png""],[""img/mask26.png""],[""img/mask25.png""],[""img/mask80.png""],[""img/mask75.png""],[""img/mask87.png""],[""img/mask7.png""],[""img/mask45.png""],[""img/mask2.png""]]]","","[32,24,1,20,14,19,26,9,18,2,0,12,29,13,6,11,30,35,8,17,25,31,4,5,33,7,10,28,16,34,22,3,15,21,27,23]","main","273","many-guess-6"
"","","","","","html-keyboard-response","98","405238","0.0-10.0-1.39","63ed04d2ce3b27bda2fbbb9c","640759fa512f630a2bdc333d","6408c174d622b9d5c03a5603","2572","Wow! You've completed 40 out of 180 trials! </p> <p>  </p><p> Take a quick break, then press any key when you're ready to continue."," ","","","","","","","","","","","","","","","","","","","fixation","",""
"","","","","","many-guess-6","99","410673","0.0-10.0-0.40-0.40","63ed04d2ce3b27bda2fbbb9c","640759fa512f630a2bdc333d","6408c174d622b9d5c03a5603","[3769]","","","[5,22,12,17,21,11,34,20,18,3,10,19,24,25,0,9,30,15,8,27,28,31,4,13,35,2,16,33,1,32,7,26,14,23,6,29]","[270,290,11,81,320,61,250,310,300,340,111,21,41,220,260,121,190,240,151,200,280,101,51,171,131,1,141,71,230,31,330,350,210,161,181,91]","270","340","53.06162586448329","[53.06162586448329]","[73.06162586448329]","[71]","[30,210,120,120,120,300,210,300,300]","0","36","0","149.47999999998137","24.880000000004657","16","[[[""img/mask53.png""],[""img/mask94.png""],[""img/mask59.png""],[""img/mask28.png""],[""img/mask88.png""],[""img/mask100.png""],[""img/mask44.png""],[""img/mask55.png""],[""img/mask66.png""],[""img/mask76.png""],[""img/mask77.png""],[""img/mask9.png""],[""img/mask58.png""],[""img/mask3.png""],[""img/mask91.png""],[""img/mask72.png""],[""img/mask51.png""],[""img/mask27.png""],[""img/mask41.png""],[""img/mask64.png""],[""img/mask89.png""],[""img/mask31.png""],[""img/mask64.png""],[""img/mask62.png""],[""img/mask93.png""],[""img/mask13.png""],[""img/mask60.png""],[""img/mask42.png""],[""img/mask48.png""],[""img/mask73.png""],[""img/mask85.png""],[""img/mask68.png""],[""img/mask54.png""],[""img/mask17.png""],[""img/mask33.png""],[""img/mask56.png""]]]","","[5,22,12,17,21,11,34,20,18,3,10,19,24,25,0,9,30,15,8,27,28,31,4,13,35,2,16,33,1,32,7,26,14,23,6,29]","main","340","many-guess-6"
"","","","","","html-keyboard-response","100","411179","0.0-10.0-1.40","63ed04d2ce3b27bda2fbbb9c","640759fa512f630a2bdc333d","6408c174d622b9d5c03a5603","null","","null","","","","","","","","","","","","","","","","","","","fixation","",""
"","","","","","many-guess-6","101","415208","0.0-10.0-0.41-0.41","63ed04d2ce3b27bda2fbbb9c","640759fa512f630a2bdc333d","6408c174d622b9d5c03a5603","[2297]","","","[19,1,16,8,22,14,5,7,31,32,9,2,11,0,21,10,3,35,20,27,34,13,6,18,33,28,25,17,4,15,26,12,29,24,30,23]","[207,247,77,18,28,8,337,167,317,157,107,127,38,97,307,197,177,117,257,267,87,58,227,297,327,287,357,147,137,217,347,67,187,277,237,48]","207","271","308.5651073734253","[308.5651073734253]","[37.56510737342529]","[38]","[210,120,30,300,120,30,30,30,30]","0","36","0","149.7600000000093","27.15999999997439","16","[[[""img/mask71.png""],[""img/mask63.png""],[""img/mask57.png""],[""img/mask87.png""],[""img/mask42.png""],[""img/mask20.png""],[""img/mask7.png""],[""img/mask1.png""],[""img/mask84.png""],[""img/mask32.png""],[""img/mask78.png""],[""img/mask66.png""],[""img/mask21.png""],[""img/mask62.png""],[""img/mask71.png""],[""img/mask43.png""],[""img/mask31.png""],[""img/mask18.png""],[""img/mask33.png""],[""img/mask82.png""],[""img/mask95.png""],[""img/mask66.png""],[""img/mask100.png""],[""img/mask81.png""],[""img/mask8.png""],[""img/mask17.png""],[""img/mask30.png""],[""img/mask36.png""],[""img/mask100.png""],[""img/mask37.png""],[""img/mask70.png""],[""img/mask81.png""],[""img/mask46.png""],[""img/mask33.png""],[""img/mask35.png""],[""img/mask69.png""]]]","","[19,1,16,8,22,14,5,7,31,32,9,2,11,0,21,10,3,35,20,27,34,13,6,18,33,28,25,17,4,15,26,12,29,24,30,23]","main","271","many-guess-6"
"","","","","","html-keyboard-response","102","415719","0.0-10.0-1.41","63ed04d2ce3b27bda2fbbb9c","640759fa512f630a2bdc333d","6408c174d622b9d5c03a5603","null","","null","","","","","","","","","","","","","","","","","","","fixation","",""
"","","","","","many-guess-6","103","421529","0.0-10.0-0.42-0.42","63ed04d2ce3b27bda2fbbb9c","640759fa512f630a2bdc333d","6408c174d622b9d5c03a5603","[3777]","","","[1,15,35,9,23,33,3,17,27,0,12,7,2,24,22,11,31,16,4,28,30,18,8,34,14,19,26,6,32,10,29,5,13,25,21,20]","[168,288,89,208,119,69,158,188,248,298,318,109,278,129,238,19,198,29,268,59,358,9,228,39,79,308,328,49,218,338,138,99,148,348,258,178]","168","258","242.78478193043958","[242.78478193043958]","[344.7847819304396]","[345]","[210,120,210,120,210,210,300,30,120]","0","36","0","148.8400000000256","16.239999999990687","16","[[[""img/mask74.png""],[""img/mask8.png""],[""img/mask1.png""],[""img/mask19.png""],[""img/mask23.png""],[""img/mask69.png""],[""img/mask1.png""],[""img/mask10.png""],[""img/mask68.png""],[""img/mask100.png""],[""img/mask50.png""],[""img/mask25.png""],[""img/mask22.png""],[""img/mask34.png""],[""img/mask93.png""],[""img/mask8.png""],[""img/mask100.png""],[""img/mask42.png""],[""img/mask66.png""],[""img/mask75.png""],[""img/mask83.png""],[""img/mask67.png""],[""img/mask62.png""],[""img/mask63.png""],[""img/mask43.png""],[""img/mask77.png""],[""img/mask2.png""],[""img/mask78.png""],[""img/mask35.png""],[""img/mask76.png""],[""img/mask66.png""],[""img/mask23.png""],[""img/mask88.png""],[""img/mask20.png""],[""img/mask29.png""],[""img/mask66.png""]]]","","[1,15,35,9,23,33,3,17,27,0,12,7,2,24,22,11,31,16,4,28,30,18,8,34,14,19,26,6,32,10,29,5,13,25,21,20]","main","258","many-guess-6"
"","","","","","html-keyboard-response","104","422041","0.0-10.0-1.42","63ed04d2ce3b27bda2fbbb9c","640759fa512f630a2bdc333d","6408c174d622b9d5c03a5603","null","","null","","","","","","","","","","","","","","","","","","","fixation","",""
"","","","","","many-guess-6","105","430353","0.0-10.0-0.43-0.43","63ed04d2ce3b27bda2fbbb9c","640759fa512f630a2bdc333d","6408c174d622b9d5c03a5603","[6526]","","","[30,13,21,2,16,32,11,9,5,24,28,18,20,35,17,25,14,0,12,26,34,29,7,6,8,1,31,15,22,33,3,23,19,27,4,10]","[282,123,252,292,352,33,103,13,332,222,183,53,63,302,113,83,173,93,212,73,192,153,202,163,133,342,272,143,232,312,242,3,322,23,43,262]","282","83","316.4514296672769","[316.4514296672769]","[233.4514296672769]","[233]","[300,30,120,120,120,120,210,300,210]","0","36","0","149.7600000000093","20.15999999997439","16","[[[""img/mask86.png""],[""img/mask94.png""],[""img/mask32.png""],[""img/mask39.png""],[""img/mask87.png""],[""img/mask60.png""],[""img/mask18.png""],[""img/mask6.png""],[""img/mask91.png""],[""img/mask42.png""],[""img/mask80.png""],[""img/mask53.png""],[""img/mask50.png""],[""img/mask48.png""],[""img/mask13.png""],[""img/mask57.png""],[""img/mask91.png""],[""img/mask80.png""],[""img/mask65.png""],[""img/mask51.png""],[""img/mask17.png""],[""img/mask9.png""],[""img/mask78.png""],[""img/mask16.png""],[""img/mask57.png""],[""img/mask88.png""],[""img/mask9.png""],[""img/mask93.png""],[""img/mask49.png""],[""img/mask80.png""],[""img/mask64.png""],[""img/mask20.png""],[""img/mask2.png""],[""img/mask21.png""],[""img/mask47.png""],[""img/mask14.png""]]]","","[30,13,21,2,16,32,11,9,5,24,28,18,20,35,17,25,14,0,12,26,34,29,7,6,8,1,31,15,22,33,3,23,19,27,4,10]","main","83","many-guess-6"
"","","","","","html-keyboard-response","106","430854","0.0-10.0-1.43","63ed04d2ce3b27bda2fbbb9c","640759fa512f630a2bdc333d","6408c174d622b9d5c03a5603","null","","null","","","","","","","","","","","","","","","","","","","fixation","",""
"","","","","","color-precision2","107","434417","0.0-10.0-0.44-0.44","63ed04d2ce3b27bda2fbbb9c","640759fa512f630a2bdc333d","6408c174d622b9d5c03a5603","[910]","","","[19]","[184]","184","4","181.49085837425775","[181.49085837425775]","[177.49085837425775]","[177]","0","0","1","0","150","992.460000000021","1000","[[[""img/mask2.png""]]]","","","main","4","color-precision2"
"","","","","","html-keyboard-response","108","434920","0.0-10.0-1.44","63ed04d2ce3b27bda2fbbb9c","640759fa512f630a2bdc333d","6408c174d622b9d5c03a5603","null","","null","","","","","","","","","","","","","","","","","","","fixation","",""
"","","","","","color-precision2","109","439872","0.0-10.0-0.45-0.45","63ed04d2ce3b27bda2fbbb9c","640759fa512f630a2bdc333d","6408c174d622b9d5c03a5603","[2361]","","","[1]","[118]","118","93","221.8853672556583","[221.8853672556583]","[128.8853672556583]","[129]","0","0","1","0","149.32000000000698","1005.820000000007","1000","[[[""img/mask7.png""]]]","","","main","93","color-precision2"
"","","","","","html-keyboard-response","110","440385","0.0-10.0-1.45","63ed04d2ce3b27bda2fbbb9c","640759fa512f630a2bdc333d","6408c174d622b9d5c03a5603","null","","null","","","","","","","","","","","","","","","","","","","fixation","",""
"","","","","","color-precision2","111","445224","0.0-10.0-0.46-0.46","63ed04d2ce3b27bda2fbbb9c","640759fa512f630a2bdc333d","6408c174d622b9d5c03a5603","[2254]","","","[20]","[358]","358","105","113.54848578279652","[113.54848578279652]","[8.548485782796519]","[7]","0","0","1","0","149.67999999999302","1001.0599999999977","1000","[[[""img/mask33.png""]]]","","","main","105","color-precision2"
"","","","","","html-keyboard-response","112","445725","0.0-10.0-1.46","63ed04d2ce3b27bda2fbbb9c","640759fa512f630a2bdc333d","6408c174d622b9d5c03a5603","null","","null","","","","","","","","","","","","","","","","","","","fixation","",""
"","","","","","many-guess-6","113","451584","0.0-10.0-0.47-0.47","63ed04d2ce3b27bda2fbbb9c","640759fa512f630a2bdc333d","6408c174d622b9d5c03a5603","[4074]","","","[3,10,20,28,24,22,4,17,5,11,14,6,19,18,29,7,16,15,9,31,1,25,0,13,26,27,32,8,35,21,30,2,33,23,34,12]","[356,297,97,317,327,307,7,77,147,167,207,117,27,187,87,57,157,47,107,217,257,346,37,17,287,197,337,227,177,237,247,137,127,67,267,277]","356","234","28.248622945183094","[28.248622945183094]","[154.2486229451831]","[153]","[210,210,300,120,30,300,300,300,120]","0","36","0","149.38000000000466","15.78000000002794","16","[[[""img/mask21.png""],[""img/mask34.png""],[""img/mask48.png""],[""img/mask14.png""],[""img/mask2.png""],[""img/mask86.png""],[""img/mask73.png""],[""img/mask40.png""],[""img/mask92.png""],[""img/mask70.png""],[""img/mask94.png""],[""img/mask43.png""],[""img/mask56.png""],[""img/mask68.png""],[""img/mask21.png""],[""img/mask93.png""],[""img/mask84.png""],[""img/mask35.png""],[""img/mask1.png""],[""img/mask29.png""],[""img/mask21.png""],[""img/mask95.png""],[""img/mask77.png""],[""img/mask13.png""],[""img/mask47.png""],[""img/mask45.png""],[""img/mask67.png""],[""img/mask98.png""],[""img/mask36.png""],[""img/mask8.png""],[""img/mask21.png""],[""img/mask6.png""],[""img/mask40.png""],[""img/mask63.png""],[""img/mask45.png""],[""img/mask18.png""]]]","","[3,10,20,28,24,22,4,17,5,11,14,6,19,18,29,7,16,15,9,31,1,25,0,13,26,27,32,8,35,21,30,2,33,23,34,12]","main","234","many-guess-6"
"","","","","","html-keyboard-response","114","452088","0.0-10.0-1.47","63ed04d2ce3b27bda2fbbb9c","640759fa512f630a2bdc333d","6408c174d622b9d5c03a5603","null","","null","","","","","","","","","","","","","","","","","","","fixation","",""
"","","","","","color-precision2","115","456857","0.0-10.0-0.48-0.48","63ed04d2ce3b27bda2fbbb9c","640759fa512f630a2bdc333d","6408c174d622b9d5c03a5603","[1786]","","","[19]","[181]","181","236","57.286829286649734","[57.286829286649734]","[181.28682928664972]","[181]","0","0","1","0","149.85999999998603","992.4400000000023","1000","[[[""img/mask39.png""]]]","","","main","236","color-precision2"
"","","","","","html-keyboard-response","116","457367","0.0-10.0-1.48","63ed04d2ce3b27bda2fbbb9c","640759fa512f630a2bdc333d","6408c174d622b9d5c03a5603","null","","null","","","","","","","","","","","","","","","","","","","fixation","",""
"","","","","","color-precision2","117","462584","0.0-10.0-0.49-0.49","63ed04d2ce3b27bda2fbbb9c","640759fa512f630a2bdc333d","6408c174d622b9d5c03a5603","[2190]","","","[32]","[295]","295","182","132.45312088408664","[132.45312088408664]","[310.4531208840866]","[309]","0","0","1","0","149.82000000000698","1004.320000000007","1000","[[[""img/mask7.png""]]]","","","main","182","color-precision2"
"","","","","","html-keyboard-response","118","463086","0.0-10.0-1.49","63ed04d2ce3b27bda2fbbb9c","640759fa512f630a2bdc333d","6408c174d622b9d5c03a5603","null","","null","","","","","","","","","","","","","","","","","","","fixation","",""
"","","","","","color-precision2","119","467760","0.0-10.0-0.50-0.50","63ed04d2ce3b27bda2fbbb9c","640759fa512f630a2bdc333d","6408c174d622b9d5c03a5603","[1791]","","","[12]","[110]","110","42","172.50865436453927","[172.50865436453927]","[130.50865436453927]","[130]","0","0","1","0","149.28000000002794","993.7600000000093","1000","[[[""img/mask66.png""]]]","","","main","42","color-precision2"
"","","","","","html-keyboard-response","120","468263","0.0-10.0-1.50","63ed04d2ce3b27bda2fbbb9c","640759fa512f630a2bdc333d","6408c174d622b9d5c03a5603","null","","null","","","","","","","","","","","","","","","","","","","fixation","",""
"","","","","","many-guess-6","121","476881","0.0-10.0-0.51-0.51","63ed04d2ce3b27bda2fbbb9c","640759fa512f630a2bdc333d","6408c174d622b9d5c03a5603","[6941]","","","[28,26,19,30,3,16,34,7,24,31,6,12,32,20,9,33,1,5,25,17,18,29,21,22,2,27,8,13,14,11,15,4,0,35,10,23]","[324,4,154,74,64,84,224,94,234,333,353,114,254,204,314,34,214,54,274,343,134,124,194,44,304,164,174,244,14,264,184,294,24,104,284,144]","324","32","206.27680654675896","[206.27680654675896]","[174.27680654675896]","[174]","[30,120,210,30,120,300,210,300,30]","0","36","0","148.71999999997206","25.119999999995343","16","[[[""img/mask93.png""],[""img/mask80.png""],[""img/mask45.png""],[""img/mask53.png""],[""img/mask18.png""],[""img/mask8.png""],[""img/mask58.png""],[""img/mask100.png""],[""img/mask69.png""],[""img/mask92.png""],[""img/mask35.png""],[""img/mask87.png""],[""img/mask61.png""],[""img/mask48.png""],[""img/mask53.png""],[""img/mask38.png""],[""img/mask22.png""],[""img/mask81.png""],[""img/mask74.png""],[""img/mask8.png""],[""img/mask64.png""],[""img/mask44.png""],[""img/mask53.png""],[""img/mask64.png""],[""img/mask33.png""],[""img/mask14.png""],[""img/mask79.png""],[""img/mask42.png""],[""img/mask16.png""],[""img/mask76.png""],[""img/mask34.png""],[""img/mask36.png""],[""img/mask73.png""],[""img/mask90.png""],[""img/mask52.png""],[""img/mask95.png""]]]","","[28,26,19,30,3,16,34,7,24,31,6,12,32,20,9,33,1,5,25,17,18,29,21,22,2,27,8,13,14,11,15,4,0,35,10,23]","main","32","many-guess-6"
"","","","","","html-keyboard-response","122","477390","0.0-10.0-1.51","63ed04d2ce3b27bda2fbbb9c","640759fa512f630a2bdc333d","6408c174d622b9d5c03a5603","null","","null","","","","","","","","","","","","","","","","","","","fixation","",""
"","","","","","color-precision2","123","483408","0.0-10.0-0.52-0.52","63ed04d2ce3b27bda2fbbb9c","640759fa512f630a2bdc333d","6408c174d622b9d5c03a5603","[3053]","","","[0]","[240]","240","303","194.24918102219323","[194.24918102219323]","[251.24918102219323]","[251]","0","0","1","0","149.7600000000093","1008.140000000014","1000","[[[""img/mask34.png""]]]","","","main","303","color-precision2"
"","","","","","html-keyboard-response","124","483918","0.0-10.0-1.52","63ed04d2ce3b27bda2fbbb9c","640759fa512f630a2bdc333d","6408c174d622b9d5c03a5603","null","","null","","","","","","","","","","","","","","","","","","","fixation","",""
"","","","","","color-precision2","125","489695","0.0-10.0-0.53-0.53","63ed04d2ce3b27bda2fbbb9c","640759fa512f630a2bdc333d","6408c174d622b9d5c03a5603","[2815]","","","[6]","[203]","203","157","339.57945804006107","[339.57945804006107]","[182.57945804006107]","[182]","0","0","1","0","150.2600000000093","993.7600000000093","1000","[[[""img/mask7.png""]]]","","","main","157","color-precision2"
"","","","","","html-keyboard-response","126","490200","0.0-10.0-1.53","63ed04d2ce3b27bda2fbbb9c","640759fa512f630a2bdc333d","6408c174d622b9d5c03a5603","null","","null","","","","","","","","","","","","","","","","","","","fixation","",""
"","","","","","many-guess-6","127","494136","0.0-10.0-0.54-0.54","63ed04d2ce3b27bda2fbbb9c","640759fa512f630a2bdc333d","6408c174d622b9d5c03a5603","[2432]","","","[25,0,21,7,12,9,32,8,13,19,28,16,18,17,1,4,20,30,26,34,15,24,2,31,27,10,22,33,11,29,3,5,6,23,14,35]","[315,6,36,96,146,76,166,86,126,335,286,186,176,216,226,66,355,196,16,106,46,116,276,345,236,246,56,256,206,156,26,136,266,295,325,305]","315","177","51.12319974524239","[51.12319974524239]","[234.1231997452424]","[233]","[210,120,30,210,210,30,210,300,120]","0","36","0","149.09999999997672","15.5","16","[[[""img/mask5.png""],[""img/mask96.png""],[""img/mask99.png""],[""img/mask21.png""],[""img/mask33.png""],[""img/mask65.png""],[""img/mask34.png""],[""img/mask83.png""],[""img/mask55.png""],[""img/mask66.png""],[""img/mask67.png""],[""img/mask51.png""],[""img/mask94.png""],[""img/mask74.png""],[""img/mask68.png""],[""img/mask73.png""],[""img/mask66.png""],[""img/mask100.png""],[""img/mask97.png""],[""img/mask30.png""],[""img/mask22.png""],[""img/mask10.png""],[""img/mask66.png""],[""img/mask13.png""],[""img/mask28.png""],[""img/mask75.png""],[""img/mask5.png""],[""img/mask53.png""],[""img/mask48.png""],[""img/mask15.png""],[""img/mask27.png""],[""img/mask29.png""],[""img/mask5.png""],[""img/mask57.png""],[""img/mask8.png""],[""img/mask15.png""]]]","","[25,0,21,7,12,9,32,8,13,19,28,16,18,17,1,4,20,30,26,34,15,24,2,31,27,10,22,33,11,29,3,5,6,23,14,35]","main","177","many-guess-6"
"","","","","","html-keyboard-response","128","494648","0.0-10.0-1.54","63ed04d2ce3b27bda2fbbb9c","640759fa512f630a2bdc333d","6408c174d622b9d5c03a5603","null","","null","","","","","","","","","","","","","","","","","","","fixation","",""
"","","","","","many-guess-6","129","498648","0.0-10.0-0.55-0.55","63ed04d2ce3b27bda2fbbb9c","640759fa512f630a2bdc333d","6408c174d622b9d5c03a5603","[2455]","","","[2,1,25,26,20,14,24,28,11,33,3,21,16,7,35,9,27,30,19,13,32,34,8,29,31,4,0,6,12,15,5,23,18,10,17,22]","[328,59,29,99,219,159,338,229,119,109,268,239,189,169,358,49,39,9,249,259,89,318,308,348,149,278,288,139,69,19,79,209,199,298,179,129]","328","79","58.87402434663721","[58.87402434663721]","[339.8740243466372]","[338]","[30,30,300,30,120,300,120,120,300]","0","36","0","149.82000000000698","17.21999999997206","16","[[[""img/mask96.png""],[""img/mask56.png""],[""img/mask65.png""],[""img/mask14.png""],[""img/mask66.png""],[""img/mask89.png""],[""img/mask15.png""],[""img/mask96.png""],[""img/mask69.png""],[""img/mask53.png""],[""img/mask13.png""],[""img/mask76.png""],[""img/mask97.png""],[""img/mask98.png""],[""img/mask83.png""],[""img/mask11.png""],[""img/mask87.png""],[""img/mask80.png""],[""img/mask41.png""],[""img/mask93.png""],[""img/mask18.png""],[""img/mask6.png""],[""img/mask96.png""],[""img/mask62.png""],[""img/mask67.png""],[""img/mask58.png""],[""img/mask47.png""],[""img/mask55.png""],[""img/mask52.png""],[""img/mask96.png""],[""img/mask36.png""],[""img/mask41.png""],[""img/mask50.png""],[""img/mask8.png""],[""img/mask61.png""],[""img/mask41.png""]]]","","[2,1,25,26,20,14,24,28,11,33,3,21,16,7,35,9,27,30,19,13,32,34,8,29,31,4,0,6,12,15,5,23,18,10,17,22]","main","79","many-guess-6"
"","","","","","html-keyboard-response","130","499150","0.0-10.0-1.55","63ed04d2ce3b27bda2fbbb9c","640759fa512f630a2bdc333d","6408c174d622b9d5c03a5603","null","","null","","","","","","","","","","","","","","","","","","","fixation","",""
"","","","","","many-guess-6","131","504192","0.0-10.0-0.56-0.56","63ed04d2ce3b27bda2fbbb9c","640759fa512f630a2bdc333d","6408c174d622b9d5c03a5603","[3376]","","","[22,31,16,30,20,32,26,2,11,17,10,14,18,5,7,6,19,15,25,9,35,8,21,1,3,12,13,29,34,0,33,27,23,28,4,24]","[344,285,5,315,215,205,265,85,35,135,155,65,95,295,125,165,324,15,75,115,334,45,225,235,354,55,255,305,195,105,145,25,175,185,275,245]","344","83","246.02552313288584","[246.02552313288584]","[163.02552313288584]","[163]","[30,120,120,120,120,210,300,30,210]","0","36","0","149.79999999998836","18.20000000001164","16","[[[""img/mask27.png""],[""img/mask5.png""],[""img/mask18.png""],[""img/mask69.png""],[""img/mask51.png""],[""img/mask21.png""],[""img/mask100.png""],[""img/mask2.png""],[""img/mask40.png""],[""img/mask17.png""],[""img/mask32.png""],[""img/mask100.png""],[""img/mask32.png""],[""img/mask45.png""],[""img/mask54.png""],[""img/mask24.png""],[""img/mask57.png""],[""img/mask100.png""],[""img/mask25.png""],[""img/mask22.png""],[""img/mask63.png""],[""img/mask72.png""],[""img/mask90.png""],[""img/mask83.png""],[""img/mask74.png""],[""img/mask34.png""],[""img/mask49.png""],[""img/mask1.png""],[""img/mask68.png""],[""img/mask88.png""],[""img/mask94.png""],[""img/mask73.png""],[""img/mask8.png""],[""img/mask19.png""],[""img/mask16.png""],[""img/mask61.png""]]]","","[22,31,16,30,20,32,26,2,11,17,10,14,18,5,7,6,19,15,25,9,35,8,21,1,3,12,13,29,34,0,33,27,23,28,4,24]","main","83","many-guess-6"
"","","","","","html-keyboard-response","132","504694","0.0-10.0-1.56","63ed04d2ce3b27bda2fbbb9c","640759fa512f630a2bdc333d","6408c174d622b9d5c03a5603","null","","null","","","","","","","","","","","","","","","","","","","fixation","",""
"","","","","","many-guess-6","133","509432","0.0-10.0-0.57-0.57","63ed04d2ce3b27bda2fbbb9c","640759fa512f630a2bdc333d","6408c174d622b9d5c03a5603","[3042]","","","[23,15,3,28,25,21,14,31,12,20,1,33,26,8,2,0,24,27,17,11,30,18,4,16,19,9,29,22,32,35,10,7,13,5,6,34]","[287,336,167,187,77,177,217,316,346,27,87,147,237,137,97,326,356,7,257,277,157,47,37,207,267,197,17,57,227,247,107,117,307,127,297,67]","287","101","329.8597929519558","[329.8597929519558]","[228.8597929519558]","[229]","[30,300,30,210,210,300,120,300,300]","0","36","0","149.19999999995343","18.599999999976717","16","[[[""img/mask61.png""],[""img/mask18.png""],[""img/mask68.png""],[""img/mask72.png""],[""img/mask93.png""],[""img/mask66.png""],[""img/mask23.png""],[""img/mask76.png""],[""img/mask75.png""],[""img/mask7.png""],[""img/mask11.png""],[""img/mask52.png""],[""img/mask34.png""],[""img/mask26.png""],[""img/mask75.png""],[""img/mask31.png""],[""img/mask35.png""],[""img/mask46.png""],[""img/mask66.png""],[""img/mask86.png""],[""img/mask25.png""],[""img/mask35.png""],[""img/mask69.png""],[""img/mask30.png""],[""img/mask19.png""],[""img/mask42.png""],[""img/mask12.png""],[""img/mask42.png""],[""img/mask39.png""],[""img/mask40.png""],[""img/mask49.png""],[""img/mask41.png""],[""img/mask98.png""],[""img/mask88.png""],[""img/mask33.png""],[""img/mask86.png""]]]","","[23,15,3,28,25,21,14,31,12,20,1,33,26,8,2,0,24,27,17,11,30,18,4,16,19,9,29,22,32,35,10,7,13,5,6,34]","main","101","many-guess-6"
"","","","","","html-keyboard-response","134","509947","0.0-10.0-1.57","63ed04d2ce3b27bda2fbbb9c","640759fa512f630a2bdc333d","6408c174d622b9d5c03a5603","null","","null","","","","","","","","","","","","","","","","","","","fixation","",""
"","","","","","color-precision2","135","515632","0.0-10.0-0.58-0.58","63ed04d2ce3b27bda2fbbb9c","640759fa512f630a2bdc333d","6408c174d622b9d5c03a5603","[2182]","","","[12]","[48]","48","173","212.61276781904405","[212.61276781904405]","[39.61276781904405]","[39]","0","0","1","0","149.1600000000326","1007.5600000000559","1000","[[[""img/mask67.png""]]]","","","main","173","color-precision2"
"","","","","","html-keyboard-response","136","516133","0.0-10.0-1.58","63ed04d2ce3b27bda2fbbb9c","640759fa512f630a2bdc333d","6408c174d622b9d5c03a5603","null","","null","","","","","","","","","","","","","","","","","","","fixation","",""
"","","","","","color-precision2","137","523512","0.0-10.0-0.59-0.59","63ed04d2ce3b27bda2fbbb9c","640759fa512f630a2bdc333d","6408c174d622b9d5c03a5603","[4704]","","","[13]","[37]","37","37","71.40893549126143","[71.40893549126143]","[34.40893549126143]","[33]","0","0","1","0","150.45999999996275","996.9200000000419","1000","[[[""img/mask72.png""]]]","","","main","37","color-precision2"
"","","","","","html-keyboard-response","138","525822","0.0-10.0-1.59","63ed04d2ce3b27bda2fbbb9c","640759fa512f630a2bdc333d","6408c174d622b9d5c03a5603","2310","Wow! You've completed 60 out of 180 trials! </p> <p>  </p><p> Take a quick break, then press any key when you're ready to continue."," ","","","","","","","","","","","","","","","","","","","fixation","",""
"","","","","","color-precision2","139","530528","0.0-10.0-0.60-0.60","63ed04d2ce3b27bda2fbbb9c","640759fa512f630a2bdc333d","6408c174d622b9d5c03a5603","[1456]","","","[7]","[118]","118","62","199.97603930692685","[199.97603930692685]","[137.97603930692685]","[137]","0","0","1","0","149.4200000000419","1006.8399999999674","1000","[[[""img/mask51.png""]]]","","","main","62","color-precision2"
"","","","","","html-keyboard-response","140","531030","0.0-10.0-1.60","63ed04d2ce3b27bda2fbbb9c","640759fa512f630a2bdc333d","6408c174d622b9d5c03a5603","null","","null","","","","","","","","","","","","","","","","","","","fixation","",""
"","","","","","many-guess-6","141","534888","0.0-10.0-0.61-0.61","63ed04d2ce3b27bda2fbbb9c","640759fa512f630a2bdc333d","6408c174d622b9d5c03a5603","[2244]","","","[12,28,25,30,13,2,20,23,34,8,35,24,16,18,10,1,27,7,11,9,33,19,31,3,5,21,22,6,29,32,0,26,17,4,15,14]","[202,192,53,252,272,262,3,122,152,222,172,182,13,162,332,232,23,73,312,142,282,212,242,33,132,292,43,352,83,103,302,112,63,322,93,342]","202","224","241.10983910654107","[241.10983910654107]","[17.109839106541074]","[17]","[30,30,120,300,30,120,30,300,210]","0","36","0","149.02000000001863","11.42000000004191","16","[[[""img/mask96.png""],[""img/mask67.png""],[""img/mask64.png""],[""img/mask59.png""],[""img/mask89.png""],[""img/mask97.png""],[""img/mask68.png""],[""img/mask81.png""],[""img/mask15.png""],[""img/mask78.png""],[""img/mask98.png""],[""img/mask85.png""],[""img/mask47.png""],[""img/mask18.png""],[""img/mask60.png""],[""img/mask16.png""],[""img/mask33.png""],[""img/mask32.png""],[""img/mask9.png""],[""img/mask43.png""],[""img/mask50.png""],[""img/mask51.png""],[""img/mask48.png""],[""img/mask86.png""],[""img/mask72.png""],[""img/mask38.png""],[""img/mask21.png""],[""img/mask13.png""],[""img/mask38.png""],[""img/mask2.png""],[""img/mask53.png""],[""img/mask55.png""],[""img/mask23.png""],[""img/mask35.png""],[""img/mask76.png""],[""img/mask54.png""]]]","","[12,28,25,30,13,2,20,23,34,8,35,24,16,18,10,1,27,7,11,9,33,19,31,3,5,21,22,6,29,32,0,26,17,4,15,14]","main","224","many-guess-6"
"","","","","","html-keyboard-response","142","535390","0.0-10.0-1.61","63ed04d2ce3b27bda2fbbb9c","640759fa512f630a2bdc333d","6408c174d622b9d5c03a5603","null","","null","","","","","","","","","","","","","","","","","","","fixation","",""
"","","","","","many-guess-6","143","542024","0.0-10.0-0.62-0.62","63ed04d2ce3b27bda2fbbb9c","640759fa512f630a2bdc333d","6408c174d622b9d5c03a5603","[4974]","","","[11,32,1,23,19,24,16,35,18,30,20,8,28,22,7,10,29,13,26,4,27,25,5,31,33,14,17,12,34,0,9,15,2,6,3,21]","[226,296,46,286,156,256,345,56,336,6,86,216,316,116,96,106,166,246,206,196,176,236,146,16,326,126,186,66,136,276,26,355,36,76,266,306]","226","134","122.33369540635037","[122.33369540635037]","[348.3336954063504]","[347]","[210,120,300,120,30,120,210,210,300]","0","36","0","150","25.380000000004657","16","[[[""img/mask20.png""],[""img/mask33.png""],[""img/mask38.png""],[""img/mask2.png""],[""img/mask31.png""],[""img/mask27.png""],[""img/mask32.png""],[""img/mask29.png""],[""img/mask61.png""],[""img/mask16.png""],[""img/mask30.png""],[""img/mask88.png""],[""img/mask45.png""],[""img/mask40.png""],[""img/mask79.png""],[""img/mask11.png""],[""img/mask68.png""],[""img/mask7.png""],[""img/mask42.png""],[""img/mask42.png""],[""img/mask40.png""],[""img/mask96.png""],[""img/mask41.png""],[""img/mask33.png""],[""img/mask92.png""],[""img/mask50.png""],[""img/mask9.png""],[""img/mask33.png""],[""img/mask21.png""],[""img/mask60.png""],[""img/mask10.png""],[""img/mask11.png""],[""img/mask51.png""],[""img/mask31.png""],[""img/mask28.png""],[""img/mask50.png""]]]","","[11,32,1,23,19,24,16,35,18,30,20,8,28,22,7,10,29,13,26,4,27,25,5,31,33,14,17,12,34,0,9,15,2,6,3,21]","main","134","many-guess-6"
"","","","","","html-keyboard-response","144","542532","0.0-10.0-1.62","63ed04d2ce3b27bda2fbbb9c","640759fa512f630a2bdc333d","6408c174d622b9d5c03a5603","null","","null","","","","","","","","","","","","","","","","","","","fixation","",""
"","","","","","color-precision2","145","547159","0.0-10.0-0.63-0.63","63ed04d2ce3b27bda2fbbb9c","640759fa512f630a2bdc333d","6408c174d622b9d5c03a5603","[1314]","","","[14]","[87]","87","177","261.28114711262776","[261.28114711262776]","[84.28114711262776]","[85]","0","0","1","0","149.31999999994878","999.6999999999534","1000","[[[""img/mask100.png""]]]","","","main","177","color-precision2"
"","","","","","html-keyboard-response","146","547663","0.0-10.0-1.63","63ed04d2ce3b27bda2fbbb9c","640759fa512f630a2bdc333d","6408c174d622b9d5c03a5603","null","","null","","","","","","","","","","","","","","","","","","","fixation","",""
"","","","","","many-guess-6","147","553247","0.0-10.0-0.64-0.64","63ed04d2ce3b27bda2fbbb9c","640759fa512f630a2bdc333d","6408c174d622b9d5c03a5603","[3948]","","","[28,21,1,34,13,30,17,23,5,7,6,4,14,25,27,35,11,31,33,9,24,2,18,0,10,29,8,22,3,12,26,19,32,16,15,20]","[80,309,70,339,130,319,299,270,40,60,220,140,230,50,190,160,180,150,349,329,120,210,289,90,200,250,359,10,100,240,279,260,170,30,110,20]","80","113","337.70949889630987","[337.70949889630987]","[224.70949889630987]","[224]","[210,300,300,30,210,120,30,210,30]","0","36","0","148.80000000004657","20.180000000051223","16","[[[""img/mask43.png""],[""img/mask99.png""],[""img/mask48.png""],[""img/mask55.png""],[""img/mask86.png""],[""img/mask81.png""],[""img/mask25.png""],[""img/mask73.png""],[""img/mask87.png""],[""img/mask38.png""],[""img/mask73.png""],[""img/mask14.png""],[""img/mask56.png""],[""img/mask44.png""],[""img/mask86.png""],[""img/mask48.png""],[""img/mask50.png""],[""img/mask80.png""],[""img/mask28.png""],[""img/mask67.png""],[""img/mask87.png""],[""img/mask66.png""],[""img/mask12.png""],[""img/mask85.png""],[""img/mask39.png""],[""img/mask88.png""],[""img/mask19.png""],[""img/mask42.png""],[""img/mask90.png""],[""img/mask76.png""],[""img/mask27.png""],[""img/mask96.png""],[""img/mask74.png""],[""img/mask33.png""],[""img/mask81.png""],[""img/mask13.png""]]]","","[28,21,1,34,13,30,17,23,5,7,6,4,14,25,27,35,11,31,33,9,24,2,18,0,10,29,8,22,3,12,26,19,32,16,15,20]","main","113","many-guess-6"
"","","","","","html-keyboard-response","148","553751","0.0-10.0-1.64","63ed04d2ce3b27bda2fbbb9c","640759fa512f630a2bdc333d","6408c174d622b9d5c03a5603","null","","null","","","","","","","","","","","","","","","","","","","fixation","",""
"","","","","","color-precision2","149","558607","0.0-10.0-0.65-0.65","63ed04d2ce3b27bda2fbbb9c","640759fa512f630a2bdc333d","6408c174d622b9d5c03a5603","[2198]","","","[16]","[345]","345","169","159.52376402318848","[159.52376402318848]","[350.5237640231885]","[349]","0","0","1","0","149.11999999999534","1007.6199999999953","1000","[[[""img/mask72.png""]]]","","","main","169","color-precision2"
"","","","","","html-keyboard-response","150","559112","0.0-10.0-1.65","63ed04d2ce3b27bda2fbbb9c","640759fa512f630a2bdc333d","6408c174d622b9d5c03a5603","null","","null","","","","","","","","","","","","","","","","","","","fixation","",""
"","","","","","many-guess-6","151","565392","0.0-10.0-0.66-0.66","63ed04d2ce3b27bda2fbbb9c","640759fa512f630a2bdc333d","6408c174d622b9d5c03a5603","[3391]","","","[5,18,4,0,13,22,14,26,34,1,11,16,19,27,35,2,15,31,21,17,9,10,25,12,30,3,23,29,28,33,6,32,7,8,20,24]","[147,307,128,277,267,177,38,227,157,167,118,88,98,78,217,207,187,237,317,58,8,138,28,297,257,108,197,337,18,347,357,48,247,327,287,68]","147","307","330.24464069351745","[330.24464069351745]","[23.244640693517454]","[23]","[210,30,30,210,30,30,210,300,30]","0","36","0","147.81999999994878","26.21999999997206","16","[[[""img/mask56.png""],[""img/mask41.png""],[""img/mask2.png""],[""img/mask12.png""],[""img/mask17.png""],[""img/mask63.png""],[""img/mask17.png""],[""img/mask84.png""],[""img/mask70.png""],[""img/mask78.png""],[""img/mask97.png""],[""img/mask54.png""],[""img/mask37.png""],[""img/mask64.png""],[""img/mask99.png""],[""img/mask37.png""],[""img/mask59.png""],[""img/mask30.png""],[""img/mask12.png""],[""img/mask81.png""],[""img/mask2.png""],[""img/mask19.png""],[""img/mask86.png""],[""img/mask96.png""],[""img/mask34.png""],[""img/mask33.png""],[""img/mask93.png""],[""img/mask74.png""],[""img/mask17.png""],[""img/mask10.png""],[""img/mask53.png""],[""img/mask53.png""],[""img/mask25.png""],[""img/mask73.png""],[""img/mask34.png""],[""img/mask55.png""]]]","","[5,18,4,0,13,22,14,26,34,1,11,16,19,27,35,2,15,31,21,17,9,10,25,12,30,3,23,29,28,33,6,32,7,8,20,24]","main","307","many-guess-6"
"","","","","","html-keyboard-response","152","565903","0.0-10.0-1.66","63ed04d2ce3b27bda2fbbb9c","640759fa512f630a2bdc333d","6408c174d622b9d5c03a5603","null","","null","","","","","","","","","","","","","","","","","","","fixation","",""
"","","","","","color-precision2","153","570271","0.0-10.0-0.67-0.67","63ed04d2ce3b27bda2fbbb9c","640759fa512f630a2bdc333d","6408c174d622b9d5c03a5603","[1645]","","","[23]","[306]","306","212","148.173361789301","[148.173361789301]","[296.173361789301]","[295]","0","0","1","0","149.4200000000419","1007.8000000000466","1000","[[[""img/mask60.png""]]]","","","main","212","color-precision2"
"","","","","","html-keyboard-response","154","570774","0.0-10.0-1.67","63ed04d2ce3b27bda2fbbb9c","640759fa512f630a2bdc333d","6408c174d622b9d5c03a5603","null","","null","","","","","","","","","","","","","","","","","","","fixation","",""
"","","","","","color-precision2","155","575295","0.0-10.0-0.68-0.68","63ed04d2ce3b27bda2fbbb9c","640759fa512f630a2bdc333d","6408c174d622b9d5c03a5603","[1580]","","","[2]","[292]","292","174","106.92435365554942","[106.92435365554942]","[292.92435365554945]","[292]","0","0","1","0","149.09999999997672","1001.6999999999534","1000","[[[""img/mask100.png""]]]","","","main","174","color-precision2"
"","","","","","html-keyboard-response","156","575800","0.0-10.0-1.68","63ed04d2ce3b27bda2fbbb9c","640759fa512f630a2bdc333d","6408c174d622b9d5c03a5603","null","","null","","","","","","","","","","","","","","","","","","","fixation","",""
"","","","","","many-guess-6","157","581679","0.0-10.0-0.69-0.69","63ed04d2ce3b27bda2fbbb9c","640759fa512f630a2bdc333d","6408c174d622b9d5c03a5603","[3957]","","","[13,23,1,25,7,12,19,10,35,26,34,22,31,29,2,17,24,27,18,14,30,16,32,20,4,15,8,5,0,9,33,21,11,6,28,3]","[245,175,215,225,334,185,195,35,265,155,275,45,135,145,115,344,15,85,125,25,55,304,75,65,324,165,314,205,95,105,235,294,285,5,255,354]","245","82","145.89902627574628","[145.89902627574628]","[63.89902627574628]","[62]","[300,300,300,120,300,30,210,120,210]","0","36","0","149.4200000000419","16.800000000046566","16","[[[""img/mask90.png""],[""img/mask11.png""],[""img/mask55.png""],[""img/mask68.png""],[""img/mask1.png""],[""img/mask80.png""],[""img/mask31.png""],[""img/mask52.png""],[""img/mask57.png""],[""img/mask48.png""],[""img/mask50.png""],[""img/mask3.png""],[""img/mask10.png""],[""img/mask46.png""],[""img/mask66.png""],[""img/mask17.png""],[""img/mask35.png""],[""img/mask11.png""],[""img/mask49.png""],[""img/mask18.png""],[""img/mask92.png""],[""img/mask41.png""],[""img/mask59.png""],[""img/mask27.png""],[""img/mask70.png""],[""img/mask64.png""],[""img/mask73.png""],[""img/mask99.png""],[""img/mask59.png""],[""img/mask35.png""],[""img/mask50.png""],[""img/mask89.png""],[""img/mask59.png""],[""img/mask99.png""],[""img/mask53.png""],[""img/mask54.png""]]]","","[13,23,1,25,7,12,19,10,35,26,34,22,31,29,2,17,24,27,18,14,30,16,32,20,4,15,8,5,0,9,33,21,11,6,28,3]","main","82","many-guess-6"
"","","","","","html-keyboard-response","158","582190","0.0-10.0-1.69","63ed04d2ce3b27bda2fbbb9c","640759fa512f630a2bdc333d","6408c174d622b9d5c03a5603","null","","null","","","","","","","","","","","","","","","","","","","fixation","",""
"","","","","","many-guess-6","159","586672","0.0-10.0-0.70-0.70","63ed04d2ce3b27bda2fbbb9c","640759fa512f630a2bdc333d","6408c174d622b9d5c03a5603","[2558]","","","[21,20,10,1,22,14,33,26,17,11,32,8,24,9,25,3,35,29,15,12,2,4,30,31,28,0,13,34,19,7,16,27,5,18,6,23]","[44,153,24,293,203,173,54,114,193,84,283,34,303,133,233,343,243,124,223,4,143,323,14,74,273,253,94,213,353,313,163,333,183,104,263,64]","44","170","330.29716314894273","[330.29716314894273]","[160.29716314894273]","[160]","[300,300,120,300,30,120,210,300,30]","0","36","0","149.7600000000093","27.160000000032596","16","[[[""img/mask14.png""],[""img/mask38.png""],[""img/mask56.png""],[""img/mask35.png""],[""img/mask13.png""],[""img/mask1.png""],[""img/mask8.png""],[""img/mask13.png""],[""img/mask43.png""],[""img/mask47.png""],[""img/mask25.png""],[""img/mask90.png""],[""img/mask21.png""],[""img/mask8.png""],[""img/mask88.png""],[""img/mask26.png""],[""img/mask39.png""],[""img/mask19.png""],[""img/mask9.png""],[""img/mask92.png""],[""img/mask82.png""],[""img/mask89.png""],[""img/mask51.png""],[""img/mask24.png""],[""img/mask13.png""],[""img/mask3.png""],[""img/mask64.png""],[""img/mask14.png""],[""img/mask11.png""],[""img/mask47.png""],[""img/mask14.png""],[""img/mask74.png""],[""img/mask8.png""],[""img/mask27.png""],[""img/mask41.png""],[""img/mask55.png""]]]","","[21,20,10,1,22,14,33,26,17,11,32,8,24,9,25,3,35,29,15,12,2,4,30,31,28,0,13,34,19,7,16,27,5,18,6,23]","main","170","many-guess-6"
"","","","","","html-keyboard-response","160","587173","0.0-10.0-1.70","63ed04d2ce3b27bda2fbbb9c","640759fa512f630a2bdc333d","6408c174d622b9d5c03a5603","null","","null","","","","","","","","","","","","","","","","","","","fixation","",""
"","","","","","color-precision2","161","592463","0.0-10.0-0.71-0.71","63ed04d2ce3b27bda2fbbb9c","640759fa512f630a2bdc333d","6408c174d622b9d5c03a5603","[2626]","","","[32]","[149]","149","223","27.045542144335478","[27.045542144335478]","[164.04554214433549]","[163]","0","0","1","0","149.35999999998603","997.859999999986","1000","[[[""img/mask33.png""]]]","","","main","223","color-precision2"
"","","","","","html-keyboard-response","162","592975","0.0-10.0-1.71","63ed04d2ce3b27bda2fbbb9c","640759fa512f630a2bdc333d","6408c174d622b9d5c03a5603","null","","null","","","","","","","","","","","","","","","","","","","fixation","",""
"","","","","","color-precision2","163","598534","0.0-10.0-0.72-0.72","63ed04d2ce3b27bda2fbbb9c","640759fa512f630a2bdc333d","6408c174d622b9d5c03a5603","[2739]","","","[1]","[281]","281","297","229.05940693150254","[229.05940693150254]","[292.0594069315025]","[292]","0","0","1","0","149.56000000005588","996.0799999999581","1000","[[[""img/mask68.png""]]]","","","main","297","color-precision2"
"","","","","","html-keyboard-response","164","599036","0.0-10.0-1.72","63ed04d2ce3b27bda2fbbb9c","640759fa512f630a2bdc333d","6408c174d622b9d5c03a5603","null","","null","","","","","","","","","","","","","","","","","","","fixation","",""
"","","","","","many-guess-6","165","603551","0.0-10.0-0.73-0.73","63ed04d2ce3b27bda2fbbb9c","640759fa512f630a2bdc333d","6408c174d622b9d5c03a5603","[2714]","","","[31,30,13,27,2,16,12,26,8,10,32,29,15,21,34,19,1,3,4,14,11,18,22,25,9,28,0,6,7,23,17,20,24,33,35,5]","[146,195,136,215,245,126,46,16,96,295,265,315,26,6,116,56,345,155,255,86,76,305,285,205,66,185,335,275,355,165,175,106,225,325,36,235]","146","192","341.26267046417144","[341.26267046417144]","[149.26267046417144]","[149]","[300,300,210,30,300,210,30,30,210]","0","36","0","149.68000000005122","15.21999999997206","16","[[[""img/mask18.png""],[""img/mask5.png""],[""img/mask5.png""],[""img/mask10.png""],[""img/mask29.png""],[""img/mask22.png""],[""img/mask79.png""],[""img/mask73.png""],[""img/mask99.png""],[""img/mask79.png""],[""img/mask37.png""],[""img/mask15.png""],[""img/mask55.png""],[""img/mask80.png""],[""img/mask38.png""],[""img/mask55.png""],[""img/mask57.png""],[""img/mask2.png""],[""img/mask53.png""],[""img/mask87.png""],[""img/mask75.png""],[""img/mask7.png""],[""img/mask48.png""],[""img/mask38.png""],[""img/mask65.png""],[""img/mask9.png""],[""img/mask11.png""],[""img/mask93.png""],[""img/mask40.png""],[""img/mask65.png""],[""img/mask49.png""],[""img/mask66.png""],[""img/mask74.png""],[""img/mask48.png""],[""img/mask25.png""],[""img/mask86.png""]]]","","[31,30,13,27,2,16,12,26,8,10,32,29,15,21,34,19,1,3,4,14,11,18,22,25,9,28,0,6,7,23,17,20,24,33,35,5]","main","192","many-guess-6"
"","","","","","html-keyboard-response","166","604062","0.0-10.0-1.73","63ed04d2ce3b27bda2fbbb9c","640759fa512f630a2bdc333d","6408c174d622b9d5c03a5603","null","","null","","","","","","","","","","","","","","","","","","","fixation","",""
"","","","","","many-guess-6","167","607680","0.0-10.0-0.74-0.74","63ed04d2ce3b27bda2fbbb9c","640759fa512f630a2bdc333d","6408c174d622b9d5c03a5603","[2070]","","","[4,16,7,1,22,33,29,23,31,5,28,6,30,13,17,10,34,8,0,2,27,14,20,15,25,18,9,24,19,12,35,3,32,11,26,21]","[297,58,18,28,88,68,38,8,237,307,327,208,287,138,198,78,257,108,218,148,277,188,317,168,118,48,267,178,347,158,357,98,227,128,247,337]","297","60","47.496592293667696","[47.496592293667696]","[347.4965922936677]","[346]","[300,30,210,120,120,120,210,30,210]","0","36","0","149.8399999999674","27.21999999997206","16","[[[""img/mask69.png""],[""img/mask39.png""],[""img/mask29.png""],[""img/mask74.png""],[""img/mask79.png""],[""img/mask50.png""],[""img/mask18.png""],[""img/mask79.png""],[""img/mask16.png""],[""img/mask53.png""],[""img/mask24.png""],[""img/mask15.png""],[""img/mask41.png""],[""img/mask86.png""],[""img/mask15.png""],[""img/mask82.png""],[""img/mask21.png""],[""img/mask46.png""],[""img/mask74.png""],[""img/mask71.png""],[""img/mask60.png""],[""img/mask41.png""],[""img/mask81.png""],[""img/mask55.png""],[""img/mask98.png""],[""img/mask68.png""],[""img/mask85.png""],[""img/mask26.png""],[""img/mask96.png""],[""img/mask69.png""],[""img/mask68.png""],[""img/mask37.png""],[""img/mask22.png""],[""img/mask10.png""],[""img/mask64.png""],[""img/mask76.png""]]]","","[4,16,7,1,22,33,29,23,31,5,28,6,30,13,17,10,34,8,0,2,27,14,20,15,25,18,9,24,19,12,35,3,32,11,26,21]","main","60","many-guess-6"
"","","","","","html-keyboard-response","168","608189","0.0-10.0-1.74","63ed04d2ce3b27bda2fbbb9c","640759fa512f630a2bdc333d","6408c174d622b9d5c03a5603","null","","null","","","","","","","","","","","","","","","","","","","fixation","",""
"","","","","","color-precision2","169","613823","0.0-10.0-0.75-0.75","63ed04d2ce3b27bda2fbbb9c","640759fa512f630a2bdc333d","6408c174d622b9d5c03a5603","[2672]","","","[7]","[357]","357","236","212.04529919061832","[212.04529919061832]","[336.0452991906183]","[336]","0","0","1","0","149.5799999999581","1000.9599999999627","1000","[[[""img/mask85.png""]]]","","","main","236","color-precision2"
"","","","","","html-keyboard-response","170","614335","0.0-10.0-1.75","63ed04d2ce3b27bda2fbbb9c","640759fa512f630a2bdc333d","6408c174d622b9d5c03a5603","null","","null","","","","","","","","","","","","","","","","","","","fixation","",""
"","","","","","color-precision2","171","618343","0.0-10.0-0.76-0.76","63ed04d2ce3b27bda2fbbb9c","640759fa512f630a2bdc333d","6408c174d622b9d5c03a5603","[1450]","","","[12]","[80]","80","290","3.9907481471881114","[3.9907481471881114]","[73.99074814718813]","[73]","0","0","1","0","149.19999999995343","1006.6800000000512","1000","[[[""img/mask95.png""]]]","","","main","290","color-precision2"
"","","","","","html-keyboard-response","172","618856","0.0-10.0-1.76","63ed04d2ce3b27bda2fbbb9c","640759fa512f630a2bdc333d","6408c174d622b9d5c03a5603","null","","null","","","","","","","","","","","","","","","","","","","fixation","",""
"","","","","","color-precision2","173","623422","0.0-10.0-0.77-0.77","63ed04d2ce3b27bda2fbbb9c","640759fa512f630a2bdc333d","6408c174d622b9d5c03a5603","[1840]","","","[19]","[272]","272","129","38.465161854842954","[38.465161854842954]","[269.46516185484296]","[268]","0","0","1","0","149","1001.4799999999814","1000","[[[""img/mask34.png""]]]","","","main","129","color-precision2"
"","","","","","html-keyboard-response","174","623935","0.0-10.0-1.77","63ed04d2ce3b27bda2fbbb9c","640759fa512f630a2bdc333d","6408c174d622b9d5c03a5603","null","","null","","","","","","","","","","","","","","","","","","","fixation","",""
