"success","timeout","failed_images","failed_audio","failed_video","trial_type","trial_index","time_elapsed","internal_node_id","subject_id","study_id","session_id","rt","stimulus","response","correct","locations","target_present","set_size","task","correct_response","target","foilCM","setSizeCM","searchCondition"
"true","false","[]","[]","[]","preload","0","69793","0.0-0.0","58dd9fe2e75d9c00011c24a9","619531dcf66c91622fa1b861","6195957291e5bff67dc1baac","","","","","","","","","","","","",""
"true","","","","","fullscreen","1","86410","0.0-1.0","58dd9fe2e75d9c00011c24a9","619531dcf66c91622fa1b861","6195957291e5bff67dc1baac","","","","","","","","","","","","",""
"","","","","","html-keyboard-response","2","98506","0.0-2.0","58dd9fe2e75d9c00011c24a9","619531dcf66c91622fa1b861","6195957291e5bff67dc1baac","12093.79999999702","What a beautiful Thursday to do some awesome science! </p> <p>  </p><p> </p>
    By completing this survey or questionnaire, you are consenting to be in this research study. </p>
    Your participation is voluntary and you can stop at any time.
    <p> [Press any key to continue.] </p>
    
    ","n","","","","","","","","","",""
"","","","","","video-keyboard-response","3","169433","0.0-3.0","58dd9fe2e75d9c00011c24a9","619531dcf66c91622fa1b861","6195957291e5bff67dc1baac","70918.79999999702","[""video/TaskInstructions.mp4""]"," ","","","","","","","","","",""
"","","","","","html-keyboard-response","4","175240","0.0-4.0","58dd9fe2e75d9c00011c24a9","619531dcf66c91622fa1b861","6195957291e5bff67dc1baac","5804.79999999702","
    <p>First, we're going to do a few practice trials to make sure you understand the task. You will recieve feedback on each trial. </p>
    <p>[Press any key to begin the familiarization phase.]</p>
    ","j","","","","","","","","","",""
"","","","","","visual-search-circle","5","183495","0.0-5.0-0.0","58dd9fe2e75d9c00011c24a9","619531dcf66c91622fa1b861","6195957291e5bff67dc1baac","7181.89999999851","","s","false","[[397,16],[16,202],[202,583],[583,397]]","true","4","training","d","","","",""
"","","","","","html-keyboard-response","6","200168","0.0-6.0","58dd9fe2e75d9c00011c24a9","619531dcf66c91622fa1b861","6195957291e5bff67dc1baac","16670.800000000745"," <div style='float: center;'><img src='img/feedbackWrong.png'></img> </div> ","n","","","","","","","","","",""
"","","","","","visual-search-circle","7","208455","0.0-7.0-0.0","58dd9fe2e75d9c00011c24a9","619531dcf66c91622fa1b861","6195957291e5bff67dc1baac","7275.199999999255","","s","true","[[168,569],[569,431],[431,30],[30,168]]","false","4","training","s","","","",""
"","","","","","html-keyboard-response","8","212193","0.0-8.0","58dd9fe2e75d9c00011c24a9","619531dcf66c91622fa1b861","6195957291e5bff67dc1baac","3734.400000002235"," <div style='float: center; '><img src='img/feedbackRight.png'></img> </div> "," ","","","","","","","","","",""
"","","","","","visual-search-circle","9","217278","0.0-9.0-0.0","58dd9fe2e75d9c00011c24a9","619531dcf66c91622fa1b861","6195957291e5bff67dc1baac","4074.7999999970198","","d","false","[[548,132],[279,0],[30,168],[51,467],[320,599],[569,431]]","false","6","training","s","","","",""
"","","","","","html-keyboard-response","10","225223","0.0-10.0","58dd9fe2e75d9c00011c24a9","619531dcf66c91622fa1b861","6195957291e5bff67dc1baac","7943.699999999255"," <div style='float: center;'><img src='img/feedbackWrong.png'></img> </div> "," ","","","","","","","","","",""
"","","","","","visual-search-circle","11","228223","0.0-11.0-0.0","58dd9fe2e75d9c00011c24a9","619531dcf66c91622fa1b861","6195957291e5bff67dc1baac","1976.5999999977648","","s","false","[[574,422],[580,192],[422,25],[192,19],[25,177],[19,407],[177,574],[407,580]]","true","8","training","d","","","",""
"","","","","","html-keyboard-response","12","234182","0.0-12.0","58dd9fe2e75d9c00011c24a9","619531dcf66c91622fa1b861","6195957291e5bff67dc1baac","5958.199999999255"," <div style='float: center;'><img src='img/feedbackWrong.png'></img> </div> "," ","","","","","","","","","",""
"","","","","","video-keyboard-response","13","237472","0.0-13.0","58dd9fe2e75d9c00011c24a9","619531dcf66c91622fa1b861","6195957291e5bff67dc1baac","3286.900000002235","[""video/endTraining.mp4""]"," ","","","","","","","","","",""
"","","","","","html-keyboard-response","14","237474","0.0-14.0-0.0-0.0","58dd9fe2e75d9c00011c24a9","619531dcf66c91622fa1b861","6195957291e5bff67dc1baac","null","","null","","","","","main_T1_ITI","","","","",""
"","","","","","visual-search-circle","15","242703","0.0-14.0-0.0-1.0","58dd9fe2e75d9c00011c24a9","619531dcf66c91622fa1b861","6195957291e5bff67dc1baac","4209.60000000149","","s","false","[[362,593],[551,463],[593,237],[463,48],[237,6],[48,136],[6,362],[136,551]]","true","8","main_T2_Trial","d","img/Fire_Down_Target.gif","[""img/Fire_Up_Distractor.gif"",""img/Fire_Up_Distractor.gif"",""img/Fire_Up_Distractor.gif"",""img/Fire_Up_Distractor.gif"",""img/Fire_Up_Distractor.gif"",""img/Fire_Up_Distractor.gif"",""img/Fire_Up_Distractor.gif"",""img/Fire_Up_Distractor.gif"",""img/Fire_Up_Distractor.gif"",""img/Fire_Up_Distractor.gif"",""img/Fire_Up_Distractor.gif"",""img/Fire_Up_Distractor.gif""]","8","targetDown_distractorsUp"
"","","","","","html-keyboard-response","16","242707","0.0-14.0-0.0-0.1","58dd9fe2e75d9c00011c24a9","619531dcf66c91622fa1b861","6195957291e5bff67dc1baac","null","","null","","","","","main_T1_ITI","","","","",""
"","","","","","visual-search-circle","17","244975","0.0-14.0-0.0-1.1","58dd9fe2e75d9c00011c24a9","619531dcf66c91622fa1b861","6195957291e5bff67dc1baac","1246.199999999255","","s","true","[[562,445],[557,145],[294,0],[37,154],[42,454],[305,599]]","false","6","main_T2_Trial","s","img/Fire_Down_Target.gif","[""img/Fire_Up_Distractor.gif"",""img/Fire_Up_Distractor.gif"",""img/Fire_Up_Distractor.gif"",""img/Fire_Up_Distractor.gif"",""img/Fire_Up_Distractor.gif"",""img/Fire_Up_Distractor.gif"",""img/Fire_Up_Distractor.gif"",""img/Fire_Up_Distractor.gif"",""img/Fire_Up_Distractor.gif"",""img/Fire_Up_Distractor.gif"",""img/Fire_Up_Distractor.gif"",""img/Fire_Up_Distractor.gif""]","6","targetDown_distractorsUp"
"","","","","","html-keyboard-response","18","244978","0.0-14.0-0.0-0.2","58dd9fe2e75d9c00011c24a9","619531dcf66c91622fa1b861","6195957291e5bff67dc1baac","null","","null","","","","","main_T1_ITI","","","","",""
"","","","","","visual-search-circle","19","249655","0.0-14.0-0.0-1.2","58dd9fe2e75d9c00011c24a9","619531dcf66c91622fa1b861","6195957291e5bff67dc1baac","3664.800000000745","","s","false","[[37,154],[154,562],[562,445],[445,37]]","true","4","main_T2_Trial","d","img/Fire_Up_Target.gif","[""img/Fire_Down_Distractor.gif"",""img/Fire_Down_Distractor.gif"",""img/Fire_Down_Distractor.gif"",""img/Fire_Down_Distractor.gif"",""img/Fire_Down_Distractor.gif"",""img/Fire_Down_Distractor.gif"",""img/Fire_Down_Distractor.gif"",""img/Fire_Down_Distractor.gif"",""img/Fire_Down_Distractor.gif"",""img/Fire_Down_Distractor.gif"",""img/Fire_Down_Distractor.gif"",""img/Fire_Down_Distractor.gif""]","4","targetUp_distractorsDown"
"","","","","","html-keyboard-response","20","249656","0.0-14.0-0.0-0.3","58dd9fe2e75d9c00011c24a9","619531dcf66c91622fa1b861","6195957291e5bff67dc1baac","null","","null","","","","","main_T1_ITI","","","","",""
"","","","","","visual-search-circle","21","253233","0.0-14.0-0.0-1.3","58dd9fe2e75d9c00011c24a9","619531dcf66c91622fa1b861","6195957291e5bff67dc1baac","2551.5","","s","false","[[594,242],[397,16],[103,73],[5,357],[202,583],[496,526]]","true","6","main_T2_Trial","d","img/Fire_Down_Target.gif","[""img/Fire_Up_Distractor.gif"",""img/Fire_Up_Distractor.gif"",""img/Fire_Up_Distractor.gif"",""img/Fire_Up_Distractor.gif"",""img/Fire_Up_Distractor.gif"",""img/Fire_Up_Distractor.gif"",""img/Fire_Up_Distractor.gif"",""img/Fire_Up_Distractor.gif"",""img/Fire_Up_Distractor.gif"",""img/Fire_Up_Distractor.gif"",""img/Fire_Up_Distractor.gif"",""img/Fire_Up_Distractor.gif""]","6","targetDown_distractorsUp"
"","","","","","html-keyboard-response","22","253235","0.0-14.0-0.0-0.4","58dd9fe2e75d9c00011c24a9","619531dcf66c91622fa1b861","6195957291e5bff67dc1baac","null","","null","","","","","main_T1_ITI","","","","",""
"","","","","","visual-search-circle","23","258495","0.0-14.0-0.0-1.4","58dd9fe2e75d9c00011c24a9","619531dcf66c91622fa1b861","6195957291e5bff67dc1baac","4245.10000000149","","s","true","[[268,598],[574,422],[500,77],[150,40],[6,362]]","false","5","main_T2_Trial","s","img/Fire_Up_Target.gif","[""img/Fire_Down_Distractor.gif"",""img/Fire_Down_Distractor.gif"",""img/Fire_Down_Distractor.gif"",""img/Fire_Down_Distractor.gif"",""img/Fire_Down_Distractor.gif"",""img/Fire_Down_Distractor.gif"",""img/Fire_Down_Distractor.gif"",""img/Fire_Down_Distractor.gif"",""img/Fire_Down_Distractor.gif"",""img/Fire_Down_Distractor.gif"",""img/Fire_Down_Distractor.gif"",""img/Fire_Down_Distractor.gif""]","5","targetUp_distractorsDown"
"","","","","","html-keyboard-response","24","258499","0.0-14.0-0.0-0.5","58dd9fe2e75d9c00011c24a9","619531dcf66c91622fa1b861","6195957291e5bff67dc1baac","null","","null","","","","","main_T1_ITI","","","","",""
"","","","","","visual-search-circle","25","260991","0.0-14.0-0.0-1.5","58dd9fe2e75d9c00011c24a9","619531dcf66c91622fa1b861","6195957291e5bff67dc1baac","1479.3999999985099","","d","true","[[279,599],[578,412],[492,70],[141,45],[8,372]]","true","5","main_T2_Trial","d","img/Fire_Down_Target.gif","[""img/Fire_Up_Distractor.gif"",""img/Fire_Up_Distractor.gif"",""img/Fire_Up_Distractor.gif"",""img/Fire_Up_Distractor.gif"",""img/Fire_Up_Distractor.gif"",""img/Fire_Up_Distractor.gif"",""img/Fire_Up_Distractor.gif"",""img/Fire_Up_Distractor.gif"",""img/Fire_Up_Distractor.gif"",""img/Fire_Up_Distractor.gif"",""img/Fire_Up_Distractor.gif"",""img/Fire_Up_Distractor.gif""]","5","targetDown_distractorsUp"
"","","","","","html-keyboard-response","26","260992","0.0-14.0-0.0-0.6","58dd9fe2e75d9c00011c24a9","619531dcf66c91622fa1b861","6195957291e5bff67dc1baac","null","","null","","","","","main_T1_ITI","","","","",""
"","","","","","visual-search-circle","27","264230","0.0-14.0-0.0-1.6","58dd9fe2e75d9c00011c24a9","619531dcf66c91622fa1b861","6195957291e5bff67dc1baac","2223.10000000149","","d","false","[[488,66],[66,111],[111,533],[533,488]]","false","4","main_T2_Trial","s","img/Fire_Down_Target.gif","[""img/Fire_Up_Distractor.gif"",""img/Fire_Up_Distractor.gif"",""img/Fire_Up_Distractor.gif"",""img/Fire_Up_Distractor.gif"",""img/Fire_Up_Distractor.gif"",""img/Fire_Up_Distractor.gif"",""img/Fire_Up_Distractor.gif"",""img/Fire_Up_Distractor.gif"",""img/Fire_Up_Distractor.gif"",""img/Fire_Up_Distractor.gif"",""img/Fire_Up_Distractor.gif"",""img/Fire_Up_Distractor.gif""]","4","targetDown_distractorsUp"
"","","","","","html-keyboard-response","28","264232","0.0-14.0-0.0-0.7","58dd9fe2e75d9c00011c24a9","619531dcf66c91622fa1b861","6195957291e5bff67dc1baac","null","","null","","","","","main_T1_ITI","","","","",""
"","","","","","visual-search-circle","29","266750","0.0-14.0-0.0-1.7","58dd9fe2e75d9c00011c24a9","619531dcf66c91622fa1b861","6195957291e5bff67dc1baac","1490.9000000022352","","s","true","[[599,315],[499,75],[248,4],[36,155],[23,415],[218,588],[474,544]]","false","7","main_T2_Trial","s","img/Fire_Up_Target.gif","[""img/Fire_Down_Distractor.gif"",""img/Fire_Down_Distractor.gif"",""img/Fire_Down_Distractor.gif"",""img/Fire_Down_Distractor.gif"",""img/Fire_Down_Distractor.gif"",""img/Fire_Down_Distractor.gif"",""img/Fire_Down_Distractor.gif"",""img/Fire_Down_Distractor.gif"",""img/Fire_Down_Distractor.gif"",""img/Fire_Down_Distractor.gif"",""img/Fire_Down_Distractor.gif"",""img/Fire_Down_Distractor.gif""]","7","targetUp_distractorsDown"
"","","","","","html-keyboard-response","30","266753","0.0-14.0-0.0-0.8","58dd9fe2e75d9c00011c24a9","619531dcf66c91622fa1b861","6195957291e5bff67dc1baac","null","","null","","","","","main_T1_ITI","","","","",""
"","","","","","visual-search-circle","31","273431","0.0-14.0-0.0-1.8","58dd9fe2e75d9c00011c24a9","619531dcf66c91622fa1b861","6195957291e5bff67dc1baac","5663.199999999255","","s","true","[[445,37],[37,154],[154,562],[562,445]]","false","4","main_T2_Trial","s","img/Fire_Up_Target.gif","[""img/Fire_Down_Distractor.gif"",""img/Fire_Down_Distractor.gif"",""img/Fire_Down_Distractor.gif"",""img/Fire_Down_Distractor.gif"",""img/Fire_Down_Distractor.gif"",""img/Fire_Down_Distractor.gif"",""img/Fire_Down_Distractor.gif"",""img/Fire_Down_Distractor.gif"",""img/Fire_Down_Distractor.gif"",""img/Fire_Down_Distractor.gif"",""img/Fire_Down_Distractor.gif"",""img/Fire_Down_Distractor.gif""]","4","targetUp_distractorsDown"
"","","","","","html-keyboard-response","32","273433","0.0-14.0-0.0-0.9","58dd9fe2e75d9c00011c24a9","619531dcf66c91622fa1b861","6195957291e5bff67dc1baac","null","","null","","","","","main_T1_ITI","","","","",""
"","","","","","visual-search-circle","33","276342","0.0-14.0-0.0-1.9","58dd9fe2e75d9c00011c24a9","619531dcf66c91622fa1b861","6195957291e5bff67dc1baac","1896.199999999255","","s","false","[[35,440],[212,586],[440,564],[586,387],[564,159],[387,13],[159,35],[13,212]]","true","8","main_T2_Trial","d","img/Fire_Up_Target.gif","[""img/Fire_Down_Distractor.gif"",""img/Fire_Down_Distractor.gif"",""img/Fire_Down_Distractor.gif"",""img/Fire_Down_Distractor.gif"",""img/Fire_Down_Distractor.gif"",""img/Fire_Down_Distractor.gif"",""img/Fire_Down_Distractor.gif"",""img/Fire_Down_Distractor.gif"",""img/Fire_Down_Distractor.gif"",""img/Fire_Down_Distractor.gif"",""img/Fire_Down_Distractor.gif"",""img/Fire_Down_Distractor.gif""]","8","targetUp_distractorsDown"
"","","","","","html-keyboard-response","34","276346","0.0-14.0-0.0-0.10","58dd9fe2e75d9c00011c24a9","619531dcf66c91622fa1b861","6195957291e5bff67dc1baac","null","","null","","","","","main_T1_ITI","","","","",""
"","","","","","visual-search-circle","35","278263","0.0-14.0-0.0-1.10","58dd9fe2e75d9c00011c24a9","619531dcf66c91622fa1b861","6195957291e5bff67dc1baac","893.6999999992549","","s","true","[[111,533],[364,592],[569,432],[571,171],[368,8],[114,64],[0,297]]","false","7","main_T2_Trial","s","img/Fire_Up_Target.gif","[""img/Fire_Down_Distractor.gif"",""img/Fire_Down_Distractor.gif"",""img/Fire_Down_Distractor.gif"",""img/Fire_Down_Distractor.gif"",""img/Fire_Down_Distractor.gif"",""img/Fire_Down_Distractor.gif"",""img/Fire_Down_Distractor.gif"",""img/Fire_Down_Distractor.gif"",""img/Fire_Down_Distractor.gif"",""img/Fire_Down_Distractor.gif"",""img/Fire_Down_Distractor.gif"",""img/Fire_Down_Distractor.gif""]","7","targetUp_distractorsDown"
"","","","","","html-keyboard-response","36","278266","0.0-14.0-0.0-0.11","58dd9fe2e75d9c00011c24a9","619531dcf66c91622fa1b861","6195957291e5bff67dc1baac","null","","null","","","","","main_T1_ITI","","","","",""
"","","","","","visual-search-circle","37","281398","0.0-14.0-0.0-1.11","58dd9fe2e75d9c00011c24a9","619531dcf66c91622fa1b861","6195957291e5bff67dc1baac","2112.699999999255","","s","true","[[48,136],[136,551],[551,463],[463,48]]","false","4","main_T2_Trial","s","img/Fire_Down_Target.gif","[""img/Fire_Up_Distractor.gif"",""img/Fire_Up_Distractor.gif"",""img/Fire_Up_Distractor.gif"",""img/Fire_Up_Distractor.gif"",""img/Fire_Up_Distractor.gif"",""img/Fire_Up_Distractor.gif"",""img/Fire_Up_Distractor.gif"",""img/Fire_Up_Distractor.gif"",""img/Fire_Up_Distractor.gif"",""img/Fire_Up_Distractor.gif"",""img/Fire_Up_Distractor.gif"",""img/Fire_Up_Distractor.gif""]","4","targetDown_distractorsUp"
"","","","","","html-keyboard-response","38","281401","0.0-14.0-0.0-0.12","58dd9fe2e75d9c00011c24a9","619531dcf66c91622fa1b861","6195957291e5bff67dc1baac","null","","null","","","","","main_T1_ITI","","","","",""
"","","","","","visual-search-circle","39","288992","0.0-14.0-0.0-1.12","58dd9fe2e75d9c00011c24a9","619531dcf66c91622fa1b861","6195957291e5bff67dc1baac","6580.199999999255","","d","false","[[578,187],[187,21],[21,412],[412,578]]","false","4","main_T2_Trial","s","img/Fire_Up_Target.gif","[""img/Fire_Down_Distractor.gif"",""img/Fire_Down_Distractor.gif"",""img/Fire_Down_Distractor.gif"",""img/Fire_Down_Distractor.gif"",""img/Fire_Down_Distractor.gif"",""img/Fire_Down_Distractor.gif"",""img/Fire_Down_Distractor.gif"",""img/Fire_Down_Distractor.gif"",""img/Fire_Down_Distractor.gif"",""img/Fire_Down_Distractor.gif"",""img/Fire_Down_Distractor.gif"",""img/Fire_Down_Distractor.gif""]","4","targetUp_distractorsDown"
"","","","","","html-keyboard-response","40","288994","0.0-14.0-0.0-0.13","58dd9fe2e75d9c00011c24a9","619531dcf66c91622fa1b861","6195957291e5bff67dc1baac","null","","null","","","","","main_T1_ITI","","","","",""
"","","","","","visual-search-circle","41","291990","0.0-14.0-0.0-1.13","58dd9fe2e75d9c00011c24a9","619531dcf66c91622fa1b861","6195957291e5bff67dc1baac","1977.199999999255","","s","false","[[529,492],[492,70],[70,107],[107,529]]","true","4","main_T2_Trial","d","img/Fire_Up_Target.gif","[""img/Fire_Down_Distractor.gif"",""img/Fire_Down_Distractor.gif"",""img/Fire_Down_Distractor.gif"",""img/Fire_Down_Distractor.gif"",""img/Fire_Down_Distractor.gif"",""img/Fire_Down_Distractor.gif"",""img/Fire_Down_Distractor.gif"",""img/Fire_Down_Distractor.gif"",""img/Fire_Down_Distractor.gif"",""img/Fire_Down_Distractor.gif"",""img/Fire_Down_Distractor.gif"",""img/Fire_Down_Distractor.gif""]","4","targetUp_distractorsDown"
"","","","","","html-keyboard-response","42","291992","0.0-14.0-0.0-0.14","58dd9fe2e75d9c00011c24a9","619531dcf66c91622fa1b861","6195957291e5bff67dc1baac","null","","null","","","","","main_T1_ITI","","","","",""
"","","","","","visual-search-circle","43","298270","0.0-14.0-0.0-1.14","58dd9fe2e75d9c00011c24a9","619531dcf66c91622fa1b861","6195957291e5bff67dc1baac","5256.5","","s","true","[[136,551],[488,533],[580,192],[284,0],[10,222]]","false","5","main_T2_Trial","s","img/Fire_Down_Target.gif","[""img/Fire_Up_Distractor.gif"",""img/Fire_Up_Distractor.gif"",""img/Fire_Up_Distractor.gif"",""img/Fire_Up_Distractor.gif"",""img/Fire_Up_Distractor.gif"",""img/Fire_Up_Distractor.gif"",""img/Fire_Up_Distractor.gif"",""img/Fire_Up_Distractor.gif"",""img/Fire_Up_Distractor.gif"",""img/Fire_Up_Distractor.gif"",""img/Fire_Up_Distractor.gif"",""img/Fire_Up_Distractor.gif""]","5","targetDown_distractorsUp"
"","","","","","html-keyboard-response","44","298272","0.0-14.0-0.0-0.15","58dd9fe2e75d9c00011c24a9","619531dcf66c91622fa1b861","6195957291e5bff67dc1baac","null","","null","","","","","main_T1_ITI","","","","",""
"","","","","","visual-search-circle","45","300951","0.0-14.0-0.0-1.15","58dd9fe2e75d9c00011c24a9","619531dcf66c91622fa1b861","6195957291e5bff67dc1baac","1664.699999999255","","s","false","[[10,222],[87,512],[377,589],[589,377],[512,87],[222,10]]","true","6","main_T2_Trial","d","img/Fire_Up_Target.gif","[""img/Fire_Down_Distractor.gif"",""img/Fire_Down_Distractor.gif"",""img/Fire_Down_Distractor.gif"",""img/Fire_Down_Distractor.gif"",""img/Fire_Down_Distractor.gif"",""img/Fire_Down_Distractor.gif"",""img/Fire_Down_Distractor.gif"",""img/Fire_Down_Distractor.gif"",""img/Fire_Down_Distractor.gif"",""img/Fire_Down_Distractor.gif"",""img/Fire_Down_Distractor.gif"",""img/Fire_Down_Distractor.gif""]","6","targetUp_distractorsDown"
"","","","","","html-keyboard-response","46","300953","0.0-14.0-0.0-0.16","58dd9fe2e75d9c00011c24a9","619531dcf66c91622fa1b861","6195957291e5bff67dc1baac","null","","null","","","","","main_T1_ITI","","","","",""
"","","","","","visual-search-circle","47","303423","0.0-14.0-0.0-1.16","58dd9fe2e75d9c00011c24a9","619531dcf66c91622fa1b861","6195957291e5bff67dc1baac","1457.800000000745","","s","true","[[519,504],[504,80],[80,95],[95,519]]","false","4","main_T2_Trial","s","img/Fire_Up_Target.gif","[""img/Fire_Down_Distractor.gif"",""img/Fire_Down_Distractor.gif"",""img/Fire_Down_Distractor.gif"",""img/Fire_Down_Distractor.gif"",""img/Fire_Down_Distractor.gif"",""img/Fire_Down_Distractor.gif"",""img/Fire_Down_Distractor.gif"",""img/Fire_Down_Distractor.gif"",""img/Fire_Down_Distractor.gif"",""img/Fire_Down_Distractor.gif"",""img/Fire_Down_Distractor.gif"",""img/Fire_Down_Distractor.gif""]","4","targetUp_distractorsDown"
"","","","","","html-keyboard-response","48","303425","0.0-14.0-0.0-0.17","58dd9fe2e75d9c00011c24a9","619531dcf66c91622fa1b861","6195957291e5bff67dc1baac","null","","null","","","","","main_T1_ITI","","","","",""
"","","","","","visual-search-circle","49","307590","0.0-14.0-0.0-1.17","58dd9fe2e75d9c00011c24a9","619531dcf66c91622fa1b861","6195957291e5bff67dc1baac","3134.39999999851","","s","false","[[202,583],[460,553],[598,332],[511,86],[264,2],[45,141],[17,400]]","true","7","main_T2_Trial","d","img/Fire_Up_Target.gif","[""img/Fire_Down_Distractor.gif"",""img/Fire_Down_Distractor.gif"",""img/Fire_Down_Distractor.gif"",""img/Fire_Down_Distractor.gif"",""img/Fire_Down_Distractor.gif"",""img/Fire_Down_Distractor.gif"",""img/Fire_Down_Distractor.gif"",""img/Fire_Down_Distractor.gif"",""img/Fire_Down_Distractor.gif"",""img/Fire_Down_Distractor.gif"",""img/Fire_Down_Distractor.gif"",""img/Fire_Down_Distractor.gif""]","7","targetUp_distractorsDown"
"","","","","","html-keyboard-response","50","307592","0.0-14.0-0.0-0.18","58dd9fe2e75d9c00011c24a9","619531dcf66c91622fa1b861","6195957291e5bff67dc1baac","null","","null","","","","","main_T1_ITI","","","","",""
"","","","","","visual-search-circle","51","310616","0.0-14.0-0.0-1.18","58dd9fe2e75d9c00011c24a9","619531dcf66c91622fa1b861","6195957291e5bff67dc1baac","1999.800000000745","","s","true","[[450,40],[150,40],[0,299],[149,559],[450,559],[600,300]]","false","6","main_T2_Trial","s","img/Fire_Up_Target.gif","[""img/Fire_Down_Distractor.gif"",""img/Fire_Down_Distractor.gif"",""img/Fire_Down_Distractor.gif"",""img/Fire_Down_Distractor.gif"",""img/Fire_Down_Distractor.gif"",""img/Fire_Down_Distractor.gif"",""img/Fire_Down_Distractor.gif"",""img/Fire_Down_Distractor.gif"",""img/Fire_Down_Distractor.gif"",""img/Fire_Down_Distractor.gif"",""img/Fire_Down_Distractor.gif"",""img/Fire_Down_Distractor.gif""]","6","targetUp_distractorsDown"
"","","","","","html-keyboard-response","52","318351","0.0-14.0-0.0-0.19","58dd9fe2e75d9c00011c24a9","619531dcf66c91622fa1b861","6195957291e5bff67dc1baac","7734","Wow! You've completed 20 out of 160 trials! </p> <p>  </p><p> Take a quick break, then press any key when you're ready to continue."," ","","","","","main_T1_ITI","","","","",""
"","","","","","visual-search-circle","53","325855","0.0-14.0-0.0-1.19","58dd9fe2e75d9c00011c24a9","619531dcf66c91622fa1b861","6195957291e5bff67dc1baac","6490.900000002235","","s","false","[[73,496],[417,576],[598,273],[367,7],[42,145]]","true","5","main_T2_Trial","d","img/Fire_Down_Target.gif","[""img/Fire_Up_Distractor.gif"",""img/Fire_Up_Distractor.gif"",""img/Fire_Up_Distractor.gif"",""img/Fire_Up_Distractor.gif"",""img/Fire_Up_Distractor.gif"",""img/Fire_Up_Distractor.gif"",""img/Fire_Up_Distractor.gif"",""img/Fire_Up_Distractor.gif"",""img/Fire_Up_Distractor.gif"",""img/Fire_Up_Distractor.gif"",""img/Fire_Up_Distractor.gif"",""img/Fire_Up_Distractor.gif""]","5","targetDown_distractorsUp"
"","","","","","html-keyboard-response","54","325858","0.0-14.0-0.0-0.20","58dd9fe2e75d9c00011c24a9","619531dcf66c91622fa1b861","6195957291e5bff67dc1baac","null","","null","","","","","main_T1_ITI","","","","",""
"","","","","","visual-search-circle","55","328751","0.0-14.0-0.0-1.20","58dd9fe2e75d9c00011c24a9","619531dcf66c91622fa1b861","6195957291e5bff67dc1baac","1867.199999999255","","d","true","[[91,84],[8,372],[217,588],[508,515],[591,227],[382,11]]","true","6","main_T2_Trial","d","img/Fire_Down_Target.gif","[""img/Fire_Up_Distractor.gif"",""img/Fire_Up_Distractor.gif"",""img/Fire_Up_Distractor.gif"",""img/Fire_Up_Distractor.gif"",""img/Fire_Up_Distractor.gif"",""img/Fire_Up_Distractor.gif"",""img/Fire_Up_Distractor.gif"",""img/Fire_Up_Distractor.gif"",""img/Fire_Up_Distractor.gif"",""img/Fire_Up_Distractor.gif"",""img/Fire_Up_Distractor.gif"",""img/Fire_Up_Distractor.gif""]","6","targetDown_distractorsUp"
"","","","","","html-keyboard-response","56","328753","0.0-14.0-0.0-0.21","58dd9fe2e75d9c00011c24a9","619531dcf66c91622fa1b861","6195957291e5bff67dc1baac","null","","null","","","","","main_T1_ITI","","","","",""
"","","","","","visual-search-circle","57","331967","0.0-14.0-0.0-1.21","58dd9fe2e75d9c00011c24a9","619531dcf66c91622fa1b861","6195957291e5bff67dc1baac","2189.5","","d","true","[[232,592],[486,535],[599,300],[487,65],[233,7],[30,169],[29,429]]","true","7","main_T2_Trial","d","img/Fire_Down_Target.gif","[""img/Fire_Up_Distractor.gif"",""img/Fire_Up_Distractor.gif"",""img/Fire_Up_Distractor.gif"",""img/Fire_Up_Distractor.gif"",""img/Fire_Up_Distractor.gif"",""img/Fire_Up_Distractor.gif"",""img/Fire_Up_Distractor.gif"",""img/Fire_Up_Distractor.gif"",""img/Fire_Up_Distractor.gif"",""img/Fire_Up_Distractor.gif"",""img/Fire_Up_Distractor.gif"",""img/Fire_Up_Distractor.gif""]","7","targetDown_distractorsUp"
"","","","","","html-keyboard-response","58","331973","0.0-14.0-0.0-0.22","58dd9fe2e75d9c00011c24a9","619531dcf66c91622fa1b861","6195957291e5bff67dc1baac","null","","null","","","","","main_T1_ITI","","","","",""
"","","","","","visual-search-circle","59","337238","0.0-14.0-0.0-1.22","58dd9fe2e75d9c00011c24a9","619531dcf66c91622fa1b861","6195957291e5bff67dc1baac","4252.800000000745","","d","true","[[341,597],[558,452],[580,193],[391,14],[133,50],[1,274],[93,517]]","true","7","main_T2_Trial","d","img/Fire_Up_Target.gif","[""img/Fire_Down_Distractor.gif"",""img/Fire_Down_Distractor.gif"",""img/Fire_Down_Distractor.gif"",""img/Fire_Down_Distractor.gif"",""img/Fire_Down_Distractor.gif"",""img/Fire_Down_Distractor.gif"",""img/Fire_Down_Distractor.gif"",""img/Fire_Down_Distractor.gif"",""img/Fire_Down_Distractor.gif"",""img/Fire_Down_Distractor.gif"",""img/Fire_Down_Distractor.gif"",""img/Fire_Down_Distractor.gif""]","7","targetUp_distractorsDown"
"","","","","","html-keyboard-response","60","337241","0.0-14.0-0.0-0.23","58dd9fe2e75d9c00011c24a9","619531dcf66c91622fa1b861","6195957291e5bff67dc1baac","null","","null","","","","","main_T1_ITI","","","","",""
"","","","","","visual-search-circle","61","343175","0.0-14.0-0.0-1.23","58dd9fe2e75d9c00011c24a9","619531dcf66c91622fa1b861","6195957291e5bff67dc1baac","4910.5","","s","true","[[580,192],[390,13],[132,50],[1,275],[94,518],[342,596],[558,451]]","false","7","main_T2_Trial","s","img/Fire_Down_Target.gif","[""img/Fire_Up_Distractor.gif"",""img/Fire_Up_Distractor.gif"",""img/Fire_Up_Distractor.gif"",""img/Fire_Up_Distractor.gif"",""img/Fire_Up_Distractor.gif"",""img/Fire_Up_Distractor.gif"",""img/Fire_Up_Distractor.gif"",""img/Fire_Up_Distractor.gif"",""img/Fire_Up_Distractor.gif"",""img/Fire_Up_Distractor.gif"",""img/Fire_Up_Distractor.gif"",""img/Fire_Up_Distractor.gif""]","7","targetDown_distractorsUp"
"","","","","","html-keyboard-response","62","343177","0.0-14.0-0.0-0.24","58dd9fe2e75d9c00011c24a9","619531dcf66c91622fa1b861","6195957291e5bff67dc1baac","null","","null","","","","","main_T1_ITI","","","","",""
"","","","","","visual-search-circle","63","345702","0.0-14.0-0.0-1.24","58dd9fe2e75d9c00011c24a9","619531dcf66c91622fa1b861","6195957291e5bff67dc1baac","1508.199999999255","","d","true","[[536,115],[115,63],[63,484],[484,536]]","true","4","main_T2_Trial","d","img/Fire_Up_Target.gif","[""img/Fire_Down_Distractor.gif"",""img/Fire_Down_Distractor.gif"",""img/Fire_Down_Distractor.gif"",""img/Fire_Down_Distractor.gif"",""img/Fire_Down_Distractor.gif"",""img/Fire_Down_Distractor.gif"",""img/Fire_Down_Distractor.gif"",""img/Fire_Down_Distractor.gif"",""img/Fire_Down_Distractor.gif"",""img/Fire_Down_Distractor.gif"",""img/Fire_Down_Distractor.gif"",""img/Fire_Down_Distractor.gif""]","4","targetUp_distractorsDown"
"","","","","","html-keyboard-response","64","345704","0.0-14.0-0.0-0.25","58dd9fe2e75d9c00011c24a9","619531dcf66c91622fa1b861","6195957291e5bff67dc1baac","null","","null","","","","","main_T1_ITI","","","","",""
"","","","","","visual-search-circle","65","348750","0.0-14.0-0.0-1.25","58dd9fe2e75d9c00011c24a9","619531dcf66c91622fa1b861","6195957291e5bff67dc1baac","2018.1000000014901","","d","true","[[508,84],[294,0],[84,91],[0,305],[91,515],[305,599],[515,508],[599,294]]","true","8","main_T2_Trial","d","img/Fire_Up_Target.gif","[""img/Fire_Down_Distractor.gif"",""img/Fire_Down_Distractor.gif"",""img/Fire_Down_Distractor.gif"",""img/Fire_Down_Distractor.gif"",""img/Fire_Down_Distractor.gif"",""img/Fire_Down_Distractor.gif"",""img/Fire_Down_Distractor.gif"",""img/Fire_Down_Distractor.gif"",""img/Fire_Down_Distractor.gif"",""img/Fire_Down_Distractor.gif"",""img/Fire_Down_Distractor.gif"",""img/Fire_Down_Distractor.gif""]","8","targetUp_distractorsDown"
"","","","","","html-keyboard-response","66","348752","0.0-14.0-0.0-0.26","58dd9fe2e75d9c00011c24a9","619531dcf66c91622fa1b861","6195957291e5bff67dc1baac","null","","null","","","","","main_T1_ITI","","","","",""
"","","","","","visual-search-circle","67","351174","0.0-14.0-0.0-1.26","58dd9fe2e75d9c00011c24a9","619531dcf66c91622fa1b861","6195957291e5bff67dc1baac","1404.8999999985099","","s","false","[[284,0],[0,315],[315,599],[599,284]]","true","4","main_T2_Trial","d","img/Fire_Up_Target.gif","[""img/Fire_Down_Distractor.gif"",""img/Fire_Down_Distractor.gif"",""img/Fire_Down_Distractor.gif"",""img/Fire_Down_Distractor.gif"",""img/Fire_Down_Distractor.gif"",""img/Fire_Down_Distractor.gif"",""img/Fire_Down_Distractor.gif"",""img/Fire_Down_Distractor.gif"",""img/Fire_Down_Distractor.gif"",""img/Fire_Down_Distractor.gif"",""img/Fire_Down_Distractor.gif"",""img/Fire_Down_Distractor.gif""]","4","targetUp_distractorsDown"
"","","","","","html-keyboard-response","68","351182","0.0-14.0-0.0-0.27","58dd9fe2e75d9c00011c24a9","619531dcf66c91622fa1b861","6195957291e5bff67dc1baac","null","","null","","","","","main_T1_ITI","","","","",""
"","","","","","visual-search-circle","69","353856","0.0-14.0-0.0-1.27","58dd9fe2e75d9c00011c24a9","619531dcf66c91622fa1b861","6195957291e5bff67dc1baac","1651.8999999985099","","s","false","[[467,548],[548,132],[132,51],[51,467]]","true","4","main_T2_Trial","d","img/Fire_Up_Target.gif","[""img/Fire_Down_Distractor.gif"",""img/Fire_Down_Distractor.gif"",""img/Fire_Down_Distractor.gif"",""img/Fire_Down_Distractor.gif"",""img/Fire_Down_Distractor.gif"",""img/Fire_Down_Distractor.gif"",""img/Fire_Down_Distractor.gif"",""img/Fire_Down_Distractor.gif"",""img/Fire_Down_Distractor.gif"",""img/Fire_Down_Distractor.gif"",""img/Fire_Down_Distractor.gif"",""img/Fire_Down_Distractor.gif""]","4","targetUp_distractorsDown"
"","","","","","html-keyboard-response","70","353858","0.0-14.0-0.0-0.28","58dd9fe2e75d9c00011c24a9","619531dcf66c91622fa1b861","6195957291e5bff67dc1baac","null","","null","","","","","main_T1_ITI","","","","",""
"","","","","","visual-search-circle","71","356814","0.0-14.0-0.0-1.28","58dd9fe2e75d9c00011c24a9","619531dcf66c91622fa1b861","6195957291e5bff67dc1baac","1935.2000000029802","","d","true","[[212,586],[504,519],[592,232],[387,13],[95,80],[7,367]]","true","6","main_T2_Trial","d","img/Fire_Down_Target.gif","[""img/Fire_Up_Distractor.gif"",""img/Fire_Up_Distractor.gif"",""img/Fire_Up_Distractor.gif"",""img/Fire_Up_Distractor.gif"",""img/Fire_Up_Distractor.gif"",""img/Fire_Up_Distractor.gif"",""img/Fire_Up_Distractor.gif"",""img/Fire_Up_Distractor.gif"",""img/Fire_Up_Distractor.gif"",""img/Fire_Up_Distractor.gif"",""img/Fire_Up_Distractor.gif"",""img/Fire_Up_Distractor.gif""]","6","targetDown_distractorsUp"
"","","","","","html-keyboard-response","72","356818","0.0-14.0-0.0-0.29","58dd9fe2e75d9c00011c24a9","619531dcf66c91622fa1b861","6195957291e5bff67dc1baac","null","","null","","","","","main_T1_ITI","","","","",""
"","","","","","visual-search-circle","73","362230","0.0-14.0-0.0-1.29","58dd9fe2e75d9c00011c24a9","619531dcf66c91622fa1b861","6195957291e5bff67dc1baac","4400.60000000149","","d","true","[[63,484],[341,597],[578,412],[536,115],[258,2],[21,187]]","true","6","main_T2_Trial","d","img/Fire_Up_Target.gif","[""img/Fire_Down_Distractor.gif"",""img/Fire_Down_Distractor.gif"",""img/Fire_Down_Distractor.gif"",""img/Fire_Down_Distractor.gif"",""img/Fire_Down_Distractor.gif"",""img/Fire_Down_Distractor.gif"",""img/Fire_Down_Distractor.gif"",""img/Fire_Down_Distractor.gif"",""img/Fire_Down_Distractor.gif"",""img/Fire_Down_Distractor.gif"",""img/Fire_Down_Distractor.gif"",""img/Fire_Down_Distractor.gif""]","6","targetUp_distractorsDown"
"","","","","","html-keyboard-response","74","362233","0.0-14.0-0.0-0.30","58dd9fe2e75d9c00011c24a9","619531dcf66c91622fa1b861","6195957291e5bff67dc1baac","null","","null","","","","","main_T1_ITI","","","","",""
"","","","","","visual-search-circle","75","367262","0.0-14.0-0.0-1.30","58dd9fe2e75d9c00011c24a9","619531dcf66c91622fa1b861","6195957291e5bff67dc1baac","4011.5","","s","false","[[597,263],[357,5],[37,154],[80,504],[426,571]]","true","5","main_T2_Trial","d","img/Fire_Up_Target.gif","[""img/Fire_Down_Distractor.gif"",""img/Fire_Down_Distractor.gif"",""img/Fire_Down_Distractor.gif"",""img/Fire_Down_Distractor.gif"",""img/Fire_Down_Distractor.gif"",""img/Fire_Down_Distractor.gif"",""img/Fire_Down_Distractor.gif"",""img/Fire_Down_Distractor.gif"",""img/Fire_Down_Distractor.gif"",""img/Fire_Down_Distractor.gif"",""img/Fire_Down_Distractor.gif"",""img/Fire_Down_Distractor.gif""]","5","targetUp_distractorsDown"
"","","","","","html-keyboard-response","76","367264","0.0-14.0-0.0-0.31","58dd9fe2e75d9c00011c24a9","619531dcf66c91622fa1b861","6195957291e5bff67dc1baac","null","","null","","","","","main_T1_ITI","","","","",""
"","","","","","visual-search-circle","77","372006","0.0-14.0-0.0-1.31","58dd9fe2e75d9c00011c24a9","619531dcf66c91622fa1b861","6195957291e5bff67dc1baac","3733.5","","s","false","[[372,8],[8,227],[227,591],[591,372]]","true","4","main_T2_Trial","d","img/Fire_Up_Target.gif","[""img/Fire_Down_Distractor.gif"",""img/Fire_Down_Distractor.gif"",""img/Fire_Down_Distractor.gif"",""img/Fire_Down_Distractor.gif"",""img/Fire_Down_Distractor.gif"",""img/Fire_Down_Distractor.gif"",""img/Fire_Down_Distractor.gif"",""img/Fire_Down_Distractor.gif"",""img/Fire_Down_Distractor.gif"",""img/Fire_Down_Distractor.gif"",""img/Fire_Down_Distractor.gif"",""img/Fire_Down_Distractor.gif""]","4","targetUp_distractorsDown"
"","","","","","html-keyboard-response","78","372013","0.0-14.0-0.0-0.32","58dd9fe2e75d9c00011c24a9","619531dcf66c91622fa1b861","6195957291e5bff67dc1baac","null","","null","","","","","main_T1_ITI","","","","",""
"","","","","","visual-search-circle","79","375326","0.0-14.0-0.0-1.32","58dd9fe2e75d9c00011c24a9","619531dcf66c91622fa1b861","6195957291e5bff67dc1baac","2285","","d","true","[[279,0],[73,103],[0,320],[103,526],[320,599],[526,496],[599,279],[496,73]]","true","8","main_T2_Trial","d","img/Fire_Up_Target.gif","[""img/Fire_Down_Distractor.gif"",""img/Fire_Down_Distractor.gif"",""img/Fire_Down_Distractor.gif"",""img/Fire_Down_Distractor.gif"",""img/Fire_Down_Distractor.gif"",""img/Fire_Down_Distractor.gif"",""img/Fire_Down_Distractor.gif"",""img/Fire_Down_Distractor.gif"",""img/Fire_Down_Distractor.gif"",""img/Fire_Down_Distractor.gif"",""img/Fire_Down_Distractor.gif"",""img/Fire_Down_Distractor.gif""]","8","targetUp_distractorsDown"
"","","","","","html-keyboard-response","80","375328","0.0-14.0-0.0-0.33","58dd9fe2e75d9c00011c24a9","619531dcf66c91622fa1b861","6195957291e5bff67dc1baac","null","","null","","","","","main_T1_ITI","","","","",""
"","","","","","visual-search-circle","81","378094","0.0-14.0-0.0-1.33","58dd9fe2e75d9c00011c24a9","619531dcf66c91622fa1b861","6195957291e5bff67dc1baac","1744.699999999255","","s","false","[[488,66],[192,19],[3,253],[111,533],[407,580],[596,346]]","true","6","main_T2_Trial","d","img/Fire_Down_Target.gif","[""img/Fire_Up_Distractor.gif"",""img/Fire_Up_Distractor.gif"",""img/Fire_Up_Distractor.gif"",""img/Fire_Up_Distractor.gif"",""img/Fire_Up_Distractor.gif"",""img/Fire_Up_Distractor.gif"",""img/Fire_Up_Distractor.gif"",""img/Fire_Up_Distractor.gif"",""img/Fire_Up_Distractor.gif"",""img/Fire_Up_Distractor.gif"",""img/Fire_Up_Distractor.gif"",""img/Fire_Up_Distractor.gif""]","6","targetDown_distractorsUp"
"","","","","","html-keyboard-response","82","378097","0.0-14.0-0.0-0.34","58dd9fe2e75d9c00011c24a9","619531dcf66c91622fa1b861","6195957291e5bff67dc1baac","null","","null","","","","","main_T1_ITI","","","","",""
"","","","","","visual-search-circle","83","382862","0.0-14.0-0.0-1.34","58dd9fe2e75d9c00011c24a9","619531dcf66c91622fa1b861","6195957291e5bff67dc1baac","3747.800000000745","","s","false","[[187,578],[529,492],[554,141],[227,8],[0,279]]","true","5","main_T2_Trial","d","img/Fire_Up_Target.gif","[""img/Fire_Down_Distractor.gif"",""img/Fire_Down_Distractor.gif"",""img/Fire_Down_Distractor.gif"",""img/Fire_Down_Distractor.gif"",""img/Fire_Down_Distractor.gif"",""img/Fire_Down_Distractor.gif"",""img/Fire_Down_Distractor.gif"",""img/Fire_Down_Distractor.gif"",""img/Fire_Down_Distractor.gif"",""img/Fire_Down_Distractor.gif"",""img/Fire_Down_Distractor.gif"",""img/Fire_Down_Distractor.gif""]","5","targetUp_distractorsDown"
"","","","","","html-keyboard-response","84","382868","0.0-14.0-0.0-0.35","58dd9fe2e75d9c00011c24a9","619531dcf66c91622fa1b861","6195957291e5bff67dc1baac","null","","null","","","","","main_T1_ITI","","","","",""
"","","","","","visual-search-circle","85","385590","0.0-14.0-0.0-1.35","58dd9fe2e75d9c00011c24a9","619531dcf66c91622fa1b861","6195957291e5bff67dc1baac","1700.699999999255","","s","false","[[508,515],[515,91],[91,84],[84,508]]","true","4","main_T2_Trial","d","img/Fire_Down_Target.gif","[""img/Fire_Up_Distractor.gif"",""img/Fire_Up_Distractor.gif"",""img/Fire_Up_Distractor.gif"",""img/Fire_Up_Distractor.gif"",""img/Fire_Up_Distractor.gif"",""img/Fire_Up_Distractor.gif"",""img/Fire_Up_Distractor.gif"",""img/Fire_Up_Distractor.gif"",""img/Fire_Up_Distractor.gif"",""img/Fire_Up_Distractor.gif"",""img/Fire_Up_Distractor.gif"",""img/Fire_Up_Distractor.gif""]","4","targetDown_distractorsUp"
"","","","","","html-keyboard-response","86","385594","0.0-14.0-0.0-0.36","58dd9fe2e75d9c00011c24a9","619531dcf66c91622fa1b861","6195957291e5bff67dc1baac","null","","null","","","","","main_T1_ITI","","","","",""
"","","","","","visual-search-circle","87","388710","0.0-14.0-0.0-1.36","58dd9fe2e75d9c00011c24a9","619531dcf66c91622fa1b861","6195957291e5bff67dc1baac","2097.199999999255","","s","true","[[476,542],[598,268],[422,25],[123,57],[1,331],[177,574]]","false","6","main_T2_Trial","s","img/Fire_Down_Target.gif","[""img/Fire_Up_Distractor.gif"",""img/Fire_Up_Distractor.gif"",""img/Fire_Up_Distractor.gif"",""img/Fire_Up_Distractor.gif"",""img/Fire_Up_Distractor.gif"",""img/Fire_Up_Distractor.gif"",""img/Fire_Up_Distractor.gif"",""img/Fire_Up_Distractor.gif"",""img/Fire_Up_Distractor.gif"",""img/Fire_Up_Distractor.gif"",""img/Fire_Up_Distractor.gif"",""img/Fire_Up_Distractor.gif""]","6","targetDown_distractorsUp"
"","","","","","html-keyboard-response","88","388712","0.0-14.0-0.0-0.37","58dd9fe2e75d9c00011c24a9","619531dcf66c91622fa1b861","6195957291e5bff67dc1baac","null","","null","","","","","main_T1_ITI","","","","",""
"","","","","","visual-search-circle","89","390830","0.0-14.0-0.0-1.37","58dd9fe2e75d9c00011c24a9","619531dcf66c91622fa1b861","6195957291e5bff67dc1baac","1090","","s","false","[[111,533],[364,592],[569,432],[571,171],[368,8],[114,64],[0,297]]","true","7","main_T2_Trial","d","img/Fire_Up_Target.gif","[""img/Fire_Down_Distractor.gif"",""img/Fire_Down_Distractor.gif"",""img/Fire_Down_Distractor.gif"",""img/Fire_Down_Distractor.gif"",""img/Fire_Down_Distractor.gif"",""img/Fire_Down_Distractor.gif"",""img/Fire_Down_Distractor.gif"",""img/Fire_Down_Distractor.gif"",""img/Fire_Down_Distractor.gif"",""img/Fire_Down_Distractor.gif"",""img/Fire_Down_Distractor.gif"",""img/Fire_Down_Distractor.gif""]","7","targetUp_distractorsDown"
"","","","","","html-keyboard-response","90","390832","0.0-14.0-0.0-0.38","58dd9fe2e75d9c00011c24a9","619531dcf66c91622fa1b861","6195957291e5bff67dc1baac","null","","null","","","","","main_T1_ITI","","","","",""
"","","","","","visual-search-circle","91","393094","0.0-14.0-0.0-1.38","58dd9fe2e75d9c00011c24a9","619531dcf66c91622fa1b861","6195957291e5bff67dc1baac","1238.1000000014901","","s","false","[[508,515],[598,271],[464,48],[205,15],[18,195],[43,455],[261,597]]","true","7","main_T2_Trial","d","img/Fire_Down_Target.gif","[""img/Fire_Up_Distractor.gif"",""img/Fire_Up_Distractor.gif"",""img/Fire_Up_Distractor.gif"",""img/Fire_Up_Distractor.gif"",""img/Fire_Up_Distractor.gif"",""img/Fire_Up_Distractor.gif"",""img/Fire_Up_Distractor.gif"",""img/Fire_Up_Distractor.gif"",""img/Fire_Up_Distractor.gif"",""img/Fire_Up_Distractor.gif"",""img/Fire_Up_Distractor.gif"",""img/Fire_Up_Distractor.gif""]","7","targetDown_distractorsUp"
"","","","","","html-keyboard-response","92","402614","0.0-14.0-0.0-0.39","58dd9fe2e75d9c00011c24a9","619531dcf66c91622fa1b861","6195957291e5bff67dc1baac","9519","Wow! You've completed 40 out of 160 trials! </p> <p>  </p><p> Take a quick break, then press any key when you're ready to continue."," ","","","","","main_T1_ITI","","","","",""
"","","","","","visual-search-circle","93","407766","0.0-14.0-0.0-1.39","58dd9fe2e75d9c00011c24a9","619531dcf66c91622fa1b861","6195957291e5bff67dc1baac","4129.400000002235","","d","true","[[232,592],[557,454],[526,103],[182,23],[1,326]]","true","5","main_T2_Trial","d","img/Fire_Down_Target.gif","[""img/Fire_Up_Distractor.gif"",""img/Fire_Up_Distractor.gif"",""img/Fire_Up_Distractor.gif"",""img/Fire_Up_Distractor.gif"",""img/Fire_Up_Distractor.gif"",""img/Fire_Up_Distractor.gif"",""img/Fire_Up_Distractor.gif"",""img/Fire_Up_Distractor.gif"",""img/Fire_Up_Distractor.gif"",""img/Fire_Up_Distractor.gif"",""img/Fire_Up_Distractor.gif"",""img/Fire_Up_Distractor.gif""]","5","targetDown_distractorsUp"
"","","","","","html-keyboard-response","94","407768","0.0-14.0-0.0-0.40","58dd9fe2e75d9c00011c24a9","619531dcf66c91622fa1b861","6195957291e5bff67dc1baac","null","","null","","","","","main_T1_ITI","","","","",""
"","","","","","visual-search-circle","95","413576","0.0-14.0-0.0-1.40","58dd9fe2e75d9c00011c24a9","619531dcf66c91622fa1b861","6195957291e5bff67dc1baac","4783.800000000745","","s","true","[[111,66],[3,346],[192,580],[488,533],[596,253],[407,19]]","false","6","main_T2_Trial","s","img/Fire_Down_Target.gif","[""img/Fire_Up_Distractor.gif"",""img/Fire_Up_Distractor.gif"",""img/Fire_Up_Distractor.gif"",""img/Fire_Up_Distractor.gif"",""img/Fire_Up_Distractor.gif"",""img/Fire_Up_Distractor.gif"",""img/Fire_Up_Distractor.gif"",""img/Fire_Up_Distractor.gif"",""img/Fire_Up_Distractor.gif"",""img/Fire_Up_Distractor.gif"",""img/Fire_Up_Distractor.gif"",""img/Fire_Up_Distractor.gif""]","6","targetDown_distractorsUp"
"","","","","","html-keyboard-response","96","413578","0.0-14.0-0.0-0.41","58dd9fe2e75d9c00011c24a9","619531dcf66c91622fa1b861","6195957291e5bff67dc1baac","null","","null","","","","","main_T1_ITI","","","","",""
"","","","","","visual-search-circle","97","417215","0.0-14.0-0.0-1.41","58dd9fe2e75d9c00011c24a9","619531dcf66c91622fa1b861","6195957291e5bff67dc1baac","2605.400000002235","","s","true","[[21,187],[23,417],[187,578],[417,576],[578,412],[576,182],[412,21],[182,23]]","false","8","main_T2_Trial","s","img/Fire_Up_Target.gif","[""img/Fire_Down_Distractor.gif"",""img/Fire_Down_Distractor.gif"",""img/Fire_Down_Distractor.gif"",""img/Fire_Down_Distractor.gif"",""img/Fire_Down_Distractor.gif"",""img/Fire_Down_Distractor.gif"",""img/Fire_Down_Distractor.gif"",""img/Fire_Down_Distractor.gif"",""img/Fire_Down_Distractor.gif"",""img/Fire_Down_Distractor.gif"",""img/Fire_Down_Distractor.gif"",""img/Fire_Down_Distractor.gif""]","8","targetUp_distractorsDown"
"","","","","","html-keyboard-response","98","417227","0.0-14.0-0.0-0.42","58dd9fe2e75d9c00011c24a9","619531dcf66c91622fa1b861","6195957291e5bff67dc1baac","null","","null","","","","","main_T1_ITI","","","","",""
"","","","","","visual-search-circle","99","422350","0.0-14.0-0.0-1.42","58dd9fe2e75d9c00011c24a9","619531dcf66c91622fa1b861","6195957291e5bff67dc1baac","4100.099999997765","","d","false","[[500,77],[207,14],[6,237],[99,522],[392,585],[593,362]]","false","6","main_T2_Trial","s","img/Fire_Up_Target.gif","[""img/Fire_Down_Distractor.gif"",""img/Fire_Down_Distractor.gif"",""img/Fire_Down_Distractor.gif"",""img/Fire_Down_Distractor.gif"",""img/Fire_Down_Distractor.gif"",""img/Fire_Down_Distractor.gif"",""img/Fire_Down_Distractor.gif"",""img/Fire_Down_Distractor.gif"",""img/Fire_Down_Distractor.gif"",""img/Fire_Down_Distractor.gif"",""img/Fire_Down_Distractor.gif"",""img/Fire_Down_Distractor.gif""]","6","targetUp_distractorsDown"
"","","","","","html-keyboard-response","100","422352","0.0-14.0-0.0-0.43","58dd9fe2e75d9c00011c24a9","619531dcf66c91622fa1b861","6195957291e5bff67dc1baac","null","","null","","","","","main_T1_ITI","","","","",""
"","","","","","visual-search-circle","101","426263","0.0-14.0-0.0-1.43","58dd9fe2e75d9c00011c24a9","619531dcf66c91622fa1b861","6195957291e5bff67dc1baac","2887.89999999851","","s","true","[[545,472],[595,247],[472,54],[247,4],[54,127],[4,352],[127,545],[352,595]]","false","8","main_T2_Trial","s","img/Fire_Down_Target.gif","[""img/Fire_Up_Distractor.gif"",""img/Fire_Up_Distractor.gif"",""img/Fire_Up_Distractor.gif"",""img/Fire_Up_Distractor.gif"",""img/Fire_Up_Distractor.gif"",""img/Fire_Up_Distractor.gif"",""img/Fire_Up_Distractor.gif"",""img/Fire_Up_Distractor.gif"",""img/Fire_Up_Distractor.gif"",""img/Fire_Up_Distractor.gif"",""img/Fire_Up_Distractor.gif"",""img/Fire_Up_Distractor.gif""]","8","targetDown_distractorsUp"
"","","","","","html-keyboard-response","102","426268","0.0-14.0-0.0-0.44","58dd9fe2e75d9c00011c24a9","619531dcf66c91622fa1b861","6195957291e5bff67dc1baac","null","","null","","","","","main_T1_ITI","","","","",""
"","","","","","visual-search-circle","103","430527","0.0-14.0-0.0-1.44","58dd9fe2e75d9c00011c24a9","619531dcf66c91622fa1b861","6195957291e5bff67dc1baac","3250.599999997765","","s","false","[[73,103],[103,526],[526,496],[496,73]]","true","4","main_T2_Trial","d","img/Fire_Down_Target.gif","[""img/Fire_Up_Distractor.gif"",""img/Fire_Up_Distractor.gif"",""img/Fire_Up_Distractor.gif"",""img/Fire_Up_Distractor.gif"",""img/Fire_Up_Distractor.gif"",""img/Fire_Up_Distractor.gif"",""img/Fire_Up_Distractor.gif"",""img/Fire_Up_Distractor.gif"",""img/Fire_Up_Distractor.gif"",""img/Fire_Up_Distractor.gif"",""img/Fire_Up_Distractor.gif"",""img/Fire_Up_Distractor.gif""]","4","targetDown_distractorsUp"
"","","","","","html-keyboard-response","104","430529","0.0-14.0-0.0-0.45","58dd9fe2e75d9c00011c24a9","619531dcf66c91622fa1b861","6195957291e5bff67dc1baac","null","","null","","","","","main_T1_ITI","","","","",""
"","","","","","visual-search-circle","105","433215","0.0-14.0-0.0-1.45","58dd9fe2e75d9c00011c24a9","619531dcf66c91622fa1b861","6195957291e5bff67dc1baac","1677.5","","s","false","[[467,51],[168,30],[0,279],[132,548],[431,569],[599,320]]","true","6","main_T2_Trial","d","img/Fire_Up_Target.gif","[""img/Fire_Down_Distractor.gif"",""img/Fire_Down_Distractor.gif"",""img/Fire_Down_Distractor.gif"",""img/Fire_Down_Distractor.gif"",""img/Fire_Down_Distractor.gif"",""img/Fire_Down_Distractor.gif"",""img/Fire_Down_Distractor.gif"",""img/Fire_Down_Distractor.gif"",""img/Fire_Down_Distractor.gif"",""img/Fire_Down_Distractor.gif"",""img/Fire_Down_Distractor.gif"",""img/Fire_Down_Distractor.gif""]","6","targetUp_distractorsDown"
"","","","","","html-keyboard-response","106","433218","0.0-14.0-0.0-0.46","58dd9fe2e75d9c00011c24a9","619531dcf66c91622fa1b861","6195957291e5bff67dc1baac","null","","null","","","","","main_T1_ITI","","","","",""
"","","","","","visual-search-circle","107","435814","0.0-14.0-0.0-1.46","58dd9fe2e75d9c00011c24a9","619531dcf66c91622fa1b861","6195957291e5bff67dc1baac","1574","","s","false","[[539,119],[263,2],[23,182],[60,480],[336,597],[576,417]]","true","6","main_T2_Trial","d","img/Fire_Up_Target.gif","[""img/Fire_Down_Distractor.gif"",""img/Fire_Down_Distractor.gif"",""img/Fire_Down_Distractor.gif"",""img/Fire_Down_Distractor.gif"",""img/Fire_Down_Distractor.gif"",""img/Fire_Down_Distractor.gif"",""img/Fire_Down_Distractor.gif"",""img/Fire_Down_Distractor.gif"",""img/Fire_Down_Distractor.gif"",""img/Fire_Down_Distractor.gif"",""img/Fire_Down_Distractor.gif"",""img/Fire_Down_Distractor.gif""]","6","targetUp_distractorsDown"
"","","","","","html-keyboard-response","108","435816","0.0-14.0-0.0-0.47","58dd9fe2e75d9c00011c24a9","619531dcf66c91622fa1b861","6195957291e5bff67dc1baac","null","","null","","","","","main_T1_ITI","","","","",""
"","","","","","visual-search-circle","109","438719","0.0-14.0-0.0-1.47","58dd9fe2e75d9c00011c24a9","619531dcf66c91622fa1b861","6195957291e5bff67dc1baac","1885.8999999985099","","s","false","[[294,0],[84,91],[0,305],[91,515],[305,599],[515,508],[599,294],[508,84]]","true","8","main_T2_Trial","d","img/Fire_Up_Target.gif","[""img/Fire_Down_Distractor.gif"",""img/Fire_Down_Distractor.gif"",""img/Fire_Down_Distractor.gif"",""img/Fire_Down_Distractor.gif"",""img/Fire_Down_Distractor.gif"",""img/Fire_Down_Distractor.gif"",""img/Fire_Down_Distractor.gif"",""img/Fire_Down_Distractor.gif"",""img/Fire_Down_Distractor.gif"",""img/Fire_Down_Distractor.gif"",""img/Fire_Down_Distractor.gif"",""img/Fire_Down_Distractor.gif""]","8","targetUp_distractorsDown"
"","","","","","html-keyboard-response","110","438722","0.0-14.0-0.0-0.48","58dd9fe2e75d9c00011c24a9","619531dcf66c91622fa1b861","6195957291e5bff67dc1baac","null","","null","","","","","main_T1_ITI","","","","",""
"","","","","","visual-search-circle","111","441343","0.0-14.0-0.0-1.48","58dd9fe2e75d9c00011c24a9","619531dcf66c91622fa1b861","6195957291e5bff67dc1baac","1591.2000000029802","","s","true","[[377,10],[150,40],[10,222],[40,450],[222,589],[450,559],[589,377],[559,150]]","false","8","main_T2_Trial","s","img/Fire_Down_Target.gif","[""img/Fire_Up_Distractor.gif"",""img/Fire_Up_Distractor.gif"",""img/Fire_Up_Distractor.gif"",""img/Fire_Up_Distractor.gif"",""img/Fire_Up_Distractor.gif"",""img/Fire_Up_Distractor.gif"",""img/Fire_Up_Distractor.gif"",""img/Fire_Up_Distractor.gif"",""img/Fire_Up_Distractor.gif"",""img/Fire_Up_Distractor.gif"",""img/Fire_Up_Distractor.gif"",""img/Fire_Up_Distractor.gif""]","8","targetDown_distractorsUp"
"","","","","","html-keyboard-response","112","441353","0.0-14.0-0.0-0.49","58dd9fe2e75d9c00011c24a9","619531dcf66c91622fa1b861","6195957291e5bff67dc1baac","null","","null","","","","","main_T1_ITI","","","","",""
"","","","","","visual-search-circle","113","444047","0.0-14.0-0.0-1.49","58dd9fe2e75d9c00011c24a9","619531dcf66c91622fa1b861","6195957291e5bff67dc1baac","1669.6000000014901","","s","false","[[431,569],[599,320],[467,51],[168,30],[0,279],[132,548]]","true","6","main_T2_Trial","d","img/Fire_Down_Target.gif","[""img/Fire_Up_Distractor.gif"",""img/Fire_Up_Distractor.gif"",""img/Fire_Up_Distractor.gif"",""img/Fire_Up_Distractor.gif"",""img/Fire_Up_Distractor.gif"",""img/Fire_Up_Distractor.gif"",""img/Fire_Up_Distractor.gif"",""img/Fire_Up_Distractor.gif"",""img/Fire_Up_Distractor.gif"",""img/Fire_Up_Distractor.gif"",""img/Fire_Up_Distractor.gif"",""img/Fire_Up_Distractor.gif""]","6","targetDown_distractorsUp"
"","","","","","html-keyboard-response","114","444049","0.0-14.0-0.0-0.50","58dd9fe2e75d9c00011c24a9","619531dcf66c91622fa1b861","6195957291e5bff67dc1baac","null","","null","","","","","main_T1_ITI","","","","",""
"","","","","","visual-search-circle","115","446182","0.0-14.0-0.0-1.50","58dd9fe2e75d9c00011c24a9","619531dcf66c91622fa1b861","6195957291e5bff67dc1baac","1113","","s","true","[[548,467],[569,168],[320,0],[51,132],[30,431],[279,599]]","false","6","main_T2_Trial","s","img/Fire_Up_Target.gif","[""img/Fire_Down_Distractor.gif"",""img/Fire_Down_Distractor.gif"",""img/Fire_Down_Distractor.gif"",""img/Fire_Down_Distractor.gif"",""img/Fire_Down_Distractor.gif"",""img/Fire_Down_Distractor.gif"",""img/Fire_Down_Distractor.gif"",""img/Fire_Down_Distractor.gif"",""img/Fire_Down_Distractor.gif"",""img/Fire_Down_Distractor.gif"",""img/Fire_Down_Distractor.gif"",""img/Fire_Down_Distractor.gif""]","6","targetUp_distractorsDown"
"","","","","","html-keyboard-response","116","446184","0.0-14.0-0.0-0.51","58dd9fe2e75d9c00011c24a9","619531dcf66c91622fa1b861","6195957291e5bff67dc1baac","null","","null","","","","","main_T1_ITI","","","","",""
"","","","","","visual-search-circle","117","449032","0.0-14.0-0.0-1.51","58dd9fe2e75d9c00011c24a9","619531dcf66c91622fa1b861","6195957291e5bff67dc1baac","1828.3999999985099","","s","true","[[387,13],[13,212],[212,586],[586,387]]","false","4","main_T2_Trial","s","img/Fire_Up_Target.gif","[""img/Fire_Down_Distractor.gif"",""img/Fire_Down_Distractor.gif"",""img/Fire_Down_Distractor.gif"",""img/Fire_Down_Distractor.gif"",""img/Fire_Down_Distractor.gif"",""img/Fire_Down_Distractor.gif"",""img/Fire_Down_Distractor.gif"",""img/Fire_Down_Distractor.gif"",""img/Fire_Down_Distractor.gif"",""img/Fire_Down_Distractor.gif"",""img/Fire_Down_Distractor.gif"",""img/Fire_Down_Distractor.gif""]","4","targetUp_distractorsDown"
"","","","","","html-keyboard-response","118","449036","0.0-14.0-0.0-0.52","58dd9fe2e75d9c00011c24a9","619531dcf66c91622fa1b861","6195957291e5bff67dc1baac","null","","null","","","","","main_T1_ITI","","","","",""
"","","","","","visual-search-circle","119","451944","0.0-14.0-0.0-1.52","58dd9fe2e75d9c00011c24a9","619531dcf66c91622fa1b861","6195957291e5bff67dc1baac","1887.800000000745","","s","true","[[154,562],[562,445],[445,37],[37,154]]","false","4","main_T2_Trial","s","img/Fire_Up_Target.gif","[""img/Fire_Down_Distractor.gif"",""img/Fire_Down_Distractor.gif"",""img/Fire_Down_Distractor.gif"",""img/Fire_Down_Distractor.gif"",""img/Fire_Down_Distractor.gif"",""img/Fire_Down_Distractor.gif"",""img/Fire_Down_Distractor.gif"",""img/Fire_Down_Distractor.gif"",""img/Fire_Down_Distractor.gif"",""img/Fire_Down_Distractor.gif"",""img/Fire_Down_Distractor.gif"",""img/Fire_Down_Distractor.gif""]","4","targetUp_distractorsDown"
"","","","","","html-keyboard-response","120","451946","0.0-14.0-0.0-0.53","58dd9fe2e75d9c00011c24a9","619531dcf66c91622fa1b861","6195957291e5bff67dc1baac","null","","null","","","","","main_T1_ITI","","","","",""
"","","","","","visual-search-circle","121","454264","0.0-14.0-0.0-1.53","58dd9fe2e75d9c00011c24a9","619531dcf66c91622fa1b861","6195957291e5bff67dc1baac","1299.199999999255","","s","true","[[484,63],[132,51],[11,382],[289,599],[581,402]]","false","5","main_T2_Trial","s","img/Fire_Down_Target.gif","[""img/Fire_Up_Distractor.gif"",""img/Fire_Up_Distractor.gif"",""img/Fire_Up_Distractor.gif"",""img/Fire_Up_Distractor.gif"",""img/Fire_Up_Distractor.gif"",""img/Fire_Up_Distractor.gif"",""img/Fire_Up_Distractor.gif"",""img/Fire_Up_Distractor.gif"",""img/Fire_Up_Distractor.gif"",""img/Fire_Up_Distractor.gif"",""img/Fire_Up_Distractor.gif"",""img/Fire_Up_Distractor.gif""]","5","targetDown_distractorsUp"
"","","","","","html-keyboard-response","122","454265","0.0-14.0-0.0-0.54","58dd9fe2e75d9c00011c24a9","619531dcf66c91622fa1b861","6195957291e5bff67dc1baac","null","","null","","","","","main_T1_ITI","","","","",""
"","","","","","visual-search-circle","123","457022","0.0-14.0-0.0-1.54","58dd9fe2e75d9c00011c24a9","619531dcf66c91622fa1b861","6195957291e5bff67dc1baac","1734.199999999255","","s","false","[[45,141],[35,440],[289,599],[554,458],[564,159],[310,0]]","true","6","main_T2_Trial","d","img/Fire_Up_Target.gif","[""img/Fire_Down_Distractor.gif"",""img/Fire_Down_Distractor.gif"",""img/Fire_Down_Distractor.gif"",""img/Fire_Down_Distractor.gif"",""img/Fire_Down_Distractor.gif"",""img/Fire_Down_Distractor.gif"",""img/Fire_Down_Distractor.gif"",""img/Fire_Down_Distractor.gif"",""img/Fire_Down_Distractor.gif"",""img/Fire_Down_Distractor.gif"",""img/Fire_Down_Distractor.gif"",""img/Fire_Down_Distractor.gif""]","6","targetUp_distractorsDown"
"","","","","","html-keyboard-response","124","457024","0.0-14.0-0.0-0.55","58dd9fe2e75d9c00011c24a9","619531dcf66c91622fa1b861","6195957291e5bff67dc1baac","null","","null","","","","","main_T1_ITI","","","","",""
"","","","","","visual-search-circle","125","458934","0.0-14.0-0.0-1.55","58dd9fe2e75d9c00011c24a9","619531dcf66c91622fa1b861","6195957291e5bff67dc1baac","895","","s","true","[[28,173],[54,472],[326,598],[571,426],[545,127],[273,1]]","false","6","main_T2_Trial","s","img/Fire_Down_Target.gif","[""img/Fire_Up_Distractor.gif"",""img/Fire_Up_Distractor.gif"",""img/Fire_Up_Distractor.gif"",""img/Fire_Up_Distractor.gif"",""img/Fire_Up_Distractor.gif"",""img/Fire_Up_Distractor.gif"",""img/Fire_Up_Distractor.gif"",""img/Fire_Up_Distractor.gif"",""img/Fire_Up_Distractor.gif"",""img/Fire_Up_Distractor.gif"",""img/Fire_Up_Distractor.gif"",""img/Fire_Up_Distractor.gif""]","6","targetDown_distractorsUp"
"","","","","","html-keyboard-response","126","458936","0.0-14.0-0.0-0.56","58dd9fe2e75d9c00011c24a9","619531dcf66c91622fa1b861","6195957291e5bff67dc1baac","null","","null","","","","","main_T1_ITI","","","","",""
"","","","","","visual-search-circle","127","461831","0.0-14.0-0.0-1.56","58dd9fe2e75d9c00011c24a9","619531dcf66c91622fa1b861","6195957291e5bff67dc1baac","1877.6000000014901","","s","false","[[123,542],[542,476],[476,57],[57,123]]","true","4","main_T2_Trial","d","img/Fire_Up_Target.gif","[""img/Fire_Down_Distractor.gif"",""img/Fire_Down_Distractor.gif"",""img/Fire_Down_Distractor.gif"",""img/Fire_Down_Distractor.gif"",""img/Fire_Down_Distractor.gif"",""img/Fire_Down_Distractor.gif"",""img/Fire_Down_Distractor.gif"",""img/Fire_Down_Distractor.gif"",""img/Fire_Down_Distractor.gif"",""img/Fire_Down_Distractor.gif"",""img/Fire_Down_Distractor.gif"",""img/Fire_Down_Distractor.gif""]","4","targetUp_distractorsDown"
"","","","","","html-keyboard-response","128","461833","0.0-14.0-0.0-0.57","58dd9fe2e75d9c00011c24a9","619531dcf66c91622fa1b861","6195957291e5bff67dc1baac","null","","null","","","","","main_T1_ITI","","","","",""
"","","","","","visual-search-circle","129","463872","0.0-14.0-0.0-1.57","58dd9fe2e75d9c00011c24a9","619531dcf66c91622fa1b861","6195957291e5bff67dc1baac","1016.6999999992549","","s","true","[[173,28],[18,197],[28,426],[197,581],[426,571],[581,402],[571,173],[402,18]]","false","8","main_T2_Trial","s","img/Fire_Up_Target.gif","[""img/Fire_Down_Distractor.gif"",""img/Fire_Down_Distractor.gif"",""img/Fire_Down_Distractor.gif"",""img/Fire_Down_Distractor.gif"",""img/Fire_Down_Distractor.gif"",""img/Fire_Down_Distractor.gif"",""img/Fire_Down_Distractor.gif"",""img/Fire_Down_Distractor.gif"",""img/Fire_Down_Distractor.gif"",""img/Fire_Down_Distractor.gif"",""img/Fire_Down_Distractor.gif"",""img/Fire_Down_Distractor.gif""]","8","targetUp_distractorsDown"
"","","","","","html-keyboard-response","130","463875","0.0-14.0-0.0-0.58","58dd9fe2e75d9c00011c24a9","619531dcf66c91622fa1b861","6195957291e5bff67dc1baac","null","","null","","","","","main_T1_ITI","","","","",""
"","","","","","visual-search-circle","131","465800","0.0-14.0-0.0-1.58","58dd9fe2e75d9c00011c24a9","619531dcf66c91622fa1b861","6195957291e5bff67dc1baac","912.1000000014901","","s","true","[[598,268],[362,6],[40,150],[77,500],[422,574]]","false","5","main_T2_Trial","s","img/Fire_Up_Target.gif","[""img/Fire_Down_Distractor.gif"",""img/Fire_Down_Distractor.gif"",""img/Fire_Down_Distractor.gif"",""img/Fire_Down_Distractor.gif"",""img/Fire_Down_Distractor.gif"",""img/Fire_Down_Distractor.gif"",""img/Fire_Down_Distractor.gif"",""img/Fire_Down_Distractor.gif"",""img/Fire_Down_Distractor.gif"",""img/Fire_Down_Distractor.gif"",""img/Fire_Down_Distractor.gif"",""img/Fire_Down_Distractor.gif""]","5","targetUp_distractorsDown"
"","","","","","html-keyboard-response","132","470712","0.0-14.0-0.0-0.59","58dd9fe2e75d9c00011c24a9","619531dcf66c91622fa1b861","6195957291e5bff67dc1baac","4910.800000000745","Wow! You've completed 60 out of 160 trials! </p> <p>  </p><p> Take a quick break, then press any key when you're ready to continue."," ","","","","","main_T1_ITI","","","","",""
"","","","","","visual-search-circle","133","474705","0.0-14.0-0.0-1.59","58dd9fe2e75d9c00011c24a9","619531dcf66c91622fa1b861","6195957291e5bff67dc1baac","2974.300000000745","","s","false","[[326,1],[1,273],[273,598],[598,326]]","true","4","main_T2_Trial","d","img/Fire_Down_Target.gif","[""img/Fire_Up_Distractor.gif"",""img/Fire_Up_Distractor.gif"",""img/Fire_Up_Distractor.gif"",""img/Fire_Up_Distractor.gif"",""img/Fire_Up_Distractor.gif"",""img/Fire_Up_Distractor.gif"",""img/Fire_Up_Distractor.gif"",""img/Fire_Up_Distractor.gif"",""img/Fire_Up_Distractor.gif"",""img/Fire_Up_Distractor.gif"",""img/Fire_Up_Distractor.gif"",""img/Fire_Up_Distractor.gif""]","4","targetDown_distractorsUp"
"","","","","","html-keyboard-response","134","474707","0.0-14.0-0.0-0.60","58dd9fe2e75d9c00011c24a9","619531dcf66c91622fa1b861","6195957291e5bff67dc1baac","null","","null","","","","","main_T1_ITI","","","","",""
"","","","","","visual-search-circle","135","477304","0.0-14.0-0.0-1.60","58dd9fe2e75d9c00011c24a9","619531dcf66c91622fa1b861","6195957291e5bff67dc1baac","1570.3999999985099","","s","true","[[586,212],[440,35],[212,13],[35,159],[13,387],[159,564],[387,586],[564,440]]","false","8","main_T2_Trial","s","img/Fire_Up_Target.gif","[""img/Fire_Down_Distractor.gif"",""img/Fire_Down_Distractor.gif"",""img/Fire_Down_Distractor.gif"",""img/Fire_Down_Distractor.gif"",""img/Fire_Down_Distractor.gif"",""img/Fire_Down_Distractor.gif"",""img/Fire_Down_Distractor.gif"",""img/Fire_Down_Distractor.gif"",""img/Fire_Down_Distractor.gif"",""img/Fire_Down_Distractor.gif"",""img/Fire_Down_Distractor.gif"",""img/Fire_Down_Distractor.gif""]","8","targetUp_distractorsDown"
"","","","","","html-keyboard-response","136","477307","0.0-14.0-0.0-0.61","58dd9fe2e75d9c00011c24a9","619531dcf66c91622fa1b861","6195957291e5bff67dc1baac","null","","null","","","","","main_T1_ITI","","","","",""
"","","","","","visual-search-circle","137","479480","0.0-14.0-0.0-1.61","58dd9fe2e75d9c00011c24a9","619531dcf66c91622fa1b861","6195957291e5bff67dc1baac","1154.699999999255","","s","true","[[63,484],[263,597],[484,536],[597,336],[536,115],[336,2],[115,63],[2,263]]","false","8","main_T2_Trial","s","img/Fire_Up_Target.gif","[""img/Fire_Down_Distractor.gif"",""img/Fire_Down_Distractor.gif"",""img/Fire_Down_Distractor.gif"",""img/Fire_Down_Distractor.gif"",""img/Fire_Down_Distractor.gif"",""img/Fire_Down_Distractor.gif"",""img/Fire_Down_Distractor.gif"",""img/Fire_Down_Distractor.gif"",""img/Fire_Down_Distractor.gif"",""img/Fire_Down_Distractor.gif"",""img/Fire_Down_Distractor.gif"",""img/Fire_Down_Distractor.gif""]","8","targetUp_distractorsDown"
"","","","","","html-keyboard-response","138","479483","0.0-14.0-0.0-0.62","58dd9fe2e75d9c00011c24a9","619531dcf66c91622fa1b861","6195957291e5bff67dc1baac","null","","null","","","","","main_T1_ITI","","","","",""
"","","","","","visual-search-circle","139","483095","0.0-14.0-0.0-1.62","58dd9fe2e75d9c00011c24a9","619531dcf66c91622fa1b861","6195957291e5bff67dc1baac","2595","","s","false","[[392,14],[57,123],[57,476],[392,585],[600,300]]","true","5","main_T2_Trial","d","img/Fire_Up_Target.gif","[""img/Fire_Down_Distractor.gif"",""img/Fire_Down_Distractor.gif"",""img/Fire_Down_Distractor.gif"",""img/Fire_Down_Distractor.gif"",""img/Fire_Down_Distractor.gif"",""img/Fire_Down_Distractor.gif"",""img/Fire_Down_Distractor.gif"",""img/Fire_Down_Distractor.gif"",""img/Fire_Down_Distractor.gif"",""img/Fire_Down_Distractor.gif"",""img/Fire_Down_Distractor.gif"",""img/Fire_Down_Distractor.gif""]","5","targetUp_distractorsDown"
"","","","","","html-keyboard-response","140","483098","0.0-14.0-0.0-0.63","58dd9fe2e75d9c00011c24a9","619531dcf66c91622fa1b861","6195957291e5bff67dc1baac","null","","null","","","","","main_T1_ITI","","","","",""
"","","","","","visual-search-circle","141","485255","0.0-14.0-0.0-1.63","58dd9fe2e75d9c00011c24a9","619531dcf66c91622fa1b861","6195957291e5bff67dc1baac","1141.4000000022352","","s","true","[[310,0],[18,197],[115,536],[467,548],[588,217]]","false","5","main_T2_Trial","s","img/Fire_Up_Target.gif","[""img/Fire_Down_Distractor.gif"",""img/Fire_Down_Distractor.gif"",""img/Fire_Down_Distractor.gif"",""img/Fire_Down_Distractor.gif"",""img/Fire_Down_Distractor.gif"",""img/Fire_Down_Distractor.gif"",""img/Fire_Down_Distractor.gif"",""img/Fire_Down_Distractor.gif"",""img/Fire_Down_Distractor.gif"",""img/Fire_Down_Distractor.gif"",""img/Fire_Down_Distractor.gif"",""img/Fire_Down_Distractor.gif""]","5","targetUp_distractorsDown"
"","","","","","html-keyboard-response","142","485257","0.0-14.0-0.0-0.64","58dd9fe2e75d9c00011c24a9","619531dcf66c91622fa1b861","6195957291e5bff67dc1baac","null","","null","","","","","main_T1_ITI","","","","",""
"","","","","","visual-search-circle","143","489382","0.0-14.0-0.0-1.64","58dd9fe2e75d9c00011c24a9","619531dcf66c91622fa1b861","6195957291e5bff67dc1baac","3102.10000000149","","s","false","[[326,598],[592,367],[454,42],[103,73],[23,417]]","true","5","main_T2_Trial","d","img/Fire_Down_Target.gif","[""img/Fire_Up_Distractor.gif"",""img/Fire_Up_Distractor.gif"",""img/Fire_Up_Distractor.gif"",""img/Fire_Up_Distractor.gif"",""img/Fire_Up_Distractor.gif"",""img/Fire_Up_Distractor.gif"",""img/Fire_Up_Distractor.gif"",""img/Fire_Up_Distractor.gif"",""img/Fire_Up_Distractor.gif"",""img/Fire_Up_Distractor.gif"",""img/Fire_Up_Distractor.gif"",""img/Fire_Up_Distractor.gif""]","5","targetDown_distractorsUp"
"","","","","","html-keyboard-response","144","489392","0.0-14.0-0.0-0.65","58dd9fe2e75d9c00011c24a9","619531dcf66c91622fa1b861","6195957291e5bff67dc1baac","null","","null","","","","","main_T1_ITI","","","","",""
"","","","","","visual-search-circle","145","496848","0.0-14.0-0.0-1.65","58dd9fe2e75d9c00011c24a9","619531dcf66c91622fa1b861","6195957291e5bff67dc1baac","6430.199999999255","","d","true","[[599,284],[500,77],[284,0],[77,99],[0,315],[99,522],[315,599],[522,500]]","true","8","main_T2_Trial","d","img/Fire_Down_Target.gif","[""img/Fire_Up_Distractor.gif"",""img/Fire_Up_Distractor.gif"",""img/Fire_Up_Distractor.gif"",""img/Fire_Up_Distractor.gif"",""img/Fire_Up_Distractor.gif"",""img/Fire_Up_Distractor.gif"",""img/Fire_Up_Distractor.gif"",""img/Fire_Up_Distractor.gif"",""img/Fire_Up_Distractor.gif"",""img/Fire_Up_Distractor.gif"",""img/Fire_Up_Distractor.gif"",""img/Fire_Up_Distractor.gif""]","8","targetDown_distractorsUp"
"","","","","","html-keyboard-response","146","496851","0.0-14.0-0.0-0.66","58dd9fe2e75d9c00011c24a9","619531dcf66c91622fa1b861","6195957291e5bff67dc1baac","null","","null","","","","","main_T1_ITI","","","","",""
"","","","","","visual-search-circle","147","498967","0.0-14.0-0.0-1.66","58dd9fe2e75d9c00011c24a9","619531dcf66c91622fa1b861","6195957291e5bff67dc1baac","1084.6000000014901","","s","true","[[387,13],[130,52],[0,278],[96,520],[345,596],[560,449],[578,189]]","false","7","main_T2_Trial","s","img/Fire_Up_Target.gif","[""img/Fire_Down_Distractor.gif"",""img/Fire_Down_Distractor.gif"",""img/Fire_Down_Distractor.gif"",""img/Fire_Down_Distractor.gif"",""img/Fire_Down_Distractor.gif"",""img/Fire_Down_Distractor.gif"",""img/Fire_Down_Distractor.gif"",""img/Fire_Down_Distractor.gif"",""img/Fire_Down_Distractor.gif"",""img/Fire_Down_Distractor.gif"",""img/Fire_Down_Distractor.gif"",""img/Fire_Down_Distractor.gif""]","7","targetUp_distractorsDown"
"","","","","","html-keyboard-response","148","498970","0.0-14.0-0.0-0.67","58dd9fe2e75d9c00011c24a9","619531dcf66c91622fa1b861","6195957291e5bff67dc1baac","null","","null","","","","","main_T1_ITI","","","","",""
"","","","","","visual-search-circle","149","501104","0.0-14.0-0.0-1.67","58dd9fe2e75d9c00011c24a9","619531dcf66c91622fa1b861","6195957291e5bff67dc1baac","1124.300000000745","","s","true","[[289,599],[581,402],[484,63],[132,51],[11,382]]","false","5","main_T2_Trial","s","img/Fire_Up_Target.gif","[""img/Fire_Down_Distractor.gif"",""img/Fire_Down_Distractor.gif"",""img/Fire_Down_Distractor.gif"",""img/Fire_Down_Distractor.gif"",""img/Fire_Down_Distractor.gif"",""img/Fire_Down_Distractor.gif"",""img/Fire_Down_Distractor.gif"",""img/Fire_Down_Distractor.gif"",""img/Fire_Down_Distractor.gif"",""img/Fire_Down_Distractor.gif"",""img/Fire_Down_Distractor.gif"",""img/Fire_Down_Distractor.gif""]","5","targetUp_distractorsDown"
"","","","","","html-keyboard-response","150","501106","0.0-14.0-0.0-0.68","58dd9fe2e75d9c00011c24a9","619531dcf66c91622fa1b861","6195957291e5bff67dc1baac","null","","null","","","","","main_T1_ITI","","","","",""
"","","","","","visual-search-circle","151","505096","0.0-14.0-0.0-1.68","58dd9fe2e75d9c00011c24a9","619531dcf66c91622fa1b861","6195957291e5bff67dc1baac","2968.89999999851","","s","false","[[0,299],[87,512],[299,600],[512,512],[600,300],[512,87],[300,0],[87,87]]","true","8","main_T2_Trial","d","img/Fire_Down_Target.gif","[""img/Fire_Up_Distractor.gif"",""img/Fire_Up_Distractor.gif"",""img/Fire_Up_Distractor.gif"",""img/Fire_Up_Distractor.gif"",""img/Fire_Up_Distractor.gif"",""img/Fire_Up_Distractor.gif"",""img/Fire_Up_Distractor.gif"",""img/Fire_Up_Distractor.gif"",""img/Fire_Up_Distractor.gif"",""img/Fire_Up_Distractor.gif"",""img/Fire_Up_Distractor.gif"",""img/Fire_Up_Distractor.gif""]","8","targetDown_distractorsUp"
"","","","","","html-keyboard-response","152","505104","0.0-14.0-0.0-0.69","58dd9fe2e75d9c00011c24a9","619531dcf66c91622fa1b861","6195957291e5bff67dc1baac","null","","null","","","","","main_T1_ITI","","","","",""
"","","","","","visual-search-circle","153","507143","0.0-14.0-0.0-1.69","58dd9fe2e75d9c00011c24a9","619531dcf66c91622fa1b861","6195957291e5bff67dc1baac","1012.6999999992549","","s","false","[[11,217],[37,445],[217,588],[445,562],[588,382],[562,154],[382,11],[154,37]]","true","8","main_T2_Trial","d","img/Fire_Down_Target.gif","[""img/Fire_Up_Distractor.gif"",""img/Fire_Up_Distractor.gif"",""img/Fire_Up_Distractor.gif"",""img/Fire_Up_Distractor.gif"",""img/Fire_Up_Distractor.gif"",""img/Fire_Up_Distractor.gif"",""img/Fire_Up_Distractor.gif"",""img/Fire_Up_Distractor.gif"",""img/Fire_Up_Distractor.gif"",""img/Fire_Up_Distractor.gif"",""img/Fire_Up_Distractor.gif"",""img/Fire_Up_Distractor.gif""]","8","targetDown_distractorsUp"
"","","","","","html-keyboard-response","154","507146","0.0-14.0-0.0-0.70","58dd9fe2e75d9c00011c24a9","619531dcf66c91622fa1b861","6195957291e5bff67dc1baac","null","","null","","","","","main_T1_ITI","","","","",""
"","","","","","visual-search-circle","155","509542","0.0-14.0-0.0-1.70","58dd9fe2e75d9c00011c24a9","619531dcf66c91622fa1b861","6195957291e5bff67dc1baac","1378.199999999255","","s","true","[[529,107],[187,21],[0,320],[227,591],[554,458]]","false","5","main_T2_Trial","s","img/Fire_Up_Target.gif","[""img/Fire_Down_Distractor.gif"",""img/Fire_Down_Distractor.gif"",""img/Fire_Down_Distractor.gif"",""img/Fire_Down_Distractor.gif"",""img/Fire_Down_Distractor.gif"",""img/Fire_Down_Distractor.gif"",""img/Fire_Down_Distractor.gif"",""img/Fire_Down_Distractor.gif"",""img/Fire_Down_Distractor.gif"",""img/Fire_Down_Distractor.gif"",""img/Fire_Down_Distractor.gif"",""img/Fire_Down_Distractor.gif""]","5","targetUp_distractorsDown"
"","","","","","html-keyboard-response","156","509545","0.0-14.0-0.0-0.71","58dd9fe2e75d9c00011c24a9","619531dcf66c91622fa1b861","6195957291e5bff67dc1baac","null","","null","","","","","main_T1_ITI","","","","",""
"","","","","","visual-search-circle","157","511471","0.0-14.0-0.0-1.71","58dd9fe2e75d9c00011c24a9","619531dcf66c91622fa1b861","6195957291e5bff67dc1baac","900.2999999970198","","s","true","[[10,222],[58,478],[288,599],[527,495],[594,244],[440,34],[180,25]]","false","7","main_T2_Trial","s","img/Fire_Up_Target.gif","[""img/Fire_Down_Distractor.gif"",""img/Fire_Down_Distractor.gif"",""img/Fire_Down_Distractor.gif"",""img/Fire_Down_Distractor.gif"",""img/Fire_Down_Distractor.gif"",""img/Fire_Down_Distractor.gif"",""img/Fire_Down_Distractor.gif"",""img/Fire_Down_Distractor.gif"",""img/Fire_Down_Distractor.gif"",""img/Fire_Down_Distractor.gif"",""img/Fire_Down_Distractor.gif"",""img/Fire_Down_Distractor.gif""]","7","targetUp_distractorsDown"
"","","","","","html-keyboard-response","158","511473","0.0-14.0-0.0-0.72","58dd9fe2e75d9c00011c24a9","619531dcf66c91622fa1b861","6195957291e5bff67dc1baac","null","","null","","","","","main_T1_ITI","","","","",""
"","","","","","visual-search-circle","159","513719","0.0-14.0-0.0-1.72","58dd9fe2e75d9c00011c24a9","619531dcf66c91622fa1b861","6195957291e5bff67dc1baac","1225.2000000029802","","s","false","[[599,284],[474,55],[218,11],[23,184],[36,444],[248,595],[499,524]]","true","7","main_T2_Trial","d","img/Fire_Down_Target.gif","[""img/Fire_Up_Distractor.gif"",""img/Fire_Up_Distractor.gif"",""img/Fire_Up_Distractor.gif"",""img/Fire_Up_Distractor.gif"",""img/Fire_Up_Distractor.gif"",""img/Fire_Up_Distractor.gif"",""img/Fire_Up_Distractor.gif"",""img/Fire_Up_Distractor.gif"",""img/Fire_Up_Distractor.gif"",""img/Fire_Up_Distractor.gif"",""img/Fire_Up_Distractor.gif"",""img/Fire_Up_Distractor.gif""]","7","targetDown_distractorsUp"
"","","","","","html-keyboard-response","160","513720","0.0-14.0-0.0-0.73","58dd9fe2e75d9c00011c24a9","619531dcf66c91622fa1b861","6195957291e5bff67dc1baac","null","","null","","","","","main_T1_ITI","","","","",""
"","","","","","visual-search-circle","161","516038","0.0-14.0-0.0-1.73","58dd9fe2e75d9c00011c24a9","619531dcf66c91622fa1b861","6195957291e5bff67dc1baac","1301.8999999985099","","s","false","[[80,95],[37,445],[357,594],[597,336],[426,28]]","true","5","main_T2_Trial","d","img/Fire_Up_Target.gif","[""img/Fire_Down_Distractor.gif"",""img/Fire_Down_Distractor.gif"",""img/Fire_Down_Distractor.gif"",""img/Fire_Down_Distractor.gif"",""img/Fire_Down_Distractor.gif"",""img/Fire_Down_Distractor.gif"",""img/Fire_Down_Distractor.gif"",""img/Fire_Down_Distractor.gif"",""img/Fire_Down_Distractor.gif"",""img/Fire_Down_Distractor.gif"",""img/Fire_Down_Distractor.gif"",""img/Fire_Down_Distractor.gif""]","5","targetUp_distractorsDown"
"","","","","","html-keyboard-response","162","516041","0.0-14.0-0.0-0.74","58dd9fe2e75d9c00011c24a9","619531dcf66c91622fa1b861","6195957291e5bff67dc1baac","null","","null","","","","","main_T1_ITI","","","","",""
"","","","","","visual-search-circle","163","518007","0.0-14.0-0.0-1.74","58dd9fe2e75d9c00011c24a9","619531dcf66c91622fa1b861","6195957291e5bff67dc1baac","951.1000000014901","","s","false","[[54,472],[281,599],[522,501],[596,251],[446,38],[186,22],[12,215]]","true","7","main_T2_Trial","d","img/Fire_Up_Target.gif","[""img/Fire_Down_Distractor.gif"",""img/Fire_Down_Distractor.gif"",""img/Fire_Down_Distractor.gif"",""img/Fire_Down_Distractor.gif"",""img/Fire_Down_Distractor.gif"",""img/Fire_Down_Distractor.gif"",""img/Fire_Down_Distractor.gif"",""img/Fire_Down_Distractor.gif"",""img/Fire_Down_Distractor.gif"",""img/Fire_Down_Distractor.gif"",""img/Fire_Down_Distractor.gif"",""img/Fire_Down_Distractor.gif""]","7","targetUp_distractorsDown"
"","","","","","html-keyboard-response","164","518009","0.0-14.0-0.0-0.75","58dd9fe2e75d9c00011c24a9","619531dcf66c91622fa1b861","6195957291e5bff67dc1baac","null","","null","","","","","main_T1_ITI","","","","",""
"","","","","","visual-search-circle","165","519863","0.0-14.0-0.0-1.75","58dd9fe2e75d9c00011c24a9","619531dcf66c91622fa1b861","6195957291e5bff67dc1baac","840.6000000014901","","s","true","[[42,454],[305,599],[562,445],[557,145],[294,0],[37,154]]","false","6","main_T2_Trial","s","img/Fire_Up_Target.gif","[""img/Fire_Down_Distractor.gif"",""img/Fire_Down_Distractor.gif"",""img/Fire_Down_Distractor.gif"",""img/Fire_Down_Distractor.gif"",""img/Fire_Down_Distractor.gif"",""img/Fire_Down_Distractor.gif"",""img/Fire_Down_Distractor.gif"",""img/Fire_Down_Distractor.gif"",""img/Fire_Down_Distractor.gif"",""img/Fire_Down_Distractor.gif"",""img/Fire_Down_Distractor.gif"",""img/Fire_Down_Distractor.gif""]","6","targetUp_distractorsDown"
"","","","","","html-keyboard-response","166","519866","0.0-14.0-0.0-0.76","58dd9fe2e75d9c00011c24a9","619531dcf66c91622fa1b861","6195957291e5bff67dc1baac","null","","null","","","","","main_T1_ITI","","","","",""
"","","","","","visual-search-circle","167","521855","0.0-14.0-0.0-1.76","58dd9fe2e75d9c00011c24a9","619531dcf66c91622fa1b861","6195957291e5bff67dc1baac","963.6999999992549","","s","true","[[2,341],[119,539],[341,597],[539,480],[597,258],[480,60],[258,2],[60,119]]","false","8","main_T2_Trial","s","img/Fire_Up_Target.gif","[""img/Fire_Down_Distractor.gif"",""img/Fire_Down_Distractor.gif"",""img/Fire_Down_Distractor.gif"",""img/Fire_Down_Distractor.gif"",""img/Fire_Down_Distractor.gif"",""img/Fire_Down_Distractor.gif"",""img/Fire_Down_Distractor.gif"",""img/Fire_Down_Distractor.gif"",""img/Fire_Down_Distractor.gif"",""img/Fire_Down_Distractor.gif"",""img/Fire_Down_Distractor.gif"",""img/Fire_Down_Distractor.gif""]","8","targetUp_distractorsDown"
"","","","","","html-keyboard-response","168","521857","0.0-14.0-0.0-0.77","58dd9fe2e75d9c00011c24a9","619531dcf66c91622fa1b861","6195957291e5bff67dc1baac","null","","null","","","","","main_T1_ITI","","","","",""
"","","","","","visual-search-circle","169","524071","0.0-14.0-0.0-1.77","58dd9fe2e75d9c00011c24a9","619531dcf66c91622fa1b861","6195957291e5bff67dc1baac","1202","","s","false","[[492,70],[240,5],[33,163],[26,423],[225,590],[481,539],[599,307]]","true","7","main_T2_Trial","d","img/Fire_Up_Target.gif","[""img/Fire_Down_Distractor.gif"",""img/Fire_Down_Distractor.gif"",""img/Fire_Down_Distractor.gif"",""img/Fire_Down_Distractor.gif"",""img/Fire_Down_Distractor.gif"",""img/Fire_Down_Distractor.gif"",""img/Fire_Down_Distractor.gif"",""img/Fire_Down_Distractor.gif"",""img/Fire_Down_Distractor.gif"",""img/Fire_Down_Distractor.gif"",""img/Fire_Down_Distractor.gif"",""img/Fire_Down_Distractor.gif""]","7","targetUp_distractorsDown"
"","","","","","html-keyboard-response","170","524072","0.0-14.0-0.0-0.78","58dd9fe2e75d9c00011c24a9","619531dcf66c91622fa1b861","6195957291e5bff67dc1baac","null","","null","","","","","main_T1_ITI","","","","",""
"","","","","","visual-search-circle","171","536687","0.0-14.0-0.0-1.78","58dd9fe2e75d9c00011c24a9","619531dcf66c91622fa1b861","6195957291e5bff67dc1baac","11604.800000000745","","s","false","[[407,580],[599,284],[377,10],[48,136],[66,488]]","true","5","main_T2_Trial","d","img/Fire_Down_Target.gif","[""img/Fire_Up_Distractor.gif"",""img/Fire_Up_Distractor.gif"",""img/Fire_Up_Distractor.gif"",""img/Fire_Up_Distractor.gif"",""img/Fire_Up_Distractor.gif"",""img/Fire_Up_Distractor.gif"",""img/Fire_Up_Distractor.gif"",""img/Fire_Up_Distractor.gif"",""img/Fire_Up_Distractor.gif"",""img/Fire_Up_Distractor.gif"",""img/Fire_Up_Distractor.gif"",""img/Fire_Up_Distractor.gif""]","5","targetDown_distractorsUp"
"","","","","","html-keyboard-response","172","541633","0.0-14.0-0.0-0.79","58dd9fe2e75d9c00011c24a9","619531dcf66c91622fa1b861","6195957291e5bff67dc1baac","4943.699999999255","Wow! You've completed 80 out of 160 trials! </p> <p>  </p><p> Take a quick break, then press any key when you're ready to continue."," ","","","","","main_T1_ITI","","","","",""
"","","","","","visual-search-circle","173","545854","0.0-14.0-0.0-1.79","58dd9fe2e75d9c00011c24a9","619531dcf66c91622fa1b861","6195957291e5bff67dc1baac","3210.2999999970198","","s","false","[[585,392],[392,14],[14,207],[207,585]]","true","4","main_T2_Trial","d","img/Fire_Down_Target.gif","[""img/Fire_Up_Distractor.gif"",""img/Fire_Up_Distractor.gif"",""img/Fire_Up_Distractor.gif"",""img/Fire_Up_Distractor.gif"",""img/Fire_Up_Distractor.gif"",""img/Fire_Up_Distractor.gif"",""img/Fire_Up_Distractor.gif"",""img/Fire_Up_Distractor.gif"",""img/Fire_Up_Distractor.gif"",""img/Fire_Up_Distractor.gif"",""img/Fire_Up_Distractor.gif"",""img/Fire_Up_Distractor.gif""]","4","targetDown_distractorsUp"
"","","","","","html-keyboard-response","174","545857","0.0-14.0-0.0-0.80","58dd9fe2e75d9c00011c24a9","619531dcf66c91622fa1b861","6195957291e5bff67dc1baac","null","","null","","","","","main_T1_ITI","","","","",""
"","","","","","visual-search-circle","175","548296","0.0-14.0-0.0-1.80","58dd9fe2e75d9c00011c24a9","619531dcf66c91622fa1b861","6195957291e5bff67dc1baac","1424.199999999255","","s","true","[[574,422],[566,161],[357,5],[106,71],[0,308],[120,540],[375,590]]","false","7","main_T2_Trial","s","img/Fire_Down_Target.gif","[""img/Fire_Up_Distractor.gif"",""img/Fire_Up_Distractor.gif"",""img/Fire_Up_Distractor.gif"",""img/Fire_Up_Distractor.gif"",""img/Fire_Up_Distractor.gif"",""img/Fire_Up_Distractor.gif"",""img/Fire_Up_Distractor.gif"",""img/Fire_Up_Distractor.gif"",""img/Fire_Up_Distractor.gif"",""img/Fire_Up_Distractor.gif"",""img/Fire_Up_Distractor.gif"",""img/Fire_Up_Distractor.gif""]","7","targetDown_distractorsUp"
"","","","","","html-keyboard-response","176","548305","0.0-14.0-0.0-0.81","58dd9fe2e75d9c00011c24a9","619531dcf66c91622fa1b861","6195957291e5bff67dc1baac","null","","null","","","","","main_T1_ITI","","","","",""
"","","","","","visual-search-circle","177","551551","0.0-14.0-0.0-1.81","58dd9fe2e75d9c00011c24a9","619531dcf66c91622fa1b861","6195957291e5bff67dc1baac","2230.300000000745","","s","true","[[115,63],[63,484],[484,536],[536,115]]","false","4","main_T2_Trial","s","img/Fire_Up_Target.gif","[""img/Fire_Down_Distractor.gif"",""img/Fire_Down_Distractor.gif"",""img/Fire_Down_Distractor.gif"",""img/Fire_Down_Distractor.gif"",""img/Fire_Down_Distractor.gif"",""img/Fire_Down_Distractor.gif"",""img/Fire_Down_Distractor.gif"",""img/Fire_Down_Distractor.gif"",""img/Fire_Down_Distractor.gif"",""img/Fire_Down_Distractor.gif"",""img/Fire_Down_Distractor.gif"",""img/Fire_Down_Distractor.gif""]","4","targetUp_distractorsDown"
"","","","","","html-keyboard-response","178","551553","0.0-14.0-0.0-0.82","58dd9fe2e75d9c00011c24a9","619531dcf66c91622fa1b861","6195957291e5bff67dc1baac","null","","null","","","","","main_T1_ITI","","","","",""
"","","","","","visual-search-circle","179","553631","0.0-14.0-0.0-1.82","58dd9fe2e75d9c00011c24a9","619531dcf66c91622fa1b861","6195957291e5bff67dc1baac","1056.5","","s","false","[[372,591],[599,320],[412,21],[70,107],[45,458]]","true","5","main_T2_Trial","d","img/Fire_Up_Target.gif","[""img/Fire_Down_Distractor.gif"",""img/Fire_Down_Distractor.gif"",""img/Fire_Down_Distractor.gif"",""img/Fire_Down_Distractor.gif"",""img/Fire_Down_Distractor.gif"",""img/Fire_Down_Distractor.gif"",""img/Fire_Down_Distractor.gif"",""img/Fire_Down_Distractor.gif"",""img/Fire_Down_Distractor.gif"",""img/Fire_Down_Distractor.gif"",""img/Fire_Down_Distractor.gif"",""img/Fire_Down_Distractor.gif""]","5","targetUp_distractorsDown"
"","","","","","html-keyboard-response","180","553632","0.0-14.0-0.0-0.83","58dd9fe2e75d9c00011c24a9","619531dcf66c91622fa1b861","6195957291e5bff67dc1baac","null","","null","","","","","main_T1_ITI","","","","",""
"","","","","","visual-search-circle","181","556735","0.0-14.0-0.0-1.83","58dd9fe2e75d9c00011c24a9","619531dcf66c91622fa1b861","6195957291e5bff67dc1baac","2081.89999999851","","s","true","[[4,247],[54,472],[247,595],[472,545],[595,352],[545,127],[352,4],[127,54]]","false","8","main_T2_Trial","s","img/Fire_Down_Target.gif","[""img/Fire_Up_Distractor.gif"",""img/Fire_Up_Distractor.gif"",""img/Fire_Up_Distractor.gif"",""img/Fire_Up_Distractor.gif"",""img/Fire_Up_Distractor.gif"",""img/Fire_Up_Distractor.gif"",""img/Fire_Up_Distractor.gif"",""img/Fire_Up_Distractor.gif"",""img/Fire_Up_Distractor.gif"",""img/Fire_Up_Distractor.gif"",""img/Fire_Up_Distractor.gif"",""img/Fire_Up_Distractor.gif""]","8","targetDown_distractorsUp"
"","","","","","html-keyboard-response","182","556738","0.0-14.0-0.0-0.84","58dd9fe2e75d9c00011c24a9","619531dcf66c91622fa1b861","6195957291e5bff67dc1baac","null","","null","","","","","main_T1_ITI","","","","",""
"","","","","","visual-search-circle","183","558759","0.0-14.0-0.0-1.84","58dd9fe2e75d9c00011c24a9","619531dcf66c91622fa1b861","6195957291e5bff67dc1baac","996.8000000007451","","s","true","[[222,10],[40,150],[10,377],[149,559],[377,589],[559,450],[589,222],[449,40]]","false","8","main_T2_Trial","s","img/Fire_Down_Target.gif","[""img/Fire_Up_Distractor.gif"",""img/Fire_Up_Distractor.gif"",""img/Fire_Up_Distractor.gif"",""img/Fire_Up_Distractor.gif"",""img/Fire_Up_Distractor.gif"",""img/Fire_Up_Distractor.gif"",""img/Fire_Up_Distractor.gif"",""img/Fire_Up_Distractor.gif"",""img/Fire_Up_Distractor.gif"",""img/Fire_Up_Distractor.gif"",""img/Fire_Up_Distractor.gif"",""img/Fire_Up_Distractor.gif""]","8","targetDown_distractorsUp"
"","","","","","html-keyboard-response","184","558762","0.0-14.0-0.0-0.85","58dd9fe2e75d9c00011c24a9","619531dcf66c91622fa1b861","6195957291e5bff67dc1baac","null","","null","","","","","main_T1_ITI","","","","",""
"","","","","","visual-search-circle","185","560744","0.0-14.0-0.0-1.85","58dd9fe2e75d9c00011c24a9","619531dcf66c91622fa1b861","6195957291e5bff67dc1baac","956.2999999970198","","s","true","[[387,13],[130,52],[0,278],[96,520],[345,596],[560,449],[578,189]]","false","7","main_T2_Trial","s","img/Fire_Down_Target.gif","[""img/Fire_Up_Distractor.gif"",""img/Fire_Up_Distractor.gif"",""img/Fire_Up_Distractor.gif"",""img/Fire_Up_Distractor.gif"",""img/Fire_Up_Distractor.gif"",""img/Fire_Up_Distractor.gif"",""img/Fire_Up_Distractor.gif"",""img/Fire_Up_Distractor.gif"",""img/Fire_Up_Distractor.gif"",""img/Fire_Up_Distractor.gif"",""img/Fire_Up_Distractor.gif"",""img/Fire_Up_Distractor.gif""]","7","targetDown_distractorsUp"
"","","","","","html-keyboard-response","186","560746","0.0-14.0-0.0-0.86","58dd9fe2e75d9c00011c24a9","619531dcf66c91622fa1b861","6195957291e5bff67dc1baac","null","","null","","","","","main_T1_ITI","","","","",""
"","","","","","visual-search-circle","187","562439","0.0-14.0-0.0-1.86","58dd9fe2e75d9c00011c24a9","619531dcf66c91622fa1b861","6195957291e5bff67dc1baac","672.3000000007451","","s","true","[[522,99],[282,0],[54,127],[12,384],[186,577],[446,562],[595,349]]","false","7","main_T2_Trial","s","img/Fire_Down_Target.gif","[""img/Fire_Up_Distractor.gif"",""img/Fire_Up_Distractor.gif"",""img/Fire_Up_Distractor.gif"",""img/Fire_Up_Distractor.gif"",""img/Fire_Up_Distractor.gif"",""img/Fire_Up_Distractor.gif"",""img/Fire_Up_Distractor.gif"",""img/Fire_Up_Distractor.gif"",""img/Fire_Up_Distractor.gif"",""img/Fire_Up_Distractor.gif"",""img/Fire_Up_Distractor.gif"",""img/Fire_Up_Distractor.gif""]","7","targetDown_distractorsUp"
"","","","","","html-keyboard-response","188","562441","0.0-14.0-0.0-0.87","58dd9fe2e75d9c00011c24a9","619531dcf66c91622fa1b861","6195957291e5bff67dc1baac","null","","null","","","","","main_T1_ITI","","","","",""
"","","","","","visual-search-circle","189","564287","0.0-14.0-0.0-1.87","58dd9fe2e75d9c00011c24a9","619531dcf66c91622fa1b861","6195957291e5bff67dc1baac","829.2999999970198","","s","true","[[492,70],[273,1],[70,107],[1,326],[107,529],[326,598],[529,492],[598,273]]","false","8","main_T2_Trial","s","img/Fire_Down_Target.gif","[""img/Fire_Up_Distractor.gif"",""img/Fire_Up_Distractor.gif"",""img/Fire_Up_Distractor.gif"",""img/Fire_Up_Distractor.gif"",""img/Fire_Up_Distractor.gif"",""img/Fire_Up_Distractor.gif"",""img/Fire_Up_Distractor.gif"",""img/Fire_Up_Distractor.gif"",""img/Fire_Up_Distractor.gif"",""img/Fire_Up_Distractor.gif"",""img/Fire_Up_Distractor.gif"",""img/Fire_Up_Distractor.gif""]","8","targetDown_distractorsUp"
"","","","","","html-keyboard-response","190","564289","0.0-14.0-0.0-0.88","58dd9fe2e75d9c00011c24a9","619531dcf66c91622fa1b861","6195957291e5bff67dc1baac","null","","null","","","","","main_T1_ITI","","","","",""
"","","","","","visual-search-circle","191","566127","0.0-14.0-0.0-1.88","58dd9fe2e75d9c00011c24a9","619531dcf66c91622fa1b861","6195957291e5bff67dc1baac","824.6000000014901","","s","true","[[35,159],[24,419],[221,589],[477,541],[599,311],[496,73],[244,5]]","false","7","main_T2_Trial","s","img/Fire_Down_Target.gif","[""img/Fire_Up_Distractor.gif"",""img/Fire_Up_Distractor.gif"",""img/Fire_Up_Distractor.gif"",""img/Fire_Up_Distractor.gif"",""img/Fire_Up_Distractor.gif"",""img/Fire_Up_Distractor.gif"",""img/Fire_Up_Distractor.gif"",""img/Fire_Up_Distractor.gif"",""img/Fire_Up_Distractor.gif"",""img/Fire_Up_Distractor.gif"",""img/Fire_Up_Distractor.gif"",""img/Fire_Up_Distractor.gif""]","7","targetDown_distractorsUp"
"","","","","","html-keyboard-response","192","566130","0.0-14.0-0.0-0.89","58dd9fe2e75d9c00011c24a9","619531dcf66c91622fa1b861","6195957291e5bff67dc1baac","null","","null","","","","","main_T1_ITI","","","","",""
"","","","","","visual-search-circle","193","568287","0.0-14.0-0.0-1.89","58dd9fe2e75d9c00011c24a9","619531dcf66c91622fa1b861","6195957291e5bff67dc1baac","1137.4000000022352","","s","false","[[492,529],[599,292],[481,60],[225,9],[26,176],[33,436],[240,594]]","true","7","main_T2_Trial","d","img/Fire_Up_Target.gif","[""img/Fire_Down_Distractor.gif"",""img/Fire_Down_Distractor.gif"",""img/Fire_Down_Distractor.gif"",""img/Fire_Down_Distractor.gif"",""img/Fire_Down_Distractor.gif"",""img/Fire_Down_Distractor.gif"",""img/Fire_Down_Distractor.gif"",""img/Fire_Down_Distractor.gif"",""img/Fire_Down_Distractor.gif"",""img/Fire_Down_Distractor.gif"",""img/Fire_Down_Distractor.gif"",""img/Fire_Down_Distractor.gif""]","7","targetUp_distractorsDown"
"","","","","","html-keyboard-response","194","568288","0.0-14.0-0.0-0.90","58dd9fe2e75d9c00011c24a9","619531dcf66c91622fa1b861","6195957291e5bff67dc1baac","null","","null","","","","","main_T1_ITI","","","","",""
"","","","","","visual-search-circle","195","570503","0.0-14.0-0.0-1.90","58dd9fe2e75d9c00011c24a9","619531dcf66c91622fa1b861","6195957291e5bff67dc1baac","1204.9000000022352","","s","true","[[212,586],[545,472],[539,119],[202,16],[0,305]]","false","5","main_T2_Trial","s","img/Fire_Up_Target.gif","[""img/Fire_Down_Distractor.gif"",""img/Fire_Down_Distractor.gif"",""img/Fire_Down_Distractor.gif"",""img/Fire_Down_Distractor.gif"",""img/Fire_Down_Distractor.gif"",""img/Fire_Down_Distractor.gif"",""img/Fire_Down_Distractor.gif"",""img/Fire_Down_Distractor.gif"",""img/Fire_Down_Distractor.gif"",""img/Fire_Down_Distractor.gif"",""img/Fire_Down_Distractor.gif"",""img/Fire_Down_Distractor.gif""]","5","targetUp_distractorsDown"
"","","","","","html-keyboard-response","196","570512","0.0-14.0-0.0-0.91","58dd9fe2e75d9c00011c24a9","619531dcf66c91622fa1b861","6195957291e5bff67dc1baac","null","","null","","","","","main_T1_ITI","","","","",""
"","","","","","visual-search-circle","197","573415","0.0-14.0-0.0-1.91","58dd9fe2e75d9c00011c24a9","619531dcf66c91622fa1b861","6195957291e5bff67dc1baac","1888.699999999255","","s","true","[[5,242],[51,467],[242,594],[467,548],[594,357],[548,132],[357,5],[132,51]]","false","8","main_T2_Trial","s","img/Fire_Down_Target.gif","[""img/Fire_Up_Distractor.gif"",""img/Fire_Up_Distractor.gif"",""img/Fire_Up_Distractor.gif"",""img/Fire_Up_Distractor.gif"",""img/Fire_Up_Distractor.gif"",""img/Fire_Up_Distractor.gif"",""img/Fire_Up_Distractor.gif"",""img/Fire_Up_Distractor.gif"",""img/Fire_Up_Distractor.gif"",""img/Fire_Up_Distractor.gif"",""img/Fire_Up_Distractor.gif"",""img/Fire_Up_Distractor.gif""]","8","targetDown_distractorsUp"
"","","","","","html-keyboard-response","198","573417","0.0-14.0-0.0-0.92","58dd9fe2e75d9c00011c24a9","619531dcf66c91622fa1b861","6195957291e5bff67dc1baac","null","","null","","","","","main_T1_ITI","","","","",""
"","","","","","visual-search-circle","199","575431","0.0-14.0-0.0-1.92","58dd9fe2e75d9c00011c24a9","619531dcf66c91622fa1b861","6195957291e5bff67dc1baac","993.7000000029802","","s","true","[[11,217],[132,548],[484,536],[581,197],[289,0]]","false","5","main_T2_Trial","s","img/Fire_Down_Target.gif","[""img/Fire_Up_Distractor.gif"",""img/Fire_Up_Distractor.gif"",""img/Fire_Up_Distractor.gif"",""img/Fire_Up_Distractor.gif"",""img/Fire_Up_Distractor.gif"",""img/Fire_Up_Distractor.gif"",""img/Fire_Up_Distractor.gif"",""img/Fire_Up_Distractor.gif"",""img/Fire_Up_Distractor.gif"",""img/Fire_Up_Distractor.gif"",""img/Fire_Up_Distractor.gif"",""img/Fire_Up_Distractor.gif""]","5","targetDown_distractorsUp"
"","","","","","html-keyboard-response","200","575436","0.0-14.0-0.0-0.93","58dd9fe2e75d9c00011c24a9","619531dcf66c91622fa1b861","6195957291e5bff67dc1baac","null","","null","","","","","main_T1_ITI","","","","",""
"","","","","","visual-search-circle","201","578182","0.0-14.0-0.0-1.93","58dd9fe2e75d9c00011c24a9","619531dcf66c91622fa1b861","6195957291e5bff67dc1baac","1730.300000000745","","s","true","[[504,519],[571,173],[263,2],[5,242],[154,562]]","false","5","main_T2_Trial","s","img/Fire_Down_Target.gif","[""img/Fire_Up_Distractor.gif"",""img/Fire_Up_Distractor.gif"",""img/Fire_Up_Distractor.gif"",""img/Fire_Up_Distractor.gif"",""img/Fire_Up_Distractor.gif"",""img/Fire_Up_Distractor.gif"",""img/Fire_Up_Distractor.gif"",""img/Fire_Up_Distractor.gif"",""img/Fire_Up_Distractor.gif"",""img/Fire_Up_Distractor.gif"",""img/Fire_Up_Distractor.gif"",""img/Fire_Up_Distractor.gif""]","5","targetDown_distractorsUp"
"","","","","","html-keyboard-response","202","578184","0.0-14.0-0.0-0.94","58dd9fe2e75d9c00011c24a9","619531dcf66c91622fa1b861","6195957291e5bff67dc1baac","null","","null","","","","","main_T1_ITI","","","","",""
"","","","","","visual-search-circle","203","583631","0.0-14.0-0.0-1.94","58dd9fe2e75d9c00011c24a9","619531dcf66c91622fa1b861","6195957291e5bff67dc1baac","4421.699999999255","","s","false","[[533,488],[598,268],[488,66],[268,1],[66,111],[1,331],[111,533],[331,598]]","true","8","main_T2_Trial","d","img/Fire_Up_Target.gif","[""img/Fire_Down_Distractor.gif"",""img/Fire_Down_Distractor.gif"",""img/Fire_Down_Distractor.gif"",""img/Fire_Down_Distractor.gif"",""img/Fire_Down_Distractor.gif"",""img/Fire_Down_Distractor.gif"",""img/Fire_Down_Distractor.gif"",""img/Fire_Down_Distractor.gif"",""img/Fire_Down_Distractor.gif"",""img/Fire_Down_Distractor.gif"",""img/Fire_Down_Distractor.gif"",""img/Fire_Down_Distractor.gif""]","8","targetUp_distractorsDown"
"","","","","","html-keyboard-response","204","583632","0.0-14.0-0.0-0.95","58dd9fe2e75d9c00011c24a9","619531dcf66c91622fa1b861","6195957291e5bff67dc1baac","null","","null","","","","","main_T1_ITI","","","","",""
"","","","","","visual-search-circle","205","585903","0.0-14.0-0.0-1.95","58dd9fe2e75d9c00011c24a9","619531dcf66c91622fa1b861","6195957291e5bff67dc1baac","1256.199999999255","","s","false","[[593,362],[551,136],[362,6],[136,48],[6,237],[48,463],[237,593],[463,551]]","true","8","main_T2_Trial","d","img/Fire_Up_Target.gif","[""img/Fire_Down_Distractor.gif"",""img/Fire_Down_Distractor.gif"",""img/Fire_Down_Distractor.gif"",""img/Fire_Down_Distractor.gif"",""img/Fire_Down_Distractor.gif"",""img/Fire_Down_Distractor.gif"",""img/Fire_Down_Distractor.gif"",""img/Fire_Down_Distractor.gif"",""img/Fire_Down_Distractor.gif"",""img/Fire_Down_Distractor.gif"",""img/Fire_Down_Distractor.gif"",""img/Fire_Down_Distractor.gif""]","8","targetUp_distractorsDown"
"","","","","","html-keyboard-response","206","585924","0.0-14.0-0.0-0.96","58dd9fe2e75d9c00011c24a9","619531dcf66c91622fa1b861","6195957291e5bff67dc1baac","null","","null","","","","","main_T1_ITI","","","","",""
"","","","","","visual-search-circle","207","589295","0.0-14.0-0.0-1.96","58dd9fe2e75d9c00011c24a9","619531dcf66c91622fa1b861","6195957291e5bff67dc1baac","2350.900000002235","","s","true","[[177,25],[1,268],[123,542],[422,574],[598,331],[476,57]]","false","6","main_T2_Trial","s","img/Fire_Up_Target.gif","[""img/Fire_Down_Distractor.gif"",""img/Fire_Down_Distractor.gif"",""img/Fire_Down_Distractor.gif"",""img/Fire_Down_Distractor.gif"",""img/Fire_Down_Distractor.gif"",""img/Fire_Down_Distractor.gif"",""img/Fire_Down_Distractor.gif"",""img/Fire_Down_Distractor.gif"",""img/Fire_Down_Distractor.gif"",""img/Fire_Down_Distractor.gif"",""img/Fire_Down_Distractor.gif"",""img/Fire_Down_Distractor.gif""]","6","targetUp_distractorsDown"
"","","","","","html-keyboard-response","208","589297","0.0-14.0-0.0-0.97","58dd9fe2e75d9c00011c24a9","619531dcf66c91622fa1b861","6195957291e5bff67dc1baac","null","","null","","","","","main_T1_ITI","","","","",""
"","","","","","visual-search-circle","209","592039","0.0-14.0-0.0-1.97","58dd9fe2e75d9c00011c24a9","619531dcf66c91622fa1b861","6195957291e5bff67dc1baac","1718","","s","true","[[163,32],[0,284],[136,551],[436,567],[599,315],[463,48]]","false","6","main_T2_Trial","s","img/Fire_Up_Target.gif","[""img/Fire_Down_Distractor.gif"",""img/Fire_Down_Distractor.gif"",""img/Fire_Down_Distractor.gif"",""img/Fire_Down_Distractor.gif"",""img/Fire_Down_Distractor.gif"",""img/Fire_Down_Distractor.gif"",""img/Fire_Down_Distractor.gif"",""img/Fire_Down_Distractor.gif"",""img/Fire_Down_Distractor.gif"",""img/Fire_Down_Distractor.gif"",""img/Fire_Down_Distractor.gif"",""img/Fire_Down_Distractor.gif""]","6","targetUp_distractorsDown"
"","","","","","html-keyboard-response","210","592041","0.0-14.0-0.0-0.98","58dd9fe2e75d9c00011c24a9","619531dcf66c91622fa1b861","6195957291e5bff67dc1baac","null","","null","","","","","main_T1_ITI","","","","",""
"","","","","","visual-search-circle","211","597735","0.0-14.0-0.0-1.98","58dd9fe2e75d9c00011c24a9","619531dcf66c91622fa1b861","6195957291e5bff67dc1baac","4682.699999999255","","d","true","[[227,591],[591,372],[372,8],[8,227]]","true","4","main_T2_Trial","d","img/Fire_Up_Target.gif","[""img/Fire_Down_Distractor.gif"",""img/Fire_Down_Distractor.gif"",""img/Fire_Down_Distractor.gif"",""img/Fire_Down_Distractor.gif"",""img/Fire_Down_Distractor.gif"",""img/Fire_Down_Distractor.gif"",""img/Fire_Down_Distractor.gif"",""img/Fire_Down_Distractor.gif"",""img/Fire_Down_Distractor.gif"",""img/Fire_Down_Distractor.gif"",""img/Fire_Down_Distractor.gif"",""img/Fire_Down_Distractor.gif""]","4","targetUp_distractorsDown"
"","","","","","html-keyboard-response","212","603960","0.0-14.0-0.0-0.99","58dd9fe2e75d9c00011c24a9","619531dcf66c91622fa1b861","6195957291e5bff67dc1baac","6224.199999999255","Wow! You've completed 100 out of 160 trials! </p> <p>  </p><p> Take a quick break, then press any key when you're ready to continue."," ","","","","","main_T1_ITI","","","","",""
"","","","","","visual-search-circle","213","612088","0.0-14.0-0.0-1.99","58dd9fe2e75d9c00011c24a9","619531dcf66c91622fa1b861","6195957291e5bff67dc1baac","7112.89999999851","","s","true","[[578,412],[412,21],[21,187],[187,578]]","false","4","main_T2_Trial","s","img/Fire_Down_Target.gif","[""img/Fire_Up_Distractor.gif"",""img/Fire_Up_Distractor.gif"",""img/Fire_Up_Distractor.gif"",""img/Fire_Up_Distractor.gif"",""img/Fire_Up_Distractor.gif"",""img/Fire_Up_Distractor.gif"",""img/Fire_Up_Distractor.gif"",""img/Fire_Up_Distractor.gif"",""img/Fire_Up_Distractor.gif"",""img/Fire_Up_Distractor.gif"",""img/Fire_Up_Distractor.gif"",""img/Fire_Up_Distractor.gif""]","4","targetDown_distractorsUp"
"","","","","","html-keyboard-response","214","612090","0.0-14.0-0.0-0.100","58dd9fe2e75d9c00011c24a9","619531dcf66c91622fa1b861","6195957291e5bff67dc1baac","null","","null","","","","","main_T1_ITI","","","","",""
"","","","","","visual-search-circle","215","614414","0.0-14.0-0.0-1.100","58dd9fe2e75d9c00011c24a9","619531dcf66c91622fa1b861","6195957291e5bff67dc1baac","1294.5","","s","true","[[40,150],[10,377],[149,559],[377,589],[559,450],[589,222],[449,40],[222,10]]","false","8","main_T2_Trial","s","img/Fire_Down_Target.gif","[""img/Fire_Up_Distractor.gif"",""img/Fire_Up_Distractor.gif"",""img/Fire_Up_Distractor.gif"",""img/Fire_Up_Distractor.gif"",""img/Fire_Up_Distractor.gif"",""img/Fire_Up_Distractor.gif"",""img/Fire_Up_Distractor.gif"",""img/Fire_Up_Distractor.gif"",""img/Fire_Up_Distractor.gif"",""img/Fire_Up_Distractor.gif"",""img/Fire_Up_Distractor.gif"",""img/Fire_Up_Distractor.gif""]","8","targetDown_distractorsUp"
