"success","timeout","failed_images","failed_audio","failed_video","trial_type","trial_index","time_elapsed","internal_node_id","subject_id","study_id","session_id","rt","stimulus","response","correct","locations","target_present","set_size","task","correct_response","target","foilCM","setSizeCM","searchCondition"
"true","false","[]","[]","[]","preload","0","6986","0.0-0.0","598fa1b80675b100014dacf3","619531dcf66c91622fa1b861","619595779d61d08dbfa295d3","","","","","","","","","","","","",""
"true","","","","","fullscreen","1","17990","0.0-1.0","598fa1b80675b100014dacf3","619531dcf66c91622fa1b861","619595779d61d08dbfa295d3","","","","","","","","","","","","",""
"","","","","","html-keyboard-response","2","26318","0.0-2.0","598fa1b80675b100014dacf3","619531dcf66c91622fa1b861","619595779d61d08dbfa295d3","8326.599999999627","What a beautiful Thursday to do some awesome science! </p> <p>  </p><p> </p>
    By completing this survey or questionnaire, you are consenting to be in this research study. </p>
    Your participation is voluntary and you can stop at any time.
    <p> [Press any key to continue.] </p>
    
    "," ","","","","","","","","","",""
"","","","","","video-keyboard-response","3","63585","0.0-3.0","598fa1b80675b100014dacf3","619531dcf66c91622fa1b861","619595779d61d08dbfa295d3","37263.89999999851","[""video/TaskInstructions.mp4""]"," ","","","","","","","","","",""
"","","","","","html-keyboard-response","4","69999","0.0-4.0","598fa1b80675b100014dacf3","619531dcf66c91622fa1b861","619595779d61d08dbfa295d3","6414.5","
    <p>First, we're going to do a few practice trials to make sure you understand the task. You will recieve feedback on each trial. </p>
    <p>[Press any key to begin the familiarization phase.]</p>
    "," ","","","","","","","","","",""
"","","","","","visual-search-circle","5","75537","0.0-5.0-0.0","598fa1b80675b100014dacf3","619531dcf66c91622fa1b861","619595779d61d08dbfa295d3","4481.5","","d","true","[[519,95],[95,80],[80,504],[504,519]]","true","4","training","d","","","",""
"","","","","","html-keyboard-response","6","79007","0.0-6.0","598fa1b80675b100014dacf3","619531dcf66c91622fa1b861","619595779d61d08dbfa295d3","3469.300000000745"," <div style='float: center; '><img src='img/feedbackRight.png'></img> </div> "," ","","","","","","","","","",""
"","","","","","visual-search-circle","7","83815","0.0-7.0-0.0","598fa1b80675b100014dacf3","619531dcf66c91622fa1b861","619595779d61d08dbfa295d3","3805.89999999851","","d","false","[[141,554],[554,458],[458,45],[45,141]]","false","4","training","s","","","",""
"","","","","","html-keyboard-response","8","87568","0.0-8.0","598fa1b80675b100014dacf3","619531dcf66c91622fa1b861","619595779d61d08dbfa295d3","3751.4000000003725"," <div style='float: center;'><img src='img/feedbackWrong.png'></img> </div> "," ","","","","","","","","","",""
"","","","","","visual-search-circle","9","95944","0.0-9.0-0.0","598fa1b80675b100014dacf3","619531dcf66c91622fa1b861","619595779d61d08dbfa295d3","7373","","s","true","[[222,10],[10,222],[87,512],[377,589],[589,377],[512,87]]","false","6","training","s","","","",""
"","","","","","html-keyboard-response","10","98120","0.0-10.0","598fa1b80675b100014dacf3","619531dcf66c91622fa1b861","619595779d61d08dbfa295d3","2175.300000000745"," <div style='float: center; '><img src='img/feedbackRight.png'></img> </div> "," ","","","","","","","","","",""
"","","","","","visual-search-circle","11","103895","0.0-11.0-0.0","598fa1b80675b100014dacf3","619531dcf66c91622fa1b861","619595779d61d08dbfa295d3","4769.9000000003725","","d","true","[[599,284],[500,77],[284,0],[77,99],[0,315],[99,522],[315,599],[522,500]]","true","8","training","d","","","",""
"","","","","","html-keyboard-response","12","106367","0.0-12.0","598fa1b80675b100014dacf3","619531dcf66c91622fa1b861","619595779d61d08dbfa295d3","2471.0999999996275"," <div style='float: center; '><img src='img/feedbackRight.png'></img> </div> "," ","","","","","","","","","",""
"","","","","","video-keyboard-response","13","114208","0.0-13.0","598fa1b80675b100014dacf3","619531dcf66c91622fa1b861","619595779d61d08dbfa295d3","7839.300000000745","[""video/endTraining.mp4""]"," ","","","","","","","","","",""
"","","","","","html-keyboard-response","14","114210","0.0-14.0-0.0-0.0","598fa1b80675b100014dacf3","619531dcf66c91622fa1b861","619595779d61d08dbfa295d3","null","","null","","","","","main_T1_ITI","","","","",""
"","","","","","visual-search-circle","15","118455","0.0-14.0-0.0-1.0","598fa1b80675b100014dacf3","619531dcf66c91622fa1b861","619595779d61d08dbfa295d3","3241.9000000003725","","d","true","[[11,217],[84,508],[372,591],[588,382],[515,91],[227,8]]","true","6","main_T2_Trial","d","img/Fire_Down_Target.gif","[""img/Fire_Up_Distractor.gif"",""img/Fire_Up_Distractor.gif"",""img/Fire_Up_Distractor.gif"",""img/Fire_Up_Distractor.gif"",""img/Fire_Up_Distractor.gif"",""img/Fire_Up_Distractor.gif"",""img/Fire_Up_Distractor.gif"",""img/Fire_Up_Distractor.gif"",""img/Fire_Up_Distractor.gif"",""img/Fire_Up_Distractor.gif"",""img/Fire_Up_Distractor.gif"",""img/Fire_Up_Distractor.gif""]","6","targetDown_distractorsUp"
"","","","","","html-keyboard-response","16","118458","0.0-14.0-0.0-0.1","598fa1b80675b100014dacf3","619531dcf66c91622fa1b861","619595779d61d08dbfa295d3","null","","null","","","","","main_T1_ITI","","","","",""
"","","","","","visual-search-circle","17","124896","0.0-14.0-0.0-1.1","598fa1b80675b100014dacf3","619531dcf66c91622fa1b861","619595779d61d08dbfa295d3","5434.9000000003725","","d","true","[[578,187],[187,21],[21,412],[412,578]]","true","4","main_T2_Trial","d","img/Fire_Up_Target.gif","[""img/Fire_Down_Distractor.gif"",""img/Fire_Down_Distractor.gif"",""img/Fire_Down_Distractor.gif"",""img/Fire_Down_Distractor.gif"",""img/Fire_Down_Distractor.gif"",""img/Fire_Down_Distractor.gif"",""img/Fire_Down_Distractor.gif"",""img/Fire_Down_Distractor.gif"",""img/Fire_Down_Distractor.gif"",""img/Fire_Down_Distractor.gif"",""img/Fire_Down_Distractor.gif"",""img/Fire_Down_Distractor.gif""]","4","targetUp_distractorsDown"
"","","","","","html-keyboard-response","18","124897","0.0-14.0-0.0-0.2","598fa1b80675b100014dacf3","619531dcf66c91622fa1b861","619595779d61d08dbfa295d3","null","","null","","","","","main_T1_ITI","","","","",""
"","","","","","visual-search-circle","19","132416","0.0-14.0-0.0-1.2","598fa1b80675b100014dacf3","619531dcf66c91622fa1b861","619595779d61d08dbfa295d3","6513.799999998882","","s","true","[[542,123],[268,1],[25,177],[57,476],[331,598],[574,422]]","false","6","main_T2_Trial","s","img/Fire_Down_Target.gif","[""img/Fire_Up_Distractor.gif"",""img/Fire_Up_Distractor.gif"",""img/Fire_Up_Distractor.gif"",""img/Fire_Up_Distractor.gif"",""img/Fire_Up_Distractor.gif"",""img/Fire_Up_Distractor.gif"",""img/Fire_Up_Distractor.gif"",""img/Fire_Up_Distractor.gif"",""img/Fire_Up_Distractor.gif"",""img/Fire_Up_Distractor.gif"",""img/Fire_Up_Distractor.gif"",""img/Fire_Up_Distractor.gif""]","6","targetDown_distractorsUp"
"","","","","","html-keyboard-response","20","132417","0.0-14.0-0.0-0.3","598fa1b80675b100014dacf3","619531dcf66c91622fa1b861","619595779d61d08dbfa295d3","null","","null","","","","","main_T1_ITI","","","","",""
"","","","","","visual-search-circle","21","143072","0.0-14.0-0.0-1.3","598fa1b80675b100014dacf3","619531dcf66c91622fa1b861","619595779d61d08dbfa295d3","9650.300000000745","","d","true","[[586,387],[519,95],[232,7],[13,212],[80,504],[367,592]]","true","6","main_T2_Trial","d","img/Fire_Up_Target.gif","[""img/Fire_Down_Distractor.gif"",""img/Fire_Down_Distractor.gif"",""img/Fire_Down_Distractor.gif"",""img/Fire_Down_Distractor.gif"",""img/Fire_Down_Distractor.gif"",""img/Fire_Down_Distractor.gif"",""img/Fire_Down_Distractor.gif"",""img/Fire_Down_Distractor.gif"",""img/Fire_Down_Distractor.gif"",""img/Fire_Down_Distractor.gif"",""img/Fire_Down_Distractor.gif"",""img/Fire_Down_Distractor.gif""]","6","targetUp_distractorsDown"
"","","","","","html-keyboard-response","22","143073","0.0-14.0-0.0-0.4","598fa1b80675b100014dacf3","619531dcf66c91622fa1b861","619595779d61d08dbfa295d3","null","","null","","","","","main_T1_ITI","","","","",""
"","","","","","visual-search-circle","23","147544","0.0-14.0-0.0-1.4","598fa1b80675b100014dacf3","619531dcf66c91622fa1b861","619595779d61d08dbfa295d3","3466.9000000003725","","d","true","[[357,594],[594,242],[242,5],[5,357]]","true","4","main_T2_Trial","d","img/Fire_Down_Target.gif","[""img/Fire_Up_Distractor.gif"",""img/Fire_Up_Distractor.gif"",""img/Fire_Up_Distractor.gif"",""img/Fire_Up_Distractor.gif"",""img/Fire_Up_Distractor.gif"",""img/Fire_Up_Distractor.gif"",""img/Fire_Up_Distractor.gif"",""img/Fire_Up_Distractor.gif"",""img/Fire_Up_Distractor.gif"",""img/Fire_Up_Distractor.gif"",""img/Fire_Up_Distractor.gif"",""img/Fire_Up_Distractor.gif""]","4","targetDown_distractorsUp"
"","","","","","html-keyboard-response","24","147545","0.0-14.0-0.0-0.5","598fa1b80675b100014dacf3","619531dcf66c91622fa1b861","619595779d61d08dbfa295d3","null","","null","","","","","main_T1_ITI","","","","",""
"","","","","","visual-search-circle","25","155192","0.0-14.0-0.0-1.5","598fa1b80675b100014dacf3","619531dcf66c91622fa1b861","619595779d61d08dbfa295d3","6644.199999999255","","d","true","[[352,595],[595,247],[247,4],[4,352]]","true","4","main_T2_Trial","d","img/Fire_Up_Target.gif","[""img/Fire_Down_Distractor.gif"",""img/Fire_Down_Distractor.gif"",""img/Fire_Down_Distractor.gif"",""img/Fire_Down_Distractor.gif"",""img/Fire_Down_Distractor.gif"",""img/Fire_Down_Distractor.gif"",""img/Fire_Down_Distractor.gif"",""img/Fire_Down_Distractor.gif"",""img/Fire_Down_Distractor.gif"",""img/Fire_Down_Distractor.gif"",""img/Fire_Down_Distractor.gif"",""img/Fire_Down_Distractor.gif""]","4","targetUp_distractorsDown"
"","","","","","html-keyboard-response","26","155195","0.0-14.0-0.0-0.6","598fa1b80675b100014dacf3","619531dcf66c91622fa1b861","619595779d61d08dbfa295d3","null","","null","","","","","main_T1_ITI","","","","",""
"","","","","","visual-search-circle","27","162728","0.0-14.0-0.0-1.6","598fa1b80675b100014dacf3","619531dcf66c91622fa1b861","619595779d61d08dbfa295d3","6528","","s","true","[[564,159],[387,13],[159,35],[13,212],[35,440],[212,586],[440,564],[586,387]]","false","8","main_T2_Trial","s","img/Fire_Up_Target.gif","[""img/Fire_Down_Distractor.gif"",""img/Fire_Down_Distractor.gif"",""img/Fire_Down_Distractor.gif"",""img/Fire_Down_Distractor.gif"",""img/Fire_Down_Distractor.gif"",""img/Fire_Down_Distractor.gif"",""img/Fire_Down_Distractor.gif"",""img/Fire_Down_Distractor.gif"",""img/Fire_Down_Distractor.gif"",""img/Fire_Down_Distractor.gif"",""img/Fire_Down_Distractor.gif"",""img/Fire_Down_Distractor.gif""]","8","targetUp_distractorsDown"
"","","","","","html-keyboard-response","28","162729","0.0-14.0-0.0-0.7","598fa1b80675b100014dacf3","619531dcf66c91622fa1b861","619595779d61d08dbfa295d3","null","","null","","","","","main_T1_ITI","","","","",""
"","","","","","visual-search-circle","29","170528","0.0-14.0-0.0-1.7","598fa1b80675b100014dacf3","619531dcf66c91622fa1b861","619595779d61d08dbfa295d3","6794.699999999255","","d","false","[[207,585],[542,476],[542,123],[207,14],[0,299]]","false","5","main_T2_Trial","s","img/Fire_Down_Target.gif","[""img/Fire_Up_Distractor.gif"",""img/Fire_Up_Distractor.gif"",""img/Fire_Up_Distractor.gif"",""img/Fire_Up_Distractor.gif"",""img/Fire_Up_Distractor.gif"",""img/Fire_Up_Distractor.gif"",""img/Fire_Up_Distractor.gif"",""img/Fire_Up_Distractor.gif"",""img/Fire_Up_Distractor.gif"",""img/Fire_Up_Distractor.gif"",""img/Fire_Up_Distractor.gif"",""img/Fire_Up_Distractor.gif""]","5","targetDown_distractorsUp"
"","","","","","html-keyboard-response","30","170530","0.0-14.0-0.0-0.8","598fa1b80675b100014dacf3","619531dcf66c91622fa1b861","619595779d61d08dbfa295d3","null","","null","","","","","main_T1_ITI","","","","",""
"","","","","","visual-search-circle","31","179368","0.0-14.0-0.0-1.8","598fa1b80675b100014dacf3","619531dcf66c91622fa1b861","619595779d61d08dbfa295d3","7832.5","","s","true","[[545,127],[318,0],[77,98],[3,348],[153,561],[413,577],[587,384]]","false","7","main_T2_Trial","s","img/Fire_Up_Target.gif","[""img/Fire_Down_Distractor.gif"",""img/Fire_Down_Distractor.gif"",""img/Fire_Down_Distractor.gif"",""img/Fire_Down_Distractor.gif"",""img/Fire_Down_Distractor.gif"",""img/Fire_Down_Distractor.gif"",""img/Fire_Down_Distractor.gif"",""img/Fire_Down_Distractor.gif"",""img/Fire_Down_Distractor.gif"",""img/Fire_Down_Distractor.gif"",""img/Fire_Down_Distractor.gif"",""img/Fire_Down_Distractor.gif""]","7","targetUp_distractorsDown"
"","","","","","html-keyboard-response","32","179369","0.0-14.0-0.0-0.9","598fa1b80675b100014dacf3","619531dcf66c91622fa1b861","619595779d61d08dbfa295d3","null","","null","","","","","main_T1_ITI","","","","",""
"","","","","","visual-search-circle","33","184000","0.0-14.0-0.0-1.9","598fa1b80675b100014dacf3","619531dcf66c91622fa1b861","619595779d61d08dbfa295d3","3626.800000000745","","d","true","[[533,111],[192,19],[0,315],[222,589],[551,463]]","true","5","main_T2_Trial","d","img/Fire_Down_Target.gif","[""img/Fire_Up_Distractor.gif"",""img/Fire_Up_Distractor.gif"",""img/Fire_Up_Distractor.gif"",""img/Fire_Up_Distractor.gif"",""img/Fire_Up_Distractor.gif"",""img/Fire_Up_Distractor.gif"",""img/Fire_Up_Distractor.gif"",""img/Fire_Up_Distractor.gif"",""img/Fire_Up_Distractor.gif"",""img/Fire_Up_Distractor.gif"",""img/Fire_Up_Distractor.gif"",""img/Fire_Up_Distractor.gif""]","5","targetDown_distractorsUp"
"","","","","","html-keyboard-response","34","184001","0.0-14.0-0.0-0.10","598fa1b80675b100014dacf3","619531dcf66c91622fa1b861","619595779d61d08dbfa295d3","null","","null","","","","","main_T1_ITI","","","","",""
"","","","","","visual-search-circle","35","190400","0.0-14.0-0.0-1.10","598fa1b80675b100014dacf3","619531dcf66c91622fa1b861","619595779d61d08dbfa295d3","5395.4000000003725","","d","true","[[21,412],[320,599],[591,372],[458,45],[107,70]]","true","5","main_T2_Trial","d","img/Fire_Up_Target.gif","[""img/Fire_Down_Distractor.gif"",""img/Fire_Down_Distractor.gif"",""img/Fire_Down_Distractor.gif"",""img/Fire_Down_Distractor.gif"",""img/Fire_Down_Distractor.gif"",""img/Fire_Down_Distractor.gif"",""img/Fire_Down_Distractor.gif"",""img/Fire_Down_Distractor.gif"",""img/Fire_Down_Distractor.gif"",""img/Fire_Down_Distractor.gif"",""img/Fire_Down_Distractor.gif"",""img/Fire_Down_Distractor.gif""]","5","targetUp_distractorsDown"
"","","","","","html-keyboard-response","36","190402","0.0-14.0-0.0-0.11","598fa1b80675b100014dacf3","619531dcf66c91622fa1b861","619595779d61d08dbfa295d3","null","","null","","","","","main_T1_ITI","","","","",""
"","","","","","visual-search-circle","37","198168","0.0-14.0-0.0-1.11","598fa1b80675b100014dacf3","619531dcf66c91622fa1b861","619595779d61d08dbfa295d3","6761.5999999996275","","d","false","[[182,23],[1,326],[232,592],[557,454],[526,103]]","false","5","main_T2_Trial","s","img/Fire_Down_Target.gif","[""img/Fire_Up_Distractor.gif"",""img/Fire_Up_Distractor.gif"",""img/Fire_Up_Distractor.gif"",""img/Fire_Up_Distractor.gif"",""img/Fire_Up_Distractor.gif"",""img/Fire_Up_Distractor.gif"",""img/Fire_Up_Distractor.gif"",""img/Fire_Up_Distractor.gif"",""img/Fire_Up_Distractor.gif"",""img/Fire_Up_Distractor.gif"",""img/Fire_Up_Distractor.gif"",""img/Fire_Up_Distractor.gif""]","5","targetDown_distractorsUp"
"","","","","","html-keyboard-response","38","198170","0.0-14.0-0.0-0.12","598fa1b80675b100014dacf3","619531dcf66c91622fa1b861","619595779d61d08dbfa295d3","null","","null","","","","","main_T1_ITI","","","","",""
"","","","","","visual-search-circle","39","204016","0.0-14.0-0.0-1.12","598fa1b80675b100014dacf3","619531dcf66c91622fa1b861","619595779d61d08dbfa295d3","4840.5","","s","false","[[512,87],[266,1],[45,140],[16,399],[200,583],[459,554],[598,333]]","true","7","main_T2_Trial","d","img/Fire_Up_Target.gif","[""img/Fire_Down_Distractor.gif"",""img/Fire_Down_Distractor.gif"",""img/Fire_Down_Distractor.gif"",""img/Fire_Down_Distractor.gif"",""img/Fire_Down_Distractor.gif"",""img/Fire_Down_Distractor.gif"",""img/Fire_Down_Distractor.gif"",""img/Fire_Down_Distractor.gif"",""img/Fire_Down_Distractor.gif"",""img/Fire_Down_Distractor.gif"",""img/Fire_Down_Distractor.gif"",""img/Fire_Down_Distractor.gif""]","7","targetUp_distractorsDown"
"","","","","","html-keyboard-response","40","204017","0.0-14.0-0.0-0.13","598fa1b80675b100014dacf3","619531dcf66c91622fa1b861","619595779d61d08dbfa295d3","null","","null","","","","","main_T1_ITI","","","","",""
"","","","","","visual-search-circle","41","211776","0.0-14.0-0.0-1.13","598fa1b80675b100014dacf3","619531dcf66c91622fa1b861","619595779d61d08dbfa295d3","6754.5999999996275","","s","true","[[504,519],[571,173],[263,2],[5,242],[154,562]]","false","5","main_T2_Trial","s","img/Fire_Up_Target.gif","[""img/Fire_Down_Distractor.gif"",""img/Fire_Down_Distractor.gif"",""img/Fire_Down_Distractor.gif"",""img/Fire_Down_Distractor.gif"",""img/Fire_Down_Distractor.gif"",""img/Fire_Down_Distractor.gif"",""img/Fire_Down_Distractor.gif"",""img/Fire_Down_Distractor.gif"",""img/Fire_Down_Distractor.gif"",""img/Fire_Down_Distractor.gif"",""img/Fire_Down_Distractor.gif"",""img/Fire_Down_Distractor.gif""]","5","targetUp_distractorsDown"
"","","","","","html-keyboard-response","42","211779","0.0-14.0-0.0-0.14","598fa1b80675b100014dacf3","619531dcf66c91622fa1b861","619595779d61d08dbfa295d3","null","","null","","","","","main_T1_ITI","","","","",""
"","","","","","visual-search-circle","43","214528","0.0-14.0-0.0-1.14","598fa1b80675b100014dacf3","619531dcf66c91622fa1b861","619595779d61d08dbfa295d3","1744.6000000014901","","d","true","[[508,515],[598,271],[464,48],[205,15],[18,195],[43,455],[261,597]]","true","7","main_T2_Trial","d","img/Fire_Up_Target.gif","[""img/Fire_Down_Distractor.gif"",""img/Fire_Down_Distractor.gif"",""img/Fire_Down_Distractor.gif"",""img/Fire_Down_Distractor.gif"",""img/Fire_Down_Distractor.gif"",""img/Fire_Down_Distractor.gif"",""img/Fire_Down_Distractor.gif"",""img/Fire_Down_Distractor.gif"",""img/Fire_Down_Distractor.gif"",""img/Fire_Down_Distractor.gif"",""img/Fire_Down_Distractor.gif"",""img/Fire_Down_Distractor.gif""]","7","targetUp_distractorsDown"
"","","","","","html-keyboard-response","44","214529","0.0-14.0-0.0-0.15","598fa1b80675b100014dacf3","619531dcf66c91622fa1b861","619595779d61d08dbfa295d3","null","","null","","","","","main_T1_ITI","","","","",""
"","","","","","visual-search-circle","45","226392","0.0-14.0-0.0-1.15","598fa1b80675b100014dacf3","619531dcf66c91622fa1b861","619595779d61d08dbfa295d3","10857.800000000745","","s","false","[[207,14],[32,163],[14,392],[163,567],[392,585],[567,436],[585,207],[436,32]]","true","8","main_T2_Trial","d","img/Fire_Down_Target.gif","[""img/Fire_Up_Distractor.gif"",""img/Fire_Up_Distractor.gif"",""img/Fire_Up_Distractor.gif"",""img/Fire_Up_Distractor.gif"",""img/Fire_Up_Distractor.gif"",""img/Fire_Up_Distractor.gif"",""img/Fire_Up_Distractor.gif"",""img/Fire_Up_Distractor.gif"",""img/Fire_Up_Distractor.gif"",""img/Fire_Up_Distractor.gif"",""img/Fire_Up_Distractor.gif"",""img/Fire_Up_Distractor.gif""]","8","targetDown_distractorsUp"
"","","","","","html-keyboard-response","46","226398","0.0-14.0-0.0-0.16","598fa1b80675b100014dacf3","619531dcf66c91622fa1b861","619595779d61d08dbfa295d3","null","","null","","","","","main_T1_ITI","","","","",""
"","","","","","visual-search-circle","47","234072","0.0-14.0-0.0-1.16","598fa1b80675b100014dacf3","619531dcf66c91622fa1b861","619595779d61d08dbfa295d3","6669.0999999996275","","d","true","[[19,192],[25,422],[192,580],[422,574],[580,407],[574,177],[407,19],[177,25]]","true","8","main_T2_Trial","d","img/Fire_Up_Target.gif","[""img/Fire_Down_Distractor.gif"",""img/Fire_Down_Distractor.gif"",""img/Fire_Down_Distractor.gif"",""img/Fire_Down_Distractor.gif"",""img/Fire_Down_Distractor.gif"",""img/Fire_Down_Distractor.gif"",""img/Fire_Down_Distractor.gif"",""img/Fire_Down_Distractor.gif"",""img/Fire_Down_Distractor.gif"",""img/Fire_Down_Distractor.gif"",""img/Fire_Down_Distractor.gif"",""img/Fire_Down_Distractor.gif""]","8","targetUp_distractorsDown"
"","","","","","html-keyboard-response","48","234073","0.0-14.0-0.0-0.17","598fa1b80675b100014dacf3","619531dcf66c91622fa1b861","619595779d61d08dbfa295d3","null","","null","","","","","main_T1_ITI","","","","",""
"","","","","","visual-search-circle","49","242560","0.0-14.0-0.0-1.17","598fa1b80675b100014dacf3","619531dcf66c91622fa1b861","619595779d61d08dbfa295d3","7483.199999999255","","s","true","[[522,500],[500,77],[77,99],[99,522]]","false","4","main_T2_Trial","s","img/Fire_Up_Target.gif","[""img/Fire_Down_Distractor.gif"",""img/Fire_Down_Distractor.gif"",""img/Fire_Down_Distractor.gif"",""img/Fire_Down_Distractor.gif"",""img/Fire_Down_Distractor.gif"",""img/Fire_Down_Distractor.gif"",""img/Fire_Down_Distractor.gif"",""img/Fire_Down_Distractor.gif"",""img/Fire_Down_Distractor.gif"",""img/Fire_Down_Distractor.gif"",""img/Fire_Down_Distractor.gif"",""img/Fire_Down_Distractor.gif""]","4","targetUp_distractorsDown"
"","","","","","html-keyboard-response","50","242561","0.0-14.0-0.0-0.18","598fa1b80675b100014dacf3","619531dcf66c91622fa1b861","619595779d61d08dbfa295d3","null","","null","","","","","main_T1_ITI","","","","",""
"","","","","","visual-search-circle","51","245455","0.0-14.0-0.0-1.18","598fa1b80675b100014dacf3","619531dcf66c91622fa1b861","619595779d61d08dbfa295d3","1890","","d","true","[[346,596],[560,448],[578,188],[386,12],[129,53],[0,279],[97,521]]","true","7","main_T2_Trial","d","img/Fire_Down_Target.gif","[""img/Fire_Up_Distractor.gif"",""img/Fire_Up_Distractor.gif"",""img/Fire_Up_Distractor.gif"",""img/Fire_Up_Distractor.gif"",""img/Fire_Up_Distractor.gif"",""img/Fire_Up_Distractor.gif"",""img/Fire_Up_Distractor.gif"",""img/Fire_Up_Distractor.gif"",""img/Fire_Up_Distractor.gif"",""img/Fire_Up_Distractor.gif"",""img/Fire_Up_Distractor.gif"",""img/Fire_Up_Distractor.gif""]","7","targetDown_distractorsUp"
"","","","","","html-keyboard-response","52","289431","0.0-14.0-0.0-0.19","598fa1b80675b100014dacf3","619531dcf66c91622fa1b861","619595779d61d08dbfa295d3","43975.300000000745","Wow! You've completed 20 out of 160 trials! </p> <p>  </p><p> Take a quick break, then press any key when you're ready to continue."," ","","","","","main_T1_ITI","","","","",""
"","","","","","visual-search-circle","53","298511","0.0-14.0-0.0-1.19","598fa1b80675b100014dacf3","619531dcf66c91622fa1b861","619595779d61d08dbfa295d3","8076.199999999255","","s","true","[[598,273],[273,1],[1,326],[326,598]]","false","4","main_T2_Trial","s","img/Fire_Down_Target.gif","[""img/Fire_Up_Distractor.gif"",""img/Fire_Up_Distractor.gif"",""img/Fire_Up_Distractor.gif"",""img/Fire_Up_Distractor.gif"",""img/Fire_Up_Distractor.gif"",""img/Fire_Up_Distractor.gif"",""img/Fire_Up_Distractor.gif"",""img/Fire_Up_Distractor.gif"",""img/Fire_Up_Distractor.gif"",""img/Fire_Up_Distractor.gif"",""img/Fire_Up_Distractor.gif"",""img/Fire_Up_Distractor.gif""]","4","targetDown_distractorsUp"
"","","","","","html-keyboard-response","54","298513","0.0-14.0-0.0-0.20","598fa1b80675b100014dacf3","619531dcf66c91622fa1b861","619595779d61d08dbfa295d3","null","","null","","","","","main_T1_ITI","","","","",""
"","","","","","visual-search-circle","55","305256","0.0-14.0-0.0-1.20","598fa1b80675b100014dacf3","619531dcf66c91622fa1b861","619595779d61d08dbfa295d3","5737.5","","s","true","[[242,594],[526,496],[583,202],[357,5],[73,103],[16,397]]","false","6","main_T2_Trial","s","img/Fire_Down_Target.gif","[""img/Fire_Up_Distractor.gif"",""img/Fire_Up_Distractor.gif"",""img/Fire_Up_Distractor.gif"",""img/Fire_Up_Distractor.gif"",""img/Fire_Up_Distractor.gif"",""img/Fire_Up_Distractor.gif"",""img/Fire_Up_Distractor.gif"",""img/Fire_Up_Distractor.gif"",""img/Fire_Up_Distractor.gif"",""img/Fire_Up_Distractor.gif"",""img/Fire_Up_Distractor.gif"",""img/Fire_Up_Distractor.gif""]","6","targetDown_distractorsUp"
"","","","","","html-keyboard-response","56","305263","0.0-14.0-0.0-0.21","598fa1b80675b100014dacf3","619531dcf66c91622fa1b861","619595779d61d08dbfa295d3","null","","null","","","","","main_T1_ITI","","","","",""
"","","","","","visual-search-circle","57","308727","0.0-14.0-0.0-1.21","598fa1b80675b100014dacf3","619531dcf66c91622fa1b861","619595779d61d08dbfa295d3","2458.60000000149","","d","true","[[599,294],[482,62],[228,8],[27,174],[32,434],[238,593],[491,531]]","true","7","main_T2_Trial","d","img/Fire_Down_Target.gif","[""img/Fire_Up_Distractor.gif"",""img/Fire_Up_Distractor.gif"",""img/Fire_Up_Distractor.gif"",""img/Fire_Up_Distractor.gif"",""img/Fire_Up_Distractor.gif"",""img/Fire_Up_Distractor.gif"",""img/Fire_Up_Distractor.gif"",""img/Fire_Up_Distractor.gif"",""img/Fire_Up_Distractor.gif"",""img/Fire_Up_Distractor.gif"",""img/Fire_Up_Distractor.gif"",""img/Fire_Up_Distractor.gif""]","7","targetDown_distractorsUp"
"","","","","","html-keyboard-response","58","308729","0.0-14.0-0.0-0.22","598fa1b80675b100014dacf3","619531dcf66c91622fa1b861","619595779d61d08dbfa295d3","null","","null","","","","","main_T1_ITI","","","","",""
"","","","","","visual-search-circle","59","312695","0.0-14.0-0.0-1.22","598fa1b80675b100014dacf3","619531dcf66c91622fa1b861","619595779d61d08dbfa295d3","2963.5999999996275","","s","true","[[25,177],[99,522],[450,559],[593,237],[331,1]]","false","5","main_T2_Trial","s","img/Fire_Down_Target.gif","[""img/Fire_Up_Distractor.gif"",""img/Fire_Up_Distractor.gif"",""img/Fire_Up_Distractor.gif"",""img/Fire_Up_Distractor.gif"",""img/Fire_Up_Distractor.gif"",""img/Fire_Up_Distractor.gif"",""img/Fire_Up_Distractor.gif"",""img/Fire_Up_Distractor.gif"",""img/Fire_Up_Distractor.gif"",""img/Fire_Up_Distractor.gif"",""img/Fire_Up_Distractor.gif"",""img/Fire_Up_Distractor.gif""]","5","targetDown_distractorsUp"
"","","","","","html-keyboard-response","60","312697","0.0-14.0-0.0-0.23","598fa1b80675b100014dacf3","619531dcf66c91622fa1b861","619595779d61d08dbfa295d3","null","","null","","","","","main_T1_ITI","","","","",""
"","","","","","visual-search-circle","61","317359","0.0-14.0-0.0-1.23","598fa1b80675b100014dacf3","619531dcf66c91622fa1b861","619595779d61d08dbfa295d3","3660.2999999988824","","s","true","[[450,559],[559,150],[150,40],[40,449]]","false","4","main_T2_Trial","s","img/Fire_Down_Target.gif","[""img/Fire_Up_Distractor.gif"",""img/Fire_Up_Distractor.gif"",""img/Fire_Up_Distractor.gif"",""img/Fire_Up_Distractor.gif"",""img/Fire_Up_Distractor.gif"",""img/Fire_Up_Distractor.gif"",""img/Fire_Up_Distractor.gif"",""img/Fire_Up_Distractor.gif"",""img/Fire_Up_Distractor.gif"",""img/Fire_Up_Distractor.gif"",""img/Fire_Up_Distractor.gif"",""img/Fire_Up_Distractor.gif""]","4","targetDown_distractorsUp"
"","","","","","html-keyboard-response","62","317361","0.0-14.0-0.0-0.24","598fa1b80675b100014dacf3","619531dcf66c91622fa1b861","619595779d61d08dbfa295d3","null","","null","","","","","main_T1_ITI","","","","",""
"","","","","","visual-search-circle","63","320887","0.0-14.0-0.0-1.24","598fa1b80675b100014dacf3","619531dcf66c91622fa1b861","619595779d61d08dbfa295d3","2521.0999999996275","","d","true","[[594,242],[467,51],[242,5],[51,132],[5,357],[132,548],[357,594],[548,467]]","true","8","main_T2_Trial","d","img/Fire_Down_Target.gif","[""img/Fire_Up_Distractor.gif"",""img/Fire_Up_Distractor.gif"",""img/Fire_Up_Distractor.gif"",""img/Fire_Up_Distractor.gif"",""img/Fire_Up_Distractor.gif"",""img/Fire_Up_Distractor.gif"",""img/Fire_Up_Distractor.gif"",""img/Fire_Up_Distractor.gif"",""img/Fire_Up_Distractor.gif"",""img/Fire_Up_Distractor.gif"",""img/Fire_Up_Distractor.gif"",""img/Fire_Up_Distractor.gif""]","8","targetDown_distractorsUp"
"","","","","","html-keyboard-response","64","320890","0.0-14.0-0.0-0.25","598fa1b80675b100014dacf3","619531dcf66c91622fa1b861","619595779d61d08dbfa295d3","null","","null","","","","","main_T1_ITI","","","","",""
"","","","","","visual-search-circle","65","324727","0.0-14.0-0.0-1.25","598fa1b80675b100014dacf3","619531dcf66c91622fa1b861","619595779d61d08dbfa295d3","2833.0999999996275","","d","true","[[500,522],[593,237],[392,14],[99,77],[6,362],[207,585]]","true","6","main_T2_Trial","d","img/Fire_Down_Target.gif","[""img/Fire_Up_Distractor.gif"",""img/Fire_Up_Distractor.gif"",""img/Fire_Up_Distractor.gif"",""img/Fire_Up_Distractor.gif"",""img/Fire_Up_Distractor.gif"",""img/Fire_Up_Distractor.gif"",""img/Fire_Up_Distractor.gif"",""img/Fire_Up_Distractor.gif"",""img/Fire_Up_Distractor.gif"",""img/Fire_Up_Distractor.gif"",""img/Fire_Up_Distractor.gif"",""img/Fire_Up_Distractor.gif""]","6","targetDown_distractorsUp"
"","","","","","html-keyboard-response","66","324730","0.0-14.0-0.0-0.26","598fa1b80675b100014dacf3","619531dcf66c91622fa1b861","619595779d61d08dbfa295d3","null","","null","","","","","main_T1_ITI","","","","",""
"","","","","","visual-search-circle","67","329863","0.0-14.0-0.0-1.26","598fa1b80675b100014dacf3","619531dcf66c91622fa1b861","619595779d61d08dbfa295d3","4130.199999999255","","s","true","[[529,107],[107,70],[70,492],[492,529]]","false","4","main_T2_Trial","s","img/Fire_Up_Target.gif","[""img/Fire_Down_Distractor.gif"",""img/Fire_Down_Distractor.gif"",""img/Fire_Down_Distractor.gif"",""img/Fire_Down_Distractor.gif"",""img/Fire_Down_Distractor.gif"",""img/Fire_Down_Distractor.gif"",""img/Fire_Down_Distractor.gif"",""img/Fire_Down_Distractor.gif"",""img/Fire_Down_Distractor.gif"",""img/Fire_Down_Distractor.gif"",""img/Fire_Down_Distractor.gif"",""img/Fire_Down_Distractor.gif""]","4","targetUp_distractorsDown"
"","","","","","html-keyboard-response","68","329865","0.0-14.0-0.0-0.27","598fa1b80675b100014dacf3","619531dcf66c91622fa1b861","619595779d61d08dbfa295d3","null","","null","","","","","main_T1_ITI","","","","",""
"","","","","","visual-search-circle","69","335695","0.0-14.0-0.0-1.27","598fa1b80675b100014dacf3","619531dcf66c91622fa1b861","619595779d61d08dbfa295d3","4828.0999999996275","","d","true","[[2,263],[263,597],[597,336],[336,2]]","true","4","main_T2_Trial","d","img/Fire_Down_Target.gif","[""img/Fire_Up_Distractor.gif"",""img/Fire_Up_Distractor.gif"",""img/Fire_Up_Distractor.gif"",""img/Fire_Up_Distractor.gif"",""img/Fire_Up_Distractor.gif"",""img/Fire_Up_Distractor.gif"",""img/Fire_Up_Distractor.gif"",""img/Fire_Up_Distractor.gif"",""img/Fire_Up_Distractor.gif"",""img/Fire_Up_Distractor.gif"",""img/Fire_Up_Distractor.gif"",""img/Fire_Up_Distractor.gif""]","4","targetDown_distractorsUp"
"","","","","","html-keyboard-response","70","335698","0.0-14.0-0.0-0.28","598fa1b80675b100014dacf3","619531dcf66c91622fa1b861","619595779d61d08dbfa295d3","null","","null","","","","","main_T1_ITI","","","","",""
"","","","","","visual-search-circle","71","342471","0.0-14.0-0.0-1.28","598fa1b80675b100014dacf3","619531dcf66c91622fa1b861","619595779d61d08dbfa295d3","5768.700000001118","","s","true","[[476,542],[599,313],[497,74],[246,4],[35,157],[24,417],[220,589]]","false","7","main_T2_Trial","s","img/Fire_Up_Target.gif","[""img/Fire_Down_Distractor.gif"",""img/Fire_Down_Distractor.gif"",""img/Fire_Down_Distractor.gif"",""img/Fire_Down_Distractor.gif"",""img/Fire_Down_Distractor.gif"",""img/Fire_Down_Distractor.gif"",""img/Fire_Down_Distractor.gif"",""img/Fire_Down_Distractor.gif"",""img/Fire_Down_Distractor.gif"",""img/Fire_Down_Distractor.gif"",""img/Fire_Down_Distractor.gif"",""img/Fire_Down_Distractor.gif""]","7","targetUp_distractorsDown"
"","","","","","html-keyboard-response","72","342474","0.0-14.0-0.0-0.29","598fa1b80675b100014dacf3","619531dcf66c91622fa1b861","619595779d61d08dbfa295d3","null","","null","","","","","main_T1_ITI","","","","",""
"","","","","","visual-search-circle","73","352640","0.0-14.0-0.0-1.29","598fa1b80675b100014dacf3","619531dcf66c91622fa1b861","619595779d61d08dbfa295d3","9161.5","","s","true","[[123,57],[1,331],[177,574],[476,542],[598,268],[422,25]]","false","6","main_T2_Trial","s","img/Fire_Down_Target.gif","[""img/Fire_Up_Distractor.gif"",""img/Fire_Up_Distractor.gif"",""img/Fire_Up_Distractor.gif"",""img/Fire_Up_Distractor.gif"",""img/Fire_Up_Distractor.gif"",""img/Fire_Up_Distractor.gif"",""img/Fire_Up_Distractor.gif"",""img/Fire_Up_Distractor.gif"",""img/Fire_Up_Distractor.gif"",""img/Fire_Up_Distractor.gif"",""img/Fire_Up_Distractor.gif"",""img/Fire_Up_Distractor.gif""]","6","targetDown_distractorsUp"
"","","","","","html-keyboard-response","74","352643","0.0-14.0-0.0-0.30","598fa1b80675b100014dacf3","619531dcf66c91622fa1b861","619595779d61d08dbfa295d3","null","","null","","","","","main_T1_ITI","","","","",""
"","","","","","visual-search-circle","75","362527","0.0-14.0-0.0-1.30","598fa1b80675b100014dacf3","619531dcf66c91622fa1b861","619595779d61d08dbfa295d3","8880.5","","s","false","[[192,19],[0,315],[222,589],[551,463],[533,111]]","true","5","main_T2_Trial","d","img/Fire_Up_Target.gif","[""img/Fire_Down_Distractor.gif"",""img/Fire_Down_Distractor.gif"",""img/Fire_Down_Distractor.gif"",""img/Fire_Down_Distractor.gif"",""img/Fire_Down_Distractor.gif"",""img/Fire_Down_Distractor.gif"",""img/Fire_Down_Distractor.gif"",""img/Fire_Down_Distractor.gif"",""img/Fire_Down_Distractor.gif"",""img/Fire_Down_Distractor.gif"",""img/Fire_Down_Distractor.gif"",""img/Fire_Down_Distractor.gif""]","5","targetUp_distractorsDown"
"","","","","","html-keyboard-response","76","362532","0.0-14.0-0.0-0.31","598fa1b80675b100014dacf3","619531dcf66c91622fa1b861","619595779d61d08dbfa295d3","null","","null","","","","","main_T1_ITI","","","","",""
"","","","","","visual-search-circle","77","369135","0.0-14.0-0.0-1.31","598fa1b80675b100014dacf3","619531dcf66c91622fa1b861","619595779d61d08dbfa295d3","5600","","s","true","[[127,54],[54,472],[472,545],[545,127]]","false","4","main_T2_Trial","s","img/Fire_Up_Target.gif","[""img/Fire_Down_Distractor.gif"",""img/Fire_Down_Distractor.gif"",""img/Fire_Down_Distractor.gif"",""img/Fire_Down_Distractor.gif"",""img/Fire_Down_Distractor.gif"",""img/Fire_Down_Distractor.gif"",""img/Fire_Down_Distractor.gif"",""img/Fire_Down_Distractor.gif"",""img/Fire_Down_Distractor.gif"",""img/Fire_Down_Distractor.gif"",""img/Fire_Down_Distractor.gif"",""img/Fire_Down_Distractor.gif""]","4","targetUp_distractorsDown"
"","","","","","html-keyboard-response","78","369137","0.0-14.0-0.0-0.32","598fa1b80675b100014dacf3","619531dcf66c91622fa1b861","619595779d61d08dbfa295d3","null","","null","","","","","main_T1_ITI","","","","",""
"","","","","","visual-search-circle","79","372351","0.0-14.0-0.0-1.32","598fa1b80675b100014dacf3","619531dcf66c91622fa1b861","619595779d61d08dbfa295d3","2210","","d","true","[[548,132],[357,5],[132,51],[5,242],[51,467],[242,594],[467,548],[594,357]]","true","8","main_T2_Trial","d","img/Fire_Down_Target.gif","[""img/Fire_Up_Distractor.gif"",""img/Fire_Up_Distractor.gif"",""img/Fire_Up_Distractor.gif"",""img/Fire_Up_Distractor.gif"",""img/Fire_Up_Distractor.gif"",""img/Fire_Up_Distractor.gif"",""img/Fire_Up_Distractor.gif"",""img/Fire_Up_Distractor.gif"",""img/Fire_Up_Distractor.gif"",""img/Fire_Up_Distractor.gif"",""img/Fire_Up_Distractor.gif"",""img/Fire_Up_Distractor.gif""]","8","targetDown_distractorsUp"
"","","","","","html-keyboard-response","80","372353","0.0-14.0-0.0-0.33","598fa1b80675b100014dacf3","619531dcf66c91622fa1b861","619595779d61d08dbfa295d3","null","","null","","","","","main_T1_ITI","","","","",""
"","","","","","visual-search-circle","81","376191","0.0-14.0-0.0-1.33","598fa1b80675b100014dacf3","619531dcf66c91622fa1b861","619595779d61d08dbfa295d3","2835.800000000745","","s","true","[[599,289],[289,0],[0,310],[310,599]]","false","4","main_T2_Trial","s","img/Fire_Up_Target.gif","[""img/Fire_Down_Distractor.gif"",""img/Fire_Down_Distractor.gif"",""img/Fire_Down_Distractor.gif"",""img/Fire_Down_Distractor.gif"",""img/Fire_Down_Distractor.gif"",""img/Fire_Down_Distractor.gif"",""img/Fire_Down_Distractor.gif"",""img/Fire_Down_Distractor.gif"",""img/Fire_Down_Distractor.gif"",""img/Fire_Down_Distractor.gif"",""img/Fire_Down_Distractor.gif"",""img/Fire_Down_Distractor.gif""]","4","targetUp_distractorsDown"
"","","","","","html-keyboard-response","82","376193","0.0-14.0-0.0-0.34","598fa1b80675b100014dacf3","619531dcf66c91622fa1b861","619595779d61d08dbfa295d3","null","","null","","","","","main_T1_ITI","","","","",""
"","","","","","visual-search-circle","83","385063","0.0-14.0-0.0-1.34","598fa1b80675b100014dacf3","619531dcf66c91622fa1b861","619595779d61d08dbfa295d3","7867.199999999255","","d","false","[[87,512],[377,589],[589,377],[512,87],[222,10],[10,222]]","false","6","main_T2_Trial","s","img/Fire_Down_Target.gif","[""img/Fire_Up_Distractor.gif"",""img/Fire_Up_Distractor.gif"",""img/Fire_Up_Distractor.gif"",""img/Fire_Up_Distractor.gif"",""img/Fire_Up_Distractor.gif"",""img/Fire_Up_Distractor.gif"",""img/Fire_Up_Distractor.gif"",""img/Fire_Up_Distractor.gif"",""img/Fire_Up_Distractor.gif"",""img/Fire_Up_Distractor.gif"",""img/Fire_Up_Distractor.gif"",""img/Fire_Up_Distractor.gif""]","6","targetDown_distractorsUp"
"","","","","","html-keyboard-response","84","385065","0.0-14.0-0.0-0.35","598fa1b80675b100014dacf3","619531dcf66c91622fa1b861","619595779d61d08dbfa295d3","null","","null","","","","","main_T1_ITI","","","","",""
"","","","","","visual-search-circle","85","389320","0.0-14.0-0.0-1.35","598fa1b80675b100014dacf3","619531dcf66c91622fa1b861","619595779d61d08dbfa295d3","3250.5","","d","false","[[567,436],[512,87],[163,32],[3,346],[253,596]]","false","5","main_T2_Trial","s","img/Fire_Up_Target.gif","[""img/Fire_Down_Distractor.gif"",""img/Fire_Down_Distractor.gif"",""img/Fire_Down_Distractor.gif"",""img/Fire_Down_Distractor.gif"",""img/Fire_Down_Distractor.gif"",""img/Fire_Down_Distractor.gif"",""img/Fire_Down_Distractor.gif"",""img/Fire_Down_Distractor.gif"",""img/Fire_Down_Distractor.gif"",""img/Fire_Down_Distractor.gif"",""img/Fire_Down_Distractor.gif"",""img/Fire_Down_Distractor.gif""]","5","targetUp_distractorsDown"
"","","","","","html-keyboard-response","86","389324","0.0-14.0-0.0-0.36","598fa1b80675b100014dacf3","619531dcf66c91622fa1b861","619595779d61d08dbfa295d3","null","","null","","","","","main_T1_ITI","","","","",""
"","","","","","visual-search-circle","87","393607","0.0-14.0-0.0-1.36","598fa1b80675b100014dacf3","619531dcf66c91622fa1b861","619595779d61d08dbfa295d3","3278.5","","d","true","[[163,32],[6,239],[69,492],[306,599],[538,481],[590,226],[424,26]]","true","7","main_T2_Trial","d","img/Fire_Up_Target.gif","[""img/Fire_Down_Distractor.gif"",""img/Fire_Down_Distractor.gif"",""img/Fire_Down_Distractor.gif"",""img/Fire_Down_Distractor.gif"",""img/Fire_Down_Distractor.gif"",""img/Fire_Down_Distractor.gif"",""img/Fire_Down_Distractor.gif"",""img/Fire_Down_Distractor.gif"",""img/Fire_Down_Distractor.gif"",""img/Fire_Down_Distractor.gif"",""img/Fire_Down_Distractor.gif"",""img/Fire_Down_Distractor.gif""]","7","targetUp_distractorsDown"
"","","","","","html-keyboard-response","88","393609","0.0-14.0-0.0-0.37","598fa1b80675b100014dacf3","619531dcf66c91622fa1b861","619595779d61d08dbfa295d3","null","","null","","","","","main_T1_ITI","","","","",""
"","","","","","visual-search-circle","89","396839","0.0-14.0-0.0-1.37","598fa1b80675b100014dacf3","619531dcf66c91622fa1b861","619595779d61d08dbfa295d3","2226.699999999255","","d","true","[[596,346],[521,97],[279,0],[53,129],[12,386],[188,578],[448,560]]","true","7","main_T2_Trial","d","img/Fire_Up_Target.gif","[""img/Fire_Down_Distractor.gif"",""img/Fire_Down_Distractor.gif"",""img/Fire_Down_Distractor.gif"",""img/Fire_Down_Distractor.gif"",""img/Fire_Down_Distractor.gif"",""img/Fire_Down_Distractor.gif"",""img/Fire_Down_Distractor.gif"",""img/Fire_Down_Distractor.gif"",""img/Fire_Down_Distractor.gif"",""img/Fire_Down_Distractor.gif"",""img/Fire_Down_Distractor.gif"",""img/Fire_Down_Distractor.gif""]","7","targetUp_distractorsDown"
"","","","","","html-keyboard-response","90","396841","0.0-14.0-0.0-0.38","598fa1b80675b100014dacf3","619531dcf66c91622fa1b861","619595779d61d08dbfa295d3","null","","null","","","","","main_T1_ITI","","","","",""
"","","","","","visual-search-circle","91","399767","0.0-14.0-0.0-1.38","598fa1b80675b100014dacf3","619531dcf66c91622fa1b861","619595779d61d08dbfa295d3","1921","","d","true","[[305,599],[515,508],[599,294],[508,84],[294,0],[84,91],[0,305],[91,515]]","true","8","main_T2_Trial","d","img/Fire_Down_Target.gif","[""img/Fire_Up_Distractor.gif"",""img/Fire_Up_Distractor.gif"",""img/Fire_Up_Distractor.gif"",""img/Fire_Up_Distractor.gif"",""img/Fire_Up_Distractor.gif"",""img/Fire_Up_Distractor.gif"",""img/Fire_Up_Distractor.gif"",""img/Fire_Up_Distractor.gif"",""img/Fire_Up_Distractor.gif"",""img/Fire_Up_Distractor.gif"",""img/Fire_Up_Distractor.gif"",""img/Fire_Up_Distractor.gif""]","8","targetDown_distractorsUp"
"","","","","","html-keyboard-response","92","436719","0.0-14.0-0.0-0.39","598fa1b80675b100014dacf3","619531dcf66c91622fa1b861","619595779d61d08dbfa295d3","36951.60000000149","Wow! You've completed 40 out of 160 trials! </p> <p>  </p><p> Take a quick break, then press any key when you're ready to continue."," ","","","","","main_T1_ITI","","","","",""
"","","","","","visual-search-circle","93","442912","0.0-14.0-0.0-1.39","598fa1b80675b100014dacf3","619531dcf66c91622fa1b861","619595779d61d08dbfa295d3","5186.699999999255","","s","true","[[331,1],[111,66],[1,268],[66,488],[268,598],[488,533],[598,331],[533,111]]","false","8","main_T2_Trial","s","img/Fire_Down_Target.gif","[""img/Fire_Up_Distractor.gif"",""img/Fire_Up_Distractor.gif"",""img/Fire_Up_Distractor.gif"",""img/Fire_Up_Distractor.gif"",""img/Fire_Up_Distractor.gif"",""img/Fire_Up_Distractor.gif"",""img/Fire_Up_Distractor.gif"",""img/Fire_Up_Distractor.gif"",""img/Fire_Up_Distractor.gif"",""img/Fire_Up_Distractor.gif"",""img/Fire_Up_Distractor.gif"",""img/Fire_Up_Distractor.gif""]","8","targetDown_distractorsUp"
"","","","","","html-keyboard-response","94","442914","0.0-14.0-0.0-0.40","598fa1b80675b100014dacf3","619531dcf66c91622fa1b861","619595779d61d08dbfa295d3","null","","null","","","","","main_T1_ITI","","","","",""
"","","","","","visual-search-circle","95","446423","0.0-14.0-0.0-1.40","598fa1b80675b100014dacf3","619531dcf66c91622fa1b861","619595779d61d08dbfa295d3","2504.699999999255","","s","true","[[412,21],[70,107],[45,458],[372,591],[599,320]]","false","5","main_T2_Trial","s","img/Fire_Up_Target.gif","[""img/Fire_Down_Distractor.gif"",""img/Fire_Down_Distractor.gif"",""img/Fire_Down_Distractor.gif"",""img/Fire_Down_Distractor.gif"",""img/Fire_Down_Distractor.gif"",""img/Fire_Down_Distractor.gif"",""img/Fire_Down_Distractor.gif"",""img/Fire_Down_Distractor.gif"",""img/Fire_Down_Distractor.gif"",""img/Fire_Down_Distractor.gif"",""img/Fire_Down_Distractor.gif"",""img/Fire_Down_Distractor.gif""]","5","targetUp_distractorsDown"
"","","","","","html-keyboard-response","96","446425","0.0-14.0-0.0-0.41","598fa1b80675b100014dacf3","619531dcf66c91622fa1b861","619595779d61d08dbfa295d3","null","","null","","","","","main_T1_ITI","","","","",""
"","","","","","visual-search-circle","97","448343","0.0-14.0-0.0-1.41","598fa1b80675b100014dacf3","619531dcf66c91622fa1b861","619595779d61d08dbfa295d3","914.0999999996275","","d","true","[[458,554],[599,289],[440,35],[141,45],[0,310],[159,564]]","true","6","main_T2_Trial","d","img/Fire_Up_Target.gif","[""img/Fire_Down_Distractor.gif"",""img/Fire_Down_Distractor.gif"",""img/Fire_Down_Distractor.gif"",""img/Fire_Down_Distractor.gif"",""img/Fire_Down_Distractor.gif"",""img/Fire_Down_Distractor.gif"",""img/Fire_Down_Distractor.gif"",""img/Fire_Down_Distractor.gif"",""img/Fire_Down_Distractor.gif"",""img/Fire_Down_Distractor.gif"",""img/Fire_Down_Distractor.gif"",""img/Fire_Down_Distractor.gif""]","6","targetUp_distractorsDown"
"","","","","","html-keyboard-response","98","448345","0.0-14.0-0.0-0.42","598fa1b80675b100014dacf3","619531dcf66c91622fa1b861","619595779d61d08dbfa295d3","null","","null","","","","","main_T1_ITI","","","","",""
"","","","","","visual-search-circle","99","451127","0.0-14.0-0.0-1.42","598fa1b80675b100014dacf3","619531dcf66c91622fa1b861","619595779d61d08dbfa295d3","1778.5","","d","false","[[599,315],[407,19],[66,111],[48,463],[377,589]]","false","5","main_T2_Trial","s","img/Fire_Up_Target.gif","[""img/Fire_Down_Distractor.gif"",""img/Fire_Down_Distractor.gif"",""img/Fire_Down_Distractor.gif"",""img/Fire_Down_Distractor.gif"",""img/Fire_Down_Distractor.gif"",""img/Fire_Down_Distractor.gif"",""img/Fire_Down_Distractor.gif"",""img/Fire_Down_Distractor.gif"",""img/Fire_Down_Distractor.gif"",""img/Fire_Down_Distractor.gif"",""img/Fire_Down_Distractor.gif"",""img/Fire_Down_Distractor.gif""]","5","targetUp_distractorsDown"
"","","","","","html-keyboard-response","100","451129","0.0-14.0-0.0-0.43","598fa1b80675b100014dacf3","619531dcf66c91622fa1b861","619595779d61d08dbfa295d3","null","","null","","","","","main_T1_ITI","","","","",""
"","","","","","visual-search-circle","101","454511","0.0-14.0-0.0-1.43","598fa1b80675b100014dacf3","619531dcf66c91622fa1b861","619595779d61d08dbfa295d3","2380","","s","true","[[576,417],[417,23],[23,182],[182,576]]","false","4","main_T2_Trial","s","img/Fire_Up_Target.gif","[""img/Fire_Down_Distractor.gif"",""img/Fire_Down_Distractor.gif"",""img/Fire_Down_Distractor.gif"",""img/Fire_Down_Distractor.gif"",""img/Fire_Down_Distractor.gif"",""img/Fire_Down_Distractor.gif"",""img/Fire_Down_Distractor.gif"",""img/Fire_Down_Distractor.gif"",""img/Fire_Down_Distractor.gif"",""img/Fire_Down_Distractor.gif"",""img/Fire_Down_Distractor.gif"",""img/Fire_Down_Distractor.gif""]","4","targetUp_distractorsDown"
"","","","","","html-keyboard-response","102","454514","0.0-14.0-0.0-0.44","598fa1b80675b100014dacf3","619531dcf66c91622fa1b861","619595779d61d08dbfa295d3","null","","null","","","","","main_T1_ITI","","","","",""
"","","","","","visual-search-circle","103","459688","0.0-14.0-0.0-1.44","598fa1b80675b100014dacf3","619531dcf66c91622fa1b861","619595779d61d08dbfa295d3","4169.200000001118","","s","false","[[141,45],[0,310],[159,564],[458,554],[599,289],[440,35]]","true","6","main_T2_Trial","d","img/Fire_Up_Target.gif","[""img/Fire_Down_Distractor.gif"",""img/Fire_Down_Distractor.gif"",""img/Fire_Down_Distractor.gif"",""img/Fire_Down_Distractor.gif"",""img/Fire_Down_Distractor.gif"",""img/Fire_Down_Distractor.gif"",""img/Fire_Down_Distractor.gif"",""img/Fire_Down_Distractor.gif"",""img/Fire_Down_Distractor.gif"",""img/Fire_Down_Distractor.gif"",""img/Fire_Down_Distractor.gif"",""img/Fire_Down_Distractor.gif""]","6","targetUp_distractorsDown"
"","","","","","html-keyboard-response","104","459700","0.0-14.0-0.0-0.45","598fa1b80675b100014dacf3","619531dcf66c91622fa1b861","619595779d61d08dbfa295d3","null","","null","","","","","main_T1_ITI","","","","",""
"","","","","","visual-search-circle","105","463127","0.0-14.0-0.0-1.45","598fa1b80675b100014dacf3","619531dcf66c91622fa1b861","619595779d61d08dbfa295d3","2423","","d","true","[[397,16],[103,73],[5,357],[202,583],[496,526],[594,242]]","true","6","main_T2_Trial","d","img/Fire_Down_Target.gif","[""img/Fire_Up_Distractor.gif"",""img/Fire_Up_Distractor.gif"",""img/Fire_Up_Distractor.gif"",""img/Fire_Up_Distractor.gif"",""img/Fire_Up_Distractor.gif"",""img/Fire_Up_Distractor.gif"",""img/Fire_Up_Distractor.gif"",""img/Fire_Up_Distractor.gif"",""img/Fire_Up_Distractor.gif"",""img/Fire_Up_Distractor.gif"",""img/Fire_Up_Distractor.gif"",""img/Fire_Up_Distractor.gif""]","6","targetDown_distractorsUp"
"","","","","","html-keyboard-response","106","463130","0.0-14.0-0.0-0.46","598fa1b80675b100014dacf3","619531dcf66c91622fa1b861","619595779d61d08dbfa295d3","null","","null","","","","","main_T1_ITI","","","","",""
"","","","","","visual-search-circle","107","466984","0.0-14.0-0.0-1.46","598fa1b80675b100014dacf3","619531dcf66c91622fa1b861","619595779d61d08dbfa295d3","2836.0999999996275","","s","true","[[202,16],[16,397],[397,583],[583,202]]","false","4","main_T2_Trial","s","img/Fire_Down_Target.gif","[""img/Fire_Up_Distractor.gif"",""img/Fire_Up_Distractor.gif"",""img/Fire_Up_Distractor.gif"",""img/Fire_Up_Distractor.gif"",""img/Fire_Up_Distractor.gif"",""img/Fire_Up_Distractor.gif"",""img/Fire_Up_Distractor.gif"",""img/Fire_Up_Distractor.gif"",""img/Fire_Up_Distractor.gif"",""img/Fire_Up_Distractor.gif"",""img/Fire_Up_Distractor.gif"",""img/Fire_Up_Distractor.gif""]","4","targetDown_distractorsUp"
"","","","","","html-keyboard-response","108","466985","0.0-14.0-0.0-0.47","598fa1b80675b100014dacf3","619531dcf66c91622fa1b861","619595779d61d08dbfa295d3","null","","null","","","","","main_T1_ITI","","","","",""
"","","","","","visual-search-circle","109","473935","0.0-14.0-0.0-1.47","598fa1b80675b100014dacf3","619531dcf66c91622fa1b861","619595779d61d08dbfa295d3","5947","","s","true","[[132,51],[0,320],[168,569],[467,548],[599,279],[431,30]]","false","6","main_T2_Trial","s","img/Fire_Up_Target.gif","[""img/Fire_Down_Distractor.gif"",""img/Fire_Down_Distractor.gif"",""img/Fire_Down_Distractor.gif"",""img/Fire_Down_Distractor.gif"",""img/Fire_Down_Distractor.gif"",""img/Fire_Down_Distractor.gif"",""img/Fire_Down_Distractor.gif"",""img/Fire_Down_Distractor.gif"",""img/Fire_Down_Distractor.gif"",""img/Fire_Down_Distractor.gif"",""img/Fire_Down_Distractor.gif"",""img/Fire_Down_Distractor.gif""]","6","targetUp_distractorsDown"
"","","","","","html-keyboard-response","110","473937","0.0-14.0-0.0-0.48","598fa1b80675b100014dacf3","619531dcf66c91622fa1b861","619595779d61d08dbfa295d3","null","","null","","","","","main_T1_ITI","","","","",""
"","","","","","visual-search-circle","111","477239","0.0-14.0-0.0-1.48","598fa1b80675b100014dacf3","619531dcf66c91622fa1b861","619595779d61d08dbfa295d3","2298.9000000003725","","s","true","[[18,402],[402,581],[581,197],[197,18]]","false","4","main_T2_Trial","s","img/Fire_Up_Target.gif","[""img/Fire_Down_Distractor.gif"",""img/Fire_Down_Distractor.gif"",""img/Fire_Down_Distractor.gif"",""img/Fire_Down_Distractor.gif"",""img/Fire_Down_Distractor.gif"",""img/Fire_Down_Distractor.gif"",""img/Fire_Down_Distractor.gif"",""img/Fire_Down_Distractor.gif"",""img/Fire_Down_Distractor.gif"",""img/Fire_Down_Distractor.gif"",""img/Fire_Down_Distractor.gif"",""img/Fire_Down_Distractor.gif""]","4","targetUp_distractorsDown"
"","","","","","html-keyboard-response","112","477241","0.0-14.0-0.0-0.49","598fa1b80675b100014dacf3","619531dcf66c91622fa1b861","619595779d61d08dbfa295d3","null","","null","","","","","main_T1_ITI","","","","",""
"","","","","","visual-search-circle","113","479263","0.0-14.0-0.0-1.49","598fa1b80675b100014dacf3","619531dcf66c91622fa1b861","619595779d61d08dbfa295d3","1017.3000000007451","","d","true","[[591,227],[424,27],[164,32],[6,239],[69,491],[305,599],[538,482]]","true","7","main_T2_Trial","d","img/Fire_Up_Target.gif","[""img/Fire_Down_Distractor.gif"",""img/Fire_Down_Distractor.gif"",""img/Fire_Down_Distractor.gif"",""img/Fire_Down_Distractor.gif"",""img/Fire_Down_Distractor.gif"",""img/Fire_Down_Distractor.gif"",""img/Fire_Down_Distractor.gif"",""img/Fire_Down_Distractor.gif"",""img/Fire_Down_Distractor.gif"",""img/Fire_Down_Distractor.gif"",""img/Fire_Down_Distractor.gif"",""img/Fire_Down_Distractor.gif""]","7","targetUp_distractorsDown"
"","","","","","html-keyboard-response","114","479266","0.0-14.0-0.0-0.50","598fa1b80675b100014dacf3","619531dcf66c91622fa1b861","619595779d61d08dbfa295d3","null","","null","","","","","main_T1_ITI","","","","",""
"","","","","","visual-search-circle","115","482759","0.0-14.0-0.0-1.50","598fa1b80675b100014dacf3","619531dcf66c91622fa1b861","619595779d61d08dbfa295d3","2488.5","","d","true","[[30,431],[234,592],[488,533],[599,298],[485,64],[231,7],[29,171]]","true","7","main_T2_Trial","d","img/Fire_Up_Target.gif","[""img/Fire_Down_Distractor.gif"",""img/Fire_Down_Distractor.gif"",""img/Fire_Down_Distractor.gif"",""img/Fire_Down_Distractor.gif"",""img/Fire_Down_Distractor.gif"",""img/Fire_Down_Distractor.gif"",""img/Fire_Down_Distractor.gif"",""img/Fire_Down_Distractor.gif"",""img/Fire_Down_Distractor.gif"",""img/Fire_Down_Distractor.gif"",""img/Fire_Down_Distractor.gif"",""img/Fire_Down_Distractor.gif""]","7","targetUp_distractorsDown"
"","","","","","html-keyboard-response","116","482762","0.0-14.0-0.0-0.51","598fa1b80675b100014dacf3","619531dcf66c91622fa1b861","619595779d61d08dbfa295d3","null","","null","","","","","main_T1_ITI","","","","",""
"","","","","","visual-search-circle","117","490608","0.0-14.0-0.0-1.51","598fa1b80675b100014dacf3","619531dcf66c91622fa1b861","619595779d61d08dbfa295d3","6841.299999998882","","d","true","[[279,0],[30,168],[51,467],[320,599],[569,431],[548,132]]","true","6","main_T2_Trial","d","img/Fire_Up_Target.gif","[""img/Fire_Down_Distractor.gif"",""img/Fire_Down_Distractor.gif"",""img/Fire_Down_Distractor.gif"",""img/Fire_Down_Distractor.gif"",""img/Fire_Down_Distractor.gif"",""img/Fire_Down_Distractor.gif"",""img/Fire_Down_Distractor.gif"",""img/Fire_Down_Distractor.gif"",""img/Fire_Down_Distractor.gif"",""img/Fire_Down_Distractor.gif"",""img/Fire_Down_Distractor.gif"",""img/Fire_Down_Distractor.gif""]","6","targetUp_distractorsDown"
"","","","","","html-keyboard-response","118","490609","0.0-14.0-0.0-0.52","598fa1b80675b100014dacf3","619531dcf66c91622fa1b861","619595779d61d08dbfa295d3","null","","null","","","","","main_T1_ITI","","","","",""
"","","","","","visual-search-circle","119","496040","0.0-14.0-0.0-1.52","598fa1b80675b100014dacf3","619531dcf66c91622fa1b861","619595779d61d08dbfa295d3","4425.800000000745","","d","true","[[294,0],[37,154],[42,454],[305,599],[562,445],[557,145]]","true","6","main_T2_Trial","d","img/Fire_Down_Target.gif","[""img/Fire_Up_Distractor.gif"",""img/Fire_Up_Distractor.gif"",""img/Fire_Up_Distractor.gif"",""img/Fire_Up_Distractor.gif"",""img/Fire_Up_Distractor.gif"",""img/Fire_Up_Distractor.gif"",""img/Fire_Up_Distractor.gif"",""img/Fire_Up_Distractor.gif"",""img/Fire_Up_Distractor.gif"",""img/Fire_Up_Distractor.gif"",""img/Fire_Up_Distractor.gif"",""img/Fire_Up_Distractor.gif""]","6","targetDown_distractorsUp"
"","","","","","html-keyboard-response","120","496041","0.0-14.0-0.0-0.53","598fa1b80675b100014dacf3","619531dcf66c91622fa1b861","619595779d61d08dbfa295d3","null","","null","","","","","main_T1_ITI","","","","",""
"","","","","","visual-search-circle","121","500832","0.0-14.0-0.0-1.53","598fa1b80675b100014dacf3","619531dcf66c91622fa1b861","619595779d61d08dbfa295d3","3786.4000000003725","","s","true","[[253,596],[502,521],[599,279],[470,53],[213,12],[21,188],[39,448]]","false","7","main_T2_Trial","s","img/Fire_Down_Target.gif","[""img/Fire_Up_Distractor.gif"",""img/Fire_Up_Distractor.gif"",""img/Fire_Up_Distractor.gif"",""img/Fire_Up_Distractor.gif"",""img/Fire_Up_Distractor.gif"",""img/Fire_Up_Distractor.gif"",""img/Fire_Up_Distractor.gif"",""img/Fire_Up_Distractor.gif"",""img/Fire_Up_Distractor.gif"",""img/Fire_Up_Distractor.gif"",""img/Fire_Up_Distractor.gif"",""img/Fire_Up_Distractor.gif""]","7","targetDown_distractorsUp"
"","","","","","html-keyboard-response","122","500833","0.0-14.0-0.0-0.54","598fa1b80675b100014dacf3","619531dcf66c91622fa1b861","619595779d61d08dbfa295d3","null","","null","","","","","main_T1_ITI","","","","",""
"","","","","","visual-search-circle","123","507296","0.0-14.0-0.0-1.54","598fa1b80675b100014dacf3","619531dcf66c91622fa1b861","619595779d61d08dbfa295d3","5456.699999999255","","s","true","[[352,4],[127,54],[4,247],[54,472],[247,595],[472,545],[595,352],[545,127]]","false","8","main_T2_Trial","s","img/Fire_Up_Target.gif","[""img/Fire_Down_Distractor.gif"",""img/Fire_Down_Distractor.gif"",""img/Fire_Down_Distractor.gif"",""img/Fire_Down_Distractor.gif"",""img/Fire_Down_Distractor.gif"",""img/Fire_Down_Distractor.gif"",""img/Fire_Down_Distractor.gif"",""img/Fire_Down_Distractor.gif"",""img/Fire_Down_Distractor.gif"",""img/Fire_Down_Distractor.gif"",""img/Fire_Down_Distractor.gif"",""img/Fire_Down_Distractor.gif""]","8","targetUp_distractorsDown"
"","","","","","html-keyboard-response","124","507298","0.0-14.0-0.0-0.55","598fa1b80675b100014dacf3","619531dcf66c91622fa1b861","619595779d61d08dbfa295d3","null","","null","","","","","main_T1_ITI","","","","",""
"","","","","","visual-search-circle","125","510760","0.0-14.0-0.0-1.55","598fa1b80675b100014dacf3","619531dcf66c91622fa1b861","619595779d61d08dbfa295d3","2459.300000000745","","s","true","[[77,500],[422,574],[598,268],[362,6],[40,150]]","false","5","main_T2_Trial","s","img/Fire_Down_Target.gif","[""img/Fire_Up_Distractor.gif"",""img/Fire_Up_Distractor.gif"",""img/Fire_Up_Distractor.gif"",""img/Fire_Up_Distractor.gif"",""img/Fire_Up_Distractor.gif"",""img/Fire_Up_Distractor.gif"",""img/Fire_Up_Distractor.gif"",""img/Fire_Up_Distractor.gif"",""img/Fire_Up_Distractor.gif"",""img/Fire_Up_Distractor.gif"",""img/Fire_Up_Distractor.gif"",""img/Fire_Up_Distractor.gif""]","5","targetDown_distractorsUp"
"","","","","","html-keyboard-response","126","510761","0.0-14.0-0.0-0.56","598fa1b80675b100014dacf3","619531dcf66c91622fa1b861","619595779d61d08dbfa295d3","null","","null","","","","","main_T1_ITI","","","","",""
"","","","","","visual-search-circle","127","513816","0.0-14.0-0.0-1.56","598fa1b80675b100014dacf3","619531dcf66c91622fa1b861","619595779d61d08dbfa295d3","2051.199999999255","","s","true","[[132,548],[548,467],[467,51],[51,132]]","false","4","main_T2_Trial","s","img/Fire_Down_Target.gif","[""img/Fire_Up_Distractor.gif"",""img/Fire_Up_Distractor.gif"",""img/Fire_Up_Distractor.gif"",""img/Fire_Up_Distractor.gif"",""img/Fire_Up_Distractor.gif"",""img/Fire_Up_Distractor.gif"",""img/Fire_Up_Distractor.gif"",""img/Fire_Up_Distractor.gif"",""img/Fire_Up_Distractor.gif"",""img/Fire_Up_Distractor.gif"",""img/Fire_Up_Distractor.gif"",""img/Fire_Up_Distractor.gif""]","4","targetDown_distractorsUp"
"","","","","","html-keyboard-response","128","513819","0.0-14.0-0.0-0.57","598fa1b80675b100014dacf3","619531dcf66c91622fa1b861","619595779d61d08dbfa295d3","null","","null","","","","","main_T1_ITI","","","","",""
"","","","","","visual-search-circle","129","517952","0.0-14.0-0.0-1.57","598fa1b80675b100014dacf3","619531dcf66c91622fa1b861","619595779d61d08dbfa295d3","3128.199999999255","","s","true","[[14,207],[77,500],[362,593],[585,392],[522,99],[237,6]]","false","6","main_T2_Trial","s","img/Fire_Down_Target.gif","[""img/Fire_Up_Distractor.gif"",""img/Fire_Up_Distractor.gif"",""img/Fire_Up_Distractor.gif"",""img/Fire_Up_Distractor.gif"",""img/Fire_Up_Distractor.gif"",""img/Fire_Up_Distractor.gif"",""img/Fire_Up_Distractor.gif"",""img/Fire_Up_Distractor.gif"",""img/Fire_Up_Distractor.gif"",""img/Fire_Up_Distractor.gif"",""img/Fire_Up_Distractor.gif"",""img/Fire_Up_Distractor.gif""]","6","targetDown_distractorsUp"
"","","","","","html-keyboard-response","130","517954","0.0-14.0-0.0-0.58","598fa1b80675b100014dacf3","619531dcf66c91622fa1b861","619595779d61d08dbfa295d3","null","","null","","","","","main_T1_ITI","","","","",""
"","","","","","visual-search-circle","131","523312","0.0-14.0-0.0-1.58","598fa1b80675b100014dacf3","619531dcf66c91622fa1b861","619595779d61d08dbfa295d3","4353.699999999255","","s","true","[[422,574],[590,375],[540,120],[308,0],[71,106],[5,357],[161,566]]","false","7","main_T2_Trial","s","img/Fire_Down_Target.gif","[""img/Fire_Up_Distractor.gif"",""img/Fire_Up_Distractor.gif"",""img/Fire_Up_Distractor.gif"",""img/Fire_Up_Distractor.gif"",""img/Fire_Up_Distractor.gif"",""img/Fire_Up_Distractor.gif"",""img/Fire_Up_Distractor.gif"",""img/Fire_Up_Distractor.gif"",""img/Fire_Up_Distractor.gif"",""img/Fire_Up_Distractor.gif"",""img/Fire_Up_Distractor.gif"",""img/Fire_Up_Distractor.gif""]","7","targetDown_distractorsUp"
"","","","","","html-keyboard-response","132","586472","0.0-14.0-0.0-0.59","598fa1b80675b100014dacf3","619531dcf66c91622fa1b861","619595779d61d08dbfa295d3","63159.20000000112","Wow! You've completed 60 out of 160 trials! </p> <p>  </p><p> Take a quick break, then press any key when you're ready to continue."," ","","","","","main_T1_ITI","","","","",""
"","","","","","visual-search-circle","133","590896","0.0-14.0-0.0-1.59","598fa1b80675b100014dacf3","619531dcf66c91622fa1b861","619595779d61d08dbfa295d3","3418.4000000003725","","d","true","[[578,187],[385,12],[128,53],[0,280],[98,521],[347,596],[561,447]]","true","7","main_T2_Trial","d","img/Fire_Down_Target.gif","[""img/Fire_Up_Distractor.gif"",""img/Fire_Up_Distractor.gif"",""img/Fire_Up_Distractor.gif"",""img/Fire_Up_Distractor.gif"",""img/Fire_Up_Distractor.gif"",""img/Fire_Up_Distractor.gif"",""img/Fire_Up_Distractor.gif"",""img/Fire_Up_Distractor.gif"",""img/Fire_Up_Distractor.gif"",""img/Fire_Up_Distractor.gif"",""img/Fire_Up_Distractor.gif"",""img/Fire_Up_Distractor.gif""]","7","targetDown_distractorsUp"
"","","","","","html-keyboard-response","134","590899","0.0-14.0-0.0-0.60","598fa1b80675b100014dacf3","619531dcf66c91622fa1b861","619595779d61d08dbfa295d3","null","","null","","","","","main_T1_ITI","","","","",""
"","","","","","visual-search-circle","135","597192","0.0-14.0-0.0-1.60","598fa1b80675b100014dacf3","619531dcf66c91622fa1b861","619595779d61d08dbfa295d3","5289.9000000003725","","s","false","[[3,346],[346,596],[596,253],[253,3]]","true","4","main_T2_Trial","d","img/Fire_Up_Target.gif","[""img/Fire_Down_Distractor.gif"",""img/Fire_Down_Distractor.gif"",""img/Fire_Down_Distractor.gif"",""img/Fire_Down_Distractor.gif"",""img/Fire_Down_Distractor.gif"",""img/Fire_Down_Distractor.gif"",""img/Fire_Down_Distractor.gif"",""img/Fire_Down_Distractor.gif"",""img/Fire_Down_Distractor.gif"",""img/Fire_Down_Distractor.gif"",""img/Fire_Down_Distractor.gif"",""img/Fire_Down_Distractor.gif""]","4","targetUp_distractorsDown"
"","","","","","html-keyboard-response","136","597193","0.0-14.0-0.0-0.61","598fa1b80675b100014dacf3","619531dcf66c91622fa1b861","619595779d61d08dbfa295d3","null","","null","","","","","main_T1_ITI","","","","",""
"","","","","","visual-search-circle","137","601104","0.0-14.0-0.0-1.61","598fa1b80675b100014dacf3","619531dcf66c91622fa1b861","619595779d61d08dbfa295d3","2905.300000000745","","s","true","[[0,320],[227,591],[554,458],[529,107],[187,21]]","false","5","main_T2_Trial","s","img/Fire_Up_Target.gif","[""img/Fire_Down_Distractor.gif"",""img/Fire_Down_Distractor.gif"",""img/Fire_Down_Distractor.gif"",""img/Fire_Down_Distractor.gif"",""img/Fire_Down_Distractor.gif"",""img/Fire_Down_Distractor.gif"",""img/Fire_Down_Distractor.gif"",""img/Fire_Down_Distractor.gif"",""img/Fire_Down_Distractor.gif"",""img/Fire_Down_Distractor.gif"",""img/Fire_Down_Distractor.gif"",""img/Fire_Down_Distractor.gif""]","5","targetUp_distractorsDown"
"","","","","","html-keyboard-response","138","601106","0.0-14.0-0.0-0.62","598fa1b80675b100014dacf3","619531dcf66c91622fa1b861","619595779d61d08dbfa295d3","null","","null","","","","","main_T1_ITI","","","","",""
"","","","","","visual-search-circle","139","603936","0.0-14.0-0.0-1.62","598fa1b80675b100014dacf3","619531dcf66c91622fa1b861","619595779d61d08dbfa295d3","1825.699999999255","","d","true","[[0,299],[149,559],[450,559],[600,300],[449,40],[150,40]]","true","6","main_T2_Trial","d","img/Fire_Down_Target.gif","[""img/Fire_Up_Distractor.gif"",""img/Fire_Up_Distractor.gif"",""img/Fire_Up_Distractor.gif"",""img/Fire_Up_Distractor.gif"",""img/Fire_Up_Distractor.gif"",""img/Fire_Up_Distractor.gif"",""img/Fire_Up_Distractor.gif"",""img/Fire_Up_Distractor.gif"",""img/Fire_Up_Distractor.gif"",""img/Fire_Up_Distractor.gif"",""img/Fire_Up_Distractor.gif"",""img/Fire_Up_Distractor.gif""]","6","targetDown_distractorsUp"
"","","","","","html-keyboard-response","140","603938","0.0-14.0-0.0-0.63","598fa1b80675b100014dacf3","619531dcf66c91622fa1b861","619595779d61d08dbfa295d3","null","","null","","","","","main_T1_ITI","","","","",""
"","","","","","visual-search-circle","141","608624","0.0-14.0-0.0-1.63","598fa1b80675b100014dacf3","619531dcf66c91622fa1b861","619595779d61d08dbfa295d3","3682.7999999988824","","d","true","[[467,548],[588,217],[310,0],[18,197],[115,536]]","true","5","main_T2_Trial","d","img/Fire_Up_Target.gif","[""img/Fire_Down_Distractor.gif"",""img/Fire_Down_Distractor.gif"",""img/Fire_Down_Distractor.gif"",""img/Fire_Down_Distractor.gif"",""img/Fire_Down_Distractor.gif"",""img/Fire_Down_Distractor.gif"",""img/Fire_Down_Distractor.gif"",""img/Fire_Down_Distractor.gif"",""img/Fire_Down_Distractor.gif"",""img/Fire_Down_Distractor.gif"",""img/Fire_Down_Distractor.gif"",""img/Fire_Down_Distractor.gif""]","5","targetUp_distractorsDown"
"","","","","","html-keyboard-response","142","608625","0.0-14.0-0.0-0.64","598fa1b80675b100014dacf3","619531dcf66c91622fa1b861","619595779d61d08dbfa295d3","null","","null","","","","","main_T1_ITI","","","","",""
"","","","","","visual-search-circle","143","612968","0.0-14.0-0.0-1.64","598fa1b80675b100014dacf3","619531dcf66c91622fa1b861","619595779d61d08dbfa295d3","3338.7000000011176","","s","true","[[91,84],[8,372],[217,588],[508,515],[591,227],[382,11]]","false","6","main_T2_Trial","s","img/Fire_Up_Target.gif","[""img/Fire_Down_Distractor.gif"",""img/Fire_Down_Distractor.gif"",""img/Fire_Down_Distractor.gif"",""img/Fire_Down_Distractor.gif"",""img/Fire_Down_Distractor.gif"",""img/Fire_Down_Distractor.gif"",""img/Fire_Down_Distractor.gif"",""img/Fire_Down_Distractor.gif"",""img/Fire_Down_Distractor.gif"",""img/Fire_Down_Distractor.gif"",""img/Fire_Down_Distractor.gif"",""img/Fire_Down_Distractor.gif""]","6","targetUp_distractorsDown"
"","","","","","html-keyboard-response","144","612969","0.0-14.0-0.0-0.65","598fa1b80675b100014dacf3","619531dcf66c91622fa1b861","619595779d61d08dbfa295d3","null","","null","","","","","main_T1_ITI","","","","",""
"","","","","","visual-search-circle","145","616784","0.0-14.0-0.0-1.65","598fa1b80675b100014dacf3","619531dcf66c91622fa1b861","619595779d61d08dbfa295d3","2809.199999999255","","s","true","[[212,13],[35,159],[13,387],[159,564],[387,586],[564,440],[586,212],[440,35]]","false","8","main_T2_Trial","s","img/Fire_Up_Target.gif","[""img/Fire_Down_Distractor.gif"",""img/Fire_Down_Distractor.gif"",""img/Fire_Down_Distractor.gif"",""img/Fire_Down_Distractor.gif"",""img/Fire_Down_Distractor.gif"",""img/Fire_Down_Distractor.gif"",""img/Fire_Down_Distractor.gif"",""img/Fire_Down_Distractor.gif"",""img/Fire_Down_Distractor.gif"",""img/Fire_Down_Distractor.gif"",""img/Fire_Down_Distractor.gif"",""img/Fire_Down_Distractor.gif""]","8","targetUp_distractorsDown"
"","","","","","html-keyboard-response","146","616786","0.0-14.0-0.0-0.66","598fa1b80675b100014dacf3","619531dcf66c91622fa1b861","619595779d61d08dbfa295d3","null","","null","","","","","main_T1_ITI","","","","",""
"","","","","","visual-search-circle","147","620872","0.0-14.0-0.0-1.66","598fa1b80675b100014dacf3","619531dcf66c91622fa1b861","619595779d61d08dbfa295d3","3081.4000000003725","","s","true","[[504,519],[599,276],[468,51],[210,13],[20,191],[40,450],[256,596]]","false","7","main_T2_Trial","s","img/Fire_Up_Target.gif","[""img/Fire_Down_Distractor.gif"",""img/Fire_Down_Distractor.gif"",""img/Fire_Down_Distractor.gif"",""img/Fire_Down_Distractor.gif"",""img/Fire_Down_Distractor.gif"",""img/Fire_Down_Distractor.gif"",""img/Fire_Down_Distractor.gif"",""img/Fire_Down_Distractor.gif"",""img/Fire_Down_Distractor.gif"",""img/Fire_Down_Distractor.gif"",""img/Fire_Down_Distractor.gif"",""img/Fire_Down_Distractor.gif""]","7","targetUp_distractorsDown"
"","","","","","html-keyboard-response","148","620877","0.0-14.0-0.0-0.67","598fa1b80675b100014dacf3","619531dcf66c91622fa1b861","619595779d61d08dbfa295d3","null","","null","","","","","main_T1_ITI","","","","",""
"","","","","","visual-search-circle","149","623240","0.0-14.0-0.0-1.67","598fa1b80675b100014dacf3","619531dcf66c91622fa1b861","619595779d61d08dbfa295d3","1357.800000000745","","d","true","[[95,519],[310,599],[519,504],[599,289],[504,80],[289,0],[80,95],[0,310]]","true","8","main_T2_Trial","d","img/Fire_Up_Target.gif","[""img/Fire_Down_Distractor.gif"",""img/Fire_Down_Distractor.gif"",""img/Fire_Down_Distractor.gif"",""img/Fire_Down_Distractor.gif"",""img/Fire_Down_Distractor.gif"",""img/Fire_Down_Distractor.gif"",""img/Fire_Down_Distractor.gif"",""img/Fire_Down_Distractor.gif"",""img/Fire_Down_Distractor.gif"",""img/Fire_Down_Distractor.gif"",""img/Fire_Down_Distractor.gif"",""img/Fire_Down_Distractor.gif""]","8","targetUp_distractorsDown"
"","","","","","html-keyboard-response","150","623251","0.0-14.0-0.0-0.68","598fa1b80675b100014dacf3","619531dcf66c91622fa1b861","619595779d61d08dbfa295d3","null","","null","","","","","main_T1_ITI","","","","",""
"","","","","","visual-search-circle","151","627024","0.0-14.0-0.0-1.68","598fa1b80675b100014dacf3","619531dcf66c91622fa1b861","619595779d61d08dbfa295d3","2768","","s","true","[[48,463],[270,598],[515,508],[597,261],[455,43],[196,18],[15,205]]","false","7","main_T2_Trial","s","img/Fire_Down_Target.gif","[""img/Fire_Up_Distractor.gif"",""img/Fire_Up_Distractor.gif"",""img/Fire_Up_Distractor.gif"",""img/Fire_Up_Distractor.gif"",""img/Fire_Up_Distractor.gif"",""img/Fire_Up_Distractor.gif"",""img/Fire_Up_Distractor.gif"",""img/Fire_Up_Distractor.gif"",""img/Fire_Up_Distractor.gif"",""img/Fire_Up_Distractor.gif"",""img/Fire_Up_Distractor.gif"",""img/Fire_Up_Distractor.gif""]","7","targetDown_distractorsUp"
"","","","","","html-keyboard-response","152","627026","0.0-14.0-0.0-0.69","598fa1b80675b100014dacf3","619531dcf66c91622fa1b861","619595779d61d08dbfa295d3","null","","null","","","","","main_T1_ITI","","","","",""
"","","","","","visual-search-circle","153","630816","0.0-14.0-0.0-1.69","598fa1b80675b100014dacf3","619531dcf66c91622fa1b861","619595779d61d08dbfa295d3","2785.5","","s","true","[[95,80],[0,323],[131,548],[389,586],[579,408],[559,149],[343,3]]","false","7","main_T2_Trial","s","img/Fire_Down_Target.gif","[""img/Fire_Up_Distractor.gif"",""img/Fire_Up_Distractor.gif"",""img/Fire_Up_Distractor.gif"",""img/Fire_Up_Distractor.gif"",""img/Fire_Up_Distractor.gif"",""img/Fire_Up_Distractor.gif"",""img/Fire_Up_Distractor.gif"",""img/Fire_Up_Distractor.gif"",""img/Fire_Up_Distractor.gif"",""img/Fire_Up_Distractor.gif"",""img/Fire_Up_Distractor.gif"",""img/Fire_Up_Distractor.gif""]","7","targetDown_distractorsUp"
"","","","","","html-keyboard-response","154","630818","0.0-14.0-0.0-0.70","598fa1b80675b100014dacf3","619531dcf66c91622fa1b861","619595779d61d08dbfa295d3","null","","null","","","","","main_T1_ITI","","","","",""
"","","","","","visual-search-circle","155","633424","0.0-14.0-0.0-1.70","598fa1b80675b100014dacf3","619531dcf66c91622fa1b861","619595779d61d08dbfa295d3","1601.5999999996275","","d","true","[[597,263],[457,44],[198,17],[15,203],[47,462],[269,598],[514,510]]","true","7","main_T2_Trial","d","img/Fire_Down_Target.gif","[""img/Fire_Up_Distractor.gif"",""img/Fire_Up_Distractor.gif"",""img/Fire_Up_Distractor.gif"",""img/Fire_Up_Distractor.gif"",""img/Fire_Up_Distractor.gif"",""img/Fire_Up_Distractor.gif"",""img/Fire_Up_Distractor.gif"",""img/Fire_Up_Distractor.gif"",""img/Fire_Up_Distractor.gif"",""img/Fire_Up_Distractor.gif"",""img/Fire_Up_Distractor.gif"",""img/Fire_Up_Distractor.gif""]","7","targetDown_distractorsUp"
"","","","","","html-keyboard-response","156","633426","0.0-14.0-0.0-0.71","598fa1b80675b100014dacf3","619531dcf66c91622fa1b861","619595779d61d08dbfa295d3","null","","null","","","","","main_T1_ITI","","","","",""
"","","","","","visual-search-circle","157","636328","0.0-14.0-0.0-1.71","598fa1b80675b100014dacf3","619531dcf66c91622fa1b861","619595779d61d08dbfa295d3","1897.5","","d","true","[[202,583],[539,480],[545,127],[212,13],[0,294]]","true","5","main_T2_Trial","d","img/Fire_Up_Target.gif","[""img/Fire_Down_Distractor.gif"",""img/Fire_Down_Distractor.gif"",""img/Fire_Down_Distractor.gif"",""img/Fire_Down_Distractor.gif"",""img/Fire_Down_Distractor.gif"",""img/Fire_Down_Distractor.gif"",""img/Fire_Down_Distractor.gif"",""img/Fire_Down_Distractor.gif"",""img/Fire_Down_Distractor.gif"",""img/Fire_Down_Distractor.gif"",""img/Fire_Down_Distractor.gif"",""img/Fire_Down_Distractor.gif""]","5","targetUp_distractorsDown"
"","","","","","html-keyboard-response","158","636329","0.0-14.0-0.0-0.72","598fa1b80675b100014dacf3","619531dcf66c91622fa1b861","619595779d61d08dbfa295d3","null","","null","","","","","main_T1_ITI","","","","",""
"","","","","","visual-search-circle","159","639664","0.0-14.0-0.0-1.72","598fa1b80675b100014dacf3","619531dcf66c91622fa1b861","619595779d61d08dbfa295d3","2331","","d","true","[[431,569],[569,168],[168,30],[30,431]]","true","4","main_T2_Trial","d","img/Fire_Down_Target.gif","[""img/Fire_Up_Distractor.gif"",""img/Fire_Up_Distractor.gif"",""img/Fire_Up_Distractor.gif"",""img/Fire_Up_Distractor.gif"",""img/Fire_Up_Distractor.gif"",""img/Fire_Up_Distractor.gif"",""img/Fire_Up_Distractor.gif"",""img/Fire_Up_Distractor.gif"",""img/Fire_Up_Distractor.gif"",""img/Fire_Up_Distractor.gif"",""img/Fire_Up_Distractor.gif"",""img/Fire_Up_Distractor.gif""]","4","targetDown_distractorsUp"
"","","","","","html-keyboard-response","160","639665","0.0-14.0-0.0-0.73","598fa1b80675b100014dacf3","619531dcf66c91622fa1b861","619595779d61d08dbfa295d3","null","","null","","","","","main_T1_ITI","","","","",""
"","","","","","visual-search-circle","161","644560","0.0-14.0-0.0-1.73","598fa1b80675b100014dacf3","619531dcf66c91622fa1b861","619595779d61d08dbfa295d3","3890.9000000003725","","d","true","[[412,21],[21,187],[187,578],[578,412]]","true","4","main_T2_Trial","d","img/Fire_Up_Target.gif","[""img/Fire_Down_Distractor.gif"",""img/Fire_Down_Distractor.gif"",""img/Fire_Down_Distractor.gif"",""img/Fire_Down_Distractor.gif"",""img/Fire_Down_Distractor.gif"",""img/Fire_Down_Distractor.gif"",""img/Fire_Down_Distractor.gif"",""img/Fire_Down_Distractor.gif"",""img/Fire_Down_Distractor.gif"",""img/Fire_Down_Distractor.gif"",""img/Fire_Down_Distractor.gif"",""img/Fire_Down_Distractor.gif""]","4","targetUp_distractorsDown"
"","","","","","html-keyboard-response","162","644561","0.0-14.0-0.0-0.74","598fa1b80675b100014dacf3","619531dcf66c91622fa1b861","619595779d61d08dbfa295d3","null","","null","","","","","main_T1_ITI","","","","",""
"","","","","","visual-search-circle","163","647967","0.0-14.0-0.0-1.74","598fa1b80675b100014dacf3","619531dcf66c91622fa1b861","619595779d61d08dbfa295d3","2402.300000000745","","s","true","[[84,91],[2,338],[144,556],[404,581],[584,394],[551,135],[328,1]]","false","7","main_T2_Trial","s","img/Fire_Up_Target.gif","[""img/Fire_Down_Distractor.gif"",""img/Fire_Down_Distractor.gif"",""img/Fire_Down_Distractor.gif"",""img/Fire_Down_Distractor.gif"",""img/Fire_Down_Distractor.gif"",""img/Fire_Down_Distractor.gif"",""img/Fire_Down_Distractor.gif"",""img/Fire_Down_Distractor.gif"",""img/Fire_Down_Distractor.gif"",""img/Fire_Down_Distractor.gif"",""img/Fire_Down_Distractor.gif"",""img/Fire_Down_Distractor.gif""]","7","targetUp_distractorsDown"
"","","","","","html-keyboard-response","164","647969","0.0-14.0-0.0-0.75","598fa1b80675b100014dacf3","619531dcf66c91622fa1b861","619595779d61d08dbfa295d3","null","","null","","","","","main_T1_ITI","","","","",""
"","","","","","visual-search-circle","165","651495","0.0-14.0-0.0-1.75","598fa1b80675b100014dacf3","619531dcf66c91622fa1b861","619595779d61d08dbfa295d3","2520.9000000003725","","d","true","[[16,397],[168,569],[397,583],[569,431],[583,202],[431,30],[202,16],[30,168]]","true","8","main_T2_Trial","d","img/Fire_Down_Target.gif","[""img/Fire_Up_Distractor.gif"",""img/Fire_Up_Distractor.gif"",""img/Fire_Up_Distractor.gif"",""img/Fire_Up_Distractor.gif"",""img/Fire_Up_Distractor.gif"",""img/Fire_Up_Distractor.gif"",""img/Fire_Up_Distractor.gif"",""img/Fire_Up_Distractor.gif"",""img/Fire_Up_Distractor.gif"",""img/Fire_Up_Distractor.gif"",""img/Fire_Up_Distractor.gif"",""img/Fire_Up_Distractor.gif""]","8","targetDown_distractorsUp"
"","","","","","html-keyboard-response","166","651497","0.0-14.0-0.0-0.76","598fa1b80675b100014dacf3","619531dcf66c91622fa1b861","619595779d61d08dbfa295d3","null","","null","","","","","main_T1_ITI","","","","",""
"","","","","","visual-search-circle","167","654311","0.0-14.0-0.0-1.76","598fa1b80675b100014dacf3","619531dcf66c91622fa1b861","619595779d61d08dbfa295d3","1810.5","","s","true","[[8,227],[61,482],[294,599],[530,491],[593,239],[435,32],[175,27]]","false","7","main_T2_Trial","s","img/Fire_Down_Target.gif","[""img/Fire_Up_Distractor.gif"",""img/Fire_Up_Distractor.gif"",""img/Fire_Up_Distractor.gif"",""img/Fire_Up_Distractor.gif"",""img/Fire_Up_Distractor.gif"",""img/Fire_Up_Distractor.gif"",""img/Fire_Up_Distractor.gif"",""img/Fire_Up_Distractor.gif"",""img/Fire_Up_Distractor.gif"",""img/Fire_Up_Distractor.gif"",""img/Fire_Up_Distractor.gif"",""img/Fire_Up_Distractor.gif""]","7","targetDown_distractorsUp"
"","","","","","html-keyboard-response","168","654313","0.0-14.0-0.0-0.77","598fa1b80675b100014dacf3","619531dcf66c91622fa1b861","619595779d61d08dbfa295d3","null","","null","","","","","main_T1_ITI","","","","",""
"","","","","","visual-search-circle","169","657912","0.0-14.0-0.0-1.77","598fa1b80675b100014dacf3","619531dcf66c91622fa1b861","619595779d61d08dbfa295d3","2594.699999999255","","s","true","[[583,202],[400,17],[141,45],[2,264],[86,511],[332,598],[553,460]]","false","7","main_T2_Trial","s","img/Fire_Down_Target.gif","[""img/Fire_Up_Distractor.gif"",""img/Fire_Up_Distractor.gif"",""img/Fire_Up_Distractor.gif"",""img/Fire_Up_Distractor.gif"",""img/Fire_Up_Distractor.gif"",""img/Fire_Up_Distractor.gif"",""img/Fire_Up_Distractor.gif"",""img/Fire_Up_Distractor.gif"",""img/Fire_Up_Distractor.gif"",""img/Fire_Up_Distractor.gif"",""img/Fire_Up_Distractor.gif"",""img/Fire_Up_Distractor.gif""]","7","targetDown_distractorsUp"
"","","","","","html-keyboard-response","170","657914","0.0-14.0-0.0-0.78","598fa1b80675b100014dacf3","619531dcf66c91622fa1b861","619595779d61d08dbfa295d3","null","","null","","","","","main_T1_ITI","","","","",""
"","","","","","visual-search-circle","171","661367","0.0-14.0-0.0-1.78","598fa1b80675b100014dacf3","619531dcf66c91622fa1b861","619595779d61d08dbfa295d3","2449.4000000003725","","s","true","[[247,595],[529,492],[581,197],[352,4],[70,107],[18,402]]","false","6","main_T2_Trial","s","img/Fire_Up_Target.gif","[""img/Fire_Down_Distractor.gif"",""img/Fire_Down_Distractor.gif"",""img/Fire_Down_Distractor.gif"",""img/Fire_Down_Distractor.gif"",""img/Fire_Down_Distractor.gif"",""img/Fire_Down_Distractor.gif"",""img/Fire_Down_Distractor.gif"",""img/Fire_Down_Distractor.gif"",""img/Fire_Down_Distractor.gif"",""img/Fire_Down_Distractor.gif"",""img/Fire_Down_Distractor.gif"",""img/Fire_Down_Distractor.gif""]","6","targetUp_distractorsDown"
"","","","","","html-keyboard-response","172","769112","0.0-14.0-0.0-0.79","598fa1b80675b100014dacf3","619531dcf66c91622fa1b861","619595779d61d08dbfa295d3","107743.5","Wow! You've completed 80 out of 160 trials! </p> <p>  </p><p> Take a quick break, then press any key when you're ready to continue."," ","","","","","main_T1_ITI","","","","",""
"","","","","","visual-search-circle","173","776151","0.0-14.0-0.0-1.79","598fa1b80675b100014dacf3","619531dcf66c91622fa1b861","619595779d61d08dbfa295d3","6034.9000000003725","","d","true","[[467,51],[242,5],[51,132],[5,357],[132,548],[357,594],[548,467],[594,242]]","true","8","main_T2_Trial","d","img/Fire_Up_Target.gif","[""img/Fire_Down_Distractor.gif"",""img/Fire_Down_Distractor.gif"",""img/Fire_Down_Distractor.gif"",""img/Fire_Down_Distractor.gif"",""img/Fire_Down_Distractor.gif"",""img/Fire_Down_Distractor.gif"",""img/Fire_Down_Distractor.gif"",""img/Fire_Down_Distractor.gif"",""img/Fire_Down_Distractor.gif"",""img/Fire_Down_Distractor.gif"",""img/Fire_Down_Distractor.gif"",""img/Fire_Down_Distractor.gif""]","8","targetUp_distractorsDown"
"","","","","","html-keyboard-response","174","776153","0.0-14.0-0.0-0.80","598fa1b80675b100014dacf3","619531dcf66c91622fa1b861","619595779d61d08dbfa295d3","null","","null","","","","","main_T1_ITI","","","","",""
"","","","","","visual-search-circle","175","781304","0.0-14.0-0.0-1.80","598fa1b80675b100014dacf3","619531dcf66c91622fa1b861","619595779d61d08dbfa295d3","4146.800000000745","","s","true","[[545,127],[212,13],[0,294],[202,583],[539,480]]","false","5","main_T2_Trial","s","img/Fire_Down_Target.gif","[""img/Fire_Up_Distractor.gif"",""img/Fire_Up_Distractor.gif"",""img/Fire_Up_Distractor.gif"",""img/Fire_Up_Distractor.gif"",""img/Fire_Up_Distractor.gif"",""img/Fire_Up_Distractor.gif"",""img/Fire_Up_Distractor.gif"",""img/Fire_Up_Distractor.gif"",""img/Fire_Up_Distractor.gif"",""img/Fire_Up_Distractor.gif"",""img/Fire_Up_Distractor.gif"",""img/Fire_Up_Distractor.gif""]","5","targetDown_distractorsUp"
"","","","","","html-keyboard-response","176","781305","0.0-14.0-0.0-0.81","598fa1b80675b100014dacf3","619531dcf66c91622fa1b861","619595779d61d08dbfa295d3","null","","null","","","","","main_T1_ITI","","","","",""
"","","","","","visual-search-circle","177","787080","0.0-14.0-0.0-1.81","598fa1b80675b100014dacf3","619531dcf66c91622fa1b861","619595779d61d08dbfa295d3","4771.199999999255","","d","true","[[279,0],[30,168],[51,467],[320,599],[569,431],[548,132]]","true","6","main_T2_Trial","d","img/Fire_Down_Target.gif","[""img/Fire_Up_Distractor.gif"",""img/Fire_Up_Distractor.gif"",""img/Fire_Up_Distractor.gif"",""img/Fire_Up_Distractor.gif"",""img/Fire_Up_Distractor.gif"",""img/Fire_Up_Distractor.gif"",""img/Fire_Up_Distractor.gif"",""img/Fire_Up_Distractor.gif"",""img/Fire_Up_Distractor.gif"",""img/Fire_Up_Distractor.gif"",""img/Fire_Up_Distractor.gif"",""img/Fire_Up_Distractor.gif""]","6","targetDown_distractorsUp"
"","","","","","html-keyboard-response","178","787085","0.0-14.0-0.0-0.82","598fa1b80675b100014dacf3","619531dcf66c91622fa1b861","619595779d61d08dbfa295d3","null","","null","","","","","main_T1_ITI","","","","",""
"","","","","","visual-search-circle","179","791544","0.0-14.0-0.0-1.82","598fa1b80675b100014dacf3","619531dcf66c91622fa1b861","619595779d61d08dbfa295d3","3454.2999999988824","","s","true","[[145,42],[8,227],[42,454],[227,591],[454,557],[591,372],[557,145],[372,8]]","false","8","main_T2_Trial","s","img/Fire_Up_Target.gif","[""img/Fire_Down_Distractor.gif"",""img/Fire_Down_Distractor.gif"",""img/Fire_Down_Distractor.gif"",""img/Fire_Down_Distractor.gif"",""img/Fire_Down_Distractor.gif"",""img/Fire_Down_Distractor.gif"",""img/Fire_Down_Distractor.gif"",""img/Fire_Down_Distractor.gif"",""img/Fire_Down_Distractor.gif"",""img/Fire_Down_Distractor.gif"",""img/Fire_Down_Distractor.gif"",""img/Fire_Down_Distractor.gif""]","8","targetUp_distractorsDown"
"","","","","","html-keyboard-response","180","791545","0.0-14.0-0.0-0.83","598fa1b80675b100014dacf3","619531dcf66c91622fa1b861","619595779d61d08dbfa295d3","null","","null","","","","","main_T1_ITI","","","","",""
"","","","","","visual-search-circle","181","794512","0.0-14.0-0.0-1.83","598fa1b80675b100014dacf3","619531dcf66c91622fa1b861","619595779d61d08dbfa295d3","1961.5999999996275","","d","true","[[450,559],[596,344],[519,95],[277,0],[52,131],[13,388],[190,579]]","true","7","main_T2_Trial","d","img/Fire_Down_Target.gif","[""img/Fire_Up_Distractor.gif"",""img/Fire_Up_Distractor.gif"",""img/Fire_Up_Distractor.gif"",""img/Fire_Up_Distractor.gif"",""img/Fire_Up_Distractor.gif"",""img/Fire_Up_Distractor.gif"",""img/Fire_Up_Distractor.gif"",""img/Fire_Up_Distractor.gif"",""img/Fire_Up_Distractor.gif"",""img/Fire_Up_Distractor.gif"",""img/Fire_Up_Distractor.gif"",""img/Fire_Up_Distractor.gif""]","7","targetDown_distractorsUp"
"","","","","","html-keyboard-response","182","794513","0.0-14.0-0.0-0.84","598fa1b80675b100014dacf3","619531dcf66c91622fa1b861","619595779d61d08dbfa295d3","null","","null","","","","","main_T1_ITI","","","","",""
"","","","","","visual-search-circle","183","797607","0.0-14.0-0.0-1.84","598fa1b80675b100014dacf3","619531dcf66c91622fa1b861","619595779d61d08dbfa295d3","2090.4000000003725","","d","true","[[87,87],[1,333],[140,554],[399,583],[583,399],[554,140],[333,1]]","true","7","main_T2_Trial","d","img/Fire_Down_Target.gif","[""img/Fire_Up_Distractor.gif"",""img/Fire_Up_Distractor.gif"",""img/Fire_Up_Distractor.gif"",""img/Fire_Up_Distractor.gif"",""img/Fire_Up_Distractor.gif"",""img/Fire_Up_Distractor.gif"",""img/Fire_Up_Distractor.gif"",""img/Fire_Up_Distractor.gif"",""img/Fire_Up_Distractor.gif"",""img/Fire_Up_Distractor.gif"",""img/Fire_Up_Distractor.gif"",""img/Fire_Up_Distractor.gif""]","7","targetDown_distractorsUp"
"","","","","","html-keyboard-response","184","797609","0.0-14.0-0.0-0.85","598fa1b80675b100014dacf3","619531dcf66c91622fa1b861","619595779d61d08dbfa295d3","null","","null","","","","","main_T1_ITI","","","","",""
"","","","","","visual-search-circle","185","800808","0.0-14.0-0.0-1.85","598fa1b80675b100014dacf3","619531dcf66c91622fa1b861","619595779d61d08dbfa295d3","2195.4000000003725","","d","true","[[182,23],[1,326],[232,592],[557,454],[526,103]]","true","5","main_T2_Trial","d","img/Fire_Up_Target.gif","[""img/Fire_Down_Distractor.gif"",""img/Fire_Down_Distractor.gif"",""img/Fire_Down_Distractor.gif"",""img/Fire_Down_Distractor.gif"",""img/Fire_Down_Distractor.gif"",""img/Fire_Down_Distractor.gif"",""img/Fire_Down_Distractor.gif"",""img/Fire_Down_Distractor.gif"",""img/Fire_Down_Distractor.gif"",""img/Fire_Down_Distractor.gif"",""img/Fire_Down_Distractor.gif"",""img/Fire_Down_Distractor.gif""]","5","targetUp_distractorsDown"
"","","","","","html-keyboard-response","186","800810","0.0-14.0-0.0-0.86","598fa1b80675b100014dacf3","619531dcf66c91622fa1b861","619595779d61d08dbfa295d3","null","","null","","","","","main_T1_ITI","","","","",""
"","","","","","visual-search-circle","187","804704","0.0-14.0-0.0-1.86","598fa1b80675b100014dacf3","619531dcf66c91622fa1b861","619595779d61d08dbfa295d3","2889.5999999996275","","s","true","[[341,597],[558,452],[580,193],[391,14],[133,50],[1,274],[93,517]]","false","7","main_T2_Trial","s","img/Fire_Up_Target.gif","[""img/Fire_Down_Distractor.gif"",""img/Fire_Down_Distractor.gif"",""img/Fire_Down_Distractor.gif"",""img/Fire_Down_Distractor.gif"",""img/Fire_Down_Distractor.gif"",""img/Fire_Down_Distractor.gif"",""img/Fire_Down_Distractor.gif"",""img/Fire_Down_Distractor.gif"",""img/Fire_Down_Distractor.gif"",""img/Fire_Down_Distractor.gif"",""img/Fire_Down_Distractor.gif"",""img/Fire_Down_Distractor.gif""]","7","targetUp_distractorsDown"
"","","","","","html-keyboard-response","188","804705","0.0-14.0-0.0-0.87","598fa1b80675b100014dacf3","619531dcf66c91622fa1b861","619595779d61d08dbfa295d3","null","","null","","","","","main_T1_ITI","","","","",""
"","","","","","visual-search-circle","189","808008","0.0-14.0-0.0-1.87","598fa1b80675b100014dacf3","619531dcf66c91622fa1b861","619595779d61d08dbfa295d3","2298.9000000003725","","d","true","[[145,557],[496,526],[576,182],[273,1],[7,232]]","true","5","main_T2_Trial","d","img/Fire_Up_Target.gif","[""img/Fire_Down_Distractor.gif"",""img/Fire_Down_Distractor.gif"",""img/Fire_Down_Distractor.gif"",""img/Fire_Down_Distractor.gif"",""img/Fire_Down_Distractor.gif"",""img/Fire_Down_Distractor.gif"",""img/Fire_Down_Distractor.gif"",""img/Fire_Down_Distractor.gif"",""img/Fire_Down_Distractor.gif"",""img/Fire_Down_Distractor.gif"",""img/Fire_Down_Distractor.gif"",""img/Fire_Down_Distractor.gif""]","5","targetUp_distractorsDown"
"","","","","","html-keyboard-response","190","808013","0.0-14.0-0.0-0.88","598fa1b80675b100014dacf3","619531dcf66c91622fa1b861","619595779d61d08dbfa295d3","null","","null","","","","","main_T1_ITI","","","","",""
"","","","","","visual-search-circle","191","812880","0.0-14.0-0.0-1.88","598fa1b80675b100014dacf3","619531dcf66c91622fa1b861","619595779d61d08dbfa295d3","3862.9000000003725","","s","true","[[0,315],[163,567],[463,551],[599,284],[436,32],[136,48]]","false","6","main_T2_Trial","s","img/Fire_Down_Target.gif","[""img/Fire_Up_Distractor.gif"",""img/Fire_Up_Distractor.gif"",""img/Fire_Up_Distractor.gif"",""img/Fire_Up_Distractor.gif"",""img/Fire_Up_Distractor.gif"",""img/Fire_Up_Distractor.gif"",""img/Fire_Up_Distractor.gif"",""img/Fire_Up_Distractor.gif"",""img/Fire_Up_Distractor.gif"",""img/Fire_Up_Distractor.gif"",""img/Fire_Up_Distractor.gif"",""img/Fire_Up_Distractor.gif""]","6","targetDown_distractorsUp"
"","","","","","html-keyboard-response","192","812881","0.0-14.0-0.0-0.89","598fa1b80675b100014dacf3","619531dcf66c91622fa1b861","619595779d61d08dbfa295d3","null","","null","","","","","main_T1_ITI","","","","",""
"","","","","","visual-search-circle","193","815424","0.0-14.0-0.0-1.89","598fa1b80675b100014dacf3","619531dcf66c91622fa1b861","619595779d61d08dbfa295d3","1537.0999999996275","","d","true","[[212,586],[440,564],[586,387],[564,159],[387,13],[159,35],[13,212],[35,440]]","true","8","main_T2_Trial","d","img/Fire_Down_Target.gif","[""img/Fire_Up_Distractor.gif"",""img/Fire_Up_Distractor.gif"",""img/Fire_Up_Distractor.gif"",""img/Fire_Up_Distractor.gif"",""img/Fire_Up_Distractor.gif"",""img/Fire_Up_Distractor.gif"",""img/Fire_Up_Distractor.gif"",""img/Fire_Up_Distractor.gif"",""img/Fire_Up_Distractor.gif"",""img/Fire_Up_Distractor.gif"",""img/Fire_Up_Distractor.gif"",""img/Fire_Up_Distractor.gif""]","8","targetDown_distractorsUp"
"","","","","","html-keyboard-response","194","815434","0.0-14.0-0.0-0.90","598fa1b80675b100014dacf3","619531dcf66c91622fa1b861","619595779d61d08dbfa295d3","null","","null","","","","","main_T1_ITI","","","","",""
"","","","","","visual-search-circle","195","818360","0.0-14.0-0.0-1.90","598fa1b80675b100014dacf3","619531dcf66c91622fa1b861","619595779d61d08dbfa295d3","1921.7999999988824","","d","true","[[258,2],[4,247],[159,564],[508,515],[569,168]]","true","5","main_T2_Trial","d","img/Fire_Down_Target.gif","[""img/Fire_Up_Distractor.gif"",""img/Fire_Up_Distractor.gif"",""img/Fire_Up_Distractor.gif"",""img/Fire_Up_Distractor.gif"",""img/Fire_Up_Distractor.gif"",""img/Fire_Up_Distractor.gif"",""img/Fire_Up_Distractor.gif"",""img/Fire_Up_Distractor.gif"",""img/Fire_Up_Distractor.gif"",""img/Fire_Up_Distractor.gif"",""img/Fire_Up_Distractor.gif"",""img/Fire_Up_Distractor.gif""]","5","targetDown_distractorsUp"
"","","","","","html-keyboard-response","196","818362","0.0-14.0-0.0-0.91","598fa1b80675b100014dacf3","619531dcf66c91622fa1b861","619595779d61d08dbfa295d3","null","","null","","","","","main_T1_ITI","","","","",""
"","","","","","visual-search-circle","197","821704","0.0-14.0-0.0-1.91","598fa1b80675b100014dacf3","619531dcf66c91622fa1b861","619595779d61d08dbfa295d3","2338.0999999996275","","s","true","[[14,207],[207,585],[585,392],[392,14]]","false","4","main_T2_Trial","s","img/Fire_Down_Target.gif","[""img/Fire_Up_Distractor.gif"",""img/Fire_Up_Distractor.gif"",""img/Fire_Up_Distractor.gif"",""img/Fire_Up_Distractor.gif"",""img/Fire_Up_Distractor.gif"",""img/Fire_Up_Distractor.gif"",""img/Fire_Up_Distractor.gif"",""img/Fire_Up_Distractor.gif"",""img/Fire_Up_Distractor.gif"",""img/Fire_Up_Distractor.gif"",""img/Fire_Up_Distractor.gif"",""img/Fire_Up_Distractor.gif""]","4","targetDown_distractorsUp"
"","","","","","html-keyboard-response","198","821705","0.0-14.0-0.0-0.92","598fa1b80675b100014dacf3","619531dcf66c91622fa1b861","619595779d61d08dbfa295d3","null","","null","","","","","main_T1_ITI","","","","",""
"","","","","","visual-search-circle","199","826616","0.0-14.0-0.0-1.92","598fa1b80675b100014dacf3","619531dcf66c91622fa1b861","619595779d61d08dbfa295d3","3905.39999999851","","s","true","[[320,599],[569,431],[548,132],[279,0],[30,168],[51,467]]","false","6","main_T2_Trial","s","img/Fire_Up_Target.gif","[""img/Fire_Down_Distractor.gif"",""img/Fire_Down_Distractor.gif"",""img/Fire_Down_Distractor.gif"",""img/Fire_Down_Distractor.gif"",""img/Fire_Down_Distractor.gif"",""img/Fire_Down_Distractor.gif"",""img/Fire_Down_Distractor.gif"",""img/Fire_Down_Distractor.gif"",""img/Fire_Down_Distractor.gif"",""img/Fire_Down_Distractor.gif"",""img/Fire_Down_Distractor.gif"",""img/Fire_Down_Distractor.gif""]","6","targetUp_distractorsDown"
"","","","","","html-keyboard-response","200","826618","0.0-14.0-0.0-0.93","598fa1b80675b100014dacf3","619531dcf66c91622fa1b861","619595779d61d08dbfa295d3","null","","null","","","","","main_T1_ITI","","","","",""
"","","","","","visual-search-circle","201","830952","0.0-14.0-0.0-1.93","598fa1b80675b100014dacf3","619531dcf66c91622fa1b861","619595779d61d08dbfa295d3","3328.199999999255","","s","true","[[242,5],[51,132],[5,357],[132,548],[357,594],[548,467],[594,242],[467,51]]","false","8","main_T2_Trial","s","img/Fire_Up_Target.gif","[""img/Fire_Down_Distractor.gif"",""img/Fire_Down_Distractor.gif"",""img/Fire_Down_Distractor.gif"",""img/Fire_Down_Distractor.gif"",""img/Fire_Down_Distractor.gif"",""img/Fire_Down_Distractor.gif"",""img/Fire_Down_Distractor.gif"",""img/Fire_Down_Distractor.gif"",""img/Fire_Down_Distractor.gif"",""img/Fire_Down_Distractor.gif"",""img/Fire_Down_Distractor.gif"",""img/Fire_Down_Distractor.gif""]","8","targetUp_distractorsDown"
"","","","","","html-keyboard-response","202","830954","0.0-14.0-0.0-0.94","598fa1b80675b100014dacf3","619531dcf66c91622fa1b861","619595779d61d08dbfa295d3","null","","null","","","","","main_T1_ITI","","","","",""
"","","","","","visual-search-circle","203","833528","0.0-14.0-0.0-1.94","598fa1b80675b100014dacf3","619531dcf66c91622fa1b861","619595779d61d08dbfa295d3","1571.5","","d","true","[[580,192],[284,0],[10,222],[136,551],[488,533]]","true","5","main_T2_Trial","d","img/Fire_Down_Target.gif","[""img/Fire_Up_Distractor.gif"",""img/Fire_Up_Distractor.gif"",""img/Fire_Up_Distractor.gif"",""img/Fire_Up_Distractor.gif"",""img/Fire_Up_Distractor.gif"",""img/Fire_Up_Distractor.gif"",""img/Fire_Up_Distractor.gif"",""img/Fire_Up_Distractor.gif"",""img/Fire_Up_Distractor.gif"",""img/Fire_Up_Distractor.gif"",""img/Fire_Up_Distractor.gif"",""img/Fire_Up_Distractor.gif""]","5","targetDown_distractorsUp"
"","","","","","html-keyboard-response","204","833531","0.0-14.0-0.0-0.95","598fa1b80675b100014dacf3","619531dcf66c91622fa1b861","619595779d61d08dbfa295d3","null","","null","","","","","main_T1_ITI","","","","",""
"","","","","","visual-search-circle","205","836503","0.0-14.0-0.0-1.95","598fa1b80675b100014dacf3","619531dcf66c91622fa1b861","619595779d61d08dbfa295d3","1967.9000000003725","","s","true","[[132,548],[431,569],[599,320],[467,51],[168,30],[0,279]]","false","6","main_T2_Trial","s","img/Fire_Up_Target.gif","[""img/Fire_Down_Distractor.gif"",""img/Fire_Down_Distractor.gif"",""img/Fire_Down_Distractor.gif"",""img/Fire_Down_Distractor.gif"",""img/Fire_Down_Distractor.gif"",""img/Fire_Down_Distractor.gif"",""img/Fire_Down_Distractor.gif"",""img/Fire_Down_Distractor.gif"",""img/Fire_Down_Distractor.gif"",""img/Fire_Down_Distractor.gif"",""img/Fire_Down_Distractor.gif"",""img/Fire_Down_Distractor.gif""]","6","targetUp_distractorsDown"
"","","","","","html-keyboard-response","206","836506","0.0-14.0-0.0-0.96","598fa1b80675b100014dacf3","619531dcf66c91622fa1b861","619595779d61d08dbfa295d3","null","","null","","","","","main_T1_ITI","","","","",""
"","","","","","visual-search-circle","207","840536","0.0-14.0-0.0-1.96","598fa1b80675b100014dacf3","619531dcf66c91622fa1b861","619595779d61d08dbfa295d3","3025.89999999851","","s","true","[[87,87],[1,333],[140,554],[399,583],[583,399],[554,140],[333,1]]","false","7","main_T2_Trial","s","img/Fire_Up_Target.gif","[""img/Fire_Down_Distractor.gif"",""img/Fire_Down_Distractor.gif"",""img/Fire_Down_Distractor.gif"",""img/Fire_Down_Distractor.gif"",""img/Fire_Down_Distractor.gif"",""img/Fire_Down_Distractor.gif"",""img/Fire_Down_Distractor.gif"",""img/Fire_Down_Distractor.gif"",""img/Fire_Down_Distractor.gif"",""img/Fire_Down_Distractor.gif"",""img/Fire_Down_Distractor.gif"",""img/Fire_Down_Distractor.gif""]","7","targetUp_distractorsDown"
"","","","","","html-keyboard-response","208","840538","0.0-14.0-0.0-0.97","598fa1b80675b100014dacf3","619531dcf66c91622fa1b861","619595779d61d08dbfa295d3","null","","null","","","","","main_T1_ITI","","","","",""
"","","","","","visual-search-circle","209","844063","0.0-14.0-0.0-1.97","598fa1b80675b100014dacf3","619531dcf66c91622fa1b861","619595779d61d08dbfa295d3","2522.4000000003725","","s","false","[[173,571],[519,504],[562,154],[242,5],[2,263]]","true","5","main_T2_Trial","d","img/Fire_Down_Target.gif","[""img/Fire_Up_Distractor.gif"",""img/Fire_Up_Distractor.gif"",""img/Fire_Up_Distractor.gif"",""img/Fire_Up_Distractor.gif"",""img/Fire_Up_Distractor.gif"",""img/Fire_Up_Distractor.gif"",""img/Fire_Up_Distractor.gif"",""img/Fire_Up_Distractor.gif"",""img/Fire_Up_Distractor.gif"",""img/Fire_Up_Distractor.gif"",""img/Fire_Up_Distractor.gif"",""img/Fire_Up_Distractor.gif""]","5","targetDown_distractorsUp"
"","","","","","html-keyboard-response","210","844065","0.0-14.0-0.0-0.98","598fa1b80675b100014dacf3","619531dcf66c91622fa1b861","619595779d61d08dbfa295d3","null","","null","","","","","main_T1_ITI","","","","",""
"","","","","","visual-search-circle","211","847343","0.0-14.0-0.0-1.98","598fa1b80675b100014dacf3","619531dcf66c91622fa1b861","619595779d61d08dbfa295d3","2273","","s","true","[[19,407],[177,574],[407,580],[574,422],[580,192],[422,25],[192,19],[25,177]]","false","8","main_T2_Trial","s","img/Fire_Down_Target.gif","[""img/Fire_Up_Distractor.gif"",""img/Fire_Up_Distractor.gif"",""img/Fire_Up_Distractor.gif"",""img/Fire_Up_Distractor.gif"",""img/Fire_Up_Distractor.gif"",""img/Fire_Up_Distractor.gif"",""img/Fire_Up_Distractor.gif"",""img/Fire_Up_Distractor.gif"",""img/Fire_Up_Distractor.gif"",""img/Fire_Up_Distractor.gif"",""img/Fire_Up_Distractor.gif"",""img/Fire_Up_Distractor.gif""]","8","targetDown_distractorsUp"
"","","","","","html-keyboard-response","212","977975","0.0-14.0-0.0-0.99","598fa1b80675b100014dacf3","619531dcf66c91622fa1b861","619595779d61d08dbfa295d3","130631.5","Wow! You've completed 100 out of 160 trials! </p> <p>  </p><p> Take a quick break, then press any key when you're ready to continue."," ","","","","","main_T1_ITI","","","","",""
"","","","","","visual-search-circle","213","980847","0.0-14.0-0.0-1.99","598fa1b80675b100014dacf3","619531dcf66c91622fa1b861","619595779d61d08dbfa295d3","1867","","d","true","[[107,529],[402,581],[595,352],[492,70],[197,18],[4,247]]","true","6","main_T2_Trial","d","img/Fire_Down_Target.gif","[""img/Fire_Up_Distractor.gif"",""img/Fire_Up_Distractor.gif"",""img/Fire_Up_Distractor.gif"",""img/Fire_Up_Distractor.gif"",""img/Fire_Up_Distractor.gif"",""img/Fire_Up_Distractor.gif"",""img/Fire_Up_Distractor.gif"",""img/Fire_Up_Distractor.gif"",""img/Fire_Up_Distractor.gif"",""img/Fire_Up_Distractor.gif"",""img/Fire_Up_Distractor.gif"",""img/Fire_Up_Distractor.gif""]","6","targetDown_distractorsUp"
"","","","","","html-keyboard-response","214","980849","0.0-14.0-0.0-0.100","598fa1b80675b100014dacf3","619531dcf66c91622fa1b861","619595779d61d08dbfa295d3","null","","null","","","","","main_T1_ITI","","","","",""
"","","","","","visual-search-circle","215","984119","0.0-14.0-0.0-1.100","598fa1b80675b100014dacf3","619531dcf66c91622fa1b861","619595779d61d08dbfa295d3","2267.300000000745","","s","true","[[512,87],[87,87],[87,512],[512,512]]","false","4","main_T2_Trial","s","img/Fire_Up_Target.gif","[""img/Fire_Down_Distractor.gif"",""img/Fire_Down_Distractor.gif"",""img/Fire_Down_Distractor.gif"",""img/Fire_Down_Distractor.gif"",""img/Fire_Down_Distractor.gif"",""img/Fire_Down_Distractor.gif"",""img/Fire_Down_Distractor.gif"",""img/Fire_Down_Distractor.gif"",""img/Fire_Down_Distractor.gif"",""img/Fire_Down_Distractor.gif"",""img/Fire_Down_Distractor.gif"",""img/Fire_Down_Distractor.gif""]","4","targetUp_distractorsDown"
"","","","","","html-keyboard-response","216","984121","0.0-14.0-0.0-0.101","598fa1b80675b100014dacf3","619531dcf66c91622fa1b861","619595779d61d08dbfa295d3","null","","null","","","","","main_T1_ITI","","","","",""
