"success","timeout","failed_images","failed_audio","failed_video","trial_type","trial_index","time_elapsed","internal_node_id","subject_id","study_id","session_id","rt","stimulus","response","correct","locations","target_present","set_size","task","correct_response","target","foilCM","setSizeCM","searchCondition"
"true","false","[]","[]","[]","preload","0","26481","0.0-0.0","5b04bbd4b98c410001adb8db","619531dcf66c91622fa1b861","619595d977b7c7c19383aefc","","","","","","","","","","","","",""
"true","","","","","fullscreen","1","417830","0.0-1.0","5b04bbd4b98c410001adb8db","619531dcf66c91622fa1b861","619595d977b7c7c19383aefc","","","","","","","","","","","","",""
"","","","","","html-keyboard-response","2","426623","0.0-2.0","5b04bbd4b98c410001adb8db","619531dcf66c91622fa1b861","619595d977b7c7c19383aefc","8792.800000000745","What a beautiful Thursday to do some awesome science! </p> <p>  </p><p> </p>
    By completing this survey or questionnaire, you are consenting to be in this research study. </p>
    Your participation is voluntary and you can stop at any time.
    <p> [Press any key to continue.] </p>
    
    "," ","","","","","","","","","",""
"","","","","","video-keyboard-response","3","467113","0.0-3.0","5b04bbd4b98c410001adb8db","619531dcf66c91622fa1b861","619595d977b7c7c19383aefc","40487.699999999255","[""video/TaskInstructions.mp4""]","d","","","","","","","","","",""
"","","","","","html-keyboard-response","4","472423","0.0-4.0","5b04bbd4b98c410001adb8db","619531dcf66c91622fa1b861","619595d977b7c7c19383aefc","5309","
    <p>First, we're going to do a few practice trials to make sure you understand the task. You will recieve feedback on each trial. </p>
    <p>[Press any key to begin the familiarization phase.]</p>
    "," ","","","","","","","","","",""
"","","","","","visual-search-circle","5","476695","0.0-5.0-0.0","5b04bbd4b98c410001adb8db","619531dcf66c91622fa1b861","619595d977b7c7c19383aefc","3196.89999999851","","d","true","[[346,3],[3,253],[253,596],[596,346]]","true","4","training","d","","","",""
"","","","","","html-keyboard-response","6","480197","0.0-6.0","5b04bbd4b98c410001adb8db","619531dcf66c91622fa1b861","619595d977b7c7c19383aefc","3500.699999999255"," <div style='float: center; '><img src='img/feedbackRight.png'></img> </div> "," ","","","","","","","","","",""
"","","","","","visual-search-circle","7","484045","0.0-7.0-0.0","5b04bbd4b98c410001adb8db","619531dcf66c91622fa1b861","619595d977b7c7c19383aefc","2836.5","","s","true","[[23,182],[182,576],[576,417],[417,23]]","false","4","training","s","","","",""
"","","","","","html-keyboard-response","8","485700","0.0-8.0","5b04bbd4b98c410001adb8db","619531dcf66c91622fa1b861","619595d977b7c7c19383aefc","1654.199999999255"," <div style='float: center; '><img src='img/feedbackRight.png'></img> </div> "," ","","","","","","","","","",""
"","","","","","visual-search-circle","9","489625","0.0-9.0-0.0","5b04bbd4b98c410001adb8db","619531dcf66c91622fa1b861","619595d977b7c7c19383aefc","2918.300000000745","","s","true","[[387,13],[95,80],[7,367],[212,586],[504,519],[592,232]]","false","6","training","s","","","",""
"","","","","","html-keyboard-response","10","491127","0.0-10.0","5b04bbd4b98c410001adb8db","619531dcf66c91622fa1b861","619595d977b7c7c19383aefc","1501.1000000014901"," <div style='float: center; '><img src='img/feedbackRight.png'></img> </div> "," ","","","","","","","","","",""
"","","","","","visual-search-circle","11","493666","0.0-11.0-0.0","5b04bbd4b98c410001adb8db","619531dcf66c91622fa1b861","619595d977b7c7c19383aefc","1523.7999999970198","","d","true","[[168,30],[16,202],[30,431],[202,583],[431,569],[583,397],[569,168],[397,16]]","true","8","training","d","","","",""
"","","","","","html-keyboard-response","12","494551","0.0-12.0","5b04bbd4b98c410001adb8db","619531dcf66c91622fa1b861","619595d977b7c7c19383aefc","883.6999999992549"," <div style='float: center; '><img src='img/feedbackRight.png'></img> </div> "," ","","","","","","","","","",""
"","","","","","video-keyboard-response","13","499708","0.0-13.0","5b04bbd4b98c410001adb8db","619531dcf66c91622fa1b861","619595d977b7c7c19383aefc","5156","[""video/endTraining.mp4""]"," ","","","","","","","","","",""
"","","","","","html-keyboard-response","14","499712","0.0-14.0-0.0-0.0","5b04bbd4b98c410001adb8db","619531dcf66c91622fa1b861","619595d977b7c7c19383aefc","null","","null","","","","","main_T1_ITI","","","","",""
"","","","","","visual-search-circle","15","505750","0.0-14.0-0.0-1.0","5b04bbd4b98c410001adb8db","619531dcf66c91622fa1b861","619595d977b7c7c19383aefc","5030.599999997765","","s","true","[[258,2],[60,119],[2,341],[119,539],[341,597],[539,480],[597,258],[480,60]]","false","8","main_T2_Trial","s","img/Fire_Up_Target.gif","[""img/Fire_Down_Distractor.gif"",""img/Fire_Down_Distractor.gif"",""img/Fire_Down_Distractor.gif"",""img/Fire_Down_Distractor.gif"",""img/Fire_Down_Distractor.gif"",""img/Fire_Down_Distractor.gif"",""img/Fire_Down_Distractor.gif"",""img/Fire_Down_Distractor.gif"",""img/Fire_Down_Distractor.gif"",""img/Fire_Down_Distractor.gif"",""img/Fire_Down_Distractor.gif"",""img/Fire_Down_Distractor.gif""]","8","targetUp_distractorsDown"
"","","","","","html-keyboard-response","16","505753","0.0-14.0-0.0-0.1","5b04bbd4b98c410001adb8db","619531dcf66c91622fa1b861","619595d977b7c7c19383aefc","null","","null","","","","","main_T1_ITI","","","","",""
"","","","","","visual-search-circle","17","509367","0.0-14.0-0.0-1.1","5b04bbd4b98c410001adb8db","619531dcf66c91622fa1b861","619595d977b7c7c19383aefc","2609.39999999851","","s","true","[[454,557],[599,294],[445,37],[145,42],[0,305],[154,562]]","false","6","main_T2_Trial","s","img/Fire_Up_Target.gif","[""img/Fire_Down_Distractor.gif"",""img/Fire_Down_Distractor.gif"",""img/Fire_Down_Distractor.gif"",""img/Fire_Down_Distractor.gif"",""img/Fire_Down_Distractor.gif"",""img/Fire_Down_Distractor.gif"",""img/Fire_Down_Distractor.gif"",""img/Fire_Down_Distractor.gif"",""img/Fire_Down_Distractor.gif"",""img/Fire_Down_Distractor.gif"",""img/Fire_Down_Distractor.gif"",""img/Fire_Down_Distractor.gif""]","6","targetUp_distractorsDown"
"","","","","","html-keyboard-response","18","509684","0.0-14.0-0.0-0.2","5b04bbd4b98c410001adb8db","619531dcf66c91622fa1b861","619595d977b7c7c19383aefc","null","","null","","","","","main_T1_ITI","","","","",""
"","","","","","visual-search-circle","19","514528","0.0-14.0-0.0-1.2","5b04bbd4b98c410001adb8db","619531dcf66c91622fa1b861","619595d977b7c7c19383aefc","3825","","d","true","[[30,431],[341,597],[595,352],[440,35],[91,84]]","true","5","main_T2_Trial","d","img/Fire_Up_Target.gif","[""img/Fire_Down_Distractor.gif"",""img/Fire_Down_Distractor.gif"",""img/Fire_Down_Distractor.gif"",""img/Fire_Down_Distractor.gif"",""img/Fire_Down_Distractor.gif"",""img/Fire_Down_Distractor.gif"",""img/Fire_Down_Distractor.gif"",""img/Fire_Down_Distractor.gif"",""img/Fire_Down_Distractor.gif"",""img/Fire_Down_Distractor.gif"",""img/Fire_Down_Distractor.gif"",""img/Fire_Down_Distractor.gif""]","5","targetUp_distractorsDown"
"","","","","","html-keyboard-response","20","514537","0.0-14.0-0.0-0.3","5b04bbd4b98c410001adb8db","619531dcf66c91622fa1b861","619595d977b7c7c19383aefc","null","","null","","","","","main_T1_ITI","","","","",""
"","","","","","visual-search-circle","21","518723","0.0-14.0-0.0-1.3","5b04bbd4b98c410001adb8db","619531dcf66c91622fa1b861","619595d977b7c7c19383aefc","3175.199999999255","","s","true","[[132,548],[389,586],[579,408],[559,148],[343,3],[94,81],[0,323]]","false","7","main_T2_Trial","s","img/Fire_Down_Target.gif","[""img/Fire_Up_Distractor.gif"",""img/Fire_Up_Distractor.gif"",""img/Fire_Up_Distractor.gif"",""img/Fire_Up_Distractor.gif"",""img/Fire_Up_Distractor.gif"",""img/Fire_Up_Distractor.gif"",""img/Fire_Up_Distractor.gif"",""img/Fire_Up_Distractor.gif"",""img/Fire_Up_Distractor.gif"",""img/Fire_Up_Distractor.gif"",""img/Fire_Up_Distractor.gif"",""img/Fire_Up_Distractor.gif""]","7","targetDown_distractorsUp"
"","","","","","html-keyboard-response","22","518725","0.0-14.0-0.0-0.4","5b04bbd4b98c410001adb8db","619531dcf66c91622fa1b861","619595d977b7c7c19383aefc","null","","null","","","","","main_T1_ITI","","","","",""
"","","","","","visual-search-circle","23","521071","0.0-14.0-0.0-1.4","5b04bbd4b98c410001adb8db","619531dcf66c91622fa1b861","619595d977b7c7c19383aefc","1334.4000000022352","","d","true","[[597,341],[517,93],[274,1],[50,133],[14,391],[193,580],[452,558]]","true","7","main_T2_Trial","d","img/Fire_Down_Target.gif","[""img/Fire_Up_Distractor.gif"",""img/Fire_Up_Distractor.gif"",""img/Fire_Up_Distractor.gif"",""img/Fire_Up_Distractor.gif"",""img/Fire_Up_Distractor.gif"",""img/Fire_Up_Distractor.gif"",""img/Fire_Up_Distractor.gif"",""img/Fire_Up_Distractor.gif"",""img/Fire_Up_Distractor.gif"",""img/Fire_Up_Distractor.gif"",""img/Fire_Up_Distractor.gif"",""img/Fire_Up_Distractor.gif""]","7","targetDown_distractorsUp"
"","","","","","html-keyboard-response","24","521072","0.0-14.0-0.0-0.5","5b04bbd4b98c410001adb8db","619531dcf66c91622fa1b861","619595d977b7c7c19383aefc","null","","null","","","","","main_T1_ITI","","","","",""
"","","","","","visual-search-circle","25","523996","0.0-14.0-0.0-1.5","5b04bbd4b98c410001adb8db","619531dcf66c91622fa1b861","619595d977b7c7c19383aefc","1910.7000000029802","","s","true","[[583,397],[569,168],[397,16],[168,30],[16,202],[30,431],[202,583],[431,569]]","false","8","main_T2_Trial","s","img/Fire_Down_Target.gif","[""img/Fire_Up_Distractor.gif"",""img/Fire_Up_Distractor.gif"",""img/Fire_Up_Distractor.gif"",""img/Fire_Up_Distractor.gif"",""img/Fire_Up_Distractor.gif"",""img/Fire_Up_Distractor.gif"",""img/Fire_Up_Distractor.gif"",""img/Fire_Up_Distractor.gif"",""img/Fire_Up_Distractor.gif"",""img/Fire_Up_Distractor.gif"",""img/Fire_Up_Distractor.gif"",""img/Fire_Up_Distractor.gif""]","8","targetDown_distractorsUp"
"","","","","","html-keyboard-response","26","523997","0.0-14.0-0.0-0.6","5b04bbd4b98c410001adb8db","619531dcf66c91622fa1b861","619595d977b7c7c19383aefc","null","","null","","","","","main_T1_ITI","","","","",""
"","","","","","visual-search-circle","27","531847","0.0-14.0-0.0-1.6","5b04bbd4b98c410001adb8db","619531dcf66c91622fa1b861","619595d977b7c7c19383aefc","6829.699999999255","","s","true","[[529,107],[292,0],[60,118],[9,374],[176,573],[436,566],[594,359]]","false","7","main_T2_Trial","s","img/Fire_Down_Target.gif","[""img/Fire_Up_Distractor.gif"",""img/Fire_Up_Distractor.gif"",""img/Fire_Up_Distractor.gif"",""img/Fire_Up_Distractor.gif"",""img/Fire_Up_Distractor.gif"",""img/Fire_Up_Distractor.gif"",""img/Fire_Up_Distractor.gif"",""img/Fire_Up_Distractor.gif"",""img/Fire_Up_Distractor.gif"",""img/Fire_Up_Distractor.gif"",""img/Fire_Up_Distractor.gif"",""img/Fire_Up_Distractor.gif""]","7","targetDown_distractorsUp"
"","","","","","html-keyboard-response","28","531852","0.0-14.0-0.0-0.7","5b04bbd4b98c410001adb8db","619531dcf66c91622fa1b861","619595d977b7c7c19383aefc","null","","null","","","","","main_T1_ITI","","","","",""
"","","","","","visual-search-circle","29","537004","0.0-14.0-0.0-1.7","5b04bbd4b98c410001adb8db","619531dcf66c91622fa1b861","619595d977b7c7c19383aefc","4134.099999997765","","d","true","[[54,472],[326,598],[571,426],[545,127],[273,1],[28,173]]","true","6","main_T2_Trial","d","img/Fire_Up_Target.gif","[""img/Fire_Down_Distractor.gif"",""img/Fire_Down_Distractor.gif"",""img/Fire_Down_Distractor.gif"",""img/Fire_Down_Distractor.gif"",""img/Fire_Down_Distractor.gif"",""img/Fire_Down_Distractor.gif"",""img/Fire_Down_Distractor.gif"",""img/Fire_Down_Distractor.gif"",""img/Fire_Down_Distractor.gif"",""img/Fire_Down_Distractor.gif"",""img/Fire_Down_Distractor.gif"",""img/Fire_Down_Distractor.gif""]","6","targetUp_distractorsDown"
"","","","","","html-keyboard-response","30","537010","0.0-14.0-0.0-0.8","5b04bbd4b98c410001adb8db","619531dcf66c91622fa1b861","619595d977b7c7c19383aefc","null","","null","","","","","main_T1_ITI","","","","",""
"","","","","","visual-search-circle","31","542815","0.0-14.0-0.0-1.8","5b04bbd4b98c410001adb8db","619531dcf66c91622fa1b861","619595d977b7c7c19383aefc","4787.800000000745","","d","true","[[242,5],[16,202],[73,496],[357,594],[583,397],[526,103]]","true","6","main_T2_Trial","d","img/Fire_Up_Target.gif","[""img/Fire_Down_Distractor.gif"",""img/Fire_Down_Distractor.gif"",""img/Fire_Down_Distractor.gif"",""img/Fire_Down_Distractor.gif"",""img/Fire_Down_Distractor.gif"",""img/Fire_Down_Distractor.gif"",""img/Fire_Down_Distractor.gif"",""img/Fire_Down_Distractor.gif"",""img/Fire_Down_Distractor.gif"",""img/Fire_Down_Distractor.gif"",""img/Fire_Down_Distractor.gif"",""img/Fire_Down_Distractor.gif""]","6","targetUp_distractorsDown"
"","","","","","html-keyboard-response","32","542824","0.0-14.0-0.0-0.9","5b04bbd4b98c410001adb8db","619531dcf66c91622fa1b861","619595d977b7c7c19383aefc","null","","null","","","","","main_T1_ITI","","","","",""
"","","","","","visual-search-circle","33","545553","0.0-14.0-0.0-1.9","5b04bbd4b98c410001adb8db","619531dcf66c91622fa1b861","619595d977b7c7c19383aefc","1716.5","","d","true","[[299,600],[585,392],[476,57],[123,57],[14,392]]","true","5","main_T2_Trial","d","img/Fire_Down_Target.gif","[""img/Fire_Up_Distractor.gif"",""img/Fire_Up_Distractor.gif"",""img/Fire_Up_Distractor.gif"",""img/Fire_Up_Distractor.gif"",""img/Fire_Up_Distractor.gif"",""img/Fire_Up_Distractor.gif"",""img/Fire_Up_Distractor.gif"",""img/Fire_Up_Distractor.gif"",""img/Fire_Up_Distractor.gif"",""img/Fire_Up_Distractor.gif"",""img/Fire_Up_Distractor.gif"",""img/Fire_Up_Distractor.gif""]","5","targetDown_distractorsUp"
"","","","","","html-keyboard-response","34","545556","0.0-14.0-0.0-0.10","5b04bbd4b98c410001adb8db","619531dcf66c91622fa1b861","619595d977b7c7c19383aefc","null","","null","","","","","main_T1_ITI","","","","",""
"","","","","","visual-search-circle","35","552983","0.0-14.0-0.0-1.10","5b04bbd4b98c410001adb8db","619531dcf66c91622fa1b861","619595d977b7c7c19383aefc","6410.099999997765","","d","true","[[32,436],[346,596],[596,346],[436,32],[87,87]]","true","5","main_T2_Trial","d","img/Fire_Up_Target.gif","[""img/Fire_Down_Distractor.gif"",""img/Fire_Down_Distractor.gif"",""img/Fire_Down_Distractor.gif"",""img/Fire_Down_Distractor.gif"",""img/Fire_Down_Distractor.gif"",""img/Fire_Down_Distractor.gif"",""img/Fire_Down_Distractor.gif"",""img/Fire_Down_Distractor.gif"",""img/Fire_Down_Distractor.gif"",""img/Fire_Down_Distractor.gif"",""img/Fire_Down_Distractor.gif"",""img/Fire_Down_Distractor.gif""]","5","targetUp_distractorsDown"
"","","","","","html-keyboard-response","36","553000","0.0-14.0-0.0-0.11","5b04bbd4b98c410001adb8db","619531dcf66c91622fa1b861","619595d977b7c7c19383aefc","null","","null","","","","","main_T1_ITI","","","","",""
"","","","","","visual-search-circle","37","560954","0.0-14.0-0.0-1.11","5b04bbd4b98c410001adb8db","619531dcf66c91622fa1b861","619595d977b7c7c19383aefc","6946.800000000745","","d","true","[[95,519],[387,586],[592,367],[504,80],[212,13],[7,232]]","true","6","main_T2_Trial","d","img/Fire_Down_Target.gif","[""img/Fire_Up_Distractor.gif"",""img/Fire_Up_Distractor.gif"",""img/Fire_Up_Distractor.gif"",""img/Fire_Up_Distractor.gif"",""img/Fire_Up_Distractor.gif"",""img/Fire_Up_Distractor.gif"",""img/Fire_Up_Distractor.gif"",""img/Fire_Up_Distractor.gif"",""img/Fire_Up_Distractor.gif"",""img/Fire_Up_Distractor.gif"",""img/Fire_Up_Distractor.gif"",""img/Fire_Up_Distractor.gif""]","6","targetDown_distractorsUp"
"","","","","","html-keyboard-response","38","560978","0.0-14.0-0.0-0.12","5b04bbd4b98c410001adb8db","619531dcf66c91622fa1b861","619595d977b7c7c19383aefc","null","","null","","","","","main_T1_ITI","","","","",""
"","","","","","visual-search-circle","39","566230","0.0-14.0-0.0-1.12","5b04bbd4b98c410001adb8db","619531dcf66c91622fa1b861","619595d977b7c7c19383aefc","4236.800000000745","","s","true","[[2,341],[247,595],[564,440],[515,91],[168,30]]","false","5","main_T2_Trial","s","img/Fire_Down_Target.gif","[""img/Fire_Up_Distractor.gif"",""img/Fire_Up_Distractor.gif"",""img/Fire_Up_Distractor.gif"",""img/Fire_Up_Distractor.gif"",""img/Fire_Up_Distractor.gif"",""img/Fire_Up_Distractor.gif"",""img/Fire_Up_Distractor.gif"",""img/Fire_Up_Distractor.gif"",""img/Fire_Up_Distractor.gif"",""img/Fire_Up_Distractor.gif"",""img/Fire_Up_Distractor.gif"",""img/Fire_Up_Distractor.gif""]","5","targetDown_distractorsUp"
"","","","","","html-keyboard-response","40","566240","0.0-14.0-0.0-0.13","5b04bbd4b98c410001adb8db","619531dcf66c91622fa1b861","619595d977b7c7c19383aefc","null","","null","","","","","main_T1_ITI","","","","",""
"","","","","","visual-search-circle","41","569310","0.0-14.0-0.0-1.13","5b04bbd4b98c410001adb8db","619531dcf66c91622fa1b861","619595d977b7c7c19383aefc","2055.800000000745","","s","true","[[562,154],[305,0],[42,145],[37,445],[294,599],[557,454]]","false","6","main_T2_Trial","s","img/Fire_Down_Target.gif","[""img/Fire_Up_Distractor.gif"",""img/Fire_Up_Distractor.gif"",""img/Fire_Up_Distractor.gif"",""img/Fire_Up_Distractor.gif"",""img/Fire_Up_Distractor.gif"",""img/Fire_Up_Distractor.gif"",""img/Fire_Up_Distractor.gif"",""img/Fire_Up_Distractor.gif"",""img/Fire_Up_Distractor.gif"",""img/Fire_Up_Distractor.gif"",""img/Fire_Up_Distractor.gif"",""img/Fire_Up_Distractor.gif""]","6","targetDown_distractorsUp"
"","","","","","html-keyboard-response","42","569831","0.0-14.0-0.0-0.14","5b04bbd4b98c410001adb8db","619531dcf66c91622fa1b861","619595d977b7c7c19383aefc","null","","null","","","","","main_T1_ITI","","","","",""
"","","","","","visual-search-circle","43","572696","0.0-14.0-0.0-1.14","5b04bbd4b98c410001adb8db","619531dcf66c91622fa1b861","619595d977b7c7c19383aefc","1846.3999999985099","","s","true","[[222,589],[478,541],[599,311],[495,72],[244,5],[34,159],[25,419]]","false","7","main_T2_Trial","s","img/Fire_Up_Target.gif","[""img/Fire_Down_Distractor.gif"",""img/Fire_Down_Distractor.gif"",""img/Fire_Down_Distractor.gif"",""img/Fire_Down_Distractor.gif"",""img/Fire_Down_Distractor.gif"",""img/Fire_Down_Distractor.gif"",""img/Fire_Down_Distractor.gif"",""img/Fire_Down_Distractor.gif"",""img/Fire_Down_Distractor.gif"",""img/Fire_Down_Distractor.gif"",""img/Fire_Down_Distractor.gif"",""img/Fire_Down_Distractor.gif""]","7","targetUp_distractorsDown"
"","","","","","html-keyboard-response","44","572698","0.0-14.0-0.0-0.15","5b04bbd4b98c410001adb8db","619531dcf66c91622fa1b861","619595d977b7c7c19383aefc","null","","null","","","","","main_T1_ITI","","","","",""
"","","","","","visual-search-circle","45","578199","0.0-14.0-0.0-1.15","5b04bbd4b98c410001adb8db","619531dcf66c91622fa1b861","619595d977b7c7c19383aefc","4493.79999999702","","s","true","[[596,346],[436,32],[87,87],[32,436],[346,596]]","false","5","main_T2_Trial","s","img/Fire_Down_Target.gif","[""img/Fire_Up_Distractor.gif"",""img/Fire_Up_Distractor.gif"",""img/Fire_Up_Distractor.gif"",""img/Fire_Up_Distractor.gif"",""img/Fire_Up_Distractor.gif"",""img/Fire_Up_Distractor.gif"",""img/Fire_Up_Distractor.gif"",""img/Fire_Up_Distractor.gif"",""img/Fire_Up_Distractor.gif"",""img/Fire_Up_Distractor.gif"",""img/Fire_Up_Distractor.gif"",""img/Fire_Up_Distractor.gif""]","5","targetDown_distractorsUp"
"","","","","","html-keyboard-response","46","578202","0.0-14.0-0.0-0.16","5b04bbd4b98c410001adb8db","619531dcf66c91622fa1b861","619595d977b7c7c19383aefc","null","","null","","","","","main_T1_ITI","","","","",""
"","","","","","visual-search-circle","47","582088","0.0-14.0-0.0-1.16","5b04bbd4b98c410001adb8db","619531dcf66c91622fa1b861","619595d977b7c7c19383aefc","2867.7000000029802","","s","true","[[5,242],[154,562],[504,519],[571,173],[263,2]]","false","5","main_T2_Trial","s","img/Fire_Up_Target.gif","[""img/Fire_Down_Distractor.gif"",""img/Fire_Down_Distractor.gif"",""img/Fire_Down_Distractor.gif"",""img/Fire_Down_Distractor.gif"",""img/Fire_Down_Distractor.gif"",""img/Fire_Down_Distractor.gif"",""img/Fire_Down_Distractor.gif"",""img/Fire_Down_Distractor.gif"",""img/Fire_Down_Distractor.gif"",""img/Fire_Down_Distractor.gif"",""img/Fire_Down_Distractor.gif"",""img/Fire_Down_Distractor.gif""]","5","targetUp_distractorsDown"
"","","","","","html-keyboard-response","48","582108","0.0-14.0-0.0-0.17","5b04bbd4b98c410001adb8db","619531dcf66c91622fa1b861","619595d977b7c7c19383aefc","null","","null","","","","","main_T1_ITI","","","","",""
"","","","","","visual-search-circle","49","584549","0.0-14.0-0.0-1.17","5b04bbd4b98c410001adb8db","619531dcf66c91622fa1b861","619595d977b7c7c19383aefc","1425.5","","d","true","[[0,299],[149,559],[450,559],[600,300],[449,40],[150,40]]","true","6","main_T2_Trial","d","img/Fire_Up_Target.gif","[""img/Fire_Down_Distractor.gif"",""img/Fire_Down_Distractor.gif"",""img/Fire_Down_Distractor.gif"",""img/Fire_Down_Distractor.gif"",""img/Fire_Down_Distractor.gif"",""img/Fire_Down_Distractor.gif"",""img/Fire_Down_Distractor.gif"",""img/Fire_Down_Distractor.gif"",""img/Fire_Down_Distractor.gif"",""img/Fire_Down_Distractor.gif"",""img/Fire_Down_Distractor.gif"",""img/Fire_Down_Distractor.gif""]","6","targetUp_distractorsDown"
"","","","","","html-keyboard-response","50","584552","0.0-14.0-0.0-0.18","5b04bbd4b98c410001adb8db","619531dcf66c91622fa1b861","619595d977b7c7c19383aefc","null","","null","","","","","main_T1_ITI","","","","",""
"","","","","","visual-search-circle","51","587359","0.0-14.0-0.0-1.18","5b04bbd4b98c410001adb8db","619531dcf66c91622fa1b861","619595d977b7c7c19383aefc","1800.199999999255","","s","true","[[7,367],[141,554],[367,592],[554,458],[592,232],[458,45],[232,7],[45,141]]","false","8","main_T2_Trial","s","img/Fire_Up_Target.gif","[""img/Fire_Down_Distractor.gif"",""img/Fire_Down_Distractor.gif"",""img/Fire_Down_Distractor.gif"",""img/Fire_Down_Distractor.gif"",""img/Fire_Down_Distractor.gif"",""img/Fire_Down_Distractor.gif"",""img/Fire_Down_Distractor.gif"",""img/Fire_Down_Distractor.gif"",""img/Fire_Down_Distractor.gif"",""img/Fire_Down_Distractor.gif"",""img/Fire_Down_Distractor.gif"",""img/Fire_Down_Distractor.gif""]","8","targetUp_distractorsDown"
"","","","","","html-keyboard-response","52","592939","0.0-14.0-0.0-0.19","5b04bbd4b98c410001adb8db","619531dcf66c91622fa1b861","619595d977b7c7c19383aefc","5579.400000002235","Wow! You've completed 20 out of 160 trials! </p> <p>  </p><p> Take a quick break, then press any key when you're ready to continue."," ","","","","","main_T1_ITI","","","","",""
"","","","","","visual-search-circle","53","597557","0.0-14.0-0.0-1.19","5b04bbd4b98c410001adb8db","619531dcf66c91622fa1b861","619595d977b7c7c19383aefc","3600.800000000745","","s","true","[[258,2],[2,341],[341,597],[597,258]]","false","4","main_T2_Trial","s","img/Fire_Down_Target.gif","[""img/Fire_Up_Distractor.gif"",""img/Fire_Up_Distractor.gif"",""img/Fire_Up_Distractor.gif"",""img/Fire_Up_Distractor.gif"",""img/Fire_Up_Distractor.gif"",""img/Fire_Up_Distractor.gif"",""img/Fire_Up_Distractor.gif"",""img/Fire_Up_Distractor.gif"",""img/Fire_Up_Distractor.gif"",""img/Fire_Up_Distractor.gif"",""img/Fire_Up_Distractor.gif"",""img/Fire_Up_Distractor.gif""]","4","targetDown_distractorsUp"
"","","","","","html-keyboard-response","54","597559","0.0-14.0-0.0-0.20","5b04bbd4b98c410001adb8db","619531dcf66c91622fa1b861","619595d977b7c7c19383aefc","null","","null","","","","","main_T1_ITI","","","","",""
"","","","","","visual-search-circle","55","603715","0.0-14.0-0.0-1.20","5b04bbd4b98c410001adb8db","619531dcf66c91622fa1b861","619595d977b7c7c19383aefc","5147.199999999255","","s","true","[[596,346],[346,3],[3,253],[253,596]]","false","4","main_T2_Trial","s","img/Fire_Up_Target.gif","[""img/Fire_Down_Distractor.gif"",""img/Fire_Down_Distractor.gif"",""img/Fire_Down_Distractor.gif"",""img/Fire_Down_Distractor.gif"",""img/Fire_Down_Distractor.gif"",""img/Fire_Down_Distractor.gif"",""img/Fire_Down_Distractor.gif"",""img/Fire_Down_Distractor.gif"",""img/Fire_Down_Distractor.gif"",""img/Fire_Down_Distractor.gif"",""img/Fire_Down_Distractor.gif"",""img/Fire_Down_Distractor.gif""]","4","targetUp_distractorsDown"
"","","","","","html-keyboard-response","56","603717","0.0-14.0-0.0-0.21","5b04bbd4b98c410001adb8db","619531dcf66c91622fa1b861","619595d977b7c7c19383aefc","null","","null","","","","","main_T1_ITI","","","","",""
"","","","","","visual-search-circle","57","606410","0.0-14.0-0.0-1.21","5b04bbd4b98c410001adb8db","619531dcf66c91622fa1b861","619595d977b7c7c19383aefc","1679.1000000014901","","d","true","[[467,51],[115,63],[18,402],[310,599],[588,382]]","true","5","main_T2_Trial","d","img/Fire_Down_Target.gif","[""img/Fire_Up_Distractor.gif"",""img/Fire_Up_Distractor.gif"",""img/Fire_Up_Distractor.gif"",""img/Fire_Up_Distractor.gif"",""img/Fire_Up_Distractor.gif"",""img/Fire_Up_Distractor.gif"",""img/Fire_Up_Distractor.gif"",""img/Fire_Up_Distractor.gif"",""img/Fire_Up_Distractor.gif"",""img/Fire_Up_Distractor.gif"",""img/Fire_Up_Distractor.gif"",""img/Fire_Up_Distractor.gif""]","5","targetDown_distractorsUp"
"","","","","","html-keyboard-response","58","606414","0.0-14.0-0.0-0.22","5b04bbd4b98c410001adb8db","619531dcf66c91622fa1b861","619595d977b7c7c19383aefc","null","","null","","","","","main_T1_ITI","","","","",""
"","","","","","visual-search-circle","59","608954","0.0-14.0-0.0-1.22","5b04bbd4b98c410001adb8db","619531dcf66c91622fa1b861","619595d977b7c7c19383aefc","1532.1000000014901","","s","true","[[6,237],[99,522],[392,585],[593,362],[500,77],[207,14]]","false","6","main_T2_Trial","s","img/Fire_Up_Target.gif","[""img/Fire_Down_Distractor.gif"",""img/Fire_Down_Distractor.gif"",""img/Fire_Down_Distractor.gif"",""img/Fire_Down_Distractor.gif"",""img/Fire_Down_Distractor.gif"",""img/Fire_Down_Distractor.gif"",""img/Fire_Down_Distractor.gif"",""img/Fire_Down_Distractor.gif"",""img/Fire_Down_Distractor.gif"",""img/Fire_Down_Distractor.gif"",""img/Fire_Down_Distractor.gif"",""img/Fire_Down_Distractor.gif""]","6","targetUp_distractorsDown"
"","","","","","html-keyboard-response","60","608960","0.0-14.0-0.0-0.23","5b04bbd4b98c410001adb8db","619531dcf66c91622fa1b861","619595d977b7c7c19383aefc","null","","null","","","","","main_T1_ITI","","","","",""
"","","","","","visual-search-circle","61","611878","0.0-14.0-0.0-1.23","5b04bbd4b98c410001adb8db","619531dcf66c91622fa1b861","619595d977b7c7c19383aefc","1900.8999999985099","","d","true","[[559,450],[579,190],[388,13],[131,52],[0,277],[95,519],[344,596]]","true","7","main_T2_Trial","d","img/Fire_Up_Target.gif","[""img/Fire_Down_Distractor.gif"",""img/Fire_Down_Distractor.gif"",""img/Fire_Down_Distractor.gif"",""img/Fire_Down_Distractor.gif"",""img/Fire_Down_Distractor.gif"",""img/Fire_Down_Distractor.gif"",""img/Fire_Down_Distractor.gif"",""img/Fire_Down_Distractor.gif"",""img/Fire_Down_Distractor.gif"",""img/Fire_Down_Distractor.gif"",""img/Fire_Down_Distractor.gif"",""img/Fire_Down_Distractor.gif""]","7","targetUp_distractorsDown"
"","","","","","html-keyboard-response","62","611881","0.0-14.0-0.0-0.24","5b04bbd4b98c410001adb8db","619531dcf66c91622fa1b861","619595d977b7c7c19383aefc","null","","null","","","","","main_T1_ITI","","","","",""
"","","","","","visual-search-circle","63","614264","0.0-14.0-0.0-1.24","5b04bbd4b98c410001adb8db","619531dcf66c91622fa1b861","619595d977b7c7c19383aefc","1371.0999999977648","","s","true","[[458,45],[200,17],[16,201],[46,460],[267,598],[512,511],[598,265]]","false","7","main_T2_Trial","s","img/Fire_Up_Target.gif","[""img/Fire_Down_Distractor.gif"",""img/Fire_Down_Distractor.gif"",""img/Fire_Down_Distractor.gif"",""img/Fire_Down_Distractor.gif"",""img/Fire_Down_Distractor.gif"",""img/Fire_Down_Distractor.gif"",""img/Fire_Down_Distractor.gif"",""img/Fire_Down_Distractor.gif"",""img/Fire_Down_Distractor.gif"",""img/Fire_Down_Distractor.gif"",""img/Fire_Down_Distractor.gif"",""img/Fire_Down_Distractor.gif""]","7","targetUp_distractorsDown"
"","","","","","html-keyboard-response","64","614266","0.0-14.0-0.0-0.25","5b04bbd4b98c410001adb8db","619531dcf66c91622fa1b861","619595d977b7c7c19383aefc","null","","null","","","","","main_T1_ITI","","","","",""
"","","","","","visual-search-circle","65","616997","0.0-14.0-0.0-1.25","5b04bbd4b98c410001adb8db","619531dcf66c91622fa1b861","619595d977b7c7c19383aefc","1710.2999999970198","","d","true","[[488,533],[598,331],[533,111],[331,1],[111,66],[1,268],[66,488],[268,598]]","true","8","main_T2_Trial","d","img/Fire_Up_Target.gif","[""img/Fire_Down_Distractor.gif"",""img/Fire_Down_Distractor.gif"",""img/Fire_Down_Distractor.gif"",""img/Fire_Down_Distractor.gif"",""img/Fire_Down_Distractor.gif"",""img/Fire_Down_Distractor.gif"",""img/Fire_Down_Distractor.gif"",""img/Fire_Down_Distractor.gif"",""img/Fire_Down_Distractor.gif"",""img/Fire_Down_Distractor.gif"",""img/Fire_Down_Distractor.gif"",""img/Fire_Down_Distractor.gif""]","8","targetUp_distractorsDown"
"","","","","","html-keyboard-response","66","617006","0.0-14.0-0.0-0.26","5b04bbd4b98c410001adb8db","619531dcf66c91622fa1b861","619595d977b7c7c19383aefc","null","","null","","","","","main_T1_ITI","","","","",""
"","","","","","visual-search-circle","67","621268","0.0-14.0-0.0-1.26","5b04bbd4b98c410001adb8db","619531dcf66c91622fa1b861","619595d977b7c7c19383aefc","3244.599999997765","","s","true","[[529,492],[594,240],[436,33],[176,26],[9,225],[60,481],[292,599]]","false","7","main_T2_Trial","s","img/Fire_Up_Target.gif","[""img/Fire_Down_Distractor.gif"",""img/Fire_Down_Distractor.gif"",""img/Fire_Down_Distractor.gif"",""img/Fire_Down_Distractor.gif"",""img/Fire_Down_Distractor.gif"",""img/Fire_Down_Distractor.gif"",""img/Fire_Down_Distractor.gif"",""img/Fire_Down_Distractor.gif"",""img/Fire_Down_Distractor.gif"",""img/Fire_Down_Distractor.gif"",""img/Fire_Down_Distractor.gif"",""img/Fire_Down_Distractor.gif""]","7","targetUp_distractorsDown"
"","","","","","html-keyboard-response","68","621569","0.0-14.0-0.0-0.27","5b04bbd4b98c410001adb8db","619531dcf66c91622fa1b861","619595d977b7c7c19383aefc","null","","null","","","","","main_T1_ITI","","","","",""
"","","","","","visual-search-circle","69","625353","0.0-14.0-0.0-1.27","5b04bbd4b98c410001adb8db","619531dcf66c91622fa1b861","619595d977b7c7c19383aefc","2780.199999999255","","s","true","[[397,583],[583,202],[202,16],[16,397]]","false","4","main_T2_Trial","s","img/Fire_Down_Target.gif","[""img/Fire_Up_Distractor.gif"",""img/Fire_Up_Distractor.gif"",""img/Fire_Up_Distractor.gif"",""img/Fire_Up_Distractor.gif"",""img/Fire_Up_Distractor.gif"",""img/Fire_Up_Distractor.gif"",""img/Fire_Up_Distractor.gif"",""img/Fire_Up_Distractor.gif"",""img/Fire_Up_Distractor.gif"",""img/Fire_Up_Distractor.gif"",""img/Fire_Up_Distractor.gif"",""img/Fire_Up_Distractor.gif""]","4","targetDown_distractorsUp"
"","","","","","html-keyboard-response","70","625357","0.0-14.0-0.0-0.28","5b04bbd4b98c410001adb8db","619531dcf66c91622fa1b861","619595d977b7c7c19383aefc","null","","null","","","","","main_T1_ITI","","","","",""
"","","","","","visual-search-circle","71","628431","0.0-14.0-0.0-1.28","5b04bbd4b98c410001adb8db","619531dcf66c91622fa1b861","619595d977b7c7c19383aefc","2063","","s","true","[[576,417],[563,157],[352,4],[102,74],[0,314],[124,543],[380,588]]","false","7","main_T2_Trial","s","img/Fire_Up_Target.gif","[""img/Fire_Down_Distractor.gif"",""img/Fire_Down_Distractor.gif"",""img/Fire_Down_Distractor.gif"",""img/Fire_Down_Distractor.gif"",""img/Fire_Down_Distractor.gif"",""img/Fire_Down_Distractor.gif"",""img/Fire_Down_Distractor.gif"",""img/Fire_Down_Distractor.gif"",""img/Fire_Down_Distractor.gif"",""img/Fire_Down_Distractor.gif"",""img/Fire_Down_Distractor.gif"",""img/Fire_Down_Distractor.gif""]","7","targetUp_distractorsDown"
"","","","","","html-keyboard-response","72","628433","0.0-14.0-0.0-0.29","5b04bbd4b98c410001adb8db","619531dcf66c91622fa1b861","619595d977b7c7c19383aefc","null","","null","","","","","main_T1_ITI","","","","",""
"","","","","","visual-search-circle","73","632395","0.0-14.0-0.0-1.29","5b04bbd4b98c410001adb8db","619531dcf66c91622fa1b861","619595d977b7c7c19383aefc","2953.099999997765","","d","true","[[522,99],[177,25],[1,331],[237,593],[559,450]]","true","5","main_T2_Trial","d","img/Fire_Down_Target.gif","[""img/Fire_Up_Distractor.gif"",""img/Fire_Up_Distractor.gif"",""img/Fire_Up_Distractor.gif"",""img/Fire_Up_Distractor.gif"",""img/Fire_Up_Distractor.gif"",""img/Fire_Up_Distractor.gif"",""img/Fire_Up_Distractor.gif"",""img/Fire_Up_Distractor.gif"",""img/Fire_Up_Distractor.gif"",""img/Fire_Up_Distractor.gif"",""img/Fire_Up_Distractor.gif"",""img/Fire_Up_Distractor.gif""]","5","targetDown_distractorsUp"
"","","","","","html-keyboard-response","74","632400","0.0-14.0-0.0-0.30","5b04bbd4b98c410001adb8db","619531dcf66c91622fa1b861","619595d977b7c7c19383aefc","null","","null","","","","","main_T1_ITI","","","","",""
"","","","","","visual-search-circle","75","636783","0.0-14.0-0.0-1.30","5b04bbd4b98c410001adb8db","619531dcf66c91622fa1b861","619595d977b7c7c19383aefc","3365.39999999851","","d","true","[[519,504],[586,212],[367,7],[80,95],[13,387],[232,592]]","true","6","main_T2_Trial","d","img/Fire_Down_Target.gif","[""img/Fire_Up_Distractor.gif"",""img/Fire_Up_Distractor.gif"",""img/Fire_Up_Distractor.gif"",""img/Fire_Up_Distractor.gif"",""img/Fire_Up_Distractor.gif"",""img/Fire_Up_Distractor.gif"",""img/Fire_Up_Distractor.gif"",""img/Fire_Up_Distractor.gif"",""img/Fire_Up_Distractor.gif"",""img/Fire_Up_Distractor.gif"",""img/Fire_Up_Distractor.gif"",""img/Fire_Up_Distractor.gif""]","6","targetDown_distractorsUp"
"","","","","","html-keyboard-response","76","636801","0.0-14.0-0.0-0.31","5b04bbd4b98c410001adb8db","619531dcf66c91622fa1b861","619595d977b7c7c19383aefc","null","","null","","","","","main_T1_ITI","","","","",""
"","","","","","visual-search-circle","77","642171","0.0-14.0-0.0-1.31","5b04bbd4b98c410001adb8db","619531dcf66c91622fa1b861","619595d977b7c7c19383aefc","4366.199999999255","","d","true","[[284,599],[580,407],[488,66],[136,48],[10,377]]","true","5","main_T2_Trial","d","img/Fire_Up_Target.gif","[""img/Fire_Down_Distractor.gif"",""img/Fire_Down_Distractor.gif"",""img/Fire_Down_Distractor.gif"",""img/Fire_Down_Distractor.gif"",""img/Fire_Down_Distractor.gif"",""img/Fire_Down_Distractor.gif"",""img/Fire_Down_Distractor.gif"",""img/Fire_Down_Distractor.gif"",""img/Fire_Down_Distractor.gif"",""img/Fire_Down_Distractor.gif"",""img/Fire_Down_Distractor.gif"",""img/Fire_Down_Distractor.gif""]","5","targetUp_distractorsDown"
"","","","","","html-keyboard-response","78","642173","0.0-14.0-0.0-0.32","5b04bbd4b98c410001adb8db","619531dcf66c91622fa1b861","619595d977b7c7c19383aefc","null","","null","","","","","main_T1_ITI","","","","",""
"","","","","","visual-search-circle","79","646481","0.0-14.0-0.0-1.32","5b04bbd4b98c410001adb8db","619531dcf66c91622fa1b861","619595d977b7c7c19383aefc","3295.2000000029802","","d","true","[[551,463],[463,48],[48,136],[136,551]]","true","4","main_T2_Trial","d","img/Fire_Down_Target.gif","[""img/Fire_Up_Distractor.gif"",""img/Fire_Up_Distractor.gif"",""img/Fire_Up_Distractor.gif"",""img/Fire_Up_Distractor.gif"",""img/Fire_Up_Distractor.gif"",""img/Fire_Up_Distractor.gif"",""img/Fire_Up_Distractor.gif"",""img/Fire_Up_Distractor.gif"",""img/Fire_Up_Distractor.gif"",""img/Fire_Up_Distractor.gif"",""img/Fire_Up_Distractor.gif"",""img/Fire_Up_Distractor.gif""]","4","targetDown_distractorsUp"
"","","","","","html-keyboard-response","80","646484","0.0-14.0-0.0-0.33","5b04bbd4b98c410001adb8db","619531dcf66c91622fa1b861","619595d977b7c7c19383aefc","null","","null","","","","","main_T1_ITI","","","","",""
"","","","","","visual-search-circle","81","654564","0.0-14.0-0.0-1.33","5b04bbd4b98c410001adb8db","619531dcf66c91622fa1b861","619595d977b7c7c19383aefc","7071.699999999255","","s","false","[[492,70],[197,18],[4,247],[107,529],[402,581],[595,352]]","true","6","main_T2_Trial","d","img/Fire_Up_Target.gif","[""img/Fire_Down_Distractor.gif"",""img/Fire_Down_Distractor.gif"",""img/Fire_Down_Distractor.gif"",""img/Fire_Down_Distractor.gif"",""img/Fire_Down_Distractor.gif"",""img/Fire_Down_Distractor.gif"",""img/Fire_Down_Distractor.gif"",""img/Fire_Down_Distractor.gif"",""img/Fire_Down_Distractor.gif"",""img/Fire_Down_Distractor.gif"",""img/Fire_Down_Distractor.gif"",""img/Fire_Down_Distractor.gif""]","6","targetUp_distractorsDown"
"","","","","","html-keyboard-response","82","654599","0.0-14.0-0.0-0.34","5b04bbd4b98c410001adb8db","619531dcf66c91622fa1b861","619595d977b7c7c19383aefc","null","","null","","","","","main_T1_ITI","","","","",""
"","","","","","visual-search-circle","83","659066","0.0-14.0-0.0-1.34","5b04bbd4b98c410001adb8db","619531dcf66c91622fa1b861","619595d977b7c7c19383aefc","3457.2000000029802","","s","true","[[163,32],[3,346],[253,596],[567,436],[512,87]]","false","5","main_T2_Trial","s","img/Fire_Up_Target.gif","[""img/Fire_Down_Distractor.gif"",""img/Fire_Down_Distractor.gif"",""img/Fire_Down_Distractor.gif"",""img/Fire_Down_Distractor.gif"",""img/Fire_Down_Distractor.gif"",""img/Fire_Down_Distractor.gif"",""img/Fire_Down_Distractor.gif"",""img/Fire_Down_Distractor.gif"",""img/Fire_Down_Distractor.gif"",""img/Fire_Down_Distractor.gif"",""img/Fire_Down_Distractor.gif"",""img/Fire_Down_Distractor.gif""]","5","targetUp_distractorsDown"
"","","","","","html-keyboard-response","84","659070","0.0-14.0-0.0-0.35","5b04bbd4b98c410001adb8db","619531dcf66c91622fa1b861","619595d977b7c7c19383aefc","null","","null","","","","","main_T1_ITI","","","","",""
"","","","","","visual-search-circle","85","663645","0.0-14.0-0.0-1.35","5b04bbd4b98c410001adb8db","619531dcf66c91622fa1b861","619595d977b7c7c19383aefc","3564","","s","false","[[258,2],[2,341],[341,597],[597,258]]","true","4","main_T2_Trial","d","img/Fire_Up_Target.gif","[""img/Fire_Down_Distractor.gif"",""img/Fire_Down_Distractor.gif"",""img/Fire_Down_Distractor.gif"",""img/Fire_Down_Distractor.gif"",""img/Fire_Down_Distractor.gif"",""img/Fire_Down_Distractor.gif"",""img/Fire_Down_Distractor.gif"",""img/Fire_Down_Distractor.gif"",""img/Fire_Down_Distractor.gif"",""img/Fire_Down_Distractor.gif"",""img/Fire_Down_Distractor.gif"",""img/Fire_Down_Distractor.gif""]","4","targetUp_distractorsDown"
"","","","","","html-keyboard-response","86","663778","0.0-14.0-0.0-0.36","5b04bbd4b98c410001adb8db","619531dcf66c91622fa1b861","619595d977b7c7c19383aefc","null","","null","","","","","main_T1_ITI","","","","",""
"","","","","","visual-search-circle","87","667379","0.0-14.0-0.0-1.36","5b04bbd4b98c410001adb8db","619531dcf66c91622fa1b861","619595d977b7c7c19383aefc","2583","","s","true","[[127,54],[1,326],[173,571],[472,545],[598,273],[426,28]]","false","6","main_T2_Trial","s","img/Fire_Down_Target.gif","[""img/Fire_Up_Distractor.gif"",""img/Fire_Up_Distractor.gif"",""img/Fire_Up_Distractor.gif"",""img/Fire_Up_Distractor.gif"",""img/Fire_Up_Distractor.gif"",""img/Fire_Up_Distractor.gif"",""img/Fire_Up_Distractor.gif"",""img/Fire_Up_Distractor.gif"",""img/Fire_Up_Distractor.gif"",""img/Fire_Up_Distractor.gif"",""img/Fire_Up_Distractor.gif"",""img/Fire_Up_Distractor.gif""]","6","targetDown_distractorsUp"
"","","","","","html-keyboard-response","88","667394","0.0-14.0-0.0-0.37","5b04bbd4b98c410001adb8db","619531dcf66c91622fa1b861","619595d977b7c7c19383aefc","null","","null","","","","","main_T1_ITI","","","","",""
"","","","","","visual-search-circle","89","671227","0.0-14.0-0.0-1.37","5b04bbd4b98c410001adb8db","619531dcf66c91622fa1b861","619595d977b7c7c19383aefc","2825.2000000029802","","s","true","[[440,35],[35,159],[159,564],[564,440]]","false","4","main_T2_Trial","s","img/Fire_Down_Target.gif","[""img/Fire_Up_Distractor.gif"",""img/Fire_Up_Distractor.gif"",""img/Fire_Up_Distractor.gif"",""img/Fire_Up_Distractor.gif"",""img/Fire_Up_Distractor.gif"",""img/Fire_Up_Distractor.gif"",""img/Fire_Up_Distractor.gif"",""img/Fire_Up_Distractor.gif"",""img/Fire_Up_Distractor.gif"",""img/Fire_Up_Distractor.gif"",""img/Fire_Up_Distractor.gif"",""img/Fire_Up_Distractor.gif""]","4","targetDown_distractorsUp"
"","","","","","html-keyboard-response","90","671230","0.0-14.0-0.0-0.38","5b04bbd4b98c410001adb8db","619531dcf66c91622fa1b861","619595d977b7c7c19383aefc","null","","null","","","","","main_T1_ITI","","","","",""
"","","","","","visual-search-circle","91","674037","0.0-14.0-0.0-1.38","5b04bbd4b98c410001adb8db","619531dcf66c91622fa1b861","619595d977b7c7c19383aefc","1792.3999999985099","","s","true","[[367,7],[7,232],[232,592],[592,367]]","false","4","main_T2_Trial","s","img/Fire_Down_Target.gif","[""img/Fire_Up_Distractor.gif"",""img/Fire_Up_Distractor.gif"",""img/Fire_Up_Distractor.gif"",""img/Fire_Up_Distractor.gif"",""img/Fire_Up_Distractor.gif"",""img/Fire_Up_Distractor.gif"",""img/Fire_Up_Distractor.gif"",""img/Fire_Up_Distractor.gif"",""img/Fire_Up_Distractor.gif"",""img/Fire_Up_Distractor.gif"",""img/Fire_Up_Distractor.gif"",""img/Fire_Up_Distractor.gif""]","4","targetDown_distractorsUp"
"","","","","","html-keyboard-response","92","676423","0.0-14.0-0.0-0.39","5b04bbd4b98c410001adb8db","619531dcf66c91622fa1b861","619595d977b7c7c19383aefc","2385.10000000149","Wow! You've completed 40 out of 160 trials! </p> <p>  </p><p> Take a quick break, then press any key when you're ready to continue."," ","","","","","main_T1_ITI","","","","",""
"","","","","","visual-search-circle","93","683929","0.0-14.0-0.0-1.39","5b04bbd4b98c410001adb8db","619531dcf66c91622fa1b861","619595d977b7c7c19383aefc","6494","","d","true","[[19,192],[41,451],[257,596],[505,518],[598,275],[467,50],[209,13]]","true","7","main_T2_Trial","d","img/Fire_Up_Target.gif","[""img/Fire_Down_Distractor.gif"",""img/Fire_Down_Distractor.gif"",""img/Fire_Down_Distractor.gif"",""img/Fire_Down_Distractor.gif"",""img/Fire_Down_Distractor.gif"",""img/Fire_Down_Distractor.gif"",""img/Fire_Down_Distractor.gif"",""img/Fire_Down_Distractor.gif"",""img/Fire_Down_Distractor.gif"",""img/Fire_Down_Distractor.gif"",""img/Fire_Down_Distractor.gif"",""img/Fire_Down_Distractor.gif""]","7","targetUp_distractorsDown"
"","","","","","html-keyboard-response","94","683932","0.0-14.0-0.0-0.40","5b04bbd4b98c410001adb8db","619531dcf66c91622fa1b861","619595d977b7c7c19383aefc","null","","null","","","","","main_T1_ITI","","","","",""
"","","","","","visual-search-circle","95","689509","0.0-14.0-0.0-1.40","5b04bbd4b98c410001adb8db","619531dcf66c91622fa1b861","619595d977b7c7c19383aefc","4568.10000000149","","d","true","[[132,548],[548,467],[467,51],[51,132]]","true","4","main_T2_Trial","d","img/Fire_Down_Target.gif","[""img/Fire_Up_Distractor.gif"",""img/Fire_Up_Distractor.gif"",""img/Fire_Up_Distractor.gif"",""img/Fire_Up_Distractor.gif"",""img/Fire_Up_Distractor.gif"",""img/Fire_Up_Distractor.gif"",""img/Fire_Up_Distractor.gif"",""img/Fire_Up_Distractor.gif"",""img/Fire_Up_Distractor.gif"",""img/Fire_Up_Distractor.gif"",""img/Fire_Up_Distractor.gif"",""img/Fire_Up_Distractor.gif""]","4","targetDown_distractorsUp"
"","","","","","html-keyboard-response","96","689520","0.0-14.0-0.0-0.41","5b04bbd4b98c410001adb8db","619531dcf66c91622fa1b861","619595d977b7c7c19383aefc","null","","null","","","","","main_T1_ITI","","","","",""
"","","","","","visual-search-circle","97","693742","0.0-14.0-0.0-1.41","5b04bbd4b98c410001adb8db","619531dcf66c91622fa1b861","619595d977b7c7c19383aefc","3203.599999997765","","d","true","[[154,37],[5,357],[263,597],[571,426],[504,80]]","true","5","main_T2_Trial","d","img/Fire_Up_Target.gif","[""img/Fire_Down_Distractor.gif"",""img/Fire_Down_Distractor.gif"",""img/Fire_Down_Distractor.gif"",""img/Fire_Down_Distractor.gif"",""img/Fire_Down_Distractor.gif"",""img/Fire_Down_Distractor.gif"",""img/Fire_Down_Distractor.gif"",""img/Fire_Down_Distractor.gif"",""img/Fire_Down_Distractor.gif"",""img/Fire_Down_Distractor.gif"",""img/Fire_Down_Distractor.gif"",""img/Fire_Down_Distractor.gif""]","5","targetUp_distractorsDown"
"","","","","","html-keyboard-response","98","693760","0.0-14.0-0.0-0.42","5b04bbd4b98c410001adb8db","619531dcf66c91622fa1b861","619595d977b7c7c19383aefc","null","","null","","","","","main_T1_ITI","","","","",""
"","","","","","visual-search-circle","99","697052","0.0-14.0-0.0-1.42","5b04bbd4b98c410001adb8db","619531dcf66c91622fa1b861","619595d977b7c7c19383aefc","2285.199999999255","","s","false","[[60,480],[258,597],[480,539],[597,341],[539,119],[341,2],[119,60],[2,258]]","true","8","main_T2_Trial","d","img/Fire_Up_Target.gif","[""img/Fire_Down_Distractor.gif"",""img/Fire_Down_Distractor.gif"",""img/Fire_Down_Distractor.gif"",""img/Fire_Down_Distractor.gif"",""img/Fire_Down_Distractor.gif"",""img/Fire_Down_Distractor.gif"",""img/Fire_Down_Distractor.gif"",""img/Fire_Down_Distractor.gif"",""img/Fire_Down_Distractor.gif"",""img/Fire_Down_Distractor.gif"",""img/Fire_Down_Distractor.gif"",""img/Fire_Down_Distractor.gif""]","8","targetUp_distractorsDown"
"","","","","","html-keyboard-response","100","697058","0.0-14.0-0.0-0.43","5b04bbd4b98c410001adb8db","619531dcf66c91622fa1b861","619595d977b7c7c19383aefc","null","","null","","","","","main_T1_ITI","","","","",""
"","","","","","visual-search-circle","101","700978","0.0-14.0-0.0-1.43","5b04bbd4b98c410001adb8db","619531dcf66c91622fa1b861","619595d977b7c7c19383aefc","2900.5","","d","true","[[598,331],[533,111],[331,1],[111,66],[1,268],[66,488],[268,598],[488,533]]","true","8","main_T2_Trial","d","img/Fire_Down_Target.gif","[""img/Fire_Up_Distractor.gif"",""img/Fire_Up_Distractor.gif"",""img/Fire_Up_Distractor.gif"",""img/Fire_Up_Distractor.gif"",""img/Fire_Up_Distractor.gif"",""img/Fire_Up_Distractor.gif"",""img/Fire_Up_Distractor.gif"",""img/Fire_Up_Distractor.gif"",""img/Fire_Up_Distractor.gif"",""img/Fire_Up_Distractor.gif"",""img/Fire_Up_Distractor.gif"",""img/Fire_Up_Distractor.gif""]","8","targetDown_distractorsUp"
"","","","","","html-keyboard-response","102","700980","0.0-14.0-0.0-0.44","5b04bbd4b98c410001adb8db","619531dcf66c91622fa1b861","619595d977b7c7c19383aefc","null","","null","","","","","main_T1_ITI","","","","",""
"","","","","","visual-search-circle","103","703480","0.0-14.0-0.0-1.44","5b04bbd4b98c410001adb8db","619531dcf66c91622fa1b861","619595d977b7c7c19383aefc","1493.199999999255","","s","false","[[127,54],[0,281],[98,522],[348,596],[561,446],[577,186],[384,12]]","true","7","main_T2_Trial","d","img/Fire_Up_Target.gif","[""img/Fire_Down_Distractor.gif"",""img/Fire_Down_Distractor.gif"",""img/Fire_Down_Distractor.gif"",""img/Fire_Down_Distractor.gif"",""img/Fire_Down_Distractor.gif"",""img/Fire_Down_Distractor.gif"",""img/Fire_Down_Distractor.gif"",""img/Fire_Down_Distractor.gif"",""img/Fire_Down_Distractor.gif"",""img/Fire_Down_Distractor.gif"",""img/Fire_Down_Distractor.gif"",""img/Fire_Down_Distractor.gif""]","7","targetUp_distractorsDown"
"","","","","","html-keyboard-response","104","703483","0.0-14.0-0.0-0.45","5b04bbd4b98c410001adb8db","619531dcf66c91622fa1b861","619595d977b7c7c19383aefc","null","","null","","","","","main_T1_ITI","","","","",""
"","","","","","visual-search-circle","105","706640","0.0-14.0-0.0-1.45","5b04bbd4b98c410001adb8db","619531dcf66c91622fa1b861","619595d977b7c7c19383aefc","2149.5","","s","true","[[445,37],[145,42],[0,305],[154,562],[454,557],[599,294]]","false","6","main_T2_Trial","s","img/Fire_Down_Target.gif","[""img/Fire_Up_Distractor.gif"",""img/Fire_Up_Distractor.gif"",""img/Fire_Up_Distractor.gif"",""img/Fire_Up_Distractor.gif"",""img/Fire_Up_Distractor.gif"",""img/Fire_Up_Distractor.gif"",""img/Fire_Up_Distractor.gif"",""img/Fire_Up_Distractor.gif"",""img/Fire_Up_Distractor.gif"",""img/Fire_Up_Distractor.gif"",""img/Fire_Up_Distractor.gif"",""img/Fire_Up_Distractor.gif""]","6","targetDown_distractorsUp"
"","","","","","html-keyboard-response","106","706642","0.0-14.0-0.0-0.46","5b04bbd4b98c410001adb8db","619531dcf66c91622fa1b861","619595d977b7c7c19383aefc","null","","null","","","","","main_T1_ITI","","","","",""
"","","","","","visual-search-circle","107","709565","0.0-14.0-0.0-1.46","5b04bbd4b98c410001adb8db","619531dcf66c91622fa1b861","619595d977b7c7c19383aefc","1917.699999999255","","d","true","[[598,273],[465,50],[208,14],[19,193],[42,453],[258,597],[506,517]]","true","7","main_T2_Trial","d","img/Fire_Down_Target.gif","[""img/Fire_Up_Distractor.gif"",""img/Fire_Up_Distractor.gif"",""img/Fire_Up_Distractor.gif"",""img/Fire_Up_Distractor.gif"",""img/Fire_Up_Distractor.gif"",""img/Fire_Up_Distractor.gif"",""img/Fire_Up_Distractor.gif"",""img/Fire_Up_Distractor.gif"",""img/Fire_Up_Distractor.gif"",""img/Fire_Up_Distractor.gif"",""img/Fire_Up_Distractor.gif"",""img/Fire_Up_Distractor.gif""]","7","targetDown_distractorsUp"
"","","","","","html-keyboard-response","108","709567","0.0-14.0-0.0-0.47","5b04bbd4b98c410001adb8db","619531dcf66c91622fa1b861","619595d977b7c7c19383aefc","null","","null","","","","","main_T1_ITI","","","","",""
"","","","","","visual-search-circle","109","712220","0.0-14.0-0.0-1.47","5b04bbd4b98c410001adb8db","619531dcf66c91622fa1b861","619595d977b7c7c19383aefc","1646.199999999255","","d","true","[[392,14],[99,77],[6,362],[207,585],[500,522],[593,237]]","true","6","main_T2_Trial","d","img/Fire_Up_Target.gif","[""img/Fire_Down_Distractor.gif"",""img/Fire_Down_Distractor.gif"",""img/Fire_Down_Distractor.gif"",""img/Fire_Down_Distractor.gif"",""img/Fire_Down_Distractor.gif"",""img/Fire_Down_Distractor.gif"",""img/Fire_Down_Distractor.gif"",""img/Fire_Down_Distractor.gif"",""img/Fire_Down_Distractor.gif"",""img/Fire_Down_Distractor.gif"",""img/Fire_Down_Distractor.gif"",""img/Fire_Down_Distractor.gif""]","6","targetUp_distractorsDown"
"","","","","","html-keyboard-response","110","712227","0.0-14.0-0.0-0.48","5b04bbd4b98c410001adb8db","619531dcf66c91622fa1b861","619595d977b7c7c19383aefc","null","","null","","","","","main_T1_ITI","","","","",""
"","","","","","visual-search-circle","111","715722","0.0-14.0-0.0-1.48","5b04bbd4b98c410001adb8db","619531dcf66c91622fa1b861","619595d977b7c7c19383aefc","2487.5","","d","true","[[346,3],[66,111],[19,407],[253,596],[533,488],[580,192]]","true","6","main_T2_Trial","d","img/Fire_Down_Target.gif","[""img/Fire_Up_Distractor.gif"",""img/Fire_Up_Distractor.gif"",""img/Fire_Up_Distractor.gif"",""img/Fire_Up_Distractor.gif"",""img/Fire_Up_Distractor.gif"",""img/Fire_Up_Distractor.gif"",""img/Fire_Up_Distractor.gif"",""img/Fire_Up_Distractor.gif"",""img/Fire_Up_Distractor.gif"",""img/Fire_Up_Distractor.gif"",""img/Fire_Up_Distractor.gif"",""img/Fire_Up_Distractor.gif""]","6","targetDown_distractorsUp"
"","","","","","html-keyboard-response","112","715733","0.0-14.0-0.0-0.49","5b04bbd4b98c410001adb8db","619531dcf66c91622fa1b861","619595d977b7c7c19383aefc","null","","null","","","","","main_T1_ITI","","","","",""
"","","","","","visual-search-circle","113","719879","0.0-14.0-0.0-1.49","5b04bbd4b98c410001adb8db","619531dcf66c91622fa1b861","619595d977b7c7c19383aefc","3126.699999999255","","d","true","[[227,8],[42,145],[8,372],[145,557],[372,591],[557,454],[591,227],[454,42]]","true","8","main_T2_Trial","d","img/Fire_Down_Target.gif","[""img/Fire_Up_Distractor.gif"",""img/Fire_Up_Distractor.gif"",""img/Fire_Up_Distractor.gif"",""img/Fire_Up_Distractor.gif"",""img/Fire_Up_Distractor.gif"",""img/Fire_Up_Distractor.gif"",""img/Fire_Up_Distractor.gif"",""img/Fire_Up_Distractor.gif"",""img/Fire_Up_Distractor.gif"",""img/Fire_Up_Distractor.gif"",""img/Fire_Up_Distractor.gif"",""img/Fire_Up_Distractor.gif""]","8","targetDown_distractorsUp"
"","","","","","html-keyboard-response","114","719881","0.0-14.0-0.0-0.50","5b04bbd4b98c410001adb8db","619531dcf66c91622fa1b861","619595d977b7c7c19383aefc","null","","null","","","","","main_T1_ITI","","","","",""
"","","","","","visual-search-circle","115","722651","0.0-14.0-0.0-1.50","5b04bbd4b98c410001adb8db","619531dcf66c91622fa1b861","619595d977b7c7c19383aefc","1762.5","","s","true","[[5,357],[263,597],[571,426],[504,80],[154,37]]","false","5","main_T2_Trial","s","img/Fire_Down_Target.gif","[""img/Fire_Up_Distractor.gif"",""img/Fire_Up_Distractor.gif"",""img/Fire_Up_Distractor.gif"",""img/Fire_Up_Distractor.gif"",""img/Fire_Up_Distractor.gif"",""img/Fire_Up_Distractor.gif"",""img/Fire_Up_Distractor.gif"",""img/Fire_Up_Distractor.gif"",""img/Fire_Up_Distractor.gif"",""img/Fire_Up_Distractor.gif"",""img/Fire_Up_Distractor.gif"",""img/Fire_Up_Distractor.gif""]","5","targetDown_distractorsUp"
"","","","","","html-keyboard-response","116","722653","0.0-14.0-0.0-0.51","5b04bbd4b98c410001adb8db","619531dcf66c91622fa1b861","619595d977b7c7c19383aefc","null","","null","","","","","main_T1_ITI","","","","",""
"","","","","","visual-search-circle","117","727500","0.0-14.0-0.0-1.51","5b04bbd4b98c410001adb8db","619531dcf66c91622fa1b861","619595d977b7c7c19383aefc","3836.300000000745","","s","true","[[564,159],[310,0],[45,141],[35,440],[289,599],[554,458]]","false","6","main_T2_Trial","s","img/Fire_Down_Target.gif","[""img/Fire_Up_Distractor.gif"",""img/Fire_Up_Distractor.gif"",""img/Fire_Up_Distractor.gif"",""img/Fire_Up_Distractor.gif"",""img/Fire_Up_Distractor.gif"",""img/Fire_Up_Distractor.gif"",""img/Fire_Up_Distractor.gif"",""img/Fire_Up_Distractor.gif"",""img/Fire_Up_Distractor.gif"",""img/Fire_Up_Distractor.gif"",""img/Fire_Up_Distractor.gif"",""img/Fire_Up_Distractor.gif""]","6","targetDown_distractorsUp"
"","","","","","html-keyboard-response","118","727510","0.0-14.0-0.0-0.52","5b04bbd4b98c410001adb8db","619531dcf66c91622fa1b861","619595d977b7c7c19383aefc","null","","null","","","","","main_T1_ITI","","","","",""
"","","","","","visual-search-circle","119","730771","0.0-14.0-0.0-1.52","5b04bbd4b98c410001adb8db","619531dcf66c91622fa1b861","619595d977b7c7c19383aefc","2254.5","","d","true","[[0,315],[315,599],[599,284],[284,0]]","true","4","main_T2_Trial","d","img/Fire_Down_Target.gif","[""img/Fire_Up_Distractor.gif"",""img/Fire_Up_Distractor.gif"",""img/Fire_Up_Distractor.gif"",""img/Fire_Up_Distractor.gif"",""img/Fire_Up_Distractor.gif"",""img/Fire_Up_Distractor.gif"",""img/Fire_Up_Distractor.gif"",""img/Fire_Up_Distractor.gif"",""img/Fire_Up_Distractor.gif"",""img/Fire_Up_Distractor.gif"",""img/Fire_Up_Distractor.gif"",""img/Fire_Up_Distractor.gif""]","4","targetDown_distractorsUp"
"","","","","","html-keyboard-response","120","730774","0.0-14.0-0.0-0.53","5b04bbd4b98c410001adb8db","619531dcf66c91622fa1b861","619595d977b7c7c19383aefc","null","","null","","","","","main_T1_ITI","","","","",""
"","","","","","visual-search-circle","121","733889","0.0-14.0-0.0-1.53","5b04bbd4b98c410001adb8db","619531dcf66c91622fa1b861","619595d977b7c7c19383aefc","2094","","d","true","[[512,87],[87,87],[87,512],[512,512]]","true","4","main_T2_Trial","d","img/Fire_Down_Target.gif","[""img/Fire_Up_Distractor.gif"",""img/Fire_Up_Distractor.gif"",""img/Fire_Up_Distractor.gif"",""img/Fire_Up_Distractor.gif"",""img/Fire_Up_Distractor.gif"",""img/Fire_Up_Distractor.gif"",""img/Fire_Up_Distractor.gif"",""img/Fire_Up_Distractor.gif"",""img/Fire_Up_Distractor.gif"",""img/Fire_Up_Distractor.gif"",""img/Fire_Up_Distractor.gif"",""img/Fire_Up_Distractor.gif""]","4","targetDown_distractorsUp"
"","","","","","html-keyboard-response","122","733893","0.0-14.0-0.0-0.54","5b04bbd4b98c410001adb8db","619531dcf66c91622fa1b861","619595d977b7c7c19383aefc","null","","null","","","","","main_T1_ITI","","","","",""
"","","","","","visual-search-circle","123","736935","0.0-14.0-0.0-1.54","5b04bbd4b98c410001adb8db","619531dcf66c91622fa1b861","619595d977b7c7c19383aefc","2032.3999999985099","","d","true","[[268,1],[25,177],[57,476],[331,598],[574,422],[542,123]]","true","6","main_T2_Trial","d","img/Fire_Down_Target.gif","[""img/Fire_Up_Distractor.gif"",""img/Fire_Up_Distractor.gif"",""img/Fire_Up_Distractor.gif"",""img/Fire_Up_Distractor.gif"",""img/Fire_Up_Distractor.gif"",""img/Fire_Up_Distractor.gif"",""img/Fire_Up_Distractor.gif"",""img/Fire_Up_Distractor.gif"",""img/Fire_Up_Distractor.gif"",""img/Fire_Up_Distractor.gif"",""img/Fire_Up_Distractor.gif"",""img/Fire_Up_Distractor.gif""]","6","targetDown_distractorsUp"
"","","","","","html-keyboard-response","124","736973","0.0-14.0-0.0-0.55","5b04bbd4b98c410001adb8db","619531dcf66c91622fa1b861","619595d977b7c7c19383aefc","null","","null","","","","","main_T1_ITI","","","","",""
"","","","","","visual-search-circle","125","739701","0.0-14.0-0.0-1.55","5b04bbd4b98c410001adb8db","619531dcf66c91622fa1b861","619595d977b7c7c19383aefc","1713.699999999255","","d","true","[[352,4],[101,75],[0,314],[124,543],[381,588],[576,416],[563,156]]","true","7","main_T2_Trial","d","img/Fire_Down_Target.gif","[""img/Fire_Up_Distractor.gif"",""img/Fire_Up_Distractor.gif"",""img/Fire_Up_Distractor.gif"",""img/Fire_Up_Distractor.gif"",""img/Fire_Up_Distractor.gif"",""img/Fire_Up_Distractor.gif"",""img/Fire_Up_Distractor.gif"",""img/Fire_Up_Distractor.gif"",""img/Fire_Up_Distractor.gif"",""img/Fire_Up_Distractor.gif"",""img/Fire_Up_Distractor.gif"",""img/Fire_Up_Distractor.gif""]","7","targetDown_distractorsUp"
"","","","","","html-keyboard-response","126","739722","0.0-14.0-0.0-0.56","5b04bbd4b98c410001adb8db","619531dcf66c91622fa1b861","619595d977b7c7c19383aefc","null","","null","","","","","main_T1_ITI","","","","",""
"","","","","","visual-search-circle","127","743126","0.0-14.0-0.0-1.56","5b04bbd4b98c410001adb8db","619531dcf66c91622fa1b861","619595d977b7c7c19383aefc","2395.60000000149","","s","true","[[562,445],[445,37],[37,154],[154,562]]","false","4","main_T2_Trial","s","img/Fire_Down_Target.gif","[""img/Fire_Up_Distractor.gif"",""img/Fire_Up_Distractor.gif"",""img/Fire_Up_Distractor.gif"",""img/Fire_Up_Distractor.gif"",""img/Fire_Up_Distractor.gif"",""img/Fire_Up_Distractor.gif"",""img/Fire_Up_Distractor.gif"",""img/Fire_Up_Distractor.gif"",""img/Fire_Up_Distractor.gif"",""img/Fire_Up_Distractor.gif"",""img/Fire_Up_Distractor.gif"",""img/Fire_Up_Distractor.gif""]","4","targetDown_distractorsUp"
"","","","","","html-keyboard-response","128","743128","0.0-14.0-0.0-0.57","5b04bbd4b98c410001adb8db","619531dcf66c91622fa1b861","619595d977b7c7c19383aefc","null","","null","","","","","main_T1_ITI","","","","",""
"","","","","","visual-search-circle","129","747551","0.0-14.0-0.0-1.57","5b04bbd4b98c410001adb8db","619531dcf66c91622fa1b861","619595d977b7c7c19383aefc","3403.400000002235","","d","true","[[2,263],[119,539],[417,576],[597,336],[480,60],[182,23]]","true","6","main_T2_Trial","d","img/Fire_Down_Target.gif","[""img/Fire_Up_Distractor.gif"",""img/Fire_Up_Distractor.gif"",""img/Fire_Up_Distractor.gif"",""img/Fire_Up_Distractor.gif"",""img/Fire_Up_Distractor.gif"",""img/Fire_Up_Distractor.gif"",""img/Fire_Up_Distractor.gif"",""img/Fire_Up_Distractor.gif"",""img/Fire_Up_Distractor.gif"",""img/Fire_Up_Distractor.gif"",""img/Fire_Up_Distractor.gif"",""img/Fire_Up_Distractor.gif""]","6","targetDown_distractorsUp"
"","","","","","html-keyboard-response","130","747564","0.0-14.0-0.0-0.58","5b04bbd4b98c410001adb8db","619531dcf66c91622fa1b861","619595d977b7c7c19383aefc","null","","null","","","","","main_T1_ITI","","","","",""
"","","","","","visual-search-circle","131","751946","0.0-14.0-0.0-1.58","5b04bbd4b98c410001adb8db","619531dcf66c91622fa1b861","619595d977b7c7c19383aefc","3365.300000000745","","d","true","[[18,402],[173,571],[402,581],[571,426],[581,197],[426,28],[197,18],[28,173]]","true","8","main_T2_Trial","d","img/Fire_Up_Target.gif","[""img/Fire_Down_Distractor.gif"",""img/Fire_Down_Distractor.gif"",""img/Fire_Down_Distractor.gif"",""img/Fire_Down_Distractor.gif"",""img/Fire_Down_Distractor.gif"",""img/Fire_Down_Distractor.gif"",""img/Fire_Down_Distractor.gif"",""img/Fire_Down_Distractor.gif"",""img/Fire_Down_Distractor.gif"",""img/Fire_Down_Distractor.gif"",""img/Fire_Down_Distractor.gif"",""img/Fire_Down_Distractor.gif""]","8","targetUp_distractorsDown"
"","","","","","html-keyboard-response","132","867867","0.0-14.0-0.0-0.59","5b04bbd4b98c410001adb8db","619531dcf66c91622fa1b861","619595d977b7c7c19383aefc","115920.60000000149","Wow! You've completed 60 out of 160 trials! </p> <p>  </p><p> Take a quick break, then press any key when you're ready to continue."," ","","","","","main_T1_ITI","","","","",""
"","","","","","visual-search-circle","133","871177","0.0-14.0-0.0-1.59","5b04bbd4b98c410001adb8db","619531dcf66c91622fa1b861","619595d977b7c7c19383aefc","2294.60000000149","","s","true","[[539,480],[597,258],[480,60],[258,2],[60,119],[2,341],[119,539],[341,597]]","false","8","main_T2_Trial","s","img/Fire_Down_Target.gif","[""img/Fire_Up_Distractor.gif"",""img/Fire_Up_Distractor.gif"",""img/Fire_Up_Distractor.gif"",""img/Fire_Up_Distractor.gif"",""img/Fire_Up_Distractor.gif"",""img/Fire_Up_Distractor.gif"",""img/Fire_Up_Distractor.gif"",""img/Fire_Up_Distractor.gif"",""img/Fire_Up_Distractor.gif"",""img/Fire_Up_Distractor.gif"",""img/Fire_Up_Distractor.gif"",""img/Fire_Up_Distractor.gif""]","8","targetDown_distractorsUp"
"","","","","","html-keyboard-response","134","871179","0.0-14.0-0.0-0.60","5b04bbd4b98c410001adb8db","619531dcf66c91622fa1b861","619595d977b7c7c19383aefc","null","","null","","","","","main_T1_ITI","","","","",""
"","","","","","visual-search-circle","135","873679","0.0-14.0-0.0-1.60","5b04bbd4b98c410001adb8db","619531dcf66c91622fa1b861","619595d977b7c7c19383aefc","1496","","s","true","[[331,598],[593,362],[449,40],[99,77],[25,422]]","false","5","main_T2_Trial","s","img/Fire_Up_Target.gif","[""img/Fire_Down_Distractor.gif"",""img/Fire_Down_Distractor.gif"",""img/Fire_Down_Distractor.gif"",""img/Fire_Down_Distractor.gif"",""img/Fire_Down_Distractor.gif"",""img/Fire_Down_Distractor.gif"",""img/Fire_Down_Distractor.gif"",""img/Fire_Down_Distractor.gif"",""img/Fire_Down_Distractor.gif"",""img/Fire_Down_Distractor.gif"",""img/Fire_Down_Distractor.gif"",""img/Fire_Down_Distractor.gif""]","5","targetUp_distractorsDown"
"","","","","","html-keyboard-response","136","873680","0.0-14.0-0.0-0.61","5b04bbd4b98c410001adb8db","619531dcf66c91622fa1b861","619595d977b7c7c19383aefc","null","","null","","","","","main_T1_ITI","","","","",""
"","","","","","visual-search-circle","137","878224","0.0-14.0-0.0-1.61","5b04bbd4b98c410001adb8db","619531dcf66c91622fa1b861","619595d977b7c7c19383aefc","3526.5","","d","true","[[515,91],[271,1],[48,135],[15,394],[195,581],[455,556],[597,338]]","true","7","main_T2_Trial","d","img/Fire_Up_Target.gif","[""img/Fire_Down_Distractor.gif"",""img/Fire_Down_Distractor.gif"",""img/Fire_Down_Distractor.gif"",""img/Fire_Down_Distractor.gif"",""img/Fire_Down_Distractor.gif"",""img/Fire_Down_Distractor.gif"",""img/Fire_Down_Distractor.gif"",""img/Fire_Down_Distractor.gif"",""img/Fire_Down_Distractor.gif"",""img/Fire_Down_Distractor.gif"",""img/Fire_Down_Distractor.gif"",""img/Fire_Down_Distractor.gif""]","7","targetUp_distractorsDown"
"","","","","","html-keyboard-response","138","878245","0.0-14.0-0.0-0.62","5b04bbd4b98c410001adb8db","619531dcf66c91622fa1b861","619595d977b7c7c19383aefc","null","","null","","","","","main_T1_ITI","","","","",""
"","","","","","visual-search-circle","139","880914","0.0-14.0-0.0-1.62","5b04bbd4b98c410001adb8db","619531dcf66c91622fa1b861","619595d977b7c7c19383aefc","1666.300000000745","","s","true","[[352,595],[595,247],[247,4],[4,352]]","false","4","main_T2_Trial","s","img/Fire_Up_Target.gif","[""img/Fire_Down_Distractor.gif"",""img/Fire_Down_Distractor.gif"",""img/Fire_Down_Distractor.gif"",""img/Fire_Down_Distractor.gif"",""img/Fire_Down_Distractor.gif"",""img/Fire_Down_Distractor.gif"",""img/Fire_Down_Distractor.gif"",""img/Fire_Down_Distractor.gif"",""img/Fire_Down_Distractor.gif"",""img/Fire_Down_Distractor.gif"",""img/Fire_Down_Distractor.gif"",""img/Fire_Down_Distractor.gif""]","4","targetUp_distractorsDown"
"","","","","","html-keyboard-response","140","880917","0.0-14.0-0.0-0.63","5b04bbd4b98c410001adb8db","619531dcf66c91622fa1b861","619595d977b7c7c19383aefc","null","","null","","","","","main_T1_ITI","","","","",""
"","","","","","visual-search-circle","141","884340","0.0-14.0-0.0-1.63","5b04bbd4b98c410001adb8db","619531dcf66c91622fa1b861","619595d977b7c7c19383aefc","2412.5","","d","true","[[0,310],[121,540],[376,589],[574,420],[565,160],[356,5],[104,72]]","true","7","main_T2_Trial","d","img/Fire_Down_Target.gif","[""img/Fire_Up_Distractor.gif"",""img/Fire_Up_Distractor.gif"",""img/Fire_Up_Distractor.gif"",""img/Fire_Up_Distractor.gif"",""img/Fire_Up_Distractor.gif"",""img/Fire_Up_Distractor.gif"",""img/Fire_Up_Distractor.gif"",""img/Fire_Up_Distractor.gif"",""img/Fire_Up_Distractor.gif"",""img/Fire_Up_Distractor.gif"",""img/Fire_Up_Distractor.gif"",""img/Fire_Up_Distractor.gif""]","7","targetDown_distractorsUp"
"","","","","","html-keyboard-response","142","884345","0.0-14.0-0.0-0.64","5b04bbd4b98c410001adb8db","619531dcf66c91622fa1b861","619595d977b7c7c19383aefc","null","","null","","","","","main_T1_ITI","","","","",""
"","","","","","visual-search-circle","143","888498","0.0-14.0-0.0-1.64","5b04bbd4b98c410001adb8db","619531dcf66c91622fa1b861","619595d977b7c7c19383aefc","3144.699999999255","","d","true","[[163,567],[463,551],[599,284],[436,32],[136,48],[0,315]]","true","6","main_T2_Trial","d","img/Fire_Down_Target.gif","[""img/Fire_Up_Distractor.gif"",""img/Fire_Up_Distractor.gif"",""img/Fire_Up_Distractor.gif"",""img/Fire_Up_Distractor.gif"",""img/Fire_Up_Distractor.gif"",""img/Fire_Up_Distractor.gif"",""img/Fire_Up_Distractor.gif"",""img/Fire_Up_Distractor.gif"",""img/Fire_Up_Distractor.gif"",""img/Fire_Up_Distractor.gif"",""img/Fire_Up_Distractor.gif"",""img/Fire_Up_Distractor.gif""]","6","targetDown_distractorsUp"
"","","","","","html-keyboard-response","144","888505","0.0-14.0-0.0-0.65","5b04bbd4b98c410001adb8db","619531dcf66c91622fa1b861","619595d977b7c7c19383aefc","null","","null","","","","","main_T1_ITI","","","","",""
"","","","","","visual-search-circle","145","893077","0.0-14.0-0.0-1.65","5b04bbd4b98c410001adb8db","619531dcf66c91622fa1b861","619595d977b7c7c19383aefc","3553.5","","s","false","[[73,103],[16,397],[242,594],[526,496],[583,202],[357,5]]","true","6","main_T2_Trial","d","img/Fire_Up_Target.gif","[""img/Fire_Down_Distractor.gif"",""img/Fire_Down_Distractor.gif"",""img/Fire_Down_Distractor.gif"",""img/Fire_Down_Distractor.gif"",""img/Fire_Down_Distractor.gif"",""img/Fire_Down_Distractor.gif"",""img/Fire_Down_Distractor.gif"",""img/Fire_Down_Distractor.gif"",""img/Fire_Down_Distractor.gif"",""img/Fire_Down_Distractor.gif"",""img/Fire_Down_Distractor.gif"",""img/Fire_Down_Distractor.gif""]","6","targetUp_distractorsDown"
"","","","","","html-keyboard-response","146","893107","0.0-14.0-0.0-0.66","5b04bbd4b98c410001adb8db","619531dcf66c91622fa1b861","619595d977b7c7c19383aefc","null","","null","","","","","main_T1_ITI","","","","",""
"","","","","","visual-search-circle","147","895637","0.0-14.0-0.0-1.66","5b04bbd4b98c410001adb8db","619531dcf66c91622fa1b861","619595d977b7c7c19383aefc","1518","","s","true","[[571,173],[263,2],[5,242],[154,562],[504,519]]","false","5","main_T2_Trial","s","img/Fire_Up_Target.gif","[""img/Fire_Down_Distractor.gif"",""img/Fire_Down_Distractor.gif"",""img/Fire_Down_Distractor.gif"",""img/Fire_Down_Distractor.gif"",""img/Fire_Down_Distractor.gif"",""img/Fire_Down_Distractor.gif"",""img/Fire_Down_Distractor.gif"",""img/Fire_Down_Distractor.gif"",""img/Fire_Down_Distractor.gif"",""img/Fire_Down_Distractor.gif"",""img/Fire_Down_Distractor.gif"",""img/Fire_Down_Distractor.gif""]","5","targetUp_distractorsDown"
"","","","","","html-keyboard-response","148","895639","0.0-14.0-0.0-0.67","5b04bbd4b98c410001adb8db","619531dcf66c91622fa1b861","619595d977b7c7c19383aefc","null","","null","","","","","main_T1_ITI","","","","",""
"","","","","","visual-search-circle","149","898008","0.0-14.0-0.0-1.67","5b04bbd4b98c410001adb8db","619531dcf66c91622fa1b861","619595d977b7c7c19383aefc","1357.800000000745","","d","true","[[382,588],[577,415],[562,155],[350,4],[100,76],[0,316],[126,544]]","true","7","main_T2_Trial","d","img/Fire_Down_Target.gif","[""img/Fire_Up_Distractor.gif"",""img/Fire_Up_Distractor.gif"",""img/Fire_Up_Distractor.gif"",""img/Fire_Up_Distractor.gif"",""img/Fire_Up_Distractor.gif"",""img/Fire_Up_Distractor.gif"",""img/Fire_Up_Distractor.gif"",""img/Fire_Up_Distractor.gif"",""img/Fire_Up_Distractor.gif"",""img/Fire_Up_Distractor.gif"",""img/Fire_Up_Distractor.gif"",""img/Fire_Up_Distractor.gif""]","7","targetDown_distractorsUp"
"","","","","","html-keyboard-response","150","898009","0.0-14.0-0.0-0.68","5b04bbd4b98c410001adb8db","619531dcf66c91622fa1b861","619595d977b7c7c19383aefc","null","","null","","","","","main_T1_ITI","","","","",""
"","","","","","visual-search-circle","151","900009","0.0-14.0-0.0-1.68","5b04bbd4b98c410001adb8db","619531dcf66c91622fa1b861","619595d977b7c7c19383aefc","989.9000000022352","","s","true","[[586,212],[367,7],[80,95],[13,387],[232,592],[519,504]]","false","6","main_T2_Trial","s","img/Fire_Up_Target.gif","[""img/Fire_Down_Distractor.gif"",""img/Fire_Down_Distractor.gif"",""img/Fire_Down_Distractor.gif"",""img/Fire_Down_Distractor.gif"",""img/Fire_Down_Distractor.gif"",""img/Fire_Down_Distractor.gif"",""img/Fire_Down_Distractor.gif"",""img/Fire_Down_Distractor.gif"",""img/Fire_Down_Distractor.gif"",""img/Fire_Down_Distractor.gif"",""img/Fire_Down_Distractor.gif"",""img/Fire_Down_Distractor.gif""]","6","targetUp_distractorsDown"
"","","","","","html-keyboard-response","152","900011","0.0-14.0-0.0-0.69","5b04bbd4b98c410001adb8db","619531dcf66c91622fa1b861","619595d977b7c7c19383aefc","null","","null","","","","","main_T1_ITI","","","","",""
"","","","","","visual-search-circle","153","901856","0.0-14.0-0.0-1.69","5b04bbd4b98c410001adb8db","619531dcf66c91622fa1b861","619595d977b7c7c19383aefc","838.4000000022352","","s","true","[[492,70],[197,18],[4,247],[107,529],[402,581],[595,352]]","false","6","main_T2_Trial","s","img/Fire_Up_Target.gif","[""img/Fire_Down_Distractor.gif"",""img/Fire_Down_Distractor.gif"",""img/Fire_Down_Distractor.gif"",""img/Fire_Down_Distractor.gif"",""img/Fire_Down_Distractor.gif"",""img/Fire_Down_Distractor.gif"",""img/Fire_Down_Distractor.gif"",""img/Fire_Down_Distractor.gif"",""img/Fire_Down_Distractor.gif"",""img/Fire_Down_Distractor.gif"",""img/Fire_Down_Distractor.gif"",""img/Fire_Down_Distractor.gif""]","6","targetUp_distractorsDown"
"","","","","","html-keyboard-response","154","901858","0.0-14.0-0.0-0.70","5b04bbd4b98c410001adb8db","619531dcf66c91622fa1b861","619595d977b7c7c19383aefc","null","","null","","","","","main_T1_ITI","","","","",""
"","","","","","visual-search-circle","155","903742","0.0-14.0-0.0-1.70","5b04bbd4b98c410001adb8db","619531dcf66c91622fa1b861","619595d977b7c7c19383aefc","869.6000000014901","","s","true","[[192,580],[580,407],[407,19],[19,192]]","false","4","main_T2_Trial","s","img/Fire_Up_Target.gif","[""img/Fire_Down_Distractor.gif"",""img/Fire_Down_Distractor.gif"",""img/Fire_Down_Distractor.gif"",""img/Fire_Down_Distractor.gif"",""img/Fire_Down_Distractor.gif"",""img/Fire_Down_Distractor.gif"",""img/Fire_Down_Distractor.gif"",""img/Fire_Down_Distractor.gif"",""img/Fire_Down_Distractor.gif"",""img/Fire_Down_Distractor.gif"",""img/Fire_Down_Distractor.gif"",""img/Fire_Down_Distractor.gif""]","4","targetUp_distractorsDown"
"","","","","","html-keyboard-response","156","903744","0.0-14.0-0.0-0.71","5b04bbd4b98c410001adb8db","619531dcf66c91622fa1b861","619595d977b7c7c19383aefc","null","","null","","","","","main_T1_ITI","","","","",""
"","","","","","visual-search-circle","157","906249","0.0-14.0-0.0-1.71","5b04bbd4b98c410001adb8db","619531dcf66c91622fa1b861","619595d977b7c7c19383aefc","1483.699999999255","","s","true","[[458,554],[592,367],[554,141],[367,7],[141,45],[7,232],[45,458],[232,592]]","false","8","main_T2_Trial","s","img/Fire_Up_Target.gif","[""img/Fire_Down_Distractor.gif"",""img/Fire_Down_Distractor.gif"",""img/Fire_Down_Distractor.gif"",""img/Fire_Down_Distractor.gif"",""img/Fire_Down_Distractor.gif"",""img/Fire_Down_Distractor.gif"",""img/Fire_Down_Distractor.gif"",""img/Fire_Down_Distractor.gif"",""img/Fire_Down_Distractor.gif"",""img/Fire_Down_Distractor.gif"",""img/Fire_Down_Distractor.gif"",""img/Fire_Down_Distractor.gif""]","8","targetUp_distractorsDown"
"","","","","","html-keyboard-response","158","906251","0.0-14.0-0.0-0.72","5b04bbd4b98c410001adb8db","619531dcf66c91622fa1b861","619595d977b7c7c19383aefc","null","","null","","","","","main_T1_ITI","","","","",""
"","","","","","visual-search-circle","159","913683","0.0-14.0-0.0-1.72","5b04bbd4b98c410001adb8db","619531dcf66c91622fa1b861","619595d977b7c7c19383aefc","6423.199999999255","","d","true","[[1,273],[93,517],[341,597],[557,453],[580,193],[391,14],[134,50]]","true","7","main_T2_Trial","d","img/Fire_Up_Target.gif","[""img/Fire_Down_Distractor.gif"",""img/Fire_Down_Distractor.gif"",""img/Fire_Down_Distractor.gif"",""img/Fire_Down_Distractor.gif"",""img/Fire_Down_Distractor.gif"",""img/Fire_Down_Distractor.gif"",""img/Fire_Down_Distractor.gif"",""img/Fire_Down_Distractor.gif"",""img/Fire_Down_Distractor.gif"",""img/Fire_Down_Distractor.gif"",""img/Fire_Down_Distractor.gif"",""img/Fire_Down_Distractor.gif""]","7","targetUp_distractorsDown"
"","","","","","html-keyboard-response","160","913685","0.0-14.0-0.0-0.73","5b04bbd4b98c410001adb8db","619531dcf66c91622fa1b861","619595d977b7c7c19383aefc","null","","null","","","","","main_T1_ITI","","","","",""
"","","","","","visual-search-circle","161","915913","0.0-14.0-0.0-1.73","5b04bbd4b98c410001adb8db","619531dcf66c91622fa1b861","619595d977b7c7c19383aefc","1214.6000000014901","","d","true","[[45,141],[141,554],[554,458],[458,45]]","true","4","main_T2_Trial","d","img/Fire_Up_Target.gif","[""img/Fire_Down_Distractor.gif"",""img/Fire_Down_Distractor.gif"",""img/Fire_Down_Distractor.gif"",""img/Fire_Down_Distractor.gif"",""img/Fire_Down_Distractor.gif"",""img/Fire_Down_Distractor.gif"",""img/Fire_Down_Distractor.gif"",""img/Fire_Down_Distractor.gif"",""img/Fire_Down_Distractor.gif"",""img/Fire_Down_Distractor.gif"",""img/Fire_Down_Distractor.gif"",""img/Fire_Down_Distractor.gif""]","4","targetUp_distractorsDown"
"","","","","","html-keyboard-response","162","915915","0.0-14.0-0.0-0.74","5b04bbd4b98c410001adb8db","619531dcf66c91622fa1b861","619595d977b7c7c19383aefc","null","","null","","","","","main_T1_ITI","","","","",""
"","","","","","visual-search-circle","163","918607","0.0-14.0-0.0-1.74","5b04bbd4b98c410001adb8db","619531dcf66c91622fa1b861","619595d977b7c7c19383aefc","1682.5","","s","true","[[372,591],[572,424],[567,164],[360,6],[108,69],[0,305],[117,538]]","false","7","main_T2_Trial","s","img/Fire_Down_Target.gif","[""img/Fire_Up_Distractor.gif"",""img/Fire_Up_Distractor.gif"",""img/Fire_Up_Distractor.gif"",""img/Fire_Up_Distractor.gif"",""img/Fire_Up_Distractor.gif"",""img/Fire_Up_Distractor.gif"",""img/Fire_Up_Distractor.gif"",""img/Fire_Up_Distractor.gif"",""img/Fire_Up_Distractor.gif"",""img/Fire_Up_Distractor.gif"",""img/Fire_Up_Distractor.gif"",""img/Fire_Up_Distractor.gif""]","7","targetDown_distractorsUp"
"","","","","","html-keyboard-response","164","918609","0.0-14.0-0.0-0.75","5b04bbd4b98c410001adb8db","619531dcf66c91622fa1b861","619595d977b7c7c19383aefc","null","","null","","","","","main_T1_ITI","","","","",""
"","","","","","visual-search-circle","165","921994","0.0-14.0-0.0-1.75","5b04bbd4b98c410001adb8db","619531dcf66c91622fa1b861","619595d977b7c7c19383aefc","2372.5","","s","true","[[1,326],[134,549],[391,585],[580,406],[557,146],[341,2],[93,82]]","false","7","main_T2_Trial","s","img/Fire_Down_Target.gif","[""img/Fire_Up_Distractor.gif"",""img/Fire_Up_Distractor.gif"",""img/Fire_Up_Distractor.gif"",""img/Fire_Up_Distractor.gif"",""img/Fire_Up_Distractor.gif"",""img/Fire_Up_Distractor.gif"",""img/Fire_Up_Distractor.gif"",""img/Fire_Up_Distractor.gif"",""img/Fire_Up_Distractor.gif"",""img/Fire_Up_Distractor.gif"",""img/Fire_Up_Distractor.gif"",""img/Fire_Up_Distractor.gif""]","7","targetDown_distractorsUp"
"","","","","","html-keyboard-response","166","921997","0.0-14.0-0.0-0.76","5b04bbd4b98c410001adb8db","619531dcf66c91622fa1b861","619595d977b7c7c19383aefc","null","","null","","","","","main_T1_ITI","","","","",""
"","","","","","visual-search-circle","167","925035","0.0-14.0-0.0-1.76","5b04bbd4b98c410001adb8db","619531dcf66c91622fa1b861","619595d977b7c7c19383aefc","2028.2000000029802","","s","true","[[562,154],[382,11],[154,37],[11,217],[37,445],[217,588],[445,562],[588,382]]","false","8","main_T2_Trial","s","img/Fire_Down_Target.gif","[""img/Fire_Up_Distractor.gif"",""img/Fire_Up_Distractor.gif"",""img/Fire_Up_Distractor.gif"",""img/Fire_Up_Distractor.gif"",""img/Fire_Up_Distractor.gif"",""img/Fire_Up_Distractor.gif"",""img/Fire_Up_Distractor.gif"",""img/Fire_Up_Distractor.gif"",""img/Fire_Up_Distractor.gif"",""img/Fire_Up_Distractor.gif"",""img/Fire_Up_Distractor.gif"",""img/Fire_Up_Distractor.gif""]","8","targetDown_distractorsUp"
"","","","","","html-keyboard-response","168","925037","0.0-14.0-0.0-0.77","5b04bbd4b98c410001adb8db","619531dcf66c91622fa1b861","619595d977b7c7c19383aefc","null","","null","","","","","main_T1_ITI","","","","",""
"","","","","","visual-search-circle","169","927079","0.0-14.0-0.0-1.77","5b04bbd4b98c410001adb8db","619531dcf66c91622fa1b861","619595d977b7c7c19383aefc","1034.5","","s","true","[[554,458],[529,107],[187,21],[0,320],[227,591]]","false","5","main_T2_Trial","s","img/Fire_Up_Target.gif","[""img/Fire_Down_Distractor.gif"",""img/Fire_Down_Distractor.gif"",""img/Fire_Down_Distractor.gif"",""img/Fire_Down_Distractor.gif"",""img/Fire_Down_Distractor.gif"",""img/Fire_Down_Distractor.gif"",""img/Fire_Down_Distractor.gif"",""img/Fire_Down_Distractor.gif"",""img/Fire_Down_Distractor.gif"",""img/Fire_Down_Distractor.gif"",""img/Fire_Down_Distractor.gif"",""img/Fire_Down_Distractor.gif""]","5","targetUp_distractorsDown"
"","","","","","html-keyboard-response","170","927081","0.0-14.0-0.0-0.78","5b04bbd4b98c410001adb8db","619531dcf66c91622fa1b861","619595d977b7c7c19383aefc","null","","null","","","","","main_T1_ITI","","","","",""
"","","","","","visual-search-circle","171","929774","0.0-14.0-0.0-1.78","5b04bbd4b98c410001adb8db","619531dcf66c91622fa1b861","619595d977b7c7c19383aefc","1678.5","","s","true","[[7,232],[95,519],[387,586],[592,367],[504,80],[212,13]]","false","6","main_T2_Trial","s","img/Fire_Down_Target.gif","[""img/Fire_Up_Distractor.gif"",""img/Fire_Up_Distractor.gif"",""img/Fire_Up_Distractor.gif"",""img/Fire_Up_Distractor.gif"",""img/Fire_Up_Distractor.gif"",""img/Fire_Up_Distractor.gif"",""img/Fire_Up_Distractor.gif"",""img/Fire_Up_Distractor.gif"",""img/Fire_Up_Distractor.gif"",""img/Fire_Up_Distractor.gif"",""img/Fire_Up_Distractor.gif"",""img/Fire_Up_Distractor.gif""]","6","targetDown_distractorsUp"
"","","","","","html-keyboard-response","172","931313","0.0-14.0-0.0-0.79","5b04bbd4b98c410001adb8db","619531dcf66c91622fa1b861","619595d977b7c7c19383aefc","1538.9000000022352","Wow! You've completed 80 out of 160 trials! </p> <p>  </p><p> Take a quick break, then press any key when you're ready to continue."," ","","","","","main_T1_ITI","","","","",""
"","","","","","visual-search-circle","173","934277","0.0-14.0-0.0-1.79","5b04bbd4b98c410001adb8db","619531dcf66c91622fa1b861","619595d977b7c7c19383aefc","1944.5999999977648","","d","true","[[253,596],[476,542],[596,346],[542,123],[346,3],[123,57],[3,253],[57,476]]","true","8","main_T2_Trial","d","img/Fire_Up_Target.gif","[""img/Fire_Down_Distractor.gif"",""img/Fire_Down_Distractor.gif"",""img/Fire_Down_Distractor.gif"",""img/Fire_Down_Distractor.gif"",""img/Fire_Down_Distractor.gif"",""img/Fire_Down_Distractor.gif"",""img/Fire_Down_Distractor.gif"",""img/Fire_Down_Distractor.gif"",""img/Fire_Down_Distractor.gif"",""img/Fire_Down_Distractor.gif"",""img/Fire_Down_Distractor.gif"",""img/Fire_Down_Distractor.gif""]","8","targetUp_distractorsDown"
"","","","","","html-keyboard-response","174","934284","0.0-14.0-0.0-0.80","5b04bbd4b98c410001adb8db","619531dcf66c91622fa1b861","619595d977b7c7c19383aefc","null","","null","","","","","main_T1_ITI","","","","",""
"","","","","","visual-search-circle","175","936588","0.0-14.0-0.0-1.80","5b04bbd4b98c410001adb8db","619531dcf66c91622fa1b861","619595d977b7c7c19383aefc","1287.800000000745","","s","true","[[91,515],[338,597],[556,455],[581,195],[394,15],[135,48],[1,271]]","false","7","main_T2_Trial","s","img/Fire_Up_Target.gif","[""img/Fire_Down_Distractor.gif"",""img/Fire_Down_Distractor.gif"",""img/Fire_Down_Distractor.gif"",""img/Fire_Down_Distractor.gif"",""img/Fire_Down_Distractor.gif"",""img/Fire_Down_Distractor.gif"",""img/Fire_Down_Distractor.gif"",""img/Fire_Down_Distractor.gif"",""img/Fire_Down_Distractor.gif"",""img/Fire_Down_Distractor.gif"",""img/Fire_Down_Distractor.gif"",""img/Fire_Down_Distractor.gif""]","7","targetUp_distractorsDown"
"","","","","","html-keyboard-response","176","936589","0.0-14.0-0.0-0.81","5b04bbd4b98c410001adb8db","619531dcf66c91622fa1b861","619595d977b7c7c19383aefc","null","","null","","","","","main_T1_ITI","","","","",""
"","","","","","visual-search-circle","177","939473","0.0-14.0-0.0-1.81","5b04bbd4b98c410001adb8db","619531dcf66c91622fa1b861","619595d977b7c7c19383aefc","1878.8999999985099","","s","true","[[25,177],[99,522],[450,559],[593,237],[331,1]]","false","5","main_T2_Trial","s","img/Fire_Down_Target.gif","[""img/Fire_Up_Distractor.gif"",""img/Fire_Up_Distractor.gif"",""img/Fire_Up_Distractor.gif"",""img/Fire_Up_Distractor.gif"",""img/Fire_Up_Distractor.gif"",""img/Fire_Up_Distractor.gif"",""img/Fire_Up_Distractor.gif"",""img/Fire_Up_Distractor.gif"",""img/Fire_Up_Distractor.gif"",""img/Fire_Up_Distractor.gif"",""img/Fire_Up_Distractor.gif"",""img/Fire_Up_Distractor.gif""]","5","targetDown_distractorsUp"
"","","","","","html-keyboard-response","178","939474","0.0-14.0-0.0-0.82","5b04bbd4b98c410001adb8db","619531dcf66c91622fa1b861","619595d977b7c7c19383aefc","null","","null","","","","","main_T1_ITI","","","","",""
"","","","","","visual-search-circle","179","942553","0.0-14.0-0.0-1.82","5b04bbd4b98c410001adb8db","619531dcf66c91622fa1b861","619595d977b7c7c19383aefc","2072.599999997765","","d","false","[[77,99],[99,522],[522,500],[500,77]]","false","4","main_T2_Trial","s","img/Fire_Up_Target.gif","[""img/Fire_Down_Distractor.gif"",""img/Fire_Down_Distractor.gif"",""img/Fire_Down_Distractor.gif"",""img/Fire_Down_Distractor.gif"",""img/Fire_Down_Distractor.gif"",""img/Fire_Down_Distractor.gif"",""img/Fire_Down_Distractor.gif"",""img/Fire_Down_Distractor.gif"",""img/Fire_Down_Distractor.gif"",""img/Fire_Down_Distractor.gif"",""img/Fire_Down_Distractor.gif"",""img/Fire_Down_Distractor.gif""]","4","targetUp_distractorsDown"
"","","","","","html-keyboard-response","180","942562","0.0-14.0-0.0-0.83","5b04bbd4b98c410001adb8db","619531dcf66c91622fa1b861","619595d977b7c7c19383aefc","null","","null","","","","","main_T1_ITI","","","","",""
"","","","","","visual-search-circle","181","945362","0.0-14.0-0.0-1.83","5b04bbd4b98c410001adb8db","619531dcf66c91622fa1b861","619595d977b7c7c19383aefc","1793.6000000014901","","s","true","[[95,80],[28,426],[336,597],[594,357],[445,37]]","false","5","main_T2_Trial","s","img/Fire_Up_Target.gif","[""img/Fire_Down_Distractor.gif"",""img/Fire_Down_Distractor.gif"",""img/Fire_Down_Distractor.gif"",""img/Fire_Down_Distractor.gif"",""img/Fire_Down_Distractor.gif"",""img/Fire_Down_Distractor.gif"",""img/Fire_Down_Distractor.gif"",""img/Fire_Down_Distractor.gif"",""img/Fire_Down_Distractor.gif"",""img/Fire_Down_Distractor.gif"",""img/Fire_Down_Distractor.gif"",""img/Fire_Down_Distractor.gif""]","5","targetUp_distractorsDown"
"","","","","","html-keyboard-response","182","945367","0.0-14.0-0.0-0.84","5b04bbd4b98c410001adb8db","619531dcf66c91622fa1b861","619595d977b7c7c19383aefc","null","","null","","","","","main_T1_ITI","","","","",""
"","","","","","visual-search-circle","183","948212","0.0-14.0-0.0-1.84","5b04bbd4b98c410001adb8db","619531dcf66c91622fa1b861","619595d977b7c7c19383aefc","1836.300000000745","","s","true","[[4,247],[159,564],[508,515],[569,168],[258,2]]","false","5","main_T2_Trial","s","img/Fire_Down_Target.gif","[""img/Fire_Up_Distractor.gif"",""img/Fire_Up_Distractor.gif"",""img/Fire_Up_Distractor.gif"",""img/Fire_Up_Distractor.gif"",""img/Fire_Up_Distractor.gif"",""img/Fire_Up_Distractor.gif"",""img/Fire_Up_Distractor.gif"",""img/Fire_Up_Distractor.gif"",""img/Fire_Up_Distractor.gif"",""img/Fire_Up_Distractor.gif"",""img/Fire_Up_Distractor.gif"",""img/Fire_Up_Distractor.gif""]","5","targetDown_distractorsUp"
"","","","","","html-keyboard-response","184","948213","0.0-14.0-0.0-0.85","5b04bbd4b98c410001adb8db","619531dcf66c91622fa1b861","619595d977b7c7c19383aefc","null","","null","","","","","main_T1_ITI","","","","",""
"","","","","","visual-search-circle","185","951288","0.0-14.0-0.0-1.85","5b04bbd4b98c410001adb8db","619531dcf66c91622fa1b861","619595d977b7c7c19383aefc","2068.5","","s","true","[[515,91],[91,84],[84,508],[508,515]]","false","4","main_T2_Trial","s","img/Fire_Up_Target.gif","[""img/Fire_Down_Distractor.gif"",""img/Fire_Down_Distractor.gif"",""img/Fire_Down_Distractor.gif"",""img/Fire_Down_Distractor.gif"",""img/Fire_Down_Distractor.gif"",""img/Fire_Down_Distractor.gif"",""img/Fire_Down_Distractor.gif"",""img/Fire_Down_Distractor.gif"",""img/Fire_Down_Distractor.gif"",""img/Fire_Down_Distractor.gif"",""img/Fire_Down_Distractor.gif"",""img/Fire_Down_Distractor.gif""]","4","targetUp_distractorsDown"
"","","","","","html-keyboard-response","186","951291","0.0-14.0-0.0-0.86","5b04bbd4b98c410001adb8db","619531dcf66c91622fa1b861","619595d977b7c7c19383aefc","null","","null","","","","","main_T1_ITI","","","","",""
"","","","","","visual-search-circle","187","953559","0.0-14.0-0.0-1.86","5b04bbd4b98c410001adb8db","619531dcf66c91622fa1b861","619595d977b7c7c19383aefc","1262.5","","s","true","[[392,14],[163,32],[14,207],[32,436],[207,585],[436,567],[585,392],[567,163]]","false","8","main_T2_Trial","s","img/Fire_Down_Target.gif","[""img/Fire_Up_Distractor.gif"",""img/Fire_Up_Distractor.gif"",""img/Fire_Up_Distractor.gif"",""img/Fire_Up_Distractor.gif"",""img/Fire_Up_Distractor.gif"",""img/Fire_Up_Distractor.gif"",""img/Fire_Up_Distractor.gif"",""img/Fire_Up_Distractor.gif"",""img/Fire_Up_Distractor.gif"",""img/Fire_Up_Distractor.gif"",""img/Fire_Up_Distractor.gif"",""img/Fire_Up_Distractor.gif""]","8","targetDown_distractorsUp"
"","","","","","html-keyboard-response","188","953561","0.0-14.0-0.0-0.87","5b04bbd4b98c410001adb8db","619531dcf66c91622fa1b861","619595d977b7c7c19383aefc","null","","null","","","","","main_T1_ITI","","","","",""
"","","","","","visual-search-circle","189","956640","0.0-14.0-0.0-1.87","5b04bbd4b98c410001adb8db","619531dcf66c91622fa1b861","619595d977b7c7c19383aefc","2061.2999999970198","","s","true","[[177,574],[522,500],[559,150],[237,6],[1,268]]","false","5","main_T2_Trial","s","img/Fire_Down_Target.gif","[""img/Fire_Up_Distractor.gif"",""img/Fire_Up_Distractor.gif"",""img/Fire_Up_Distractor.gif"",""img/Fire_Up_Distractor.gif"",""img/Fire_Up_Distractor.gif"",""img/Fire_Up_Distractor.gif"",""img/Fire_Up_Distractor.gif"",""img/Fire_Up_Distractor.gif"",""img/Fire_Up_Distractor.gif"",""img/Fire_Up_Distractor.gif"",""img/Fire_Up_Distractor.gif"",""img/Fire_Up_Distractor.gif""]","5","targetDown_distractorsUp"
"","","","","","html-keyboard-response","190","956644","0.0-14.0-0.0-0.88","5b04bbd4b98c410001adb8db","619531dcf66c91622fa1b861","619595d977b7c7c19383aefc","null","","null","","","","","main_T1_ITI","","","","",""
"","","","","","visual-search-circle","191","960296","0.0-14.0-0.0-1.88","5b04bbd4b98c410001adb8db","619531dcf66c91622fa1b861","619595d977b7c7c19383aefc","2646.10000000149","","s","true","[[119,539],[374,590],[573,422],[566,162],[358,5],[106,70],[0,308]]","false","7","main_T2_Trial","s","img/Fire_Down_Target.gif","[""img/Fire_Up_Distractor.gif"",""img/Fire_Up_Distractor.gif"",""img/Fire_Up_Distractor.gif"",""img/Fire_Up_Distractor.gif"",""img/Fire_Up_Distractor.gif"",""img/Fire_Up_Distractor.gif"",""img/Fire_Up_Distractor.gif"",""img/Fire_Up_Distractor.gif"",""img/Fire_Up_Distractor.gif"",""img/Fire_Up_Distractor.gif"",""img/Fire_Up_Distractor.gif"",""img/Fire_Up_Distractor.gif""]","7","targetDown_distractorsUp"
"","","","","","html-keyboard-response","192","960298","0.0-14.0-0.0-0.89","5b04bbd4b98c410001adb8db","619531dcf66c91622fa1b861","619595d977b7c7c19383aefc","null","","null","","","","","main_T1_ITI","","","","",""
"","","","","","visual-search-circle","193","963260","0.0-14.0-0.0-1.89","5b04bbd4b98c410001adb8db","619531dcf66c91622fa1b861","619595d977b7c7c19383aefc","1948.300000000745","","d","true","[[111,533],[533,488],[488,66],[66,111]]","true","4","main_T2_Trial","d","img/Fire_Down_Target.gif","[""img/Fire_Up_Distractor.gif"",""img/Fire_Up_Distractor.gif"",""img/Fire_Up_Distractor.gif"",""img/Fire_Up_Distractor.gif"",""img/Fire_Up_Distractor.gif"",""img/Fire_Up_Distractor.gif"",""img/Fire_Up_Distractor.gif"",""img/Fire_Up_Distractor.gif"",""img/Fire_Up_Distractor.gif"",""img/Fire_Up_Distractor.gif"",""img/Fire_Up_Distractor.gif"",""img/Fire_Up_Distractor.gif""]","4","targetDown_distractorsUp"
"","","","","","html-keyboard-response","194","963267","0.0-14.0-0.0-0.90","5b04bbd4b98c410001adb8db","619531dcf66c91622fa1b861","619595d977b7c7c19383aefc","null","","null","","","","","main_T1_ITI","","","","",""
"","","","","","visual-search-circle","195","965837","0.0-14.0-0.0-1.90","5b04bbd4b98c410001adb8db","619531dcf66c91622fa1b861","619595d977b7c7c19383aefc","1563.5","","d","true","[[533,111],[111,66],[66,488],[488,533]]","true","4","main_T2_Trial","d","img/Fire_Up_Target.gif","[""img/Fire_Down_Distractor.gif"",""img/Fire_Down_Distractor.gif"",""img/Fire_Down_Distractor.gif"",""img/Fire_Down_Distractor.gif"",""img/Fire_Down_Distractor.gif"",""img/Fire_Down_Distractor.gif"",""img/Fire_Down_Distractor.gif"",""img/Fire_Down_Distractor.gif"",""img/Fire_Down_Distractor.gif"",""img/Fire_Down_Distractor.gif"",""img/Fire_Down_Distractor.gif"",""img/Fire_Down_Distractor.gif""]","4","targetUp_distractorsDown"
"","","","","","html-keyboard-response","196","965839","0.0-14.0-0.0-0.91","5b04bbd4b98c410001adb8db","619531dcf66c91622fa1b861","619595d977b7c7c19383aefc","null","","null","","","","","main_T1_ITI","","","","",""
"","","","","","visual-search-circle","197","967916","0.0-14.0-0.0-1.91","5b04bbd4b98c410001adb8db","619531dcf66c91622fa1b861","619595d977b7c7c19383aefc","1073.800000000745","","d","true","[[187,578],[529,492],[554,141],[227,8],[0,279]]","true","5","main_T2_Trial","d","img/Fire_Up_Target.gif","[""img/Fire_Down_Distractor.gif"",""img/Fire_Down_Distractor.gif"",""img/Fire_Down_Distractor.gif"",""img/Fire_Down_Distractor.gif"",""img/Fire_Down_Distractor.gif"",""img/Fire_Down_Distractor.gif"",""img/Fire_Down_Distractor.gif"",""img/Fire_Down_Distractor.gif"",""img/Fire_Down_Distractor.gif"",""img/Fire_Down_Distractor.gif"",""img/Fire_Down_Distractor.gif"",""img/Fire_Down_Distractor.gif""]","5","targetUp_distractorsDown"
"","","","","","html-keyboard-response","198","967918","0.0-14.0-0.0-0.92","5b04bbd4b98c410001adb8db","619531dcf66c91622fa1b861","619595d977b7c7c19383aefc","null","","null","","","","","main_T1_ITI","","","","",""
"","","","","","visual-search-circle","199","972073","0.0-14.0-0.0-1.92","5b04bbd4b98c410001adb8db","619531dcf66c91622fa1b861","619595d977b7c7c19383aefc","3136.10000000149","","d","true","[[557,454],[581,195],[393,14],[135,49],[1,272],[92,516],[339,597]]","true","7","main_T2_Trial","d","img/Fire_Down_Target.gif","[""img/Fire_Up_Distractor.gif"",""img/Fire_Up_Distractor.gif"",""img/Fire_Up_Distractor.gif"",""img/Fire_Up_Distractor.gif"",""img/Fire_Up_Distractor.gif"",""img/Fire_Up_Distractor.gif"",""img/Fire_Up_Distractor.gif"",""img/Fire_Up_Distractor.gif"",""img/Fire_Up_Distractor.gif"",""img/Fire_Up_Distractor.gif"",""img/Fire_Up_Distractor.gif"",""img/Fire_Up_Distractor.gif""]","7","targetDown_distractorsUp"
"","","","","","html-keyboard-response","200","972082","0.0-14.0-0.0-0.93","5b04bbd4b98c410001adb8db","619531dcf66c91622fa1b861","619595d977b7c7c19383aefc","null","","null","","","","","main_T1_ITI","","","","",""
"","","","","","visual-search-circle","201","982079","0.0-14.0-0.0-1.93","5b04bbd4b98c410001adb8db","619531dcf66c91622fa1b861","619595d977b7c7c19383aefc","8987.400000002235","","d","true","[[294,0],[0,305],[305,599],[599,294]]","true","4","main_T2_Trial","d","img/Fire_Up_Target.gif","[""img/Fire_Down_Distractor.gif"",""img/Fire_Down_Distractor.gif"",""img/Fire_Down_Distractor.gif"",""img/Fire_Down_Distractor.gif"",""img/Fire_Down_Distractor.gif"",""img/Fire_Down_Distractor.gif"",""img/Fire_Down_Distractor.gif"",""img/Fire_Down_Distractor.gif"",""img/Fire_Down_Distractor.gif"",""img/Fire_Down_Distractor.gif"",""img/Fire_Down_Distractor.gif"",""img/Fire_Down_Distractor.gif""]","4","targetUp_distractorsDown"
"","","","","","html-keyboard-response","202","982081","0.0-14.0-0.0-0.94","5b04bbd4b98c410001adb8db","619531dcf66c91622fa1b861","619595d977b7c7c19383aefc","null","","null","","","","","main_T1_ITI","","","","",""
"","","","","","visual-search-circle","203","985468","0.0-14.0-0.0-1.94","5b04bbd4b98c410001adb8db","619531dcf66c91622fa1b861","619595d977b7c7c19383aefc","2370.199999999255","","s","true","[[597,263],[263,2],[2,336],[336,597]]","false","4","main_T2_Trial","s","img/Fire_Up_Target.gif","[""img/Fire_Down_Distractor.gif"",""img/Fire_Down_Distractor.gif"",""img/Fire_Down_Distractor.gif"",""img/Fire_Down_Distractor.gif"",""img/Fire_Down_Distractor.gif"",""img/Fire_Down_Distractor.gif"",""img/Fire_Down_Distractor.gif"",""img/Fire_Down_Distractor.gif"",""img/Fire_Down_Distractor.gif"",""img/Fire_Down_Distractor.gif"",""img/Fire_Down_Distractor.gif"",""img/Fire_Down_Distractor.gif""]","4","targetUp_distractorsDown"
"","","","","","html-keyboard-response","204","985474","0.0-14.0-0.0-0.95","5b04bbd4b98c410001adb8db","619531dcf66c91622fa1b861","619595d977b7c7c19383aefc","null","","null","","","","","main_T1_ITI","","","","",""
"","","","","","visual-search-circle","205","990701","0.0-14.0-0.0-1.95","5b04bbd4b98c410001adb8db","619531dcf66c91622fa1b861","619595d977b7c7c19383aefc","4213.800000000745","","d","true","[[554,141],[367,7],[141,45],[7,232],[45,458],[232,592],[458,554],[592,367]]","true","8","main_T2_Trial","d","img/Fire_Down_Target.gif","[""img/Fire_Up_Distractor.gif"",""img/Fire_Up_Distractor.gif"",""img/Fire_Up_Distractor.gif"",""img/Fire_Up_Distractor.gif"",""img/Fire_Up_Distractor.gif"",""img/Fire_Up_Distractor.gif"",""img/Fire_Up_Distractor.gif"",""img/Fire_Up_Distractor.gif"",""img/Fire_Up_Distractor.gif"",""img/Fire_Up_Distractor.gif"",""img/Fire_Up_Distractor.gif"",""img/Fire_Up_Distractor.gif""]","8","targetDown_distractorsUp"
"","","","","","html-keyboard-response","206","990703","0.0-14.0-0.0-0.96","5b04bbd4b98c410001adb8db","619531dcf66c91622fa1b861","619595d977b7c7c19383aefc","null","","null","","","","","main_T1_ITI","","","","",""
"","","","","","visual-search-circle","207","995435","0.0-14.0-0.0-1.96","5b04bbd4b98c410001adb8db","619531dcf66c91622fa1b861","619595d977b7c7c19383aefc","3722.800000000745","","s","true","[[599,320],[412,21],[70,107],[45,458],[372,591]]","false","5","main_T2_Trial","s","img/Fire_Up_Target.gif","[""img/Fire_Down_Distractor.gif"",""img/Fire_Down_Distractor.gif"",""img/Fire_Down_Distractor.gif"",""img/Fire_Down_Distractor.gif"",""img/Fire_Down_Distractor.gif"",""img/Fire_Down_Distractor.gif"",""img/Fire_Down_Distractor.gif"",""img/Fire_Down_Distractor.gif"",""img/Fire_Down_Distractor.gif"",""img/Fire_Down_Distractor.gif"",""img/Fire_Down_Distractor.gif"",""img/Fire_Down_Distractor.gif""]","5","targetUp_distractorsDown"
"","","","","","html-keyboard-response","208","995437","0.0-14.0-0.0-0.97","5b04bbd4b98c410001adb8db","619531dcf66c91622fa1b861","619595d977b7c7c19383aefc","null","","null","","","","","main_T1_ITI","","","","",""
"","","","","","visual-search-circle","209","1004672","0.0-14.0-0.0-1.97","5b04bbd4b98c410001adb8db","619531dcf66c91622fa1b861","619595d977b7c7c19383aefc","8215.699999999255","","d","true","[[232,7],[45,141],[7,367],[141,554],[367,592],[554,458],[592,232],[458,45]]","true","8","main_T2_Trial","d","img/Fire_Down_Target.gif","[""img/Fire_Up_Distractor.gif"",""img/Fire_Up_Distractor.gif"",""img/Fire_Up_Distractor.gif"",""img/Fire_Up_Distractor.gif"",""img/Fire_Up_Distractor.gif"",""img/Fire_Up_Distractor.gif"",""img/Fire_Up_Distractor.gif"",""img/Fire_Up_Distractor.gif"",""img/Fire_Up_Distractor.gif"",""img/Fire_Up_Distractor.gif"",""img/Fire_Up_Distractor.gif"",""img/Fire_Up_Distractor.gif""]","8","targetDown_distractorsUp"
"","","","","","html-keyboard-response","210","1004685","0.0-14.0-0.0-0.98","5b04bbd4b98c410001adb8db","619531dcf66c91622fa1b861","619595d977b7c7c19383aefc","null","","null","","","","","main_T1_ITI","","","","",""
"","","","","","visual-search-circle","211","1007720","0.0-14.0-0.0-1.98","5b04bbd4b98c410001adb8db","619531dcf66c91622fa1b861","619595d977b7c7c19383aefc","2018.6000000014901","","d","true","[[42,454],[367,592],[598,326],[417,23],[73,103]]","true","5","main_T2_Trial","d","img/Fire_Up_Target.gif","[""img/Fire_Down_Distractor.gif"",""img/Fire_Down_Distractor.gif"",""img/Fire_Down_Distractor.gif"",""img/Fire_Down_Distractor.gif"",""img/Fire_Down_Distractor.gif"",""img/Fire_Down_Distractor.gif"",""img/Fire_Down_Distractor.gif"",""img/Fire_Down_Distractor.gif"",""img/Fire_Down_Distractor.gif"",""img/Fire_Down_Distractor.gif"",""img/Fire_Down_Distractor.gif"",""img/Fire_Down_Distractor.gif""]","5","targetUp_distractorsDown"
"","","","","","html-keyboard-response","212","1008997","0.0-14.0-0.0-0.99","5b04bbd4b98c410001adb8db","619531dcf66c91622fa1b861","619595d977b7c7c19383aefc","1276.6000000014901","Wow! You've completed 100 out of 160 trials! </p> <p>  </p><p> Take a quick break, then press any key when you're ready to continue."," ","","","","","main_T1_ITI","","","","",""
"","","","","","visual-search-circle","213","1011113","0.0-14.0-0.0-1.99","5b04bbd4b98c410001adb8db","619531dcf66c91622fa1b861","619595d977b7c7c19383aefc","1108.3999999985099","","s","true","[[63,484],[263,597],[484,536],[597,336],[536,115],[336,2],[115,63],[2,263]]","false","8","main_T2_Trial","s","img/Fire_Up_Target.gif","[""img/Fire_Down_Distractor.gif"",""img/Fire_Down_Distractor.gif"",""img/Fire_Down_Distractor.gif"",""img/Fire_Down_Distractor.gif"",""img/Fire_Down_Distractor.gif"",""img/Fire_Down_Distractor.gif"",""img/Fire_Down_Distractor.gif"",""img/Fire_Down_Distractor.gif"",""img/Fire_Down_Distractor.gif"",""img/Fire_Down_Distractor.gif"",""img/Fire_Down_Distractor.gif"",""img/Fire_Down_Distractor.gif""]","8","targetUp_distractorsDown"
"","","","","","html-keyboard-response","214","1011116","0.0-14.0-0.0-0.100","5b04bbd4b98c410001adb8db","619531dcf66c91622fa1b861","619595d977b7c7c19383aefc","null","","null","","","","","main_T1_ITI","","","","",""
"","","","","","visual-search-circle","215","1013537","0.0-14.0-0.0-1.100","5b04bbd4b98c410001adb8db","619531dcf66c91622fa1b861","619595d977b7c7c19383aefc","1401.1000000014901","","d","true","[[382,11],[154,37],[11,217],[37,445],[217,588],[445,562],[588,382],[562,154]]","true","8","main_T2_Trial","d","img/Fire_Down_Target.gif","[""img/Fire_Up_Distractor.gif"",""img/Fire_Up_Distractor.gif"",""img/Fire_Up_Distractor.gif"",""img/Fire_Up_Distractor.gif"",""img/Fire_Up_Distractor.gif"",""img/Fire_Up_Distractor.gif"",""img/Fire_Up_Distractor.gif"",""img/Fire_Up_Distractor.gif"",""img/Fire_Up_Distractor.gif"",""img/Fire_Up_Distractor.gif"",""img/Fire_Up_Distractor.gif"",""img/Fire_Up_Distractor.gif""]","8","targetDown_distractorsUp"
"","","","","","html-keyboard-response","216","1013539","0.0-14.0-0.0-0.101","5b04bbd4b98c410001adb8db","619531dcf66c91622fa1b861","619595d977b7c7c19383aefc","null","","null","","","","","main_T1_ITI","","","","",""
