"success","timeout","failed_images","failed_audio","failed_video","trial_type","trial_index","time_elapsed","internal_node_id","subject_id","study_id","session_id","rt","stimulus","response","correct","locations","target_present","set_size","task","correct_response","target","foilCM","setSizeCM","searchCondition"
"true","false","[]","[]","[]","preload","0","9787","0.0-0.0","5c163e51d47b0000014a7821","619531dcf66c91622fa1b861","61959613b727bb5d2a701df0","","","","","","","","","","","","",""
"true","","","","","fullscreen","1","31603","0.0-1.0","5c163e51d47b0000014a7821","619531dcf66c91622fa1b861","61959613b727bb5d2a701df0","","","","","","","","","","","","",""
"","","","","","html-keyboard-response","2","37911","0.0-2.0","5c163e51d47b0000014a7821","619531dcf66c91622fa1b861","61959613b727bb5d2a701df0","6307","What a beautiful Wednesday to do some awesome science! </p> <p>  </p><p> </p>
    By completing this survey or questionnaire, you are consenting to be in this research study. </p>
    Your participation is voluntary and you can stop at any time.
    <p> [Press any key to continue.] </p>
    
    "," ","","","","","","","","","",""
"","","","","","video-keyboard-response","3","54762","0.0-3.0","5c163e51d47b0000014a7821","619531dcf66c91622fa1b861","61959613b727bb5d2a701df0","16849.399999976158","[""video/TaskInstructions.mp4""]"," ","","","","","","","","","",""
"","","","","","html-keyboard-response","4","57543","0.0-4.0","5c163e51d47b0000014a7821","619531dcf66c91622fa1b861","61959613b727bb5d2a701df0","2780.899999976158","
    <p>First, we're going to do a few practice trials to make sure you understand the task. You will recieve feedback on each trial. </p>
    <p>[Press any key to begin the familiarization phase.]</p>
    "," ","","","","","","","","","",""
"","","","","","visual-search-circle","5","63984","0.0-5.0-0.0","5c163e51d47b0000014a7821","619531dcf66c91622fa1b861","61959613b727bb5d2a701df0","5368","","d","true","[[222,10],[10,377],[377,589],[589,222]]","true","4","training","d","","","",""
"","","","","","html-keyboard-response","6","66099","0.0-6.0","5c163e51d47b0000014a7821","619531dcf66c91622fa1b861","61959613b727bb5d2a701df0","2114.7999999523163"," <div style='float: center; '><img src='img/feedbackRight.png'></img> </div> "," ","","","","","","","","","",""
"","","","","","visual-search-circle","7","69058","0.0-7.0-0.0","5c163e51d47b0000014a7821","619531dcf66c91622fa1b861","61959613b727bb5d2a701df0","1947.3000000715256","","s","true","[[299,600],[600,300],[300,0],[0,299]]","false","4","training","s","","","",""
"","","","","","html-keyboard-response","8","70139","0.0-8.0","5c163e51d47b0000014a7821","619531dcf66c91622fa1b861","61959613b727bb5d2a701df0","1080.7000000476837"," <div style='float: center; '><img src='img/feedbackRight.png'></img> </div> "," ","","","","","","","","","",""
"","","","","","visual-search-circle","9","74262","0.0-9.0-0.0","5c163e51d47b0000014a7821","619531dcf66c91622fa1b861","61959613b727bb5d2a701df0","3106.5","","s","true","[[115,63],[2,341],[187,578],[484,536],[597,258],[412,21]]","false","6","training","s","","","",""
"","","","","","html-keyboard-response","10","74919","0.0-10.0","5c163e51d47b0000014a7821","619531dcf66c91622fa1b861","61959613b727bb5d2a701df0","657"," <div style='float: center; '><img src='img/feedbackRight.png'></img> </div> "," ","","","","","","","","","",""
"","","","","","visual-search-circle","11","77307","0.0-11.0-0.0","5c163e51d47b0000014a7821","619531dcf66c91622fa1b861","61959613b727bb5d2a701df0","1379.8000000715256","","d","true","[[326,598],[529,492],[598,273],[492,70],[273,1],[70,107],[1,326],[107,529]]","true","8","training","d","","","",""
"","","","","","html-keyboard-response","12","77711","0.0-12.0","5c163e51d47b0000014a7821","619531dcf66c91622fa1b861","61959613b727bb5d2a701df0","403.10000002384186"," <div style='float: center; '><img src='img/feedbackRight.png'></img> </div> "," ","","","","","","","","","",""
"","","","","","video-keyboard-response","13","80524","0.0-13.0","5c163e51d47b0000014a7821","619531dcf66c91622fa1b861","61959613b727bb5d2a701df0","2812.9000000953674","[""video/endTraining.mp4""]"," ","","","","","","","","","",""
"","","","","","html-keyboard-response","14","80526","0.0-14.0-0.0-0.0","5c163e51d47b0000014a7821","619531dcf66c91622fa1b861","61959613b727bb5d2a701df0","null","","null","","","","","main_T1_ITI","","","","",""
"","","","","","visual-search-circle","15","83264","0.0-14.0-0.0-1.0","5c163e51d47b0000014a7821","619531dcf66c91622fa1b861","61959613b727bb5d2a701df0","1732.7000000476837","","d","true","[[331,1],[25,177],[99,522],[450,559],[593,237]]","true","5","main_T2_Trial","d","img/Fire_Up_Target.gif","[""img/Fire_Down_Distractor.gif"",""img/Fire_Down_Distractor.gif"",""img/Fire_Down_Distractor.gif"",""img/Fire_Down_Distractor.gif"",""img/Fire_Down_Distractor.gif"",""img/Fire_Down_Distractor.gif"",""img/Fire_Down_Distractor.gif"",""img/Fire_Down_Distractor.gif"",""img/Fire_Down_Distractor.gif"",""img/Fire_Down_Distractor.gif"",""img/Fire_Down_Distractor.gif"",""img/Fire_Down_Distractor.gif""]","5","targetUp_distractorsDown"
"","","","","","html-keyboard-response","16","83271","0.0-14.0-0.0-0.1","5c163e51d47b0000014a7821","619531dcf66c91622fa1b861","61959613b727bb5d2a701df0","null","","null","","","","","main_T1_ITI","","","","",""
"","","","","","visual-search-circle","17","85068","0.0-14.0-0.0-1.1","5c163e51d47b0000014a7821","619531dcf66c91622fa1b861","61959613b727bb5d2a701df0","789.9000000953674","","s","true","[[54,127],[60,480],[397,583],[599,294],[387,13]]","false","5","main_T2_Trial","s","img/Fire_Down_Target.gif","[""img/Fire_Up_Distractor.gif"",""img/Fire_Up_Distractor.gif"",""img/Fire_Up_Distractor.gif"",""img/Fire_Up_Distractor.gif"",""img/Fire_Up_Distractor.gif"",""img/Fire_Up_Distractor.gif"",""img/Fire_Up_Distractor.gif"",""img/Fire_Up_Distractor.gif"",""img/Fire_Up_Distractor.gif"",""img/Fire_Up_Distractor.gif"",""img/Fire_Up_Distractor.gif"",""img/Fire_Up_Distractor.gif""]","5","targetDown_distractorsUp"
"","","","","","html-keyboard-response","18","85070","0.0-14.0-0.0-0.2","5c163e51d47b0000014a7821","619531dcf66c91622fa1b861","61959613b727bb5d2a701df0","null","","null","","","","","main_T1_ITI","","","","",""
"","","","","","visual-search-circle","19","87667","0.0-14.0-0.0-1.2","5c163e51d47b0000014a7821","619531dcf66c91622fa1b861","61959613b727bb5d2a701df0","1588.8000000715256","","s","true","[[63,115],[21,412],[258,597],[536,484],[578,187],[341,2]]","false","6","main_T2_Trial","s","img/Fire_Up_Target.gif","[""img/Fire_Down_Distractor.gif"",""img/Fire_Down_Distractor.gif"",""img/Fire_Down_Distractor.gif"",""img/Fire_Down_Distractor.gif"",""img/Fire_Down_Distractor.gif"",""img/Fire_Down_Distractor.gif"",""img/Fire_Down_Distractor.gif"",""img/Fire_Down_Distractor.gif"",""img/Fire_Down_Distractor.gif"",""img/Fire_Down_Distractor.gif"",""img/Fire_Down_Distractor.gif"",""img/Fire_Down_Distractor.gif""]","6","targetUp_distractorsDown"
"","","","","","html-keyboard-response","20","87669","0.0-14.0-0.0-0.3","5c163e51d47b0000014a7821","619531dcf66c91622fa1b861","61959613b727bb5d2a701df0","null","","null","","","","","main_T1_ITI","","","","",""
"","","","","","visual-search-circle","21","92120","0.0-14.0-0.0-1.3","5c163e51d47b0000014a7821","619531dcf66c91622fa1b861","61959613b727bb5d2a701df0","3433.6999999284744","","s","true","[[202,583],[431,569],[583,397],[569,168],[397,16],[168,30],[16,202],[30,431]]","false","8","main_T2_Trial","s","img/Fire_Up_Target.gif","[""img/Fire_Down_Distractor.gif"",""img/Fire_Down_Distractor.gif"",""img/Fire_Down_Distractor.gif"",""img/Fire_Down_Distractor.gif"",""img/Fire_Down_Distractor.gif"",""img/Fire_Down_Distractor.gif"",""img/Fire_Down_Distractor.gif"",""img/Fire_Down_Distractor.gif"",""img/Fire_Down_Distractor.gif"",""img/Fire_Down_Distractor.gif"",""img/Fire_Down_Distractor.gif"",""img/Fire_Down_Distractor.gif""]","8","targetUp_distractorsDown"
"","","","","","html-keyboard-response","22","92122","0.0-14.0-0.0-0.4","5c163e51d47b0000014a7821","619531dcf66c91622fa1b861","61959613b727bb5d2a701df0","null","","null","","","","","main_T1_ITI","","","","",""
"","","","","","visual-search-circle","23","96184","0.0-14.0-0.0-1.4","5c163e51d47b0000014a7821","619531dcf66c91622fa1b861","61959613b727bb5d2a701df0","3044.899999976158","","d","true","[[247,595],[472,545],[595,352],[545,127],[352,4],[127,54],[4,247],[54,472]]","true","8","main_T2_Trial","d","img/Fire_Up_Target.gif","[""img/Fire_Down_Distractor.gif"",""img/Fire_Down_Distractor.gif"",""img/Fire_Down_Distractor.gif"",""img/Fire_Down_Distractor.gif"",""img/Fire_Down_Distractor.gif"",""img/Fire_Down_Distractor.gif"",""img/Fire_Down_Distractor.gif"",""img/Fire_Down_Distractor.gif"",""img/Fire_Down_Distractor.gif"",""img/Fire_Down_Distractor.gif"",""img/Fire_Down_Distractor.gif"",""img/Fire_Down_Distractor.gif""]","8","targetUp_distractorsDown"
"","","","","","html-keyboard-response","24","96187","0.0-14.0-0.0-0.5","5c163e51d47b0000014a7821","619531dcf66c91622fa1b861","61959613b727bb5d2a701df0","null","","null","","","","","main_T1_ITI","","","","",""
"","","","","","visual-search-circle","25","102599","0.0-14.0-0.0-1.5","5c163e51d47b0000014a7821","619531dcf66c91622fa1b861","61959613b727bb5d2a701df0","5401.100000023842","","d","true","[[237,6],[31,165],[27,426],[228,591],[483,537],[599,304],[490,68]]","true","7","main_T2_Trial","d","img/Fire_Up_Target.gif","[""img/Fire_Down_Distractor.gif"",""img/Fire_Down_Distractor.gif"",""img/Fire_Down_Distractor.gif"",""img/Fire_Down_Distractor.gif"",""img/Fire_Down_Distractor.gif"",""img/Fire_Down_Distractor.gif"",""img/Fire_Down_Distractor.gif"",""img/Fire_Down_Distractor.gif"",""img/Fire_Down_Distractor.gif"",""img/Fire_Down_Distractor.gif"",""img/Fire_Down_Distractor.gif"",""img/Fire_Down_Distractor.gif""]","7","targetUp_distractorsDown"
"","","","","","html-keyboard-response","26","102601","0.0-14.0-0.0-0.6","5c163e51d47b0000014a7821","619531dcf66c91622fa1b861","61959613b727bb5d2a701df0","null","","null","","","","","main_T1_ITI","","","","",""
"","","","","","visual-search-circle","27","105926","0.0-14.0-0.0-1.6","5c163e51d47b0000014a7821","619531dcf66c91622fa1b861","61959613b727bb5d2a701df0","2320.8000000715256","","d","true","[[187,578],[529,492],[554,141],[227,8],[0,279]]","true","5","main_T2_Trial","d","img/Fire_Down_Target.gif","[""img/Fire_Up_Distractor.gif"",""img/Fire_Up_Distractor.gif"",""img/Fire_Up_Distractor.gif"",""img/Fire_Up_Distractor.gif"",""img/Fire_Up_Distractor.gif"",""img/Fire_Up_Distractor.gif"",""img/Fire_Up_Distractor.gif"",""img/Fire_Up_Distractor.gif"",""img/Fire_Up_Distractor.gif"",""img/Fire_Up_Distractor.gif"",""img/Fire_Up_Distractor.gif"",""img/Fire_Up_Distractor.gif""]","5","targetDown_distractorsUp"
"","","","","","html-keyboard-response","28","105928","0.0-14.0-0.0-0.7","5c163e51d47b0000014a7821","619531dcf66c91622fa1b861","61959613b727bb5d2a701df0","null","","null","","","","","main_T1_ITI","","","","",""
"","","","","","visual-search-circle","29","108874","0.0-14.0-0.0-1.7","5c163e51d47b0000014a7821","619531dcf66c91622fa1b861","61959613b727bb5d2a701df0","1933.6000000238419","","d","true","[[512,512],[600,300],[512,87],[300,0],[87,87],[0,299],[87,512],[299,600]]","true","8","main_T2_Trial","d","img/Fire_Down_Target.gif","[""img/Fire_Up_Distractor.gif"",""img/Fire_Up_Distractor.gif"",""img/Fire_Up_Distractor.gif"",""img/Fire_Up_Distractor.gif"",""img/Fire_Up_Distractor.gif"",""img/Fire_Up_Distractor.gif"",""img/Fire_Up_Distractor.gif"",""img/Fire_Up_Distractor.gif"",""img/Fire_Up_Distractor.gif"",""img/Fire_Up_Distractor.gif"",""img/Fire_Up_Distractor.gif"",""img/Fire_Up_Distractor.gif""]","8","targetDown_distractorsUp"
"","","","","","html-keyboard-response","30","108877","0.0-14.0-0.0-0.8","5c163e51d47b0000014a7821","619531dcf66c91622fa1b861","61959613b727bb5d2a701df0","null","","null","","","","","main_T1_ITI","","","","",""
"","","","","","visual-search-circle","31","111450","0.0-14.0-0.0-1.8","5c163e51d47b0000014a7821","619531dcf66c91622fa1b861","61959613b727bb5d2a701df0","1558.5","","d","true","[[111,533],[364,592],[569,432],[571,171],[368,8],[114,64],[0,297]]","true","7","main_T2_Trial","d","img/Fire_Up_Target.gif","[""img/Fire_Down_Distractor.gif"",""img/Fire_Down_Distractor.gif"",""img/Fire_Down_Distractor.gif"",""img/Fire_Down_Distractor.gif"",""img/Fire_Down_Distractor.gif"",""img/Fire_Down_Distractor.gif"",""img/Fire_Down_Distractor.gif"",""img/Fire_Down_Distractor.gif"",""img/Fire_Down_Distractor.gif"",""img/Fire_Down_Distractor.gif"",""img/Fire_Down_Distractor.gif"",""img/Fire_Down_Distractor.gif""]","7","targetUp_distractorsDown"
"","","","","","html-keyboard-response","32","111453","0.0-14.0-0.0-0.9","5c163e51d47b0000014a7821","619531dcf66c91622fa1b861","61959613b727bb5d2a701df0","null","","null","","","","","main_T1_ITI","","","","",""
"","","","","","visual-search-circle","33","113375","0.0-14.0-0.0-1.9","5c163e51d47b0000014a7821","619531dcf66c91622fa1b861","61959613b727bb5d2a701df0","909.7999999523163","","s","true","[[545,472],[472,54],[54,127],[127,545]]","false","4","main_T2_Trial","s","img/Fire_Down_Target.gif","[""img/Fire_Up_Distractor.gif"",""img/Fire_Up_Distractor.gif"",""img/Fire_Up_Distractor.gif"",""img/Fire_Up_Distractor.gif"",""img/Fire_Up_Distractor.gif"",""img/Fire_Up_Distractor.gif"",""img/Fire_Up_Distractor.gif"",""img/Fire_Up_Distractor.gif"",""img/Fire_Up_Distractor.gif"",""img/Fire_Up_Distractor.gif"",""img/Fire_Up_Distractor.gif"",""img/Fire_Up_Distractor.gif""]","4","targetDown_distractorsUp"
"","","","","","html-keyboard-response","34","113378","0.0-14.0-0.0-0.10","5c163e51d47b0000014a7821","619531dcf66c91622fa1b861","61959613b727bb5d2a701df0","null","","null","","","","","main_T1_ITI","","","","",""
"","","","","","visual-search-circle","35","117284","0.0-14.0-0.0-1.10","5c163e51d47b0000014a7821","619531dcf66c91622fa1b861","61959613b727bb5d2a701df0","2899.5","","d","true","[[519,95],[173,28],[2,336],[242,594],[562,445]]","true","5","main_T2_Trial","d","img/Fire_Up_Target.gif","[""img/Fire_Down_Distractor.gif"",""img/Fire_Down_Distractor.gif"",""img/Fire_Down_Distractor.gif"",""img/Fire_Down_Distractor.gif"",""img/Fire_Down_Distractor.gif"",""img/Fire_Down_Distractor.gif"",""img/Fire_Down_Distractor.gif"",""img/Fire_Down_Distractor.gif"",""img/Fire_Down_Distractor.gif"",""img/Fire_Down_Distractor.gif"",""img/Fire_Down_Distractor.gif"",""img/Fire_Down_Distractor.gif""]","5","targetUp_distractorsDown"
"","","","","","html-keyboard-response","36","117287","0.0-14.0-0.0-0.11","5c163e51d47b0000014a7821","619531dcf66c91622fa1b861","61959613b727bb5d2a701df0","null","","null","","","","","main_T1_ITI","","","","",""
"","","","","","visual-search-circle","37","120469","0.0-14.0-0.0-1.11","5c163e51d47b0000014a7821","619531dcf66c91622fa1b861","61959613b727bb5d2a701df0","2172.3000000715256","","d","true","[[472,54],[247,4],[54,127],[4,352],[127,545],[352,595],[545,472],[595,247]]","true","8","main_T2_Trial","d","img/Fire_Down_Target.gif","[""img/Fire_Up_Distractor.gif"",""img/Fire_Up_Distractor.gif"",""img/Fire_Up_Distractor.gif"",""img/Fire_Up_Distractor.gif"",""img/Fire_Up_Distractor.gif"",""img/Fire_Up_Distractor.gif"",""img/Fire_Up_Distractor.gif"",""img/Fire_Up_Distractor.gif"",""img/Fire_Up_Distractor.gif"",""img/Fire_Up_Distractor.gif"",""img/Fire_Up_Distractor.gif"",""img/Fire_Up_Distractor.gif""]","8","targetDown_distractorsUp"
"","","","","","html-keyboard-response","38","120472","0.0-14.0-0.0-0.12","5c163e51d47b0000014a7821","619531dcf66c91622fa1b861","61959613b727bb5d2a701df0","null","","null","","","","","main_T1_ITI","","","","",""
"","","","","","visual-search-circle","39","123769","0.0-14.0-0.0-1.12","5c163e51d47b0000014a7821","619531dcf66c91622fa1b861","61959613b727bb5d2a701df0","2285.7000000476837","","d","true","[[336,2],[60,119],[23,417],[263,597],[539,480],[576,182]]","true","6","main_T2_Trial","d","img/Fire_Down_Target.gif","[""img/Fire_Up_Distractor.gif"",""img/Fire_Up_Distractor.gif"",""img/Fire_Up_Distractor.gif"",""img/Fire_Up_Distractor.gif"",""img/Fire_Up_Distractor.gif"",""img/Fire_Up_Distractor.gif"",""img/Fire_Up_Distractor.gif"",""img/Fire_Up_Distractor.gif"",""img/Fire_Up_Distractor.gif"",""img/Fire_Up_Distractor.gif"",""img/Fire_Up_Distractor.gif"",""img/Fire_Up_Distractor.gif""]","6","targetDown_distractorsUp"
"","","","","","html-keyboard-response","40","123771","0.0-14.0-0.0-0.13","5c163e51d47b0000014a7821","619531dcf66c91622fa1b861","61959613b727bb5d2a701df0","null","","null","","","","","main_T1_ITI","","","","",""
"","","","","","visual-search-circle","41","127233","0.0-14.0-0.0-1.13","5c163e51d47b0000014a7821","619531dcf66c91622fa1b861","61959613b727bb5d2a701df0","2458.2000000476837","","s","true","[[0,299],[149,559],[450,559],[600,300],[449,40],[150,40]]","false","6","main_T2_Trial","s","img/Fire_Up_Target.gif","[""img/Fire_Down_Distractor.gif"",""img/Fire_Down_Distractor.gif"",""img/Fire_Down_Distractor.gif"",""img/Fire_Down_Distractor.gif"",""img/Fire_Down_Distractor.gif"",""img/Fire_Down_Distractor.gif"",""img/Fire_Down_Distractor.gif"",""img/Fire_Down_Distractor.gif"",""img/Fire_Down_Distractor.gif"",""img/Fire_Down_Distractor.gif"",""img/Fire_Down_Distractor.gif"",""img/Fire_Down_Distractor.gif""]","6","targetUp_distractorsDown"
"","","","","","html-keyboard-response","42","127236","0.0-14.0-0.0-0.14","5c163e51d47b0000014a7821","619531dcf66c91622fa1b861","61959613b727bb5d2a701df0","null","","null","","","","","main_T1_ITI","","","","",""
"","","","","","visual-search-circle","43","133365","0.0-14.0-0.0-1.14","5c163e51d47b0000014a7821","619531dcf66c91622fa1b861","61959613b727bb5d2a701df0","5120.600000023842","","s","true","[[402,18],[63,115],[51,467],[382,588],[599,310]]","false","5","main_T2_Trial","s","img/Fire_Up_Target.gif","[""img/Fire_Down_Distractor.gif"",""img/Fire_Down_Distractor.gif"",""img/Fire_Down_Distractor.gif"",""img/Fire_Down_Distractor.gif"",""img/Fire_Down_Distractor.gif"",""img/Fire_Down_Distractor.gif"",""img/Fire_Down_Distractor.gif"",""img/Fire_Down_Distractor.gif"",""img/Fire_Down_Distractor.gif"",""img/Fire_Down_Distractor.gif"",""img/Fire_Down_Distractor.gif"",""img/Fire_Down_Distractor.gif""]","5","targetUp_distractorsDown"
"","","","","","html-keyboard-response","44","133367","0.0-14.0-0.0-0.15","5c163e51d47b0000014a7821","619531dcf66c91622fa1b861","61959613b727bb5d2a701df0","null","","null","","","","","main_T1_ITI","","","","",""
"","","","","","visual-search-circle","45","137941","0.0-14.0-0.0-1.15","5c163e51d47b0000014a7821","619531dcf66c91622fa1b861","61959613b727bb5d2a701df0","3564.600000023842","","d","true","[[197,18],[4,247],[107,529],[402,581],[595,352],[492,70]]","true","6","main_T2_Trial","d","img/Fire_Up_Target.gif","[""img/Fire_Down_Distractor.gif"",""img/Fire_Down_Distractor.gif"",""img/Fire_Down_Distractor.gif"",""img/Fire_Down_Distractor.gif"",""img/Fire_Down_Distractor.gif"",""img/Fire_Down_Distractor.gif"",""img/Fire_Down_Distractor.gif"",""img/Fire_Down_Distractor.gif"",""img/Fire_Down_Distractor.gif"",""img/Fire_Down_Distractor.gif"",""img/Fire_Down_Distractor.gif"",""img/Fire_Down_Distractor.gif""]","6","targetUp_distractorsDown"
"","","","","","html-keyboard-response","46","137947","0.0-14.0-0.0-0.16","5c163e51d47b0000014a7821","619531dcf66c91622fa1b861","61959613b727bb5d2a701df0","null","","null","","","","","main_T1_ITI","","","","",""
"","","","","","visual-search-circle","47","141470","0.0-14.0-0.0-1.16","5c163e51d47b0000014a7821","619531dcf66c91622fa1b861","61959613b727bb5d2a701df0","2508.5","","s","true","[[63,115],[51,467],[382,588],[599,310],[402,18]]","false","5","main_T2_Trial","s","img/Fire_Down_Target.gif","[""img/Fire_Up_Distractor.gif"",""img/Fire_Up_Distractor.gif"",""img/Fire_Up_Distractor.gif"",""img/Fire_Up_Distractor.gif"",""img/Fire_Up_Distractor.gif"",""img/Fire_Up_Distractor.gif"",""img/Fire_Up_Distractor.gif"",""img/Fire_Up_Distractor.gif"",""img/Fire_Up_Distractor.gif"",""img/Fire_Up_Distractor.gif"",""img/Fire_Up_Distractor.gif"",""img/Fire_Up_Distractor.gif""]","5","targetDown_distractorsUp"
"","","","","","html-keyboard-response","48","141473","0.0-14.0-0.0-0.17","5c163e51d47b0000014a7821","619531dcf66c91622fa1b861","61959613b727bb5d2a701df0","null","","null","","","","","main_T1_ITI","","","","",""
"","","","","","visual-search-circle","49","145711","0.0-14.0-0.0-1.17","5c163e51d47b0000014a7821","619531dcf66c91622fa1b861","61959613b727bb5d2a701df0","3221.7999999523163","","d","true","[[436,32],[32,163],[163,567],[567,436]]","true","4","main_T2_Trial","d","img/Fire_Down_Target.gif","[""img/Fire_Up_Distractor.gif"",""img/Fire_Up_Distractor.gif"",""img/Fire_Up_Distractor.gif"",""img/Fire_Up_Distractor.gif"",""img/Fire_Up_Distractor.gif"",""img/Fire_Up_Distractor.gif"",""img/Fire_Up_Distractor.gif"",""img/Fire_Up_Distractor.gif"",""img/Fire_Up_Distractor.gif"",""img/Fire_Up_Distractor.gif"",""img/Fire_Up_Distractor.gif"",""img/Fire_Up_Distractor.gif""]","4","targetDown_distractorsUp"
"","","","","","html-keyboard-response","50","145713","0.0-14.0-0.0-0.18","5c163e51d47b0000014a7821","619531dcf66c91622fa1b861","61959613b727bb5d2a701df0","null","","null","","","","","main_T1_ITI","","","","",""
"","","","","","visual-search-circle","51","150506","0.0-14.0-0.0-1.18","5c163e51d47b0000014a7821","619531dcf66c91622fa1b861","61959613b727bb5d2a701df0","3779.3000000715256","","s","true","[[0,305],[91,515],[305,599],[515,508],[599,294],[508,84],[294,0],[84,91]]","false","8","main_T2_Trial","s","img/Fire_Down_Target.gif","[""img/Fire_Up_Distractor.gif"",""img/Fire_Up_Distractor.gif"",""img/Fire_Up_Distractor.gif"",""img/Fire_Up_Distractor.gif"",""img/Fire_Up_Distractor.gif"",""img/Fire_Up_Distractor.gif"",""img/Fire_Up_Distractor.gif"",""img/Fire_Up_Distractor.gif"",""img/Fire_Up_Distractor.gif"",""img/Fire_Up_Distractor.gif"",""img/Fire_Up_Distractor.gif"",""img/Fire_Up_Distractor.gif""]","8","targetDown_distractorsUp"
"","","","","","html-keyboard-response","52","159487","0.0-14.0-0.0-0.19","5c163e51d47b0000014a7821","619531dcf66c91622fa1b861","61959613b727bb5d2a701df0","8979.699999928474","Wow! You've completed 20 out of 160 trials! </p> <p>  </p><p> Take a quick break, then press any key when you're ready to continue.","s","","","","","main_T1_ITI","","","","",""
"","","","","","visual-search-circle","53","164643","0.0-14.0-0.0-1.19","5c163e51d47b0000014a7821","619531dcf66c91622fa1b861","61959613b727bb5d2a701df0","4139.600000023842","","s","true","[[247,4],[54,127],[4,352],[127,545],[352,595],[545,472],[595,247],[472,54]]","false","8","main_T2_Trial","s","img/Fire_Down_Target.gif","[""img/Fire_Up_Distractor.gif"",""img/Fire_Up_Distractor.gif"",""img/Fire_Up_Distractor.gif"",""img/Fire_Up_Distractor.gif"",""img/Fire_Up_Distractor.gif"",""img/Fire_Up_Distractor.gif"",""img/Fire_Up_Distractor.gif"",""img/Fire_Up_Distractor.gif"",""img/Fire_Up_Distractor.gif"",""img/Fire_Up_Distractor.gif"",""img/Fire_Up_Distractor.gif"",""img/Fire_Up_Distractor.gif""]","8","targetDown_distractorsUp"
"","","","","","html-keyboard-response","54","164703","0.0-14.0-0.0-0.20","5c163e51d47b0000014a7821","619531dcf66c91622fa1b861","61959613b727bb5d2a701df0","null","","null","","","","","main_T1_ITI","","","","",""
"","","","","","visual-search-circle","55","169176","0.0-14.0-0.0-1.20","5c163e51d47b0000014a7821","619531dcf66c91622fa1b861","61959613b727bb5d2a701df0","3462.399999976158","","s","true","[[599,310],[495,72],[243,5],[34,160],[25,420],[223,589],[478,540]]","false","7","main_T2_Trial","s","img/Fire_Up_Target.gif","[""img/Fire_Down_Distractor.gif"",""img/Fire_Down_Distractor.gif"",""img/Fire_Down_Distractor.gif"",""img/Fire_Down_Distractor.gif"",""img/Fire_Down_Distractor.gif"",""img/Fire_Down_Distractor.gif"",""img/Fire_Down_Distractor.gif"",""img/Fire_Down_Distractor.gif"",""img/Fire_Down_Distractor.gif"",""img/Fire_Down_Distractor.gif"",""img/Fire_Down_Distractor.gif"",""img/Fire_Down_Distractor.gif""]","7","targetUp_distractorsDown"
"","","","","","html-keyboard-response","56","169179","0.0-14.0-0.0-0.21","5c163e51d47b0000014a7821","619531dcf66c91622fa1b861","61959613b727bb5d2a701df0","null","","null","","","","","main_T1_ITI","","","","",""
"","","","","","visual-search-circle","57","172986","0.0-14.0-0.0-1.21","5c163e51d47b0000014a7821","619531dcf66c91622fa1b861","61959613b727bb5d2a701df0","2801.5","","s","true","[[597,336],[426,28],[80,95],[37,445],[357,594]]","false","5","main_T2_Trial","s","img/Fire_Up_Target.gif","[""img/Fire_Down_Distractor.gif"",""img/Fire_Down_Distractor.gif"",""img/Fire_Down_Distractor.gif"",""img/Fire_Down_Distractor.gif"",""img/Fire_Down_Distractor.gif"",""img/Fire_Down_Distractor.gif"",""img/Fire_Down_Distractor.gif"",""img/Fire_Down_Distractor.gif"",""img/Fire_Down_Distractor.gif"",""img/Fire_Down_Distractor.gif"",""img/Fire_Down_Distractor.gif"",""img/Fire_Down_Distractor.gif""]","5","targetUp_distractorsDown"
"","","","","","html-keyboard-response","58","172989","0.0-14.0-0.0-0.22","5c163e51d47b0000014a7821","619531dcf66c91622fa1b861","61959613b727bb5d2a701df0","null","","null","","","","","main_T1_ITI","","","","",""
"","","","","","visual-search-circle","59","176771","0.0-14.0-0.0-1.22","5c163e51d47b0000014a7821","619531dcf66c91622fa1b861","61959613b727bb5d2a701df0","2770","","s","true","[[476,57],[57,123],[123,542],[542,476]]","false","4","main_T2_Trial","s","img/Fire_Up_Target.gif","[""img/Fire_Down_Distractor.gif"",""img/Fire_Down_Distractor.gif"",""img/Fire_Down_Distractor.gif"",""img/Fire_Down_Distractor.gif"",""img/Fire_Down_Distractor.gif"",""img/Fire_Down_Distractor.gif"",""img/Fire_Down_Distractor.gif"",""img/Fire_Down_Distractor.gif"",""img/Fire_Down_Distractor.gif"",""img/Fire_Down_Distractor.gif"",""img/Fire_Down_Distractor.gif"",""img/Fire_Down_Distractor.gif""]","4","targetUp_distractorsDown"
"","","","","","html-keyboard-response","60","176773","0.0-14.0-0.0-0.23","5c163e51d47b0000014a7821","619531dcf66c91622fa1b861","61959613b727bb5d2a701df0","null","","null","","","","","main_T1_ITI","","","","",""
"","","","","","visual-search-circle","61","181703","0.0-14.0-0.0-1.23","5c163e51d47b0000014a7821","619531dcf66c91622fa1b861","61959613b727bb5d2a701df0","3921.1999999284744","","d","true","[[2,341],[119,539],[341,597],[539,480],[597,258],[480,60],[258,2],[60,119]]","true","8","main_T2_Trial","d","img/Fire_Down_Target.gif","[""img/Fire_Up_Distractor.gif"",""img/Fire_Up_Distractor.gif"",""img/Fire_Up_Distractor.gif"",""img/Fire_Up_Distractor.gif"",""img/Fire_Up_Distractor.gif"",""img/Fire_Up_Distractor.gif"",""img/Fire_Up_Distractor.gif"",""img/Fire_Up_Distractor.gif"",""img/Fire_Up_Distractor.gif"",""img/Fire_Up_Distractor.gif"",""img/Fire_Up_Distractor.gif"",""img/Fire_Up_Distractor.gif""]","8","targetDown_distractorsUp"
"","","","","","html-keyboard-response","62","181705","0.0-14.0-0.0-0.24","5c163e51d47b0000014a7821","619531dcf66c91622fa1b861","61959613b727bb5d2a701df0","null","","null","","","","","main_T1_ITI","","","","",""
"","","","","","visual-search-circle","63","184001","0.0-14.0-0.0-1.24","5c163e51d47b0000014a7821","619531dcf66c91622fa1b861","61959613b727bb5d2a701df0","1290.6000000238419","","d","true","[[145,42],[8,227],[42,454],[227,591],[454,557],[591,372],[557,145],[372,8]]","true","8","main_T2_Trial","d","img/Fire_Down_Target.gif","[""img/Fire_Up_Distractor.gif"",""img/Fire_Up_Distractor.gif"",""img/Fire_Up_Distractor.gif"",""img/Fire_Up_Distractor.gif"",""img/Fire_Up_Distractor.gif"",""img/Fire_Up_Distractor.gif"",""img/Fire_Up_Distractor.gif"",""img/Fire_Up_Distractor.gif"",""img/Fire_Up_Distractor.gif"",""img/Fire_Up_Distractor.gif"",""img/Fire_Up_Distractor.gif"",""img/Fire_Up_Distractor.gif""]","8","targetDown_distractorsUp"
"","","","","","html-keyboard-response","64","184012","0.0-14.0-0.0-0.25","5c163e51d47b0000014a7821","619531dcf66c91622fa1b861","61959613b727bb5d2a701df0","null","","null","","","","","main_T1_ITI","","","","",""
"","","","","","visual-search-circle","65","187051","0.0-14.0-0.0-1.25","5c163e51d47b0000014a7821","619531dcf66c91622fa1b861","61959613b727bb5d2a701df0","2030.8000000715256","","d","true","[[588,217],[445,37],[217,11],[37,154],[11,382],[154,562],[382,588],[562,445]]","true","8","main_T2_Trial","d","img/Fire_Down_Target.gif","[""img/Fire_Up_Distractor.gif"",""img/Fire_Up_Distractor.gif"",""img/Fire_Up_Distractor.gif"",""img/Fire_Up_Distractor.gif"",""img/Fire_Up_Distractor.gif"",""img/Fire_Up_Distractor.gif"",""img/Fire_Up_Distractor.gif"",""img/Fire_Up_Distractor.gif"",""img/Fire_Up_Distractor.gif"",""img/Fire_Up_Distractor.gif"",""img/Fire_Up_Distractor.gif"",""img/Fire_Up_Distractor.gif""]","8","targetDown_distractorsUp"
"","","","","","html-keyboard-response","66","187053","0.0-14.0-0.0-0.26","5c163e51d47b0000014a7821","619531dcf66c91622fa1b861","61959613b727bb5d2a701df0","null","","null","","","","","main_T1_ITI","","","","",""
"","","","","","visual-search-circle","67","189654","0.0-14.0-0.0-1.26","5c163e51d47b0000014a7821","619531dcf66c91622fa1b861","61959613b727bb5d2a701df0","1585.3999999761581","","d","true","[[37,154],[11,382],[154,562],[382,588],[562,445],[588,217],[445,37],[217,11]]","true","8","main_T2_Trial","d","img/Fire_Up_Target.gif","[""img/Fire_Down_Distractor.gif"",""img/Fire_Down_Distractor.gif"",""img/Fire_Down_Distractor.gif"",""img/Fire_Down_Distractor.gif"",""img/Fire_Down_Distractor.gif"",""img/Fire_Down_Distractor.gif"",""img/Fire_Down_Distractor.gif"",""img/Fire_Down_Distractor.gif"",""img/Fire_Down_Distractor.gif"",""img/Fire_Down_Distractor.gif"",""img/Fire_Down_Distractor.gif"",""img/Fire_Down_Distractor.gif""]","8","targetUp_distractorsDown"
"","","","","","html-keyboard-response","68","189656","0.0-14.0-0.0-0.27","5c163e51d47b0000014a7821","619531dcf66c91622fa1b861","61959613b727bb5d2a701df0","null","","null","","","","","main_T1_ITI","","","","",""
"","","","","","visual-search-circle","69","193736","0.0-14.0-0.0-1.27","5c163e51d47b0000014a7821","619531dcf66c91622fa1b861","61959613b727bb5d2a701df0","3062.399999976158","","d","true","[[488,66],[235,7],[30,167],[28,428],[231,591],[485,535],[599,302]]","true","7","main_T2_Trial","d","img/Fire_Up_Target.gif","[""img/Fire_Down_Distractor.gif"",""img/Fire_Down_Distractor.gif"",""img/Fire_Down_Distractor.gif"",""img/Fire_Down_Distractor.gif"",""img/Fire_Down_Distractor.gif"",""img/Fire_Down_Distractor.gif"",""img/Fire_Down_Distractor.gif"",""img/Fire_Down_Distractor.gif"",""img/Fire_Down_Distractor.gif"",""img/Fire_Down_Distractor.gif"",""img/Fire_Down_Distractor.gif"",""img/Fire_Down_Distractor.gif""]","7","targetUp_distractorsDown"
"","","","","","html-keyboard-response","70","193739","0.0-14.0-0.0-0.28","5c163e51d47b0000014a7821","619531dcf66c91622fa1b861","61959613b727bb5d2a701df0","null","","null","","","","","main_T1_ITI","","","","",""
"","","","","","visual-search-circle","71","197109","0.0-14.0-0.0-1.28","5c163e51d47b0000014a7821","619531dcf66c91622fa1b861","61959613b727bb5d2a701df0","2367.399999976158","","s","true","[[422,574],[598,331],[476,57],[177,25],[1,268],[123,542]]","false","6","main_T2_Trial","s","img/Fire_Up_Target.gif","[""img/Fire_Down_Distractor.gif"",""img/Fire_Down_Distractor.gif"",""img/Fire_Down_Distractor.gif"",""img/Fire_Down_Distractor.gif"",""img/Fire_Down_Distractor.gif"",""img/Fire_Down_Distractor.gif"",""img/Fire_Down_Distractor.gif"",""img/Fire_Down_Distractor.gif"",""img/Fire_Down_Distractor.gif"",""img/Fire_Down_Distractor.gif"",""img/Fire_Down_Distractor.gif"",""img/Fire_Down_Distractor.gif""]","6","targetUp_distractorsDown"
"","","","","","html-keyboard-response","72","197111","0.0-14.0-0.0-0.29","5c163e51d47b0000014a7821","619531dcf66c91622fa1b861","61959613b727bb5d2a701df0","null","","null","","","","","main_T1_ITI","","","","",""
"","","","","","visual-search-circle","73","199620","0.0-14.0-0.0-1.29","5c163e51d47b0000014a7821","619531dcf66c91622fa1b861","61959613b727bb5d2a701df0","1492.5","","d","false","[[445,562],[562,154],[154,37],[37,445]]","false","4","main_T2_Trial","s","img/Fire_Up_Target.gif","[""img/Fire_Down_Distractor.gif"",""img/Fire_Down_Distractor.gif"",""img/Fire_Down_Distractor.gif"",""img/Fire_Down_Distractor.gif"",""img/Fire_Down_Distractor.gif"",""img/Fire_Down_Distractor.gif"",""img/Fire_Down_Distractor.gif"",""img/Fire_Down_Distractor.gif"",""img/Fire_Down_Distractor.gif"",""img/Fire_Down_Distractor.gif"",""img/Fire_Down_Distractor.gif"",""img/Fire_Down_Distractor.gif""]","4","targetUp_distractorsDown"
"","","","","","html-keyboard-response","74","199623","0.0-14.0-0.0-0.30","5c163e51d47b0000014a7821","619531dcf66c91622fa1b861","61959613b727bb5d2a701df0","null","","null","","","","","main_T1_ITI","","","","",""
"","","","","","visual-search-circle","75","204760","0.0-14.0-0.0-1.30","5c163e51d47b0000014a7821","619531dcf66c91622fa1b861","61959613b727bb5d2a701df0","4122.299999952316","","s","true","[[315,0],[99,77],[0,284],[77,500],[284,599],[500,522],[599,315],[522,99]]","false","8","main_T2_Trial","s","img/Fire_Up_Target.gif","[""img/Fire_Down_Distractor.gif"",""img/Fire_Down_Distractor.gif"",""img/Fire_Down_Distractor.gif"",""img/Fire_Down_Distractor.gif"",""img/Fire_Down_Distractor.gif"",""img/Fire_Down_Distractor.gif"",""img/Fire_Down_Distractor.gif"",""img/Fire_Down_Distractor.gif"",""img/Fire_Down_Distractor.gif"",""img/Fire_Down_Distractor.gif"",""img/Fire_Down_Distractor.gif"",""img/Fire_Down_Distractor.gif""]","8","targetUp_distractorsDown"
"","","","","","html-keyboard-response","76","204762","0.0-14.0-0.0-0.31","5c163e51d47b0000014a7821","619531dcf66c91622fa1b861","61959613b727bb5d2a701df0","null","","null","","","","","main_T1_ITI","","","","",""
"","","","","","visual-search-circle","77","208454","0.0-14.0-0.0-1.31","5c163e51d47b0000014a7821","619531dcf66c91622fa1b861","61959613b727bb5d2a701df0","2683.600000023842","","d","true","[[382,11],[11,217],[217,588],[588,382]]","true","4","main_T2_Trial","d","img/Fire_Down_Target.gif","[""img/Fire_Up_Distractor.gif"",""img/Fire_Up_Distractor.gif"",""img/Fire_Up_Distractor.gif"",""img/Fire_Up_Distractor.gif"",""img/Fire_Up_Distractor.gif"",""img/Fire_Up_Distractor.gif"",""img/Fire_Up_Distractor.gif"",""img/Fire_Up_Distractor.gif"",""img/Fire_Up_Distractor.gif"",""img/Fire_Up_Distractor.gif"",""img/Fire_Up_Distractor.gif"",""img/Fire_Up_Distractor.gif""]","4","targetDown_distractorsUp"
"","","","","","html-keyboard-response","78","208457","0.0-14.0-0.0-0.32","5c163e51d47b0000014a7821","619531dcf66c91622fa1b861","61959613b727bb5d2a701df0","null","","null","","","","","main_T1_ITI","","","","",""
"","","","","","visual-search-circle","79","212463","0.0-14.0-0.0-1.32","5c163e51d47b0000014a7821","619531dcf66c91622fa1b861","61959613b727bb5d2a701df0","3002.7000000476837","","s","true","[[571,426],[581,197],[426,28],[197,18],[28,173],[18,402],[173,571],[402,581]]","false","8","main_T2_Trial","s","img/Fire_Down_Target.gif","[""img/Fire_Up_Distractor.gif"",""img/Fire_Up_Distractor.gif"",""img/Fire_Up_Distractor.gif"",""img/Fire_Up_Distractor.gif"",""img/Fire_Up_Distractor.gif"",""img/Fire_Up_Distractor.gif"",""img/Fire_Up_Distractor.gif"",""img/Fire_Up_Distractor.gif"",""img/Fire_Up_Distractor.gif"",""img/Fire_Up_Distractor.gif"",""img/Fire_Up_Distractor.gif"",""img/Fire_Up_Distractor.gif""]","8","targetDown_distractorsUp"
"","","","","","html-keyboard-response","80","212465","0.0-14.0-0.0-0.33","5c163e51d47b0000014a7821","619531dcf66c91622fa1b861","61959613b727bb5d2a701df0","null","","null","","","","","main_T1_ITI","","","","",""
"","","","","","visual-search-circle","81","215870","0.0-14.0-0.0-1.33","5c163e51d47b0000014a7821","619531dcf66c91622fa1b861","61959613b727bb5d2a701df0","2390.5","","d","true","[[569,168],[258,2],[4,247],[159,564],[508,515]]","true","5","main_T2_Trial","d","img/Fire_Down_Target.gif","[""img/Fire_Up_Distractor.gif"",""img/Fire_Up_Distractor.gif"",""img/Fire_Up_Distractor.gif"",""img/Fire_Up_Distractor.gif"",""img/Fire_Up_Distractor.gif"",""img/Fire_Up_Distractor.gif"",""img/Fire_Up_Distractor.gif"",""img/Fire_Up_Distractor.gif"",""img/Fire_Up_Distractor.gif"",""img/Fire_Up_Distractor.gif"",""img/Fire_Up_Distractor.gif"",""img/Fire_Up_Distractor.gif""]","5","targetDown_distractorsUp"
"","","","","","html-keyboard-response","82","215872","0.0-14.0-0.0-0.34","5c163e51d47b0000014a7821","619531dcf66c91622fa1b861","61959613b727bb5d2a701df0","null","","null","","","","","main_T1_ITI","","","","",""
"","","","","","visual-search-circle","83","222406","0.0-14.0-0.0-1.34","5c163e51d47b0000014a7821","619531dcf66c91622fa1b861","61959613b727bb5d2a701df0","5527.299999952316","","s","true","[[562,154],[382,11],[154,37],[11,217],[37,445],[217,588],[445,562],[588,382]]","false","8","main_T2_Trial","s","img/Fire_Down_Target.gif","[""img/Fire_Up_Distractor.gif"",""img/Fire_Up_Distractor.gif"",""img/Fire_Up_Distractor.gif"",""img/Fire_Up_Distractor.gif"",""img/Fire_Up_Distractor.gif"",""img/Fire_Up_Distractor.gif"",""img/Fire_Up_Distractor.gif"",""img/Fire_Up_Distractor.gif"",""img/Fire_Up_Distractor.gif"",""img/Fire_Up_Distractor.gif"",""img/Fire_Up_Distractor.gif"",""img/Fire_Up_Distractor.gif""]","8","targetDown_distractorsUp"
"","","","","","html-keyboard-response","84","222408","0.0-14.0-0.0-0.35","5c163e51d47b0000014a7821","619531dcf66c91622fa1b861","61959613b727bb5d2a701df0","null","","null","","","","","main_T1_ITI","","","","",""
"","","","","","visual-search-circle","85","224789","0.0-14.0-0.0-1.35","5c163e51d47b0000014a7821","619531dcf66c91622fa1b861","61959613b727bb5d2a701df0","1364.1999999284744","","d","true","[[141,554],[440,564],[599,310],[458,45],[159,35],[0,289]]","true","6","main_T2_Trial","d","img/Fire_Down_Target.gif","[""img/Fire_Up_Distractor.gif"",""img/Fire_Up_Distractor.gif"",""img/Fire_Up_Distractor.gif"",""img/Fire_Up_Distractor.gif"",""img/Fire_Up_Distractor.gif"",""img/Fire_Up_Distractor.gif"",""img/Fire_Up_Distractor.gif"",""img/Fire_Up_Distractor.gif"",""img/Fire_Up_Distractor.gif"",""img/Fire_Up_Distractor.gif"",""img/Fire_Up_Distractor.gif"",""img/Fire_Up_Distractor.gif""]","6","targetDown_distractorsUp"
"","","","","","html-keyboard-response","86","224792","0.0-14.0-0.0-0.36","5c163e51d47b0000014a7821","619531dcf66c91622fa1b861","61959613b727bb5d2a701df0","null","","null","","","","","main_T1_ITI","","","","",""
"","","","","","visual-search-circle","87","228070","0.0-14.0-0.0-1.36","5c163e51d47b0000014a7821","619531dcf66c91622fa1b861","61959613b727bb5d2a701df0","2260.2000000476837","","s","true","[[476,57],[253,3],[57,123],[3,346],[123,542],[346,596],[542,476],[596,253]]","false","8","main_T2_Trial","s","img/Fire_Up_Target.gif","[""img/Fire_Down_Distractor.gif"",""img/Fire_Down_Distractor.gif"",""img/Fire_Down_Distractor.gif"",""img/Fire_Down_Distractor.gif"",""img/Fire_Down_Distractor.gif"",""img/Fire_Down_Distractor.gif"",""img/Fire_Down_Distractor.gif"",""img/Fire_Down_Distractor.gif"",""img/Fire_Down_Distractor.gif"",""img/Fire_Down_Distractor.gif"",""img/Fire_Down_Distractor.gif"",""img/Fire_Down_Distractor.gif""]","8","targetUp_distractorsDown"
"","","","","","html-keyboard-response","88","228072","0.0-14.0-0.0-0.37","5c163e51d47b0000014a7821","619531dcf66c91622fa1b861","61959613b727bb5d2a701df0","null","","null","","","","","main_T1_ITI","","","","",""
"","","","","","visual-search-circle","89","230310","0.0-14.0-0.0-1.37","5c163e51d47b0000014a7821","619531dcf66c91622fa1b861","61959613b727bb5d2a701df0","1234.5","","d","true","[[23,182],[60,480],[336,597],[576,417],[539,119],[263,2]]","true","6","main_T2_Trial","d","img/Fire_Down_Target.gif","[""img/Fire_Up_Distractor.gif"",""img/Fire_Up_Distractor.gif"",""img/Fire_Up_Distractor.gif"",""img/Fire_Up_Distractor.gif"",""img/Fire_Up_Distractor.gif"",""img/Fire_Up_Distractor.gif"",""img/Fire_Up_Distractor.gif"",""img/Fire_Up_Distractor.gif"",""img/Fire_Up_Distractor.gif"",""img/Fire_Up_Distractor.gif"",""img/Fire_Up_Distractor.gif"",""img/Fire_Up_Distractor.gif""]","6","targetDown_distractorsUp"
"","","","","","html-keyboard-response","90","230312","0.0-14.0-0.0-0.38","5c163e51d47b0000014a7821","619531dcf66c91622fa1b861","61959613b727bb5d2a701df0","null","","null","","","","","main_T1_ITI","","","","",""
"","","","","","visual-search-circle","91","232958","0.0-14.0-0.0-1.38","5c163e51d47b0000014a7821","619531dcf66c91622fa1b861","61959613b727bb5d2a701df0","1633.6000000238419","","d","true","[[42,145],[18,404],[206,585],[464,550],[598,327],[507,83],[260,2]]","true","7","main_T2_Trial","d","img/Fire_Up_Target.gif","[""img/Fire_Down_Distractor.gif"",""img/Fire_Down_Distractor.gif"",""img/Fire_Down_Distractor.gif"",""img/Fire_Down_Distractor.gif"",""img/Fire_Down_Distractor.gif"",""img/Fire_Down_Distractor.gif"",""img/Fire_Down_Distractor.gif"",""img/Fire_Down_Distractor.gif"",""img/Fire_Down_Distractor.gif"",""img/Fire_Down_Distractor.gif"",""img/Fire_Down_Distractor.gif"",""img/Fire_Down_Distractor.gif""]","7","targetUp_distractorsDown"
"","","","","","html-keyboard-response","92","238536","0.0-14.0-0.0-0.39","5c163e51d47b0000014a7821","619531dcf66c91622fa1b861","61959613b727bb5d2a701df0","5578.099999904633","Wow! You've completed 40 out of 160 trials! </p> <p>  </p><p> Take a quick break, then press any key when you're ready to continue."," ","","","","","main_T1_ITI","","","","",""
"","","","","","visual-search-circle","93","242723","0.0-14.0-0.0-1.39","5c163e51d47b0000014a7821","619531dcf66c91622fa1b861","61959613b727bb5d2a701df0","3183.899999976158","","d","true","[[412,21],[115,63],[2,341],[187,578],[484,536],[597,258]]","true","6","main_T2_Trial","d","img/Fire_Up_Target.gif","[""img/Fire_Down_Distractor.gif"",""img/Fire_Down_Distractor.gif"",""img/Fire_Down_Distractor.gif"",""img/Fire_Down_Distractor.gif"",""img/Fire_Down_Distractor.gif"",""img/Fire_Down_Distractor.gif"",""img/Fire_Down_Distractor.gif"",""img/Fire_Down_Distractor.gif"",""img/Fire_Down_Distractor.gif"",""img/Fire_Down_Distractor.gif"",""img/Fire_Down_Distractor.gif"",""img/Fire_Down_Distractor.gif""]","6","targetUp_distractorsDown"
"","","","","","html-keyboard-response","94","242725","0.0-14.0-0.0-0.40","5c163e51d47b0000014a7821","619531dcf66c91622fa1b861","61959613b727bb5d2a701df0","null","","null","","","","","main_T1_ITI","","","","",""
"","","","","","visual-search-circle","95","244989","0.0-14.0-0.0-1.40","5c163e51d47b0000014a7821","619531dcf66c91622fa1b861","61959613b727bb5d2a701df0","1249.2999999523163","","s","true","[[273,598],[576,417],[496,73],[145,42],[7,367]]","false","5","main_T2_Trial","s","img/Fire_Down_Target.gif","[""img/Fire_Up_Distractor.gif"",""img/Fire_Up_Distractor.gif"",""img/Fire_Up_Distractor.gif"",""img/Fire_Up_Distractor.gif"",""img/Fire_Up_Distractor.gif"",""img/Fire_Up_Distractor.gif"",""img/Fire_Up_Distractor.gif"",""img/Fire_Up_Distractor.gif"",""img/Fire_Up_Distractor.gif"",""img/Fire_Up_Distractor.gif"",""img/Fire_Up_Distractor.gif"",""img/Fire_Up_Distractor.gif""]","5","targetDown_distractorsUp"
"","","","","","html-keyboard-response","96","244992","0.0-14.0-0.0-0.41","5c163e51d47b0000014a7821","619531dcf66c91622fa1b861","61959613b727bb5d2a701df0","null","","null","","","","","main_T1_ITI","","","","",""
"","","","","","visual-search-circle","97","249783","0.0-14.0-0.0-1.41","5c163e51d47b0000014a7821","619531dcf66c91622fa1b861","61959613b727bb5d2a701df0","3777.4000000953674","","s","true","[[567,163],[163,32],[32,436],[436,567]]","false","4","main_T2_Trial","s","img/Fire_Down_Target.gif","[""img/Fire_Up_Distractor.gif"",""img/Fire_Up_Distractor.gif"",""img/Fire_Up_Distractor.gif"",""img/Fire_Up_Distractor.gif"",""img/Fire_Up_Distractor.gif"",""img/Fire_Up_Distractor.gif"",""img/Fire_Up_Distractor.gif"",""img/Fire_Up_Distractor.gif"",""img/Fire_Up_Distractor.gif"",""img/Fire_Up_Distractor.gif"",""img/Fire_Up_Distractor.gif"",""img/Fire_Up_Distractor.gif""]","4","targetDown_distractorsUp"
"","","","","","html-keyboard-response","98","249784","0.0-14.0-0.0-0.42","5c163e51d47b0000014a7821","619531dcf66c91622fa1b861","61959613b727bb5d2a701df0","null","","null","","","","","main_T1_ITI","","","","",""
"","","","","","visual-search-circle","99","253856","0.0-14.0-0.0-1.42","5c163e51d47b0000014a7821","619531dcf66c91622fa1b861","61959613b727bb5d2a701df0","3057.2999999523163","","s","true","[[508,84],[261,2],[43,144],[18,404],[205,584],[464,551],[598,328]]","false","7","main_T2_Trial","s","img/Fire_Up_Target.gif","[""img/Fire_Down_Distractor.gif"",""img/Fire_Down_Distractor.gif"",""img/Fire_Down_Distractor.gif"",""img/Fire_Down_Distractor.gif"",""img/Fire_Down_Distractor.gif"",""img/Fire_Down_Distractor.gif"",""img/Fire_Down_Distractor.gif"",""img/Fire_Down_Distractor.gif"",""img/Fire_Down_Distractor.gif"",""img/Fire_Down_Distractor.gif"",""img/Fire_Down_Distractor.gif"",""img/Fire_Down_Distractor.gif""]","7","targetUp_distractorsDown"
"","","","","","html-keyboard-response","100","253858","0.0-14.0-0.0-0.43","5c163e51d47b0000014a7821","619531dcf66c91622fa1b861","61959613b727bb5d2a701df0","null","","null","","","","","main_T1_ITI","","","","",""
"","","","","","visual-search-circle","101","256480","0.0-14.0-0.0-1.43","5c163e51d47b0000014a7821","619531dcf66c91622fa1b861","61959613b727bb5d2a701df0","1615.7000000476837","","d","true","[[48,136],[32,436],[284,599],[551,463],[567,163],[315,0]]","true","6","main_T2_Trial","d","img/Fire_Up_Target.gif","[""img/Fire_Down_Distractor.gif"",""img/Fire_Down_Distractor.gif"",""img/Fire_Down_Distractor.gif"",""img/Fire_Down_Distractor.gif"",""img/Fire_Down_Distractor.gif"",""img/Fire_Down_Distractor.gif"",""img/Fire_Down_Distractor.gif"",""img/Fire_Down_Distractor.gif"",""img/Fire_Down_Distractor.gif"",""img/Fire_Down_Distractor.gif"",""img/Fire_Down_Distractor.gif"",""img/Fire_Down_Distractor.gif""]","6","targetUp_distractorsDown"
"","","","","","html-keyboard-response","102","256482","0.0-14.0-0.0-0.44","5c163e51d47b0000014a7821","619531dcf66c91622fa1b861","61959613b727bb5d2a701df0","null","","null","","","","","main_T1_ITI","","","","",""
"","","","","","visual-search-circle","103","260309","0.0-14.0-0.0-1.44","5c163e51d47b0000014a7821","619531dcf66c91622fa1b861","61959613b727bb5d2a701df0","2821.3000000715256","","s","true","[[30,431],[279,599],[548,467],[569,168],[320,0],[51,132]]","false","6","main_T2_Trial","s","img/Fire_Down_Target.gif","[""img/Fire_Up_Distractor.gif"",""img/Fire_Up_Distractor.gif"",""img/Fire_Up_Distractor.gif"",""img/Fire_Up_Distractor.gif"",""img/Fire_Up_Distractor.gif"",""img/Fire_Up_Distractor.gif"",""img/Fire_Up_Distractor.gif"",""img/Fire_Up_Distractor.gif"",""img/Fire_Up_Distractor.gif"",""img/Fire_Up_Distractor.gif"",""img/Fire_Up_Distractor.gif"",""img/Fire_Up_Distractor.gif""]","6","targetDown_distractorsUp"
"","","","","","html-keyboard-response","104","260312","0.0-14.0-0.0-0.45","5c163e51d47b0000014a7821","619531dcf66c91622fa1b861","61959613b727bb5d2a701df0","null","","null","","","","","main_T1_ITI","","","","",""
"","","","","","visual-search-circle","105","269717","0.0-14.0-0.0-1.45","5c163e51d47b0000014a7821","619531dcf66c91622fa1b861","61959613b727bb5d2a701df0","8401.899999976158","","s","true","[[436,567],[599,315],[463,48],[163,32],[0,284],[136,551]]","false","6","main_T2_Trial","s","img/Fire_Down_Target.gif","[""img/Fire_Up_Distractor.gif"",""img/Fire_Up_Distractor.gif"",""img/Fire_Up_Distractor.gif"",""img/Fire_Up_Distractor.gif"",""img/Fire_Up_Distractor.gif"",""img/Fire_Up_Distractor.gif"",""img/Fire_Up_Distractor.gif"",""img/Fire_Up_Distractor.gif"",""img/Fire_Up_Distractor.gif"",""img/Fire_Up_Distractor.gif"",""img/Fire_Up_Distractor.gif"",""img/Fire_Up_Distractor.gif""]","6","targetDown_distractorsUp"
"","","","","","html-keyboard-response","106","269720","0.0-14.0-0.0-0.46","5c163e51d47b0000014a7821","619531dcf66c91622fa1b861","61959613b727bb5d2a701df0","null","","null","","","","","main_T1_ITI","","","","",""
"","","","","","visual-search-circle","107","279046","0.0-14.0-0.0-1.46","5c163e51d47b0000014a7821","619531dcf66c91622fa1b861","61959613b727bb5d2a701df0","8312.699999928474","","d","true","[[305,0],[16,202],[119,539],[472,545],[586,212]]","true","5","main_T2_Trial","d","img/Fire_Down_Target.gif","[""img/Fire_Up_Distractor.gif"",""img/Fire_Up_Distractor.gif"",""img/Fire_Up_Distractor.gif"",""img/Fire_Up_Distractor.gif"",""img/Fire_Up_Distractor.gif"",""img/Fire_Up_Distractor.gif"",""img/Fire_Up_Distractor.gif"",""img/Fire_Up_Distractor.gif"",""img/Fire_Up_Distractor.gif"",""img/Fire_Up_Distractor.gif"",""img/Fire_Up_Distractor.gif"",""img/Fire_Up_Distractor.gif""]","5","targetDown_distractorsUp"
"","","","","","html-keyboard-response","108","279048","0.0-14.0-0.0-0.47","5c163e51d47b0000014a7821","619531dcf66c91622fa1b861","61959613b727bb5d2a701df0","null","","null","","","","","main_T1_ITI","","","","",""
"","","","","","visual-search-circle","109","282298","0.0-14.0-0.0-1.47","5c163e51d47b0000014a7821","619531dcf66c91622fa1b861","61959613b727bb5d2a701df0","2239.8000000715256","","s","true","[[115,63],[2,263],[63,484],[263,597],[484,536],[597,336],[536,115],[336,2]]","false","8","main_T2_Trial","s","img/Fire_Down_Target.gif","[""img/Fire_Up_Distractor.gif"",""img/Fire_Up_Distractor.gif"",""img/Fire_Up_Distractor.gif"",""img/Fire_Up_Distractor.gif"",""img/Fire_Up_Distractor.gif"",""img/Fire_Up_Distractor.gif"",""img/Fire_Up_Distractor.gif"",""img/Fire_Up_Distractor.gif"",""img/Fire_Up_Distractor.gif"",""img/Fire_Up_Distractor.gif"",""img/Fire_Up_Distractor.gif"",""img/Fire_Up_Distractor.gif""]","8","targetDown_distractorsUp"
"","","","","","html-keyboard-response","110","282301","0.0-14.0-0.0-0.48","5c163e51d47b0000014a7821","619531dcf66c91622fa1b861","61959613b727bb5d2a701df0","null","","null","","","","","main_T1_ITI","","","","",""
"","","","","","visual-search-circle","111","285121","0.0-14.0-0.0-1.48","5c163e51d47b0000014a7821","619531dcf66c91622fa1b861","61959613b727bb5d2a701df0","1815.3999999761581","","d","true","[[458,45],[232,7],[45,141],[7,367],[141,554],[367,592],[554,458],[592,232]]","true","8","main_T2_Trial","d","img/Fire_Up_Target.gif","[""img/Fire_Down_Distractor.gif"",""img/Fire_Down_Distractor.gif"",""img/Fire_Down_Distractor.gif"",""img/Fire_Down_Distractor.gif"",""img/Fire_Down_Distractor.gif"",""img/Fire_Down_Distractor.gif"",""img/Fire_Down_Distractor.gif"",""img/Fire_Down_Distractor.gif"",""img/Fire_Down_Distractor.gif"",""img/Fire_Down_Distractor.gif"",""img/Fire_Down_Distractor.gif"",""img/Fire_Down_Distractor.gif""]","8","targetUp_distractorsDown"
"","","","","","html-keyboard-response","112","285123","0.0-14.0-0.0-0.49","5c163e51d47b0000014a7821","619531dcf66c91622fa1b861","61959613b727bb5d2a701df0","null","","null","","","","","main_T1_ITI","","","","",""
"","","","","","visual-search-circle","113","287564","0.0-14.0-0.0-1.49","5c163e51d47b0000014a7821","619531dcf66c91622fa1b861","61959613b727bb5d2a701df0","1434.3999999761581","","s","true","[[588,382],[562,154],[382,11],[154,37],[11,217],[37,445],[217,588],[445,562]]","false","8","main_T2_Trial","s","img/Fire_Up_Target.gif","[""img/Fire_Down_Distractor.gif"",""img/Fire_Down_Distractor.gif"",""img/Fire_Down_Distractor.gif"",""img/Fire_Down_Distractor.gif"",""img/Fire_Down_Distractor.gif"",""img/Fire_Down_Distractor.gif"",""img/Fire_Down_Distractor.gif"",""img/Fire_Down_Distractor.gif"",""img/Fire_Down_Distractor.gif"",""img/Fire_Down_Distractor.gif"",""img/Fire_Down_Distractor.gif"",""img/Fire_Down_Distractor.gif""]","8","targetUp_distractorsDown"
"","","","","","html-keyboard-response","114","287567","0.0-14.0-0.0-0.50","5c163e51d47b0000014a7821","619531dcf66c91622fa1b861","61959613b727bb5d2a701df0","null","","null","","","","","main_T1_ITI","","","","",""
"","","","","","visual-search-circle","115","292858","0.0-14.0-0.0-1.50","5c163e51d47b0000014a7821","619531dcf66c91622fa1b861","61959613b727bb5d2a701df0","4284.599999904633","","s","true","[[80,95],[0,310],[95,519],[310,599],[519,504],[599,289],[504,80],[289,0]]","false","8","main_T2_Trial","s","img/Fire_Down_Target.gif","[""img/Fire_Up_Distractor.gif"",""img/Fire_Up_Distractor.gif"",""img/Fire_Up_Distractor.gif"",""img/Fire_Up_Distractor.gif"",""img/Fire_Up_Distractor.gif"",""img/Fire_Up_Distractor.gif"",""img/Fire_Up_Distractor.gif"",""img/Fire_Up_Distractor.gif"",""img/Fire_Up_Distractor.gif"",""img/Fire_Up_Distractor.gif"",""img/Fire_Up_Distractor.gif"",""img/Fire_Up_Distractor.gif""]","8","targetDown_distractorsUp"
"","","","","","html-keyboard-response","116","292860","0.0-14.0-0.0-0.51","5c163e51d47b0000014a7821","619531dcf66c91622fa1b861","61959613b727bb5d2a701df0","null","","null","","","","","main_T1_ITI","","","","",""
"","","","","","visual-search-circle","117","296049","0.0-14.0-0.0-1.51","5c163e51d47b0000014a7821","619531dcf66c91622fa1b861","61959613b727bb5d2a701df0","2184.7999999523163","","d","true","[[73,103],[42,454],[367,592],[598,326],[417,23]]","true","5","main_T2_Trial","d","img/Fire_Up_Target.gif","[""img/Fire_Down_Distractor.gif"",""img/Fire_Down_Distractor.gif"",""img/Fire_Down_Distractor.gif"",""img/Fire_Down_Distractor.gif"",""img/Fire_Down_Distractor.gif"",""img/Fire_Down_Distractor.gif"",""img/Fire_Down_Distractor.gif"",""img/Fire_Down_Distractor.gif"",""img/Fire_Down_Distractor.gif"",""img/Fire_Down_Distractor.gif"",""img/Fire_Down_Distractor.gif"",""img/Fire_Down_Distractor.gif""]","5","targetUp_distractorsDown"
"","","","","","html-keyboard-response","118","296051","0.0-14.0-0.0-0.52","5c163e51d47b0000014a7821","619531dcf66c91622fa1b861","61959613b727bb5d2a701df0","null","","null","","","","","main_T1_ITI","","","","",""
"","","","","","visual-search-circle","119","298527","0.0-14.0-0.0-1.52","5c163e51d47b0000014a7821","619531dcf66c91622fa1b861","61959613b727bb5d2a701df0","1462.1000000238419","","s","true","[[247,4],[36,156],[23,416],[218,588],[475,543],[599,314],[498,75]]","false","7","main_T2_Trial","s","img/Fire_Down_Target.gif","[""img/Fire_Up_Distractor.gif"",""img/Fire_Up_Distractor.gif"",""img/Fire_Up_Distractor.gif"",""img/Fire_Up_Distractor.gif"",""img/Fire_Up_Distractor.gif"",""img/Fire_Up_Distractor.gif"",""img/Fire_Up_Distractor.gif"",""img/Fire_Up_Distractor.gif"",""img/Fire_Up_Distractor.gif"",""img/Fire_Up_Distractor.gif"",""img/Fire_Up_Distractor.gif"",""img/Fire_Up_Distractor.gif""]","7","targetDown_distractorsUp"
"","","","","","html-keyboard-response","120","298529","0.0-14.0-0.0-0.53","5c163e51d47b0000014a7821","619531dcf66c91622fa1b861","61959613b727bb5d2a701df0","null","","null","","","","","main_T1_ITI","","","","",""
"","","","","","visual-search-circle","121","300564","0.0-14.0-0.0-1.53","5c163e51d47b0000014a7821","619531dcf66c91622fa1b861","61959613b727bb5d2a701df0","1021.2000000476837","","s","true","[[48,136],[32,436],[284,599],[551,463],[567,163],[315,0]]","false","6","main_T2_Trial","s","img/Fire_Up_Target.gif","[""img/Fire_Down_Distractor.gif"",""img/Fire_Down_Distractor.gif"",""img/Fire_Down_Distractor.gif"",""img/Fire_Down_Distractor.gif"",""img/Fire_Down_Distractor.gif"",""img/Fire_Down_Distractor.gif"",""img/Fire_Down_Distractor.gif"",""img/Fire_Down_Distractor.gif"",""img/Fire_Down_Distractor.gif"",""img/Fire_Down_Distractor.gif"",""img/Fire_Down_Distractor.gif"",""img/Fire_Down_Distractor.gif""]","6","targetUp_distractorsDown"
"","","","","","html-keyboard-response","122","300565","0.0-14.0-0.0-0.54","5c163e51d47b0000014a7821","619531dcf66c91622fa1b861","61959613b727bb5d2a701df0","null","","null","","","","","main_T1_ITI","","","","",""
"","","","","","visual-search-circle","123","303851","0.0-14.0-0.0-1.54","5c163e51d47b0000014a7821","619531dcf66c91622fa1b861","61959613b727bb5d2a701df0","2274.899999976158","","s","true","[[508,84],[159,35],[4,352],[258,597],[569,431]]","false","5","main_T2_Trial","s","img/Fire_Up_Target.gif","[""img/Fire_Down_Distractor.gif"",""img/Fire_Down_Distractor.gif"",""img/Fire_Down_Distractor.gif"",""img/Fire_Down_Distractor.gif"",""img/Fire_Down_Distractor.gif"",""img/Fire_Down_Distractor.gif"",""img/Fire_Down_Distractor.gif"",""img/Fire_Down_Distractor.gif"",""img/Fire_Down_Distractor.gif"",""img/Fire_Down_Distractor.gif"",""img/Fire_Down_Distractor.gif"",""img/Fire_Down_Distractor.gif""]","5","targetUp_distractorsDown"
"","","","","","html-keyboard-response","124","303852","0.0-14.0-0.0-0.55","5c163e51d47b0000014a7821","619531dcf66c91622fa1b861","61959613b727bb5d2a701df0","null","","null","","","","","main_T1_ITI","","","","",""
"","","","","","visual-search-circle","125","308817","0.0-14.0-0.0-1.55","5c163e51d47b0000014a7821","619531dcf66c91622fa1b861","61959613b727bb5d2a701df0","3954.4000000953674","","s","false","[[580,407],[533,111],[253,3],[19,192],[66,488],[346,596]]","true","6","main_T2_Trial","d","img/Fire_Up_Target.gif","[""img/Fire_Down_Distractor.gif"",""img/Fire_Down_Distractor.gif"",""img/Fire_Down_Distractor.gif"",""img/Fire_Down_Distractor.gif"",""img/Fire_Down_Distractor.gif"",""img/Fire_Down_Distractor.gif"",""img/Fire_Down_Distractor.gif"",""img/Fire_Down_Distractor.gif"",""img/Fire_Down_Distractor.gif"",""img/Fire_Down_Distractor.gif"",""img/Fire_Down_Distractor.gif"",""img/Fire_Down_Distractor.gif""]","6","targetUp_distractorsDown"
"","","","","","html-keyboard-response","126","309048","0.0-14.0-0.0-0.56","5c163e51d47b0000014a7821","619531dcf66c91622fa1b861","61959613b727bb5d2a701df0","null","","null","","","","","main_T1_ITI","","","","",""
"","","","","","visual-search-circle","127","313160","0.0-14.0-0.0-1.56","5c163e51d47b0000014a7821","619531dcf66c91622fa1b861","61959613b727bb5d2a701df0","3109.1999999284744","","s","false","[[583,202],[202,16],[16,397],[397,583]]","true","4","main_T2_Trial","d","img/Fire_Up_Target.gif","[""img/Fire_Down_Distractor.gif"",""img/Fire_Down_Distractor.gif"",""img/Fire_Down_Distractor.gif"",""img/Fire_Down_Distractor.gif"",""img/Fire_Down_Distractor.gif"",""img/Fire_Down_Distractor.gif"",""img/Fire_Down_Distractor.gif"",""img/Fire_Down_Distractor.gif"",""img/Fire_Down_Distractor.gif"",""img/Fire_Down_Distractor.gif"",""img/Fire_Down_Distractor.gif"",""img/Fire_Down_Distractor.gif""]","4","targetUp_distractorsDown"
"","","","","","html-keyboard-response","128","313165","0.0-14.0-0.0-0.57","5c163e51d47b0000014a7821","619531dcf66c91622fa1b861","61959613b727bb5d2a701df0","null","","null","","","","","main_T1_ITI","","","","",""
"","","","","","visual-search-circle","129","318153","0.0-14.0-0.0-1.57","5c163e51d47b0000014a7821","619531dcf66c91622fa1b861","61959613b727bb5d2a701df0","3978.7999999523163","","s","false","[[154,562],[414,577],[588,383],[544,126],[317,0],[76,99],[4,349]]","true","7","main_T2_Trial","d","img/Fire_Up_Target.gif","[""img/Fire_Down_Distractor.gif"",""img/Fire_Down_Distractor.gif"",""img/Fire_Down_Distractor.gif"",""img/Fire_Down_Distractor.gif"",""img/Fire_Down_Distractor.gif"",""img/Fire_Down_Distractor.gif"",""img/Fire_Down_Distractor.gif"",""img/Fire_Down_Distractor.gif"",""img/Fire_Down_Distractor.gif"",""img/Fire_Down_Distractor.gif"",""img/Fire_Down_Distractor.gif"",""img/Fire_Down_Distractor.gif""]","7","targetUp_distractorsDown"
"","","","","","html-keyboard-response","130","318156","0.0-14.0-0.0-0.58","5c163e51d47b0000014a7821","619531dcf66c91622fa1b861","61959613b727bb5d2a701df0","null","","null","","","","","main_T1_ITI","","","","",""
"","","","","","visual-search-circle","131","321072","0.0-14.0-0.0-1.58","5c163e51d47b0000014a7821","619531dcf66c91622fa1b861","61959613b727bb5d2a701df0","1901.3000000715256","","d","true","[[488,66],[136,48],[10,377],[284,599],[580,407]]","true","5","main_T2_Trial","d","img/Fire_Up_Target.gif","[""img/Fire_Down_Distractor.gif"",""img/Fire_Down_Distractor.gif"",""img/Fire_Down_Distractor.gif"",""img/Fire_Down_Distractor.gif"",""img/Fire_Down_Distractor.gif"",""img/Fire_Down_Distractor.gif"",""img/Fire_Down_Distractor.gif"",""img/Fire_Down_Distractor.gif"",""img/Fire_Down_Distractor.gif"",""img/Fire_Down_Distractor.gif"",""img/Fire_Down_Distractor.gif"",""img/Fire_Down_Distractor.gif""]","5","targetUp_distractorsDown"
"","","","","","html-keyboard-response","132","325712","0.0-14.0-0.0-0.59","5c163e51d47b0000014a7821","619531dcf66c91622fa1b861","61959613b727bb5d2a701df0","4639.699999928474","Wow! You've completed 60 out of 160 trials! </p> <p>  </p><p> Take a quick break, then press any key when you're ready to continue."," ","","","","","main_T1_ITI","","","","",""
"","","","","","visual-search-circle","133","330660","0.0-14.0-0.0-1.59","5c163e51d47b0000014a7821","619531dcf66c91622fa1b861","61959613b727bb5d2a701df0","3945.3000000715256","","d","true","[[352,4],[35,159],[84,508],[431,569],[597,258]]","true","5","main_T2_Trial","d","img/Fire_Down_Target.gif","[""img/Fire_Up_Distractor.gif"",""img/Fire_Up_Distractor.gif"",""img/Fire_Up_Distractor.gif"",""img/Fire_Up_Distractor.gif"",""img/Fire_Up_Distractor.gif"",""img/Fire_Up_Distractor.gif"",""img/Fire_Up_Distractor.gif"",""img/Fire_Up_Distractor.gif"",""img/Fire_Up_Distractor.gif"",""img/Fire_Up_Distractor.gif"",""img/Fire_Up_Distractor.gif"",""img/Fire_Up_Distractor.gif""]","5","targetDown_distractorsUp"
"","","","","","html-keyboard-response","134","330661","0.0-14.0-0.0-0.60","5c163e51d47b0000014a7821","619531dcf66c91622fa1b861","61959613b727bb5d2a701df0","null","","null","","","","","main_T1_ITI","","","","",""
"","","","","","visual-search-circle","135","333054","0.0-14.0-0.0-1.60","5c163e51d47b0000014a7821","619531dcf66c91622fa1b861","61959613b727bb5d2a701df0","1385.5","","s","true","[[445,37],[145,42],[0,305],[154,562],[454,557],[599,294]]","false","6","main_T2_Trial","s","img/Fire_Down_Target.gif","[""img/Fire_Up_Distractor.gif"",""img/Fire_Up_Distractor.gif"",""img/Fire_Up_Distractor.gif"",""img/Fire_Up_Distractor.gif"",""img/Fire_Up_Distractor.gif"",""img/Fire_Up_Distractor.gif"",""img/Fire_Up_Distractor.gif"",""img/Fire_Up_Distractor.gif"",""img/Fire_Up_Distractor.gif"",""img/Fire_Up_Distractor.gif"",""img/Fire_Up_Distractor.gif"",""img/Fire_Up_Distractor.gif""]","6","targetDown_distractorsUp"
"","","","","","html-keyboard-response","136","333057","0.0-14.0-0.0-0.61","5c163e51d47b0000014a7821","619531dcf66c91622fa1b861","61959613b727bb5d2a701df0","null","","null","","","","","main_T1_ITI","","","","",""
"","","","","","visual-search-circle","137","336402","0.0-14.0-0.0-1.61","5c163e51d47b0000014a7821","619531dcf66c91622fa1b861","61959613b727bb5d2a701df0","2327.600000023842","","s","false","[[599,310],[402,18],[63,115],[51,467],[382,588]]","true","5","main_T2_Trial","d","img/Fire_Up_Target.gif","[""img/Fire_Down_Distractor.gif"",""img/Fire_Down_Distractor.gif"",""img/Fire_Down_Distractor.gif"",""img/Fire_Down_Distractor.gif"",""img/Fire_Down_Distractor.gif"",""img/Fire_Down_Distractor.gif"",""img/Fire_Down_Distractor.gif"",""img/Fire_Down_Distractor.gif"",""img/Fire_Down_Distractor.gif"",""img/Fire_Down_Distractor.gif"",""img/Fire_Down_Distractor.gif"",""img/Fire_Down_Distractor.gif""]","5","targetUp_distractorsDown"
"","","","","","html-keyboard-response","138","336405","0.0-14.0-0.0-0.62","5c163e51d47b0000014a7821","619531dcf66c91622fa1b861","61959613b727bb5d2a701df0","null","","null","","","","","main_T1_ITI","","","","",""
"","","","","","visual-search-circle","139","339763","0.0-14.0-0.0-1.62","5c163e51d47b0000014a7821","619531dcf66c91622fa1b861","61959613b727bb5d2a701df0","2342.6999999284744","","s","false","[[10,222],[87,512],[377,589],[589,377],[512,87],[222,10]]","true","6","main_T2_Trial","d","img/Fire_Down_Target.gif","[""img/Fire_Up_Distractor.gif"",""img/Fire_Up_Distractor.gif"",""img/Fire_Up_Distractor.gif"",""img/Fire_Up_Distractor.gif"",""img/Fire_Up_Distractor.gif"",""img/Fire_Up_Distractor.gif"",""img/Fire_Up_Distractor.gif"",""img/Fire_Up_Distractor.gif"",""img/Fire_Up_Distractor.gif"",""img/Fire_Up_Distractor.gif"",""img/Fire_Up_Distractor.gif"",""img/Fire_Up_Distractor.gif""]","6","targetDown_distractorsUp"
"","","","","","html-keyboard-response","140","339765","0.0-14.0-0.0-0.63","5c163e51d47b0000014a7821","619531dcf66c91622fa1b861","61959613b727bb5d2a701df0","null","","null","","","","","main_T1_ITI","","","","",""
"","","","","","visual-search-circle","141","342304","0.0-14.0-0.0-1.63","5c163e51d47b0000014a7821","619531dcf66c91622fa1b861","61959613b727bb5d2a701df0","1524.3000000715256","","s","true","[[472,54],[54,127],[127,545],[545,472]]","false","4","main_T2_Trial","s","img/Fire_Down_Target.gif","[""img/Fire_Up_Distractor.gif"",""img/Fire_Up_Distractor.gif"",""img/Fire_Up_Distractor.gif"",""img/Fire_Up_Distractor.gif"",""img/Fire_Up_Distractor.gif"",""img/Fire_Up_Distractor.gif"",""img/Fire_Up_Distractor.gif"",""img/Fire_Up_Distractor.gif"",""img/Fire_Up_Distractor.gif"",""img/Fire_Up_Distractor.gif"",""img/Fire_Up_Distractor.gif"",""img/Fire_Up_Distractor.gif""]","4","targetDown_distractorsUp"
"","","","","","html-keyboard-response","142","342307","0.0-14.0-0.0-0.64","5c163e51d47b0000014a7821","619531dcf66c91622fa1b861","61959613b727bb5d2a701df0","null","","null","","","","","main_T1_ITI","","","","",""
"","","","","","visual-search-circle","143","344532","0.0-14.0-0.0-1.64","5c163e51d47b0000014a7821","619531dcf66c91622fa1b861","61959613b727bb5d2a701df0","1212.6000000238419","","s","true","[[440,35],[212,13],[35,159],[13,387],[159,564],[387,586],[564,440],[586,212]]","false","8","main_T2_Trial","s","img/Fire_Up_Target.gif","[""img/Fire_Down_Distractor.gif"",""img/Fire_Down_Distractor.gif"",""img/Fire_Down_Distractor.gif"",""img/Fire_Down_Distractor.gif"",""img/Fire_Down_Distractor.gif"",""img/Fire_Down_Distractor.gif"",""img/Fire_Down_Distractor.gif"",""img/Fire_Down_Distractor.gif"",""img/Fire_Down_Distractor.gif"",""img/Fire_Down_Distractor.gif"",""img/Fire_Down_Distractor.gif"",""img/Fire_Down_Distractor.gif""]","8","targetUp_distractorsDown"
"","","","","","html-keyboard-response","144","344534","0.0-14.0-0.0-0.65","5c163e51d47b0000014a7821","619531dcf66c91622fa1b861","61959613b727bb5d2a701df0","null","","null","","","","","main_T1_ITI","","","","",""
"","","","","","visual-search-circle","145","348020","0.0-14.0-0.0-1.65","5c163e51d47b0000014a7821","619531dcf66c91622fa1b861","61959613b727bb5d2a701df0","2476.399999976158","","s","true","[[488,66],[235,7],[30,167],[28,428],[231,591],[485,535],[599,302]]","false","7","main_T2_Trial","s","img/Fire_Down_Target.gif","[""img/Fire_Up_Distractor.gif"",""img/Fire_Up_Distractor.gif"",""img/Fire_Up_Distractor.gif"",""img/Fire_Up_Distractor.gif"",""img/Fire_Up_Distractor.gif"",""img/Fire_Up_Distractor.gif"",""img/Fire_Up_Distractor.gif"",""img/Fire_Up_Distractor.gif"",""img/Fire_Up_Distractor.gif"",""img/Fire_Up_Distractor.gif"",""img/Fire_Up_Distractor.gif"",""img/Fire_Up_Distractor.gif""]","7","targetDown_distractorsUp"
"","","","","","html-keyboard-response","146","348022","0.0-14.0-0.0-0.66","5c163e51d47b0000014a7821","619531dcf66c91622fa1b861","61959613b727bb5d2a701df0","null","","null","","","","","main_T1_ITI","","","","",""
"","","","","","visual-search-circle","147","351374","0.0-14.0-0.0-1.66","5c163e51d47b0000014a7821","619531dcf66c91622fa1b861","61959613b727bb5d2a701df0","2345.5","","d","true","[[557,454],[526,103],[182,23],[1,326],[232,592]]","true","5","main_T2_Trial","d","img/Fire_Down_Target.gif","[""img/Fire_Up_Distractor.gif"",""img/Fire_Up_Distractor.gif"",""img/Fire_Up_Distractor.gif"",""img/Fire_Up_Distractor.gif"",""img/Fire_Up_Distractor.gif"",""img/Fire_Up_Distractor.gif"",""img/Fire_Up_Distractor.gif"",""img/Fire_Up_Distractor.gif"",""img/Fire_Up_Distractor.gif"",""img/Fire_Up_Distractor.gif"",""img/Fire_Up_Distractor.gif"",""img/Fire_Up_Distractor.gif""]","5","targetDown_distractorsUp"
"","","","","","html-keyboard-response","148","351375","0.0-14.0-0.0-0.67","5c163e51d47b0000014a7821","619531dcf66c91622fa1b861","61959613b727bb5d2a701df0","null","","null","","","","","main_T1_ITI","","","","",""
"","","","","","visual-search-circle","149","353659","0.0-14.0-0.0-1.67","5c163e51d47b0000014a7821","619531dcf66c91622fa1b861","61959613b727bb5d2a701df0","1266.7000000476837","","d","true","[[346,3],[32,163],[87,512],[436,567],[596,253]]","true","5","main_T2_Trial","d","img/Fire_Down_Target.gif","[""img/Fire_Up_Distractor.gif"",""img/Fire_Up_Distractor.gif"",""img/Fire_Up_Distractor.gif"",""img/Fire_Up_Distractor.gif"",""img/Fire_Up_Distractor.gif"",""img/Fire_Up_Distractor.gif"",""img/Fire_Up_Distractor.gif"",""img/Fire_Up_Distractor.gif"",""img/Fire_Up_Distractor.gif"",""img/Fire_Up_Distractor.gif"",""img/Fire_Up_Distractor.gif"",""img/Fire_Up_Distractor.gif""]","5","targetDown_distractorsUp"
"","","","","","html-keyboard-response","150","353661","0.0-14.0-0.0-0.68","5c163e51d47b0000014a7821","619531dcf66c91622fa1b861","61959613b727bb5d2a701df0","null","","null","","","","","main_T1_ITI","","","","",""
"","","","","","visual-search-circle","151","359358","0.0-14.0-0.0-1.68","5c163e51d47b0000014a7821","619531dcf66c91622fa1b861","61959613b727bb5d2a701df0","4694.199999928474","","d","true","[[0,299],[207,585],[542,476],[542,123],[207,14]]","true","5","main_T2_Trial","d","img/Fire_Up_Target.gif","[""img/Fire_Down_Distractor.gif"",""img/Fire_Down_Distractor.gif"",""img/Fire_Down_Distractor.gif"",""img/Fire_Down_Distractor.gif"",""img/Fire_Down_Distractor.gif"",""img/Fire_Down_Distractor.gif"",""img/Fire_Down_Distractor.gif"",""img/Fire_Down_Distractor.gif"",""img/Fire_Down_Distractor.gif"",""img/Fire_Down_Distractor.gif"",""img/Fire_Down_Distractor.gif"",""img/Fire_Down_Distractor.gif""]","5","targetUp_distractorsDown"
"","","","","","html-keyboard-response","152","359359","0.0-14.0-0.0-0.69","5c163e51d47b0000014a7821","619531dcf66c91622fa1b861","61959613b727bb5d2a701df0","null","","null","","","","","main_T1_ITI","","","","",""
"","","","","","visual-search-circle","153","362041","0.0-14.0-0.0-1.69","5c163e51d47b0000014a7821","619531dcf66c91622fa1b861","61959613b727bb5d2a701df0","1676.6000000238419","","s","true","[[548,467],[536,115],[197,18],[0,310],[217,588]]","false","5","main_T2_Trial","s","img/Fire_Down_Target.gif","[""img/Fire_Up_Distractor.gif"",""img/Fire_Up_Distractor.gif"",""img/Fire_Up_Distractor.gif"",""img/Fire_Up_Distractor.gif"",""img/Fire_Up_Distractor.gif"",""img/Fire_Up_Distractor.gif"",""img/Fire_Up_Distractor.gif"",""img/Fire_Up_Distractor.gif"",""img/Fire_Up_Distractor.gif"",""img/Fire_Up_Distractor.gif"",""img/Fire_Up_Distractor.gif"",""img/Fire_Up_Distractor.gif""]","5","targetDown_distractorsUp"
"","","","","","html-keyboard-response","154","362043","0.0-14.0-0.0-0.70","5c163e51d47b0000014a7821","619531dcf66c91622fa1b861","61959613b727bb5d2a701df0","null","","null","","","","","main_T1_ITI","","","","",""
"","","","","","visual-search-circle","155","367272","0.0-14.0-0.0-1.70","5c163e51d47b0000014a7821","619531dcf66c91622fa1b861","61959613b727bb5d2a701df0","4211.199999928474","","d","true","[[320,0],[79,97],[3,346],[151,560],[410,578],[587,386],[547,129]]","true","7","main_T2_Trial","d","img/Fire_Down_Target.gif","[""img/Fire_Up_Distractor.gif"",""img/Fire_Up_Distractor.gif"",""img/Fire_Up_Distractor.gif"",""img/Fire_Up_Distractor.gif"",""img/Fire_Up_Distractor.gif"",""img/Fire_Up_Distractor.gif"",""img/Fire_Up_Distractor.gif"",""img/Fire_Up_Distractor.gif"",""img/Fire_Up_Distractor.gif"",""img/Fire_Up_Distractor.gif"",""img/Fire_Up_Distractor.gif"",""img/Fire_Up_Distractor.gif""]","7","targetDown_distractorsUp"
"","","","","","html-keyboard-response","156","367274","0.0-14.0-0.0-0.71","5c163e51d47b0000014a7821","619531dcf66c91622fa1b861","61959613b727bb5d2a701df0","null","","null","","","","","main_T1_ITI","","","","",""
"","","","","","visual-search-circle","157","369878","0.0-14.0-0.0-1.71","5c163e51d47b0000014a7821","619531dcf66c91622fa1b861","61959613b727bb5d2a701df0","1592.1000000238419","","s","true","[[77,500],[362,593],[585,392],[522,99],[237,6],[14,207]]","false","6","main_T2_Trial","s","img/Fire_Down_Target.gif","[""img/Fire_Up_Distractor.gif"",""img/Fire_Up_Distractor.gif"",""img/Fire_Up_Distractor.gif"",""img/Fire_Up_Distractor.gif"",""img/Fire_Up_Distractor.gif"",""img/Fire_Up_Distractor.gif"",""img/Fire_Up_Distractor.gif"",""img/Fire_Up_Distractor.gif"",""img/Fire_Up_Distractor.gif"",""img/Fire_Up_Distractor.gif"",""img/Fire_Up_Distractor.gif"",""img/Fire_Up_Distractor.gif""]","6","targetDown_distractorsUp"
"","","","","","html-keyboard-response","158","369881","0.0-14.0-0.0-0.72","5c163e51d47b0000014a7821","619531dcf66c91622fa1b861","61959613b727bb5d2a701df0","null","","null","","","","","main_T1_ITI","","","","",""
"","","","","","visual-search-circle","159","377097","0.0-14.0-0.0-1.72","5c163e51d47b0000014a7821","619531dcf66c91622fa1b861","61959613b727bb5d2a701df0","6199.799999952316","","s","true","[[273,1],[7,232],[145,557],[496,526],[576,182]]","false","5","main_T2_Trial","s","img/Fire_Down_Target.gif","[""img/Fire_Up_Distractor.gif"",""img/Fire_Up_Distractor.gif"",""img/Fire_Up_Distractor.gif"",""img/Fire_Up_Distractor.gif"",""img/Fire_Up_Distractor.gif"",""img/Fire_Up_Distractor.gif"",""img/Fire_Up_Distractor.gif"",""img/Fire_Up_Distractor.gif"",""img/Fire_Up_Distractor.gif"",""img/Fire_Up_Distractor.gif"",""img/Fire_Up_Distractor.gif"",""img/Fire_Up_Distractor.gif""]","5","targetDown_distractorsUp"
"","","","","","html-keyboard-response","160","377100","0.0-14.0-0.0-0.73","5c163e51d47b0000014a7821","619531dcf66c91622fa1b861","61959613b727bb5d2a701df0","null","","null","","","","","main_T1_ITI","","","","",""
"","","","","","visual-search-circle","161","379007","0.0-14.0-0.0-1.73","5c163e51d47b0000014a7821","619531dcf66c91622fa1b861","61959613b727bb5d2a701df0","904.7999999523163","","d","true","[[16,202],[73,496],[357,594],[583,397],[526,103],[242,5]]","true","6","main_T2_Trial","d","img/Fire_Down_Target.gif","[""img/Fire_Up_Distractor.gif"",""img/Fire_Up_Distractor.gif"",""img/Fire_Up_Distractor.gif"",""img/Fire_Up_Distractor.gif"",""img/Fire_Up_Distractor.gif"",""img/Fire_Up_Distractor.gif"",""img/Fire_Up_Distractor.gif"",""img/Fire_Up_Distractor.gif"",""img/Fire_Up_Distractor.gif"",""img/Fire_Up_Distractor.gif"",""img/Fire_Up_Distractor.gif"",""img/Fire_Up_Distractor.gif""]","6","targetDown_distractorsUp"
"","","","","","html-keyboard-response","162","379010","0.0-14.0-0.0-0.74","5c163e51d47b0000014a7821","619531dcf66c91622fa1b861","61959613b727bb5d2a701df0","null","","null","","","","","main_T1_ITI","","","","",""
"","","","","","visual-search-circle","163","381622","0.0-14.0-0.0-1.74","5c163e51d47b0000014a7821","619531dcf66c91622fa1b861","61959613b727bb5d2a701df0","1608.8999999761581","","s","true","[[397,16],[139,46],[1,267],[88,513],[335,597],[554,458],[582,199]]","false","7","main_T2_Trial","s","img/Fire_Up_Target.gif","[""img/Fire_Down_Distractor.gif"",""img/Fire_Down_Distractor.gif"",""img/Fire_Down_Distractor.gif"",""img/Fire_Down_Distractor.gif"",""img/Fire_Down_Distractor.gif"",""img/Fire_Down_Distractor.gif"",""img/Fire_Down_Distractor.gif"",""img/Fire_Down_Distractor.gif"",""img/Fire_Down_Distractor.gif"",""img/Fire_Down_Distractor.gif"",""img/Fire_Down_Distractor.gif"",""img/Fire_Down_Distractor.gif""]","7","targetUp_distractorsDown"
"","","","","","html-keyboard-response","164","381625","0.0-14.0-0.0-0.75","5c163e51d47b0000014a7821","619531dcf66c91622fa1b861","61959613b727bb5d2a701df0","null","","null","","","","","main_T1_ITI","","","","",""
"","","","","","visual-search-circle","165","384612","0.0-14.0-0.0-1.75","5c163e51d47b0000014a7821","619531dcf66c91622fa1b861","61959613b727bb5d2a701df0","1982.1999999284744","","s","true","[[40,450],[255,596],[504,519],[599,277],[468,52],[211,13],[20,190]]","false","7","main_T2_Trial","s","img/Fire_Up_Target.gif","[""img/Fire_Down_Distractor.gif"",""img/Fire_Down_Distractor.gif"",""img/Fire_Down_Distractor.gif"",""img/Fire_Down_Distractor.gif"",""img/Fire_Down_Distractor.gif"",""img/Fire_Down_Distractor.gif"",""img/Fire_Down_Distractor.gif"",""img/Fire_Down_Distractor.gif"",""img/Fire_Down_Distractor.gif"",""img/Fire_Down_Distractor.gif"",""img/Fire_Down_Distractor.gif"",""img/Fire_Down_Distractor.gif""]","7","targetUp_distractorsDown"
"","","","","","html-keyboard-response","166","384616","0.0-14.0-0.0-0.76","5c163e51d47b0000014a7821","619531dcf66c91622fa1b861","61959613b727bb5d2a701df0","null","","null","","","","","main_T1_ITI","","","","",""
"","","","","","visual-search-circle","167","387543","0.0-14.0-0.0-1.76","5c163e51d47b0000014a7821","619531dcf66c91622fa1b861","61959613b727bb5d2a701df0","1920.2000000476837","","d","true","[[11,217],[55,473],[283,599],[523,499],[595,249],[444,37],[184,22]]","true","7","main_T2_Trial","d","img/Fire_Down_Target.gif","[""img/Fire_Up_Distractor.gif"",""img/Fire_Up_Distractor.gif"",""img/Fire_Up_Distractor.gif"",""img/Fire_Up_Distractor.gif"",""img/Fire_Up_Distractor.gif"",""img/Fire_Up_Distractor.gif"",""img/Fire_Up_Distractor.gif"",""img/Fire_Up_Distractor.gif"",""img/Fire_Up_Distractor.gif"",""img/Fire_Up_Distractor.gif"",""img/Fire_Up_Distractor.gif"",""img/Fire_Up_Distractor.gif""]","7","targetDown_distractorsUp"
"","","","","","html-keyboard-response","168","387545","0.0-14.0-0.0-0.77","5c163e51d47b0000014a7821","619531dcf66c91622fa1b861","61959613b727bb5d2a701df0","null","","null","","","","","main_T1_ITI","","","","",""
"","","","","","visual-search-circle","169","390078","0.0-14.0-0.0-1.77","5c163e51d47b0000014a7821","619531dcf66c91622fa1b861","61959613b727bb5d2a701df0","1522.8999999761581","","d","true","[[2,336],[115,536],[336,597],[536,484],[597,263],[484,63],[263,2],[63,115]]","true","8","main_T2_Trial","d","img/Fire_Up_Target.gif","[""img/Fire_Down_Distractor.gif"",""img/Fire_Down_Distractor.gif"",""img/Fire_Down_Distractor.gif"",""img/Fire_Down_Distractor.gif"",""img/Fire_Down_Distractor.gif"",""img/Fire_Down_Distractor.gif"",""img/Fire_Down_Distractor.gif"",""img/Fire_Down_Distractor.gif"",""img/Fire_Down_Distractor.gif"",""img/Fire_Down_Distractor.gif"",""img/Fire_Down_Distractor.gif"",""img/Fire_Down_Distractor.gif""]","8","targetUp_distractorsDown"
"","","","","","html-keyboard-response","170","390080","0.0-14.0-0.0-0.78","5c163e51d47b0000014a7821","619531dcf66c91622fa1b861","61959613b727bb5d2a701df0","null","","null","","","","","main_T1_ITI","","","","",""
"","","","","","visual-search-circle","171","394472","0.0-14.0-0.0-1.78","5c163e51d47b0000014a7821","619531dcf66c91622fa1b861","61959613b727bb5d2a701df0","3382.3000000715256","","d","true","[[591,227],[454,42],[227,8],[42,145],[8,372],[145,557],[372,591],[557,454]]","true","8","main_T2_Trial","d","img/Fire_Up_Target.gif","[""img/Fire_Down_Distractor.gif"",""img/Fire_Down_Distractor.gif"",""img/Fire_Down_Distractor.gif"",""img/Fire_Down_Distractor.gif"",""img/Fire_Down_Distractor.gif"",""img/Fire_Down_Distractor.gif"",""img/Fire_Down_Distractor.gif"",""img/Fire_Down_Distractor.gif"",""img/Fire_Down_Distractor.gif"",""img/Fire_Down_Distractor.gif"",""img/Fire_Down_Distractor.gif"",""img/Fire_Down_Distractor.gif""]","8","targetUp_distractorsDown"
"","","","","","html-keyboard-response","172","409996","0.0-14.0-0.0-0.79","5c163e51d47b0000014a7821","619531dcf66c91622fa1b861","61959613b727bb5d2a701df0","15524.100000023842","Wow! You've completed 80 out of 160 trials! </p> <p>  </p><p> Take a quick break, then press any key when you're ready to continue."," ","","","","","main_T1_ITI","","","","",""
"","","","","","visual-search-circle","173","412593","0.0-14.0-0.0-1.79","5c163e51d47b0000014a7821","619531dcf66c91622fa1b861","61959613b727bb5d2a701df0","1590.2999999523163","","d","true","[[168,569],[569,431],[431,30],[30,168]]","true","4","main_T2_Trial","d","img/Fire_Down_Target.gif","[""img/Fire_Up_Distractor.gif"",""img/Fire_Up_Distractor.gif"",""img/Fire_Up_Distractor.gif"",""img/Fire_Up_Distractor.gif"",""img/Fire_Up_Distractor.gif"",""img/Fire_Up_Distractor.gif"",""img/Fire_Up_Distractor.gif"",""img/Fire_Up_Distractor.gif"",""img/Fire_Up_Distractor.gif"",""img/Fire_Up_Distractor.gif"",""img/Fire_Up_Distractor.gif"",""img/Fire_Up_Distractor.gif""]","4","targetDown_distractorsUp"
"","","","","","html-keyboard-response","174","412595","0.0-14.0-0.0-0.80","5c163e51d47b0000014a7821","619531dcf66c91622fa1b861","61959613b727bb5d2a701df0","null","","null","","","","","main_T1_ITI","","","","",""
"","","","","","visual-search-circle","175","416628","0.0-14.0-0.0-1.80","5c163e51d47b0000014a7821","619531dcf66c91622fa1b861","61959613b727bb5d2a701df0","3017.2000000476837","","s","true","[[357,5],[105,71],[0,309],[120,540],[376,590],[574,421],[565,161]]","false","7","main_T2_Trial","s","img/Fire_Down_Target.gif","[""img/Fire_Up_Distractor.gif"",""img/Fire_Up_Distractor.gif"",""img/Fire_Up_Distractor.gif"",""img/Fire_Up_Distractor.gif"",""img/Fire_Up_Distractor.gif"",""img/Fire_Up_Distractor.gif"",""img/Fire_Up_Distractor.gif"",""img/Fire_Up_Distractor.gif"",""img/Fire_Up_Distractor.gif"",""img/Fire_Up_Distractor.gif"",""img/Fire_Up_Distractor.gif"",""img/Fire_Up_Distractor.gif""]","7","targetDown_distractorsUp"
"","","","","","html-keyboard-response","176","416630","0.0-14.0-0.0-0.81","5c163e51d47b0000014a7821","619531dcf66c91622fa1b861","61959613b727bb5d2a701df0","null","","null","","","","","main_T1_ITI","","","","",""
"","","","","","visual-search-circle","177","419035","0.0-14.0-0.0-1.81","5c163e51d47b0000014a7821","619531dcf66c91622fa1b861","61959613b727bb5d2a701df0","1390.2999999523163","","s","true","[[519,95],[95,80],[80,504],[504,519]]","false","4","main_T2_Trial","s","img/Fire_Up_Target.gif","[""img/Fire_Down_Distractor.gif"",""img/Fire_Down_Distractor.gif"",""img/Fire_Down_Distractor.gif"",""img/Fire_Down_Distractor.gif"",""img/Fire_Down_Distractor.gif"",""img/Fire_Down_Distractor.gif"",""img/Fire_Down_Distractor.gif"",""img/Fire_Down_Distractor.gif"",""img/Fire_Down_Distractor.gif"",""img/Fire_Down_Distractor.gif"",""img/Fire_Down_Distractor.gif"",""img/Fire_Down_Distractor.gif""]","4","targetUp_distractorsDown"
"","","","","","html-keyboard-response","178","419036","0.0-14.0-0.0-0.82","5c163e51d47b0000014a7821","619531dcf66c91622fa1b861","61959613b727bb5d2a701df0","null","","null","","","","","main_T1_ITI","","","","",""
"","","","","","visual-search-circle","179","422118","0.0-14.0-0.0-1.82","5c163e51d47b0000014a7821","619531dcf66c91622fa1b861","61959613b727bb5d2a701df0","2072","","d","true","[[40,450],[222,589],[450,559],[589,377],[559,150],[377,10],[150,40],[10,222]]","true","8","main_T2_Trial","d","img/Fire_Down_Target.gif","[""img/Fire_Up_Distractor.gif"",""img/Fire_Up_Distractor.gif"",""img/Fire_Up_Distractor.gif"",""img/Fire_Up_Distractor.gif"",""img/Fire_Up_Distractor.gif"",""img/Fire_Up_Distractor.gif"",""img/Fire_Up_Distractor.gif"",""img/Fire_Up_Distractor.gif"",""img/Fire_Up_Distractor.gif"",""img/Fire_Up_Distractor.gif"",""img/Fire_Up_Distractor.gif"",""img/Fire_Up_Distractor.gif""]","8","targetDown_distractorsUp"
"","","","","","html-keyboard-response","180","422120","0.0-14.0-0.0-0.83","5c163e51d47b0000014a7821","619531dcf66c91622fa1b861","61959613b727bb5d2a701df0","null","","null","","","","","main_T1_ITI","","","","",""
"","","","","","visual-search-circle","181","444836","0.0-14.0-0.0-1.83","5c163e51d47b0000014a7821","619531dcf66c91622fa1b861","61959613b727bb5d2a701df0","21699.800000071526","","d","true","[[548,132],[217,11],[0,289],[197,581],[536,484]]","true","5","main_T2_Trial","d","img/Fire_Up_Target.gif","[""img/Fire_Down_Distractor.gif"",""img/Fire_Down_Distractor.gif"",""img/Fire_Down_Distractor.gif"",""img/Fire_Down_Distractor.gif"",""img/Fire_Down_Distractor.gif"",""img/Fire_Down_Distractor.gif"",""img/Fire_Down_Distractor.gif"",""img/Fire_Down_Distractor.gif"",""img/Fire_Down_Distractor.gif"",""img/Fire_Down_Distractor.gif"",""img/Fire_Down_Distractor.gif"",""img/Fire_Down_Distractor.gif""]","5","targetUp_distractorsDown"
"","","","","","html-keyboard-response","182","444839","0.0-14.0-0.0-0.84","5c163e51d47b0000014a7821","619531dcf66c91622fa1b861","61959613b727bb5d2a701df0","null","","null","","","","","main_T1_ITI","","","","",""
"","","","","","visual-search-circle","183","449750","0.0-14.0-0.0-1.84","5c163e51d47b0000014a7821","619531dcf66c91622fa1b861","61959613b727bb5d2a701df0","3901.1999999284744","","s","true","[[533,488],[598,268],[488,66],[268,1],[66,111],[1,331],[111,533],[331,598]]","false","8","main_T2_Trial","s","img/Fire_Up_Target.gif","[""img/Fire_Down_Distractor.gif"",""img/Fire_Down_Distractor.gif"",""img/Fire_Down_Distractor.gif"",""img/Fire_Down_Distractor.gif"",""img/Fire_Down_Distractor.gif"",""img/Fire_Down_Distractor.gif"",""img/Fire_Down_Distractor.gif"",""img/Fire_Down_Distractor.gif"",""img/Fire_Down_Distractor.gif"",""img/Fire_Down_Distractor.gif"",""img/Fire_Down_Distractor.gif"",""img/Fire_Down_Distractor.gif""]","8","targetUp_distractorsDown"
"","","","","","html-keyboard-response","184","449753","0.0-14.0-0.0-0.85","5c163e51d47b0000014a7821","619531dcf66c91622fa1b861","61959613b727bb5d2a701df0","null","","null","","","","","main_T1_ITI","","","","",""
"","","","","","visual-search-circle","185","455227","0.0-14.0-0.0-1.85","5c163e51d47b0000014a7821","619531dcf66c91622fa1b861","61959613b727bb5d2a701df0","4458.899999976158","","s","true","[[182,23],[11,219],[56,475],[285,599],[525,497],[595,247],[442,36]]","false","7","main_T2_Trial","s","img/Fire_Down_Target.gif","[""img/Fire_Up_Distractor.gif"",""img/Fire_Up_Distractor.gif"",""img/Fire_Up_Distractor.gif"",""img/Fire_Up_Distractor.gif"",""img/Fire_Up_Distractor.gif"",""img/Fire_Up_Distractor.gif"",""img/Fire_Up_Distractor.gif"",""img/Fire_Up_Distractor.gif"",""img/Fire_Up_Distractor.gif"",""img/Fire_Up_Distractor.gif"",""img/Fire_Up_Distractor.gif"",""img/Fire_Up_Distractor.gif""]","7","targetDown_distractorsUp"
"","","","","","html-keyboard-response","186","455230","0.0-14.0-0.0-0.86","5c163e51d47b0000014a7821","619531dcf66c91622fa1b861","61959613b727bb5d2a701df0","null","","null","","","","","main_T1_ITI","","","","",""
"","","","","","visual-search-circle","187","475164","0.0-14.0-0.0-1.86","5c163e51d47b0000014a7821","619531dcf66c91622fa1b861","61959613b727bb5d2a701df0","18924.699999928474","","d","true","[[331,598],[552,461],[583,203],[401,17],[142,44],[2,264],[86,510]]","true","7","main_T2_Trial","d","img/Fire_Down_Target.gif","[""img/Fire_Up_Distractor.gif"",""img/Fire_Up_Distractor.gif"",""img/Fire_Up_Distractor.gif"",""img/Fire_Up_Distractor.gif"",""img/Fire_Up_Distractor.gif"",""img/Fire_Up_Distractor.gif"",""img/Fire_Up_Distractor.gif"",""img/Fire_Up_Distractor.gif"",""img/Fire_Up_Distractor.gif"",""img/Fire_Up_Distractor.gif"",""img/Fire_Up_Distractor.gif"",""img/Fire_Up_Distractor.gif""]","7","targetDown_distractorsUp"
"","","","","","html-keyboard-response","188","475167","0.0-14.0-0.0-0.87","5c163e51d47b0000014a7821","619531dcf66c91622fa1b861","61959613b727bb5d2a701df0","null","","null","","","","","main_T1_ITI","","","","",""
"","","","","","visual-search-circle","189","480874","0.0-14.0-0.0-1.87","5c163e51d47b0000014a7821","619531dcf66c91622fa1b861","61959613b727bb5d2a701df0","4701.899999976158","","d","true","[[599,279],[431,30],[132,51],[0,320],[168,569],[467,548]]","true","6","main_T2_Trial","d","img/Fire_Up_Target.gif","[""img/Fire_Down_Distractor.gif"",""img/Fire_Down_Distractor.gif"",""img/Fire_Down_Distractor.gif"",""img/Fire_Down_Distractor.gif"",""img/Fire_Down_Distractor.gif"",""img/Fire_Down_Distractor.gif"",""img/Fire_Down_Distractor.gif"",""img/Fire_Down_Distractor.gif"",""img/Fire_Down_Distractor.gif"",""img/Fire_Down_Distractor.gif"",""img/Fire_Down_Distractor.gif"",""img/Fire_Down_Distractor.gif""]","6","targetUp_distractorsDown"
"","","","","","html-keyboard-response","190","480878","0.0-14.0-0.0-0.88","5c163e51d47b0000014a7821","619531dcf66c91622fa1b861","61959613b727bb5d2a701df0","null","","null","","","","","main_T1_ITI","","","","",""
"","","","","","visual-search-circle","191","483479","0.0-14.0-0.0-1.88","5c163e51d47b0000014a7821","619531dcf66c91622fa1b861","61959613b727bb5d2a701df0","1597.3999999761581","","s","true","[[294,0],[37,154],[42,454],[305,599],[562,445],[557,145]]","false","6","main_T2_Trial","s","img/Fire_Up_Target.gif","[""img/Fire_Down_Distractor.gif"",""img/Fire_Down_Distractor.gif"",""img/Fire_Down_Distractor.gif"",""img/Fire_Down_Distractor.gif"",""img/Fire_Down_Distractor.gif"",""img/Fire_Down_Distractor.gif"",""img/Fire_Down_Distractor.gif"",""img/Fire_Down_Distractor.gif"",""img/Fire_Down_Distractor.gif"",""img/Fire_Down_Distractor.gif"",""img/Fire_Down_Distractor.gif"",""img/Fire_Down_Distractor.gif""]","6","targetUp_distractorsDown"
"","","","","","html-keyboard-response","192","483487","0.0-14.0-0.0-0.89","5c163e51d47b0000014a7821","619531dcf66c91622fa1b861","61959613b727bb5d2a701df0","null","","null","","","","","main_T1_ITI","","","","",""
"","","","","","visual-search-circle","193","486247","0.0-14.0-0.0-1.89","5c163e51d47b0000014a7821","619531dcf66c91622fa1b861","61959613b727bb5d2a701df0","1745.6000000238419","","d","true","[[177,25],[1,268],[123,542],[422,574],[598,331],[476,57]]","true","6","main_T2_Trial","d","img/Fire_Down_Target.gif","[""img/Fire_Up_Distractor.gif"",""img/Fire_Up_Distractor.gif"",""img/Fire_Up_Distractor.gif"",""img/Fire_Up_Distractor.gif"",""img/Fire_Up_Distractor.gif"",""img/Fire_Up_Distractor.gif"",""img/Fire_Up_Distractor.gif"",""img/Fire_Up_Distractor.gif"",""img/Fire_Up_Distractor.gif"",""img/Fire_Up_Distractor.gif"",""img/Fire_Up_Distractor.gif"",""img/Fire_Up_Distractor.gif""]","6","targetDown_distractorsUp"
"","","","","","html-keyboard-response","194","486250","0.0-14.0-0.0-0.90","5c163e51d47b0000014a7821","619531dcf66c91622fa1b861","61959613b727bb5d2a701df0","null","","null","","","","","main_T1_ITI","","","","",""
"","","","","","visual-search-circle","195","492558","0.0-14.0-0.0-1.90","5c163e51d47b0000014a7821","619531dcf66c91622fa1b861","61959613b727bb5d2a701df0","5305.100000023842","","s","true","[[14,207],[123,542],[476,542],[585,207],[300,0]]","false","5","main_T2_Trial","s","img/Fire_Down_Target.gif","[""img/Fire_Up_Distractor.gif"",""img/Fire_Up_Distractor.gif"",""img/Fire_Up_Distractor.gif"",""img/Fire_Up_Distractor.gif"",""img/Fire_Up_Distractor.gif"",""img/Fire_Up_Distractor.gif"",""img/Fire_Up_Distractor.gif"",""img/Fire_Up_Distractor.gif"",""img/Fire_Up_Distractor.gif"",""img/Fire_Up_Distractor.gif"",""img/Fire_Up_Distractor.gif"",""img/Fire_Up_Distractor.gif""]","5","targetDown_distractorsUp"
"","","","","","html-keyboard-response","196","492559","0.0-14.0-0.0-0.91","5c163e51d47b0000014a7821","619531dcf66c91622fa1b861","61959613b727bb5d2a701df0","null","","null","","","","","main_T1_ITI","","","","",""
"","","","","","visual-search-circle","197","495404","0.0-14.0-0.0-1.91","5c163e51d47b0000014a7821","619531dcf66c91622fa1b861","61959613b727bb5d2a701df0","1828.1000000238419","","s","true","[[594,357],[445,37],[95,80],[28,426],[336,597]]","false","5","main_T2_Trial","s","img/Fire_Up_Target.gif","[""img/Fire_Down_Distractor.gif"",""img/Fire_Down_Distractor.gif"",""img/Fire_Down_Distractor.gif"",""img/Fire_Down_Distractor.gif"",""img/Fire_Down_Distractor.gif"",""img/Fire_Down_Distractor.gif"",""img/Fire_Down_Distractor.gif"",""img/Fire_Down_Distractor.gif"",""img/Fire_Down_Distractor.gif"",""img/Fire_Down_Distractor.gif"",""img/Fire_Down_Distractor.gif"",""img/Fire_Down_Distractor.gif""]","5","targetUp_distractorsDown"
"","","","","","html-keyboard-response","198","495406","0.0-14.0-0.0-0.92","5c163e51d47b0000014a7821","619531dcf66c91622fa1b861","61959613b727bb5d2a701df0","null","","null","","","","","main_T1_ITI","","","","",""
"","","","","","visual-search-circle","199","497709","0.0-14.0-0.0-1.92","5c163e51d47b0000014a7821","619531dcf66c91622fa1b861","61959613b727bb5d2a701df0","1295.2000000476837","","d","true","[[367,592],[592,232],[232,7],[7,367]]","true","4","main_T2_Trial","d","img/Fire_Down_Target.gif","[""img/Fire_Up_Distractor.gif"",""img/Fire_Up_Distractor.gif"",""img/Fire_Up_Distractor.gif"",""img/Fire_Up_Distractor.gif"",""img/Fire_Up_Distractor.gif"",""img/Fire_Up_Distractor.gif"",""img/Fire_Up_Distractor.gif"",""img/Fire_Up_Distractor.gif"",""img/Fire_Up_Distractor.gif"",""img/Fire_Up_Distractor.gif"",""img/Fire_Up_Distractor.gif"",""img/Fire_Up_Distractor.gif""]","4","targetDown_distractorsUp"
"","","","","","html-keyboard-response","200","497711","0.0-14.0-0.0-0.93","5c163e51d47b0000014a7821","619531dcf66c91622fa1b861","61959613b727bb5d2a701df0","null","","null","","","","","main_T1_ITI","","","","",""
"","","","","","visual-search-circle","201","500058","0.0-14.0-0.0-1.93","5c163e51d47b0000014a7821","619531dcf66c91622fa1b861","61959613b727bb5d2a701df0","1334.7999999523163","","s","true","[[407,580],[586,390],[549,132],[324,1],[81,94],[3,342],[148,558]]","false","7","main_T2_Trial","s","img/Fire_Down_Target.gif","[""img/Fire_Up_Distractor.gif"",""img/Fire_Up_Distractor.gif"",""img/Fire_Up_Distractor.gif"",""img/Fire_Up_Distractor.gif"",""img/Fire_Up_Distractor.gif"",""img/Fire_Up_Distractor.gif"",""img/Fire_Up_Distractor.gif"",""img/Fire_Up_Distractor.gif"",""img/Fire_Up_Distractor.gif"",""img/Fire_Up_Distractor.gif"",""img/Fire_Up_Distractor.gif"",""img/Fire_Up_Distractor.gif""]","7","targetDown_distractorsUp"
"","","","","","html-keyboard-response","202","500060","0.0-14.0-0.0-0.94","5c163e51d47b0000014a7821","619531dcf66c91622fa1b861","61959613b727bb5d2a701df0","null","","null","","","","","main_T1_ITI","","","","",""
"","","","","","visual-search-circle","203","502722","0.0-14.0-0.0-1.94","5c163e51d47b0000014a7821","619531dcf66c91622fa1b861","61959613b727bb5d2a701df0","1649.7000000476837","","d","true","[[182,23],[23,417],[417,576],[576,182]]","true","4","main_T2_Trial","d","img/Fire_Up_Target.gif","[""img/Fire_Down_Distractor.gif"",""img/Fire_Down_Distractor.gif"",""img/Fire_Down_Distractor.gif"",""img/Fire_Down_Distractor.gif"",""img/Fire_Down_Distractor.gif"",""img/Fire_Down_Distractor.gif"",""img/Fire_Down_Distractor.gif"",""img/Fire_Down_Distractor.gif"",""img/Fire_Down_Distractor.gif"",""img/Fire_Down_Distractor.gif"",""img/Fire_Down_Distractor.gif"",""img/Fire_Down_Distractor.gif""]","4","targetUp_distractorsDown"
"","","","","","html-keyboard-response","204","502724","0.0-14.0-0.0-0.95","5c163e51d47b0000014a7821","619531dcf66c91622fa1b861","61959613b727bb5d2a701df0","null","","null","","","","","main_T1_ITI","","","","",""
"","","","","","visual-search-circle","205","504650","0.0-14.0-0.0-1.95","5c163e51d47b0000014a7821","619531dcf66c91622fa1b861","61959613b727bb5d2a701df0","920.4000000953674","","d","true","[[237,6],[14,207],[77,500],[362,593],[585,392],[522,99]]","true","6","main_T2_Trial","d","img/Fire_Down_Target.gif","[""img/Fire_Up_Distractor.gif"",""img/Fire_Up_Distractor.gif"",""img/Fire_Up_Distractor.gif"",""img/Fire_Up_Distractor.gif"",""img/Fire_Up_Distractor.gif"",""img/Fire_Up_Distractor.gif"",""img/Fire_Up_Distractor.gif"",""img/Fire_Up_Distractor.gif"",""img/Fire_Up_Distractor.gif"",""img/Fire_Up_Distractor.gif"",""img/Fire_Up_Distractor.gif"",""img/Fire_Up_Distractor.gif""]","6","targetDown_distractorsUp"
"","","","","","html-keyboard-response","206","504653","0.0-14.0-0.0-0.96","5c163e51d47b0000014a7821","619531dcf66c91622fa1b861","61959613b727bb5d2a701df0","null","","null","","","","","main_T1_ITI","","","","",""
"","","","","","visual-search-circle","207","509213","0.0-14.0-0.0-1.96","5c163e51d47b0000014a7821","619531dcf66c91622fa1b861","61959613b727bb5d2a701df0","3547.100000023842","","s","false","[[591,372],[372,8],[8,227],[227,591]]","true","4","main_T2_Trial","d","img/Fire_Up_Target.gif","[""img/Fire_Down_Distractor.gif"",""img/Fire_Down_Distractor.gif"",""img/Fire_Down_Distractor.gif"",""img/Fire_Down_Distractor.gif"",""img/Fire_Down_Distractor.gif"",""img/Fire_Down_Distractor.gif"",""img/Fire_Down_Distractor.gif"",""img/Fire_Down_Distractor.gif"",""img/Fire_Down_Distractor.gif"",""img/Fire_Down_Distractor.gif"",""img/Fire_Down_Distractor.gif"",""img/Fire_Down_Distractor.gif""]","4","targetUp_distractorsDown"
"","","","","","html-keyboard-response","208","509216","0.0-14.0-0.0-0.97","5c163e51d47b0000014a7821","619531dcf66c91622fa1b861","61959613b727bb5d2a701df0","null","","null","","","","","main_T1_ITI","","","","",""
"","","","","","visual-search-circle","209","511463","0.0-14.0-0.0-1.97","5c163e51d47b0000014a7821","619531dcf66c91622fa1b861","61959613b727bb5d2a701df0","1244.6999999284744","","s","true","[[341,2],[93,82],[1,325],[133,549],[391,585],[580,406],[558,147]]","false","7","main_T2_Trial","s","img/Fire_Down_Target.gif","[""img/Fire_Up_Distractor.gif"",""img/Fire_Up_Distractor.gif"",""img/Fire_Up_Distractor.gif"",""img/Fire_Up_Distractor.gif"",""img/Fire_Up_Distractor.gif"",""img/Fire_Up_Distractor.gif"",""img/Fire_Up_Distractor.gif"",""img/Fire_Up_Distractor.gif"",""img/Fire_Up_Distractor.gif"",""img/Fire_Up_Distractor.gif"",""img/Fire_Up_Distractor.gif"",""img/Fire_Up_Distractor.gif""]","7","targetDown_distractorsUp"
"","","","","","html-keyboard-response","210","511465","0.0-14.0-0.0-0.98","5c163e51d47b0000014a7821","619531dcf66c91622fa1b861","61959613b727bb5d2a701df0","null","","null","","","","","main_T1_ITI","","","","",""
"","","","","","visual-search-circle","211","513752","0.0-14.0-0.0-1.98","5c163e51d47b0000014a7821","619531dcf66c91622fa1b861","61959613b727bb5d2a701df0","1278.8999999761581","","s","true","[[192,19],[25,177],[19,407],[177,574],[407,580],[574,422],[580,192],[422,25]]","false","8","main_T2_Trial","s","img/Fire_Down_Target.gif","[""img/Fire_Up_Distractor.gif"",""img/Fire_Up_Distractor.gif"",""img/Fire_Up_Distractor.gif"",""img/Fire_Up_Distractor.gif"",""img/Fire_Up_Distractor.gif"",""img/Fire_Up_Distractor.gif"",""img/Fire_Up_Distractor.gif"",""img/Fire_Up_Distractor.gif"",""img/Fire_Up_Distractor.gif"",""img/Fire_Up_Distractor.gif"",""img/Fire_Up_Distractor.gif"",""img/Fire_Up_Distractor.gif""]","8","targetDown_distractorsUp"
"","","","","","html-keyboard-response","212","608956","0.0-14.0-0.0-0.99","5c163e51d47b0000014a7821","619531dcf66c91622fa1b861","61959613b727bb5d2a701df0","95203.60000002384","Wow! You've completed 100 out of 160 trials! </p> <p>  </p><p> Take a quick break, then press any key when you're ready to continue."," ","","","","","main_T1_ITI","","","","",""
"","","","","","visual-search-circle","213","614972","0.0-14.0-0.0-1.99","5c163e51d47b0000014a7821","619531dcf66c91622fa1b861","61959613b727bb5d2a701df0","5011.899999976158","","d","true","[[569,168],[397,16],[168,30],[16,202],[30,431],[202,583],[431,569],[583,397]]","true","8","main_T2_Trial","d","img/Fire_Up_Target.gif","[""img/Fire_Down_Distractor.gif"",""img/Fire_Down_Distractor.gif"",""img/Fire_Down_Distractor.gif"",""img/Fire_Down_Distractor.gif"",""img/Fire_Down_Distractor.gif"",""img/Fire_Down_Distractor.gif"",""img/Fire_Down_Distractor.gif"",""img/Fire_Down_Distractor.gif"",""img/Fire_Down_Distractor.gif"",""img/Fire_Down_Distractor.gif"",""img/Fire_Down_Distractor.gif"",""img/Fire_Down_Distractor.gif""]","8","targetUp_distractorsDown"
"","","","","","html-keyboard-response","214","615186","0.0-14.0-0.0-0.100","5c163e51d47b0000014a7821","619531dcf66c91622fa1b861","61959613b727bb5d2a701df0","null","","null","","","","","main_T1_ITI","","","","",""
"","","","","","visual-search-circle","215","630085","0.0-14.0-0.0-1.100","5c163e51d47b0000014a7821","619531dcf66c91622fa1b861","61959613b727bb5d2a701df0","13891.300000071526","","d","true","[[412,21],[70,107],[45,458],[372,591],[599,320]]","true","5","main_T2_Trial","d","img/Fire_Up_Target.gif","[""img/Fire_Down_Distractor.gif"",""img/Fire_Down_Distractor.gif"",""img/Fire_Down_Distractor.gif"",""img/Fire_Down_Distractor.gif"",""img/Fire_Down_Distractor.gif"",""img/Fire_Down_Distractor.gif"",""img/Fire_Down_Distractor.gif"",""img/Fire_Down_Distractor.gif"",""img/Fire_Down_Distractor.gif"",""img/Fire_Down_Distractor.gif"",""img/Fire_Down_Distractor.gif"",""img/Fire_Down_Distractor.gif""]","5","targetUp_distractorsDown"
