"success","timeout","failed_images","failed_audio","failed_video","trial_type","trial_index","time_elapsed","internal_node_id","subject_id","study_id","session_id","rt","stimulus","response","correct","locations","target_present","set_size","task","correct_response","target","foilCM","setSizeCM","searchCondition"
"true","false","[]","[]","[]","preload","0","33342","0.0-0.0","5c42aad91474820001508980","619531dcf66c91622fa1b861","6195956bd7c3d188c4d585ed","","","","","","","","","","","","",""
"true","","","","","fullscreen","1","39403","0.0-1.0","5c42aad91474820001508980","619531dcf66c91622fa1b861","6195956bd7c3d188c4d585ed","","","","","","","","","","","","",""
"","","","","","html-keyboard-response","2","55405","0.0-2.0","5c42aad91474820001508980","619531dcf66c91622fa1b861","6195956bd7c3d188c4d585ed","15989","What a beautiful Thursday to do some awesome science! </p> <p>  </p><p> </p>
    By completing this survey or questionnaire, you are consenting to be in this research study. </p>
    Your participation is voluntary and you can stop at any time.
    <p> [Press any key to continue.] </p>
    
    "," ","","","","","","","","","",""
"","","","","","video-keyboard-response","3","87407","0.0-3.0","5c42aad91474820001508980","619531dcf66c91622fa1b861","6195956bd7c3d188c4d585ed","31916","[""video/TaskInstructions.mp4""]"," ","","","","","","","","","",""
"","","","","","html-keyboard-response","4","89589","0.0-4.0","5c42aad91474820001508980","619531dcf66c91622fa1b861","6195956bd7c3d188c4d585ed","2180","
    <p>First, we're going to do a few practice trials to make sure you understand the task. You will recieve feedback on each trial. </p>
    <p>[Press any key to begin the familiarization phase.]</p>
    "," ","","","","","","","","","",""
"","","","","","visual-search-circle","5","94326","0.0-5.0-0.0","5c42aad91474820001508980","619531dcf66c91622fa1b861","6195956bd7c3d188c4d585ed","3647","","d","true","[[95,519],[519,504],[504,80],[80,95]]","true","4","training","d","","","",""
"","","","","","html-keyboard-response","6","101475","0.0-6.0","5c42aad91474820001508980","619531dcf66c91622fa1b861","6195956bd7c3d188c4d585ed","7139"," <div style='float: center; '><img src='img/feedbackRight.png'></img> </div> ","enter","","","","","","","","","",""
"","","","","","visual-search-circle","7","104727","0.0-7.0-0.0","5c42aad91474820001508980","619531dcf66c91622fa1b861","6195956bd7c3d188c4d585ed","2216","","d","false","[[187,578],[578,412],[412,21],[21,187]]","false","4","training","s","","","",""
"","","","","","html-keyboard-response","8","107772","0.0-8.0","5c42aad91474820001508980","619531dcf66c91622fa1b861","6195956bd7c3d188c4d585ed","3041"," <div style='float: center;'><img src='img/feedbackWrong.png'></img> </div> ","enter","","","","","","","","","",""
"","","","","","visual-search-circle","9","110179","0.0-9.0-0.0","5c42aad91474820001508980","619531dcf66c91622fa1b861","6195956bd7c3d188c4d585ed","1387","","s","true","[[594,242],[397,16],[103,73],[5,357],[202,583],[496,526]]","false","6","training","s","","","",""
"","","","","","html-keyboard-response","10","112212","0.0-10.0","5c42aad91474820001508980","619531dcf66c91622fa1b861","6195956bd7c3d188c4d585ed","2026"," <div style='float: center; '><img src='img/feedbackRight.png'></img> </div> "," ","","","","","","","","","",""
"","","","","","visual-search-circle","11","114629","0.0-11.0-0.0","5c42aad91474820001508980","619531dcf66c91622fa1b861","6195956bd7c3d188c4d585ed","1382","","s","false","[[336,597],[536,484],[597,263],[484,63],[263,2],[63,115],[2,336],[115,536]]","true","8","training","d","","","",""
"","","","","","html-keyboard-response","12","115442","0.0-12.0","5c42aad91474820001508980","619531dcf66c91622fa1b861","6195956bd7c3d188c4d585ed","808"," <div style='float: center;'><img src='img/feedbackWrong.png'></img> </div> "," ","","","","","","","","","",""
"","","","","","video-keyboard-response","13","121686","0.0-13.0","5c42aad91474820001508980","619531dcf66c91622fa1b861","6195956bd7c3d188c4d585ed","6231","[""video/endTraining.mp4""]"," ","","","","","","","","","",""
"","","","","","html-keyboard-response","14","121688","0.0-14.0-0.0-0.0","5c42aad91474820001508980","619531dcf66c91622fa1b861","6195956bd7c3d188c4d585ed","null","","null","","","","","main_T1_ITI","","","","",""
"","","","","","visual-search-circle","15","123717","0.0-14.0-0.0-1.0","5c42aad91474820001508980","619531dcf66c91622fa1b861","6195956bd7c3d188c4d585ed","1008","","s","false","[[562,154],[349,4],[99,76],[0,317],[126,544],[383,588],[577,414]]","true","7","main_T2_Trial","d","img/Fire_Down_Target.gif","[""img/Fire_Up_Distractor.gif"",""img/Fire_Up_Distractor.gif"",""img/Fire_Up_Distractor.gif"",""img/Fire_Up_Distractor.gif"",""img/Fire_Up_Distractor.gif"",""img/Fire_Up_Distractor.gif"",""img/Fire_Up_Distractor.gif"",""img/Fire_Up_Distractor.gif"",""img/Fire_Up_Distractor.gif"",""img/Fire_Up_Distractor.gif"",""img/Fire_Up_Distractor.gif"",""img/Fire_Up_Distractor.gif""]","7","targetDown_distractorsUp"
"","","","","","html-keyboard-response","16","123722","0.0-14.0-0.0-0.1","5c42aad91474820001508980","619531dcf66c91622fa1b861","6195956bd7c3d188c4d585ed","null","","null","","","","","main_T1_ITI","","","","",""
"","","","","","visual-search-circle","17","126192","0.0-14.0-0.0-1.1","5c42aad91474820001508980","619531dcf66c91622fa1b861","6195956bd7c3d188c4d585ed","1431","","d","true","[[454,42],[154,37],[0,294],[145,557],[445,562],[599,305]]","true","6","main_T2_Trial","d","img/Fire_Up_Target.gif","[""img/Fire_Down_Distractor.gif"",""img/Fire_Down_Distractor.gif"",""img/Fire_Down_Distractor.gif"",""img/Fire_Down_Distractor.gif"",""img/Fire_Down_Distractor.gif"",""img/Fire_Down_Distractor.gif"",""img/Fire_Down_Distractor.gif"",""img/Fire_Down_Distractor.gif"",""img/Fire_Down_Distractor.gif"",""img/Fire_Down_Distractor.gif"",""img/Fire_Down_Distractor.gif"",""img/Fire_Down_Distractor.gif""]","6","targetUp_distractorsDown"
"","","","","","html-keyboard-response","18","126204","0.0-14.0-0.0-0.2","5c42aad91474820001508980","619531dcf66c91622fa1b861","6195956bd7c3d188c4d585ed","null","","null","","","","","main_T1_ITI","","","","",""
"","","","","","visual-search-circle","19","128155","0.0-14.0-0.0-1.2","5c42aad91474820001508980","619531dcf66c91622fa1b861","6195956bd7c3d188c4d585ed","936","","s","true","[[32,163],[14,392],[163,567],[392,585],[567,436],[585,207],[436,32],[207,14]]","false","8","main_T2_Trial","s","img/Fire_Up_Target.gif","[""img/Fire_Down_Distractor.gif"",""img/Fire_Down_Distractor.gif"",""img/Fire_Down_Distractor.gif"",""img/Fire_Down_Distractor.gif"",""img/Fire_Down_Distractor.gif"",""img/Fire_Down_Distractor.gif"",""img/Fire_Down_Distractor.gif"",""img/Fire_Down_Distractor.gif"",""img/Fire_Down_Distractor.gif"",""img/Fire_Down_Distractor.gif"",""img/Fire_Down_Distractor.gif"",""img/Fire_Down_Distractor.gif""]","8","targetUp_distractorsDown"
"","","","","","html-keyboard-response","20","128165","0.0-14.0-0.0-0.3","5c42aad91474820001508980","619531dcf66c91622fa1b861","6195956bd7c3d188c4d585ed","null","","null","","","","","main_T1_ITI","","","","",""
"","","","","","visual-search-circle","21","131083","0.0-14.0-0.0-1.3","5c42aad91474820001508980","619531dcf66c91622fa1b861","6195956bd7c3d188c4d585ed","1890","","s","true","[[10,222],[87,512],[377,589],[589,377],[512,87],[222,10]]","false","6","main_T2_Trial","s","img/Fire_Down_Target.gif","[""img/Fire_Up_Distractor.gif"",""img/Fire_Up_Distractor.gif"",""img/Fire_Up_Distractor.gif"",""img/Fire_Up_Distractor.gif"",""img/Fire_Up_Distractor.gif"",""img/Fire_Up_Distractor.gif"",""img/Fire_Up_Distractor.gif"",""img/Fire_Up_Distractor.gif"",""img/Fire_Up_Distractor.gif"",""img/Fire_Up_Distractor.gif"",""img/Fire_Up_Distractor.gif"",""img/Fire_Up_Distractor.gif""]","6","targetDown_distractorsUp"
"","","","","","html-keyboard-response","22","131084","0.0-14.0-0.0-0.4","5c42aad91474820001508980","619531dcf66c91622fa1b861","6195956bd7c3d188c4d585ed","null","","null","","","","","main_T1_ITI","","","","",""
"","","","","","visual-search-circle","23","133707","0.0-14.0-0.0-1.4","5c42aad91474820001508980","619531dcf66c91622fa1b861","6195956bd7c3d188c4d585ed","1594","","d","true","[[48,136],[6,362],[136,551],[362,593],[551,463],[593,237],[463,48],[237,6]]","true","8","main_T2_Trial","d","img/Fire_Down_Target.gif","[""img/Fire_Up_Distractor.gif"",""img/Fire_Up_Distractor.gif"",""img/Fire_Up_Distractor.gif"",""img/Fire_Up_Distractor.gif"",""img/Fire_Up_Distractor.gif"",""img/Fire_Up_Distractor.gif"",""img/Fire_Up_Distractor.gif"",""img/Fire_Up_Distractor.gif"",""img/Fire_Up_Distractor.gif"",""img/Fire_Up_Distractor.gif"",""img/Fire_Up_Distractor.gif"",""img/Fire_Up_Distractor.gif""]","8","targetDown_distractorsUp"
"","","","","","html-keyboard-response","24","133709","0.0-14.0-0.0-0.5","5c42aad91474820001508980","619531dcf66c91622fa1b861","6195956bd7c3d188c4d585ed","null","","null","","","","","main_T1_ITI","","","","",""
"","","","","","visual-search-circle","25","135549","0.0-14.0-0.0-1.5","5c42aad91474820001508980","619531dcf66c91622fa1b861","6195956bd7c3d188c4d585ed","816","","s","true","[[526,496],[557,145],[232,7],[1,273],[182,576]]","false","5","main_T2_Trial","s","img/Fire_Up_Target.gif","[""img/Fire_Down_Distractor.gif"",""img/Fire_Down_Distractor.gif"",""img/Fire_Down_Distractor.gif"",""img/Fire_Down_Distractor.gif"",""img/Fire_Down_Distractor.gif"",""img/Fire_Down_Distractor.gif"",""img/Fire_Down_Distractor.gif"",""img/Fire_Down_Distractor.gif"",""img/Fire_Down_Distractor.gif"",""img/Fire_Down_Distractor.gif"",""img/Fire_Down_Distractor.gif"",""img/Fire_Down_Distractor.gif""]","5","targetUp_distractorsDown"
"","","","","","html-keyboard-response","26","135567","0.0-14.0-0.0-0.6","5c42aad91474820001508980","619531dcf66c91622fa1b861","6195956bd7c3d188c4d585ed","null","","null","","","","","main_T1_ITI","","","","",""
"","","","","","visual-search-circle","27","138149","0.0-14.0-0.0-1.6","5c42aad91474820001508980","619531dcf66c91622fa1b861","6195956bd7c3d188c4d585ed","1560","","d","true","[[480,539],[597,263],[417,23],[119,60],[2,336],[182,576]]","true","6","main_T2_Trial","d","img/Fire_Up_Target.gif","[""img/Fire_Down_Distractor.gif"",""img/Fire_Down_Distractor.gif"",""img/Fire_Down_Distractor.gif"",""img/Fire_Down_Distractor.gif"",""img/Fire_Down_Distractor.gif"",""img/Fire_Down_Distractor.gif"",""img/Fire_Down_Distractor.gif"",""img/Fire_Down_Distractor.gif"",""img/Fire_Down_Distractor.gif"",""img/Fire_Down_Distractor.gif"",""img/Fire_Down_Distractor.gif"",""img/Fire_Down_Distractor.gif""]","6","targetUp_distractorsDown"
"","","","","","html-keyboard-response","28","138151","0.0-14.0-0.0-0.7","5c42aad91474820001508980","619531dcf66c91622fa1b861","6195956bd7c3d188c4d585ed","null","","null","","","","","main_T1_ITI","","","","",""
"","","","","","visual-search-circle","29","141050","0.0-14.0-0.0-1.7","5c42aad91474820001508980","619531dcf66c91622fa1b861","6195956bd7c3d188c4d585ed","1877","","s","false","[[310,599],[588,382],[467,51],[115,63],[18,402]]","true","5","main_T2_Trial","d","img/Fire_Up_Target.gif","[""img/Fire_Down_Distractor.gif"",""img/Fire_Down_Distractor.gif"",""img/Fire_Down_Distractor.gif"",""img/Fire_Down_Distractor.gif"",""img/Fire_Down_Distractor.gif"",""img/Fire_Down_Distractor.gif"",""img/Fire_Down_Distractor.gif"",""img/Fire_Down_Distractor.gif"",""img/Fire_Down_Distractor.gif"",""img/Fire_Down_Distractor.gif"",""img/Fire_Down_Distractor.gif"",""img/Fire_Down_Distractor.gif""]","5","targetUp_distractorsDown"
"","","","","","html-keyboard-response","30","141052","0.0-14.0-0.0-0.8","5c42aad91474820001508980","619531dcf66c91622fa1b861","6195956bd7c3d188c4d585ed","null","","null","","","","","main_T1_ITI","","","","",""
"","","","","","visual-search-circle","31","142921","0.0-14.0-0.0-1.8","5c42aad91474820001508980","619531dcf66c91622fa1b861","6195956bd7c3d188c4d585ed","838","","s","true","[[569,168],[365,7],[111,66],[0,301],[114,535],[368,592],[570,428]]","false","7","main_T2_Trial","s","img/Fire_Up_Target.gif","[""img/Fire_Down_Distractor.gif"",""img/Fire_Down_Distractor.gif"",""img/Fire_Down_Distractor.gif"",""img/Fire_Down_Distractor.gif"",""img/Fire_Down_Distractor.gif"",""img/Fire_Down_Distractor.gif"",""img/Fire_Down_Distractor.gif"",""img/Fire_Down_Distractor.gif"",""img/Fire_Down_Distractor.gif"",""img/Fire_Down_Distractor.gif"",""img/Fire_Down_Distractor.gif"",""img/Fire_Down_Distractor.gif""]","7","targetUp_distractorsDown"
"","","","","","html-keyboard-response","32","142922","0.0-14.0-0.0-0.9","5c42aad91474820001508980","619531dcf66c91622fa1b861","6195956bd7c3d188c4d585ed","null","","null","","","","","main_T1_ITI","","","","",""
"","","","","","visual-search-circle","33","144753","0.0-14.0-0.0-1.9","5c42aad91474820001508980","619531dcf66c91622fa1b861","6195956bd7c3d188c4d585ed","810","","s","true","[[331,598],[574,422],[542,123],[268,1],[25,177],[57,476]]","false","6","main_T2_Trial","s","img/Fire_Down_Target.gif","[""img/Fire_Up_Distractor.gif"",""img/Fire_Up_Distractor.gif"",""img/Fire_Up_Distractor.gif"",""img/Fire_Up_Distractor.gif"",""img/Fire_Up_Distractor.gif"",""img/Fire_Up_Distractor.gif"",""img/Fire_Up_Distractor.gif"",""img/Fire_Up_Distractor.gif"",""img/Fire_Up_Distractor.gif"",""img/Fire_Up_Distractor.gif"",""img/Fire_Up_Distractor.gif"",""img/Fire_Up_Distractor.gif""]","6","targetDown_distractorsUp"
"","","","","","html-keyboard-response","34","144754","0.0-14.0-0.0-0.10","5c42aad91474820001508980","619531dcf66c91622fa1b861","6195956bd7c3d188c4d585ed","null","","null","","","","","main_T1_ITI","","","","",""
"","","","","","visual-search-circle","35","147005","0.0-14.0-0.0-1.10","5c42aad91474820001508980","619531dcf66c91622fa1b861","6195956bd7c3d188c4d585ed","1227","","d","false","[[387,13],[95,80],[7,367],[212,586],[504,519],[592,232]]","false","6","main_T2_Trial","s","img/Fire_Up_Target.gif","[""img/Fire_Down_Distractor.gif"",""img/Fire_Down_Distractor.gif"",""img/Fire_Down_Distractor.gif"",""img/Fire_Down_Distractor.gif"",""img/Fire_Down_Distractor.gif"",""img/Fire_Down_Distractor.gif"",""img/Fire_Down_Distractor.gif"",""img/Fire_Down_Distractor.gif"",""img/Fire_Down_Distractor.gif"",""img/Fire_Down_Distractor.gif"",""img/Fire_Down_Distractor.gif"",""img/Fire_Down_Distractor.gif""]","6","targetUp_distractorsDown"
"","","","","","html-keyboard-response","36","147005","0.0-14.0-0.0-0.11","5c42aad91474820001508980","619531dcf66c91622fa1b861","6195956bd7c3d188c4d585ed","null","","null","","","","","main_T1_ITI","","","","",""
"","","","","","visual-search-circle","37","148805","0.0-14.0-0.0-1.11","5c42aad91474820001508980","619531dcf66c91622fa1b861","6195956bd7c3d188c4d585ed","774","","s","true","[[484,63],[187,21],[2,258],[115,536],[412,578],[597,341]]","false","6","main_T2_Trial","s","img/Fire_Down_Target.gif","[""img/Fire_Up_Distractor.gif"",""img/Fire_Up_Distractor.gif"",""img/Fire_Up_Distractor.gif"",""img/Fire_Up_Distractor.gif"",""img/Fire_Up_Distractor.gif"",""img/Fire_Up_Distractor.gif"",""img/Fire_Up_Distractor.gif"",""img/Fire_Up_Distractor.gif"",""img/Fire_Up_Distractor.gif"",""img/Fire_Up_Distractor.gif"",""img/Fire_Up_Distractor.gif"",""img/Fire_Up_Distractor.gif""]","6","targetDown_distractorsUp"
"","","","","","html-keyboard-response","38","148814","0.0-14.0-0.0-0.12","5c42aad91474820001508980","619531dcf66c91622fa1b861","6195956bd7c3d188c4d585ed","null","","null","","","","","main_T1_ITI","","","","",""
"","","","","","visual-search-circle","39","150886","0.0-14.0-0.0-1.12","5c42aad91474820001508980","619531dcf66c91622fa1b861","6195956bd7c3d188c4d585ed","1033","","d","true","[[551,136],[284,0],[32,163],[48,463],[315,599],[567,436]]","true","6","main_T2_Trial","d","img/Fire_Down_Target.gif","[""img/Fire_Up_Distractor.gif"",""img/Fire_Up_Distractor.gif"",""img/Fire_Up_Distractor.gif"",""img/Fire_Up_Distractor.gif"",""img/Fire_Up_Distractor.gif"",""img/Fire_Up_Distractor.gif"",""img/Fire_Up_Distractor.gif"",""img/Fire_Up_Distractor.gif"",""img/Fire_Up_Distractor.gif"",""img/Fire_Up_Distractor.gif"",""img/Fire_Up_Distractor.gif"",""img/Fire_Up_Distractor.gif""]","6","targetDown_distractorsUp"
"","","","","","html-keyboard-response","40","150890","0.0-14.0-0.0-0.13","5c42aad91474820001508980","619531dcf66c91622fa1b861","6195956bd7c3d188c4d585ed","null","","null","","","","","main_T1_ITI","","","","",""
"","","","","","visual-search-circle","41","153195","0.0-14.0-0.0-1.13","5c42aad91474820001508980","619531dcf66c91622fa1b861","6195956bd7c3d188c4d585ed","1283","","s","true","[[445,562],[562,154],[154,37],[37,445]]","false","4","main_T2_Trial","s","img/Fire_Up_Target.gif","[""img/Fire_Down_Distractor.gif"",""img/Fire_Down_Distractor.gif"",""img/Fire_Down_Distractor.gif"",""img/Fire_Down_Distractor.gif"",""img/Fire_Down_Distractor.gif"",""img/Fire_Down_Distractor.gif"",""img/Fire_Down_Distractor.gif"",""img/Fire_Down_Distractor.gif"",""img/Fire_Down_Distractor.gif"",""img/Fire_Down_Distractor.gif"",""img/Fire_Down_Distractor.gif"",""img/Fire_Down_Distractor.gif""]","4","targetUp_distractorsDown"
"","","","","","html-keyboard-response","42","153199","0.0-14.0-0.0-0.14","5c42aad91474820001508980","619531dcf66c91622fa1b861","6195956bd7c3d188c4d585ed","null","","null","","","","","main_T1_ITI","","","","",""
"","","","","","visual-search-circle","43","154851","0.0-14.0-0.0-1.14","5c42aad91474820001508980","619531dcf66c91622fa1b861","6195956bd7c3d188c4d585ed","639","","s","false","[[0,299],[299,600],[600,300],[300,0]]","true","4","main_T2_Trial","d","img/Fire_Down_Target.gif","[""img/Fire_Up_Distractor.gif"",""img/Fire_Up_Distractor.gif"",""img/Fire_Up_Distractor.gif"",""img/Fire_Up_Distractor.gif"",""img/Fire_Up_Distractor.gif"",""img/Fire_Up_Distractor.gif"",""img/Fire_Up_Distractor.gif"",""img/Fire_Up_Distractor.gif"",""img/Fire_Up_Distractor.gif"",""img/Fire_Up_Distractor.gif"",""img/Fire_Up_Distractor.gif"",""img/Fire_Up_Distractor.gif""]","4","targetDown_distractorsUp"
"","","","","","html-keyboard-response","44","154852","0.0-14.0-0.0-0.15","5c42aad91474820001508980","619531dcf66c91622fa1b861","6195956bd7c3d188c4d585ed","null","","null","","","","","main_T1_ITI","","","","",""
"","","","","","visual-search-circle","45","157190","0.0-14.0-0.0-1.15","5c42aad91474820001508980","619531dcf66c91622fa1b861","6195956bd7c3d188c4d585ed","1325","","d","false","[[6,237],[149,559],[500,522],[574,177],[268,1]]","false","5","main_T2_Trial","s","img/Fire_Down_Target.gif","[""img/Fire_Up_Distractor.gif"",""img/Fire_Up_Distractor.gif"",""img/Fire_Up_Distractor.gif"",""img/Fire_Up_Distractor.gif"",""img/Fire_Up_Distractor.gif"",""img/Fire_Up_Distractor.gif"",""img/Fire_Up_Distractor.gif"",""img/Fire_Up_Distractor.gif"",""img/Fire_Up_Distractor.gif"",""img/Fire_Up_Distractor.gif"",""img/Fire_Up_Distractor.gif"",""img/Fire_Up_Distractor.gif""]","5","targetDown_distractorsUp"
"","","","","","html-keyboard-response","46","157193","0.0-14.0-0.0-0.16","5c42aad91474820001508980","619531dcf66c91622fa1b861","6195956bd7c3d188c4d585ed","null","","null","","","","","main_T1_ITI","","","","",""
"","","","","","visual-search-circle","47","159082","0.0-14.0-0.0-1.16","5c42aad91474820001508980","619531dcf66c91622fa1b861","6195956bd7c3d188c4d585ed","849","","s","true","[[326,598],[529,492],[598,273],[492,70],[273,1],[70,107],[1,326],[107,529]]","false","8","main_T2_Trial","s","img/Fire_Up_Target.gif","[""img/Fire_Down_Distractor.gif"",""img/Fire_Down_Distractor.gif"",""img/Fire_Down_Distractor.gif"",""img/Fire_Down_Distractor.gif"",""img/Fire_Down_Distractor.gif"",""img/Fire_Down_Distractor.gif"",""img/Fire_Down_Distractor.gif"",""img/Fire_Down_Distractor.gif"",""img/Fire_Down_Distractor.gif"",""img/Fire_Down_Distractor.gif"",""img/Fire_Down_Distractor.gif"",""img/Fire_Down_Distractor.gif""]","8","targetUp_distractorsDown"
"","","","","","html-keyboard-response","48","159083","0.0-14.0-0.0-0.17","5c42aad91474820001508980","619531dcf66c91622fa1b861","6195956bd7c3d188c4d585ed","null","","null","","","","","main_T1_ITI","","","","",""
"","","","","","visual-search-circle","49","161250","0.0-14.0-0.0-1.17","5c42aad91474820001508980","619531dcf66c91622fa1b861","6195956bd7c3d188c4d585ed","1150","","d","true","[[331,598],[598,268],[268,1],[1,331]]","true","4","main_T2_Trial","d","img/Fire_Up_Target.gif","[""img/Fire_Down_Distractor.gif"",""img/Fire_Down_Distractor.gif"",""img/Fire_Down_Distractor.gif"",""img/Fire_Down_Distractor.gif"",""img/Fire_Down_Distractor.gif"",""img/Fire_Down_Distractor.gif"",""img/Fire_Down_Distractor.gif"",""img/Fire_Down_Distractor.gif"",""img/Fire_Down_Distractor.gif"",""img/Fire_Down_Distractor.gif"",""img/Fire_Down_Distractor.gif"",""img/Fire_Down_Distractor.gif""]","4","targetUp_distractorsDown"
"","","","","","html-keyboard-response","50","161251","0.0-14.0-0.0-0.18","5c42aad91474820001508980","619531dcf66c91622fa1b861","6195956bd7c3d188c4d585ed","null","","null","","","","","main_T1_ITI","","","","",""
"","","","","","visual-search-circle","51","163166","0.0-14.0-0.0-1.18","5c42aad91474820001508980","619531dcf66c91622fa1b861","6195956bd7c3d188c4d585ed","905","","d","true","[[476,542],[542,123],[123,57],[57,476]]","true","4","main_T2_Trial","d","img/Fire_Down_Target.gif","[""img/Fire_Up_Distractor.gif"",""img/Fire_Up_Distractor.gif"",""img/Fire_Up_Distractor.gif"",""img/Fire_Up_Distractor.gif"",""img/Fire_Up_Distractor.gif"",""img/Fire_Up_Distractor.gif"",""img/Fire_Up_Distractor.gif"",""img/Fire_Up_Distractor.gif"",""img/Fire_Up_Distractor.gif"",""img/Fire_Up_Distractor.gif"",""img/Fire_Up_Distractor.gif"",""img/Fire_Up_Distractor.gif""]","4","targetDown_distractorsUp"
"","","","","","html-keyboard-response","52","166492","0.0-14.0-0.0-0.19","5c42aad91474820001508980","619531dcf66c91622fa1b861","6195956bd7c3d188c4d585ed","3324","Wow! You've completed 20 out of 160 trials! </p> <p>  </p><p> Take a quick break, then press any key when you're ready to continue."," ","","","","","main_T1_ITI","","","","",""
"","","","","","visual-search-circle","53","168904","0.0-14.0-0.0-1.19","5c42aad91474820001508980","619531dcf66c91622fa1b861","6195956bd7c3d188c4d585ed","1384","","d","false","[[476,542],[542,123],[123,57],[57,476]]","false","4","main_T2_Trial","s","img/Fire_Down_Target.gif","[""img/Fire_Up_Distractor.gif"",""img/Fire_Up_Distractor.gif"",""img/Fire_Up_Distractor.gif"",""img/Fire_Up_Distractor.gif"",""img/Fire_Up_Distractor.gif"",""img/Fire_Up_Distractor.gif"",""img/Fire_Up_Distractor.gif"",""img/Fire_Up_Distractor.gif"",""img/Fire_Up_Distractor.gif"",""img/Fire_Up_Distractor.gif"",""img/Fire_Up_Distractor.gif"",""img/Fire_Up_Distractor.gif""]","4","targetDown_distractorsUp"
"","","","","","html-keyboard-response","54","168904","0.0-14.0-0.0-0.20","5c42aad91474820001508980","619531dcf66c91622fa1b861","6195956bd7c3d188c4d585ed","null","","null","","","","","main_T1_ITI","","","","",""
"","","","","","visual-search-circle","55","171667","0.0-14.0-0.0-1.20","5c42aad91474820001508980","619531dcf66c91622fa1b861","6195956bd7c3d188c4d585ed","1728","","d","true","[[192,580],[533,488],[551,136],[222,10],[0,284]]","true","5","main_T2_Trial","d","img/Fire_Down_Target.gif","[""img/Fire_Up_Distractor.gif"",""img/Fire_Up_Distractor.gif"",""img/Fire_Up_Distractor.gif"",""img/Fire_Up_Distractor.gif"",""img/Fire_Up_Distractor.gif"",""img/Fire_Up_Distractor.gif"",""img/Fire_Up_Distractor.gif"",""img/Fire_Up_Distractor.gif"",""img/Fire_Up_Distractor.gif"",""img/Fire_Up_Distractor.gif"",""img/Fire_Up_Distractor.gif"",""img/Fire_Up_Distractor.gif""]","5","targetDown_distractorsUp"
"","","","","","html-keyboard-response","56","171669","0.0-14.0-0.0-0.21","5c42aad91474820001508980","619531dcf66c91622fa1b861","6195956bd7c3d188c4d585ed","null","","null","","","","","main_T1_ITI","","","","",""
"","","","","","visual-search-circle","57","173522","0.0-14.0-0.0-1.21","5c42aad91474820001508980","619531dcf66c91622fa1b861","6195956bd7c3d188c4d585ed","831","","d","false","[[440,35],[91,84],[30,431],[341,597],[595,352]]","false","5","main_T2_Trial","s","img/Fire_Up_Target.gif","[""img/Fire_Down_Distractor.gif"",""img/Fire_Down_Distractor.gif"",""img/Fire_Down_Distractor.gif"",""img/Fire_Down_Distractor.gif"",""img/Fire_Down_Distractor.gif"",""img/Fire_Down_Distractor.gif"",""img/Fire_Down_Distractor.gif"",""img/Fire_Down_Distractor.gif"",""img/Fire_Down_Distractor.gif"",""img/Fire_Down_Distractor.gif"",""img/Fire_Down_Distractor.gif"",""img/Fire_Down_Distractor.gif""]","5","targetUp_distractorsDown"
"","","","","","html-keyboard-response","58","173531","0.0-14.0-0.0-0.22","5c42aad91474820001508980","619531dcf66c91622fa1b861","6195956bd7c3d188c4d585ed","null","","null","","","","","main_T1_ITI","","","","",""
"","","","","","visual-search-circle","59","175645","0.0-14.0-0.0-1.22","5c42aad91474820001508980","619531dcf66c91622fa1b861","6195956bd7c3d188c4d585ed","1085","","d","true","[[60,119],[23,417],[263,597],[539,480],[576,182],[336,2]]","true","6","main_T2_Trial","d","img/Fire_Down_Target.gif","[""img/Fire_Up_Distractor.gif"",""img/Fire_Up_Distractor.gif"",""img/Fire_Up_Distractor.gif"",""img/Fire_Up_Distractor.gif"",""img/Fire_Up_Distractor.gif"",""img/Fire_Up_Distractor.gif"",""img/Fire_Up_Distractor.gif"",""img/Fire_Up_Distractor.gif"",""img/Fire_Up_Distractor.gif"",""img/Fire_Up_Distractor.gif"",""img/Fire_Up_Distractor.gif"",""img/Fire_Up_Distractor.gif""]","6","targetDown_distractorsUp"
"","","","","","html-keyboard-response","60","175650","0.0-14.0-0.0-0.23","5c42aad91474820001508980","619531dcf66c91622fa1b861","6195956bd7c3d188c4d585ed","null","","null","","","","","main_T1_ITI","","","","",""
"","","","","","visual-search-circle","61","177803","0.0-14.0-0.0-1.23","5c42aad91474820001508980","619531dcf66c91622fa1b861","6195956bd7c3d188c4d585ed","1132","","d","true","[[8,227],[141,554],[492,529],[578,187],[279,0]]","true","5","main_T2_Trial","d","img/Fire_Up_Target.gif","[""img/Fire_Down_Distractor.gif"",""img/Fire_Down_Distractor.gif"",""img/Fire_Down_Distractor.gif"",""img/Fire_Down_Distractor.gif"",""img/Fire_Down_Distractor.gif"",""img/Fire_Down_Distractor.gif"",""img/Fire_Down_Distractor.gif"",""img/Fire_Down_Distractor.gif"",""img/Fire_Down_Distractor.gif"",""img/Fire_Down_Distractor.gif"",""img/Fire_Down_Distractor.gif"",""img/Fire_Down_Distractor.gif""]","5","targetUp_distractorsDown"
"","","","","","html-keyboard-response","62","177816","0.0-14.0-0.0-0.24","5c42aad91474820001508980","619531dcf66c91622fa1b861","6195956bd7c3d188c4d585ed","null","","null","","","","","main_T1_ITI","","","","",""
"","","","","","visual-search-circle","63","179681","0.0-14.0-0.0-1.24","5c42aad91474820001508980","619531dcf66c91622fa1b861","6195956bd7c3d188c4d585ed","851","","d","true","[[77,500],[422,574],[598,268],[362,6],[40,150]]","true","5","main_T2_Trial","d","img/Fire_Up_Target.gif","[""img/Fire_Down_Distractor.gif"",""img/Fire_Down_Distractor.gif"",""img/Fire_Down_Distractor.gif"",""img/Fire_Down_Distractor.gif"",""img/Fire_Down_Distractor.gif"",""img/Fire_Down_Distractor.gif"",""img/Fire_Down_Distractor.gif"",""img/Fire_Down_Distractor.gif"",""img/Fire_Down_Distractor.gif"",""img/Fire_Down_Distractor.gif"",""img/Fire_Down_Distractor.gif"",""img/Fire_Down_Distractor.gif""]","5","targetUp_distractorsDown"
"","","","","","html-keyboard-response","64","179684","0.0-14.0-0.0-0.25","5c42aad91474820001508980","619531dcf66c91622fa1b861","6195956bd7c3d188c4d585ed","null","","null","","","","","main_T1_ITI","","","","",""
"","","","","","visual-search-circle","65","181278","0.0-14.0-0.0-1.25","5c42aad91474820001508980","619531dcf66c91622fa1b861","6195956bd7c3d188c4d585ed","561","","s","true","[[554,141],[367,7],[141,45],[7,232],[45,458],[232,592],[458,554],[592,367]]","false","8","main_T2_Trial","s","img/Fire_Down_Target.gif","[""img/Fire_Up_Distractor.gif"",""img/Fire_Up_Distractor.gif"",""img/Fire_Up_Distractor.gif"",""img/Fire_Up_Distractor.gif"",""img/Fire_Up_Distractor.gif"",""img/Fire_Up_Distractor.gif"",""img/Fire_Up_Distractor.gif"",""img/Fire_Up_Distractor.gif"",""img/Fire_Up_Distractor.gif"",""img/Fire_Up_Distractor.gif"",""img/Fire_Up_Distractor.gif"",""img/Fire_Up_Distractor.gif""]","8","targetDown_distractorsUp"
"","","","","","html-keyboard-response","66","181284","0.0-14.0-0.0-0.26","5c42aad91474820001508980","619531dcf66c91622fa1b861","6195956bd7c3d188c4d585ed","null","","null","","","","","main_T1_ITI","","","","",""
"","","","","","visual-search-circle","67","182941","0.0-14.0-0.0-1.26","5c42aad91474820001508980","619531dcf66c91622fa1b861","6195956bd7c3d188c4d585ed","644","","s","true","[[163,32],[3,346],[253,596],[567,436],[512,87]]","false","5","main_T2_Trial","s","img/Fire_Down_Target.gif","[""img/Fire_Up_Distractor.gif"",""img/Fire_Up_Distractor.gif"",""img/Fire_Up_Distractor.gif"",""img/Fire_Up_Distractor.gif"",""img/Fire_Up_Distractor.gif"",""img/Fire_Up_Distractor.gif"",""img/Fire_Up_Distractor.gif"",""img/Fire_Up_Distractor.gif"",""img/Fire_Up_Distractor.gif"",""img/Fire_Up_Distractor.gif"",""img/Fire_Up_Distractor.gif"",""img/Fire_Up_Distractor.gif""]","5","targetDown_distractorsUp"
"","","","","","html-keyboard-response","68","182953","0.0-14.0-0.0-0.27","5c42aad91474820001508980","619531dcf66c91622fa1b861","6195956bd7c3d188c4d585ed","null","","null","","","","","main_T1_ITI","","","","",""
"","","","","","visual-search-circle","69","184881","0.0-14.0-0.0-1.27","5c42aad91474820001508980","619531dcf66c91622fa1b861","6195956bd7c3d188c4d585ed","888","","s","false","[[551,463],[593,237],[463,48],[237,6],[48,136],[6,362],[136,551],[362,593]]","true","8","main_T2_Trial","d","img/Fire_Up_Target.gif","[""img/Fire_Down_Distractor.gif"",""img/Fire_Down_Distractor.gif"",""img/Fire_Down_Distractor.gif"",""img/Fire_Down_Distractor.gif"",""img/Fire_Down_Distractor.gif"",""img/Fire_Down_Distractor.gif"",""img/Fire_Down_Distractor.gif"",""img/Fire_Down_Distractor.gif"",""img/Fire_Down_Distractor.gif"",""img/Fire_Down_Distractor.gif"",""img/Fire_Down_Distractor.gif"",""img/Fire_Down_Distractor.gif""]","8","targetUp_distractorsDown"
"","","","","","html-keyboard-response","70","184882","0.0-14.0-0.0-0.28","5c42aad91474820001508980","619531dcf66c91622fa1b861","6195956bd7c3d188c4d585ed","null","","null","","","","","main_T1_ITI","","","","",""
"","","","","","visual-search-circle","71","186911","0.0-14.0-0.0-1.28","5c42aad91474820001508980","619531dcf66c91622fa1b861","6195956bd7c3d188c4d585ed","1006","","d","true","[[315,599],[522,500],[599,284],[500,77],[284,0],[77,99],[0,315],[99,522]]","true","8","main_T2_Trial","d","img/Fire_Down_Target.gif","[""img/Fire_Up_Distractor.gif"",""img/Fire_Up_Distractor.gif"",""img/Fire_Up_Distractor.gif"",""img/Fire_Up_Distractor.gif"",""img/Fire_Up_Distractor.gif"",""img/Fire_Up_Distractor.gif"",""img/Fire_Up_Distractor.gif"",""img/Fire_Up_Distractor.gif"",""img/Fire_Up_Distractor.gif"",""img/Fire_Up_Distractor.gif"",""img/Fire_Up_Distractor.gif"",""img/Fire_Up_Distractor.gif""]","8","targetDown_distractorsUp"
"","","","","","html-keyboard-response","72","186916","0.0-14.0-0.0-0.29","5c42aad91474820001508980","619531dcf66c91622fa1b861","6195956bd7c3d188c4d585ed","null","","null","","","","","main_T1_ITI","","","","",""
"","","","","","visual-search-circle","73","188869","0.0-14.0-0.0-1.29","5c42aad91474820001508980","619531dcf66c91622fa1b861","6195956bd7c3d188c4d585ed","940","","d","true","[[16,202],[30,431],[202,583],[431,569],[583,397],[569,168],[397,16],[168,30]]","true","8","main_T2_Trial","d","img/Fire_Up_Target.gif","[""img/Fire_Down_Distractor.gif"",""img/Fire_Down_Distractor.gif"",""img/Fire_Down_Distractor.gif"",""img/Fire_Down_Distractor.gif"",""img/Fire_Down_Distractor.gif"",""img/Fire_Down_Distractor.gif"",""img/Fire_Down_Distractor.gif"",""img/Fire_Down_Distractor.gif"",""img/Fire_Down_Distractor.gif"",""img/Fire_Down_Distractor.gif"",""img/Fire_Down_Distractor.gif"",""img/Fire_Down_Distractor.gif""]","8","targetUp_distractorsDown"
"","","","","","html-keyboard-response","74","188881","0.0-14.0-0.0-0.30","5c42aad91474820001508980","619531dcf66c91622fa1b861","6195956bd7c3d188c4d585ed","null","","null","","","","","main_T1_ITI","","","","",""
"","","","","","visual-search-circle","75","191043","0.0-14.0-0.0-1.30","5c42aad91474820001508980","619531dcf66c91622fa1b861","6195956bd7c3d188c4d585ed","1116","","s","true","[[192,19],[13,209],[50,467],[275,598],[518,505],[596,257],[451,41]]","false","7","main_T2_Trial","s","img/Fire_Up_Target.gif","[""img/Fire_Down_Distractor.gif"",""img/Fire_Down_Distractor.gif"",""img/Fire_Down_Distractor.gif"",""img/Fire_Down_Distractor.gif"",""img/Fire_Down_Distractor.gif"",""img/Fire_Down_Distractor.gif"",""img/Fire_Down_Distractor.gif"",""img/Fire_Down_Distractor.gif"",""img/Fire_Down_Distractor.gif"",""img/Fire_Down_Distractor.gif"",""img/Fire_Down_Distractor.gif"",""img/Fire_Down_Distractor.gif""]","7","targetUp_distractorsDown"
"","","","","","html-keyboard-response","76","191054","0.0-14.0-0.0-0.31","5c42aad91474820001508980","619531dcf66c91622fa1b861","6195956bd7c3d188c4d585ed","null","","null","","","","","main_T1_ITI","","","","",""
"","","","","","visual-search-circle","77","193009","0.0-14.0-0.0-1.31","5c42aad91474820001508980","619531dcf66c91622fa1b861","6195956bd7c3d188c4d585ed","940","","d","true","[[484,536],[597,258],[412,21],[115,63],[2,341],[187,578]]","true","6","main_T2_Trial","d","img/Fire_Up_Target.gif","[""img/Fire_Down_Distractor.gif"",""img/Fire_Down_Distractor.gif"",""img/Fire_Down_Distractor.gif"",""img/Fire_Down_Distractor.gif"",""img/Fire_Down_Distractor.gif"",""img/Fire_Down_Distractor.gif"",""img/Fire_Down_Distractor.gif"",""img/Fire_Down_Distractor.gif"",""img/Fire_Down_Distractor.gif"",""img/Fire_Down_Distractor.gif"",""img/Fire_Down_Distractor.gif"",""img/Fire_Down_Distractor.gif""]","6","targetUp_distractorsDown"
"","","","","","html-keyboard-response","78","193011","0.0-14.0-0.0-0.32","5c42aad91474820001508980","619531dcf66c91622fa1b861","6195956bd7c3d188c4d585ed","null","","null","","","","","main_T1_ITI","","","","",""
"","","","","","visual-search-circle","79","194784","0.0-14.0-0.0-1.32","5c42aad91474820001508980","619531dcf66c91622fa1b861","6195956bd7c3d188c4d585ed","743","","d","true","[[91,515],[338,597],[556,455],[581,195],[394,15],[135,48],[1,271]]","true","7","main_T2_Trial","d","img/Fire_Up_Target.gif","[""img/Fire_Down_Distractor.gif"",""img/Fire_Down_Distractor.gif"",""img/Fire_Down_Distractor.gif"",""img/Fire_Down_Distractor.gif"",""img/Fire_Down_Distractor.gif"",""img/Fire_Down_Distractor.gif"",""img/Fire_Down_Distractor.gif"",""img/Fire_Down_Distractor.gif"",""img/Fire_Down_Distractor.gif"",""img/Fire_Down_Distractor.gif"",""img/Fire_Down_Distractor.gif"",""img/Fire_Down_Distractor.gif""]","7","targetUp_distractorsDown"
"","","","","","html-keyboard-response","80","194785","0.0-14.0-0.0-0.33","5c42aad91474820001508980","619531dcf66c91622fa1b861","6195956bd7c3d188c4d585ed","null","","null","","","","","main_T1_ITI","","","","",""
"","","","","","visual-search-circle","81","196966","0.0-14.0-0.0-1.33","5c42aad91474820001508980","619531dcf66c91622fa1b861","6195956bd7c3d188c4d585ed","1154","","d","true","[[562,445],[445,37],[37,154],[154,562]]","true","4","main_T2_Trial","d","img/Fire_Up_Target.gif","[""img/Fire_Down_Distractor.gif"",""img/Fire_Down_Distractor.gif"",""img/Fire_Down_Distractor.gif"",""img/Fire_Down_Distractor.gif"",""img/Fire_Down_Distractor.gif"",""img/Fire_Down_Distractor.gif"",""img/Fire_Down_Distractor.gif"",""img/Fire_Down_Distractor.gif"",""img/Fire_Down_Distractor.gif"",""img/Fire_Down_Distractor.gif"",""img/Fire_Down_Distractor.gif"",""img/Fire_Down_Distractor.gif""]","4","targetUp_distractorsDown"
"","","","","","html-keyboard-response","82","196982","0.0-14.0-0.0-0.34","5c42aad91474820001508980","619531dcf66c91622fa1b861","6195956bd7c3d188c4d585ed","null","","null","","","","","main_T1_ITI","","","","",""
"","","","","","visual-search-circle","83","198730","0.0-14.0-0.0-1.34","5c42aad91474820001508980","619531dcf66c91622fa1b861","6195956bd7c3d188c4d585ed","738","","s","true","[[115,536],[369,591],[571,427],[568,167],[363,6],[110,67],[0,302]]","false","7","main_T2_Trial","s","img/Fire_Up_Target.gif","[""img/Fire_Down_Distractor.gif"",""img/Fire_Down_Distractor.gif"",""img/Fire_Down_Distractor.gif"",""img/Fire_Down_Distractor.gif"",""img/Fire_Down_Distractor.gif"",""img/Fire_Down_Distractor.gif"",""img/Fire_Down_Distractor.gif"",""img/Fire_Down_Distractor.gif"",""img/Fire_Down_Distractor.gif"",""img/Fire_Down_Distractor.gif"",""img/Fire_Down_Distractor.gif"",""img/Fire_Down_Distractor.gif""]","7","targetUp_distractorsDown"
"","","","","","html-keyboard-response","84","198731","0.0-14.0-0.0-0.35","5c42aad91474820001508980","619531dcf66c91622fa1b861","6195956bd7c3d188c4d585ed","null","","null","","","","","main_T1_ITI","","","","",""
"","","","","","visual-search-circle","85","200671","0.0-14.0-0.0-1.35","5c42aad91474820001508980","619531dcf66c91622fa1b861","6195956bd7c3d188c4d585ed","929","","d","true","[[454,557],[597,339],[516,92],[272,1],[49,135],[14,393],[195,581]]","true","7","main_T2_Trial","d","img/Fire_Up_Target.gif","[""img/Fire_Down_Distractor.gif"",""img/Fire_Down_Distractor.gif"",""img/Fire_Down_Distractor.gif"",""img/Fire_Down_Distractor.gif"",""img/Fire_Down_Distractor.gif"",""img/Fire_Down_Distractor.gif"",""img/Fire_Down_Distractor.gif"",""img/Fire_Down_Distractor.gif"",""img/Fire_Down_Distractor.gif"",""img/Fire_Down_Distractor.gif"",""img/Fire_Down_Distractor.gif"",""img/Fire_Down_Distractor.gif""]","7","targetUp_distractorsDown"
"","","","","","html-keyboard-response","86","200675","0.0-14.0-0.0-0.36","5c42aad91474820001508980","619531dcf66c91622fa1b861","6195956bd7c3d188c4d585ed","null","","null","","","","","main_T1_ITI","","","","",""
"","","","","","visual-search-circle","87","203018","0.0-14.0-0.0-1.36","5c42aad91474820001508980","619531dcf66c91622fa1b861","6195956bd7c3d188c4d585ed","1318","","s","true","[[294,599],[531,491],[593,238],[434,32],[174,27],[8,228],[62,482]]","false","7","main_T2_Trial","s","img/Fire_Down_Target.gif","[""img/Fire_Up_Distractor.gif"",""img/Fire_Up_Distractor.gif"",""img/Fire_Up_Distractor.gif"",""img/Fire_Up_Distractor.gif"",""img/Fire_Up_Distractor.gif"",""img/Fire_Up_Distractor.gif"",""img/Fire_Up_Distractor.gif"",""img/Fire_Up_Distractor.gif"",""img/Fire_Up_Distractor.gif"",""img/Fire_Up_Distractor.gif"",""img/Fire_Up_Distractor.gif"",""img/Fire_Up_Distractor.gif""]","7","targetDown_distractorsUp"
"","","","","","html-keyboard-response","88","203026","0.0-14.0-0.0-0.37","5c42aad91474820001508980","619531dcf66c91622fa1b861","6195956bd7c3d188c4d585ed","null","","null","","","","","main_T1_ITI","","","","",""
"","","","","","visual-search-circle","89","204946","0.0-14.0-0.0-1.37","5c42aad91474820001508980","619531dcf66c91622fa1b861","6195956bd7c3d188c4d585ed","885","","s","false","[[70,107],[1,326],[107,529],[326,598],[529,492],[598,273],[492,70],[273,1]]","true","8","main_T2_Trial","d","img/Fire_Up_Target.gif","[""img/Fire_Down_Distractor.gif"",""img/Fire_Down_Distractor.gif"",""img/Fire_Down_Distractor.gif"",""img/Fire_Down_Distractor.gif"",""img/Fire_Down_Distractor.gif"",""img/Fire_Down_Distractor.gif"",""img/Fire_Down_Distractor.gif"",""img/Fire_Down_Distractor.gif"",""img/Fire_Down_Distractor.gif"",""img/Fire_Down_Distractor.gif"",""img/Fire_Down_Distractor.gif"",""img/Fire_Down_Distractor.gif""]","8","targetUp_distractorsDown"
"","","","","","html-keyboard-response","90","204948","0.0-14.0-0.0-0.38","5c42aad91474820001508980","619531dcf66c91622fa1b861","6195956bd7c3d188c4d585ed","null","","null","","","","","main_T1_ITI","","","","",""
"","","","","","visual-search-circle","91","206814","0.0-14.0-0.0-1.38","5c42aad91474820001508980","619531dcf66c91622fa1b861","6195956bd7c3d188c4d585ed","835","","s","true","[[227,8],[11,217],[84,508],[372,591],[588,382],[515,91]]","false","6","main_T2_Trial","s","img/Fire_Down_Target.gif","[""img/Fire_Up_Distractor.gif"",""img/Fire_Up_Distractor.gif"",""img/Fire_Up_Distractor.gif"",""img/Fire_Up_Distractor.gif"",""img/Fire_Up_Distractor.gif"",""img/Fire_Up_Distractor.gif"",""img/Fire_Up_Distractor.gif"",""img/Fire_Up_Distractor.gif"",""img/Fire_Up_Distractor.gif"",""img/Fire_Up_Distractor.gif"",""img/Fire_Up_Distractor.gif"",""img/Fire_Up_Distractor.gif""]","6","targetDown_distractorsUp"
"","","","","","html-keyboard-response","92","208587","0.0-14.0-0.0-0.39","5c42aad91474820001508980","619531dcf66c91622fa1b861","6195956bd7c3d188c4d585ed","1770","Wow! You've completed 40 out of 160 trials! </p> <p>  </p><p> Take a quick break, then press any key when you're ready to continue."," ","","","","","main_T1_ITI","","","","",""
"","","","","","visual-search-circle","93","210428","0.0-14.0-0.0-1.39","5c42aad91474820001508980","619531dcf66c91622fa1b861","6195956bd7c3d188c4d585ed","827","","d","true","[[588,382],[467,51],[115,63],[18,402],[310,599]]","true","5","main_T2_Trial","d","img/Fire_Up_Target.gif","[""img/Fire_Down_Distractor.gif"",""img/Fire_Down_Distractor.gif"",""img/Fire_Down_Distractor.gif"",""img/Fire_Down_Distractor.gif"",""img/Fire_Down_Distractor.gif"",""img/Fire_Down_Distractor.gif"",""img/Fire_Down_Distractor.gif"",""img/Fire_Down_Distractor.gif"",""img/Fire_Down_Distractor.gif"",""img/Fire_Down_Distractor.gif"",""img/Fire_Down_Distractor.gif"",""img/Fire_Down_Distractor.gif""]","5","targetUp_distractorsDown"
"","","","","","html-keyboard-response","94","210430","0.0-14.0-0.0-0.40","5c42aad91474820001508980","619531dcf66c91622fa1b861","6195956bd7c3d188c4d585ed","null","","null","","","","","main_T1_ITI","","","","",""
"","","","","","visual-search-circle","95","212325","0.0-14.0-0.0-1.40","5c42aad91474820001508980","619531dcf66c91622fa1b861","6195956bd7c3d188c4d585ed","872","","d","true","[[407,19],[19,192],[192,580],[580,407]]","true","4","main_T2_Trial","d","img/Fire_Up_Target.gif","[""img/Fire_Down_Distractor.gif"",""img/Fire_Down_Distractor.gif"",""img/Fire_Down_Distractor.gif"",""img/Fire_Down_Distractor.gif"",""img/Fire_Down_Distractor.gif"",""img/Fire_Down_Distractor.gif"",""img/Fire_Down_Distractor.gif"",""img/Fire_Down_Distractor.gif"",""img/Fire_Down_Distractor.gif"",""img/Fire_Down_Distractor.gif"",""img/Fire_Down_Distractor.gif"",""img/Fire_Down_Distractor.gif""]","4","targetUp_distractorsDown"
"","","","","","html-keyboard-response","96","212329","0.0-14.0-0.0-0.41","5c42aad91474820001508980","619531dcf66c91622fa1b861","6195956bd7c3d188c4d585ed","null","","null","","","","","main_T1_ITI","","","","",""
"","","","","","visual-search-circle","97","214095","0.0-14.0-0.0-1.41","5c42aad91474820001508980","619531dcf66c91622fa1b861","6195956bd7c3d188c4d585ed","745","","s","true","[[63,484],[263,597],[484,536],[597,336],[536,115],[336,2],[115,63],[2,263]]","false","8","main_T2_Trial","s","img/Fire_Up_Target.gif","[""img/Fire_Down_Distractor.gif"",""img/Fire_Down_Distractor.gif"",""img/Fire_Down_Distractor.gif"",""img/Fire_Down_Distractor.gif"",""img/Fire_Down_Distractor.gif"",""img/Fire_Down_Distractor.gif"",""img/Fire_Down_Distractor.gif"",""img/Fire_Down_Distractor.gif"",""img/Fire_Down_Distractor.gif"",""img/Fire_Down_Distractor.gif"",""img/Fire_Down_Distractor.gif"",""img/Fire_Down_Distractor.gif""]","8","targetUp_distractorsDown"
"","","","","","html-keyboard-response","98","214103","0.0-14.0-0.0-0.42","5c42aad91474820001508980","619531dcf66c91622fa1b861","6195956bd7c3d188c4d585ed","null","","null","","","","","main_T1_ITI","","","","",""
"","","","","","visual-search-circle","99","215795","0.0-14.0-0.0-1.42","5c42aad91474820001508980","619531dcf66c91622fa1b861","6195956bd7c3d188c4d585ed","667","","s","true","[[599,320],[320,0],[0,279],[279,599]]","false","4","main_T2_Trial","s","img/Fire_Down_Target.gif","[""img/Fire_Up_Distractor.gif"",""img/Fire_Up_Distractor.gif"",""img/Fire_Up_Distractor.gif"",""img/Fire_Up_Distractor.gif"",""img/Fire_Up_Distractor.gif"",""img/Fire_Up_Distractor.gif"",""img/Fire_Up_Distractor.gif"",""img/Fire_Up_Distractor.gif"",""img/Fire_Up_Distractor.gif"",""img/Fire_Up_Distractor.gif"",""img/Fire_Up_Distractor.gif"",""img/Fire_Up_Distractor.gif""]","4","targetDown_distractorsUp"
"","","","","","html-keyboard-response","100","215795","0.0-14.0-0.0-0.43","5c42aad91474820001508980","619531dcf66c91622fa1b861","6195956bd7c3d188c4d585ed","null","","null","","","","","main_T1_ITI","","","","",""
"","","","","","visual-search-circle","101","218667","0.0-14.0-0.0-1.43","5c42aad91474820001508980","619531dcf66c91622fa1b861","6195956bd7c3d188c4d585ed","1850","","s","true","[[154,37],[4,250],[76,500],[317,599],[544,473],[588,216],[414,22]]","false","7","main_T2_Trial","s","img/Fire_Up_Target.gif","[""img/Fire_Down_Distractor.gif"",""img/Fire_Down_Distractor.gif"",""img/Fire_Down_Distractor.gif"",""img/Fire_Down_Distractor.gif"",""img/Fire_Down_Distractor.gif"",""img/Fire_Down_Distractor.gif"",""img/Fire_Down_Distractor.gif"",""img/Fire_Down_Distractor.gif"",""img/Fire_Down_Distractor.gif"",""img/Fire_Down_Distractor.gif"",""img/Fire_Down_Distractor.gif"",""img/Fire_Down_Distractor.gif""]","7","targetUp_distractorsDown"
"","","","","","html-keyboard-response","102","218676","0.0-14.0-0.0-0.44","5c42aad91474820001508980","619531dcf66c91622fa1b861","6195956bd7c3d188c4d585ed","null","","null","","","","","main_T1_ITI","","","","",""
"","","","","","visual-search-circle","103","220648","0.0-14.0-0.0-1.44","5c42aad91474820001508980","619531dcf66c91622fa1b861","6195956bd7c3d188c4d585ed","936","","s","true","[[436,567],[585,392],[567,163],[392,14],[163,32],[14,207],[32,436],[207,585]]","false","8","main_T2_Trial","s","img/Fire_Up_Target.gif","[""img/Fire_Down_Distractor.gif"",""img/Fire_Down_Distractor.gif"",""img/Fire_Down_Distractor.gif"",""img/Fire_Down_Distractor.gif"",""img/Fire_Down_Distractor.gif"",""img/Fire_Down_Distractor.gif"",""img/Fire_Down_Distractor.gif"",""img/Fire_Down_Distractor.gif"",""img/Fire_Down_Distractor.gif"",""img/Fire_Down_Distractor.gif"",""img/Fire_Down_Distractor.gif"",""img/Fire_Down_Distractor.gif""]","8","targetUp_distractorsDown"
"","","","","","html-keyboard-response","104","220649","0.0-14.0-0.0-0.45","5c42aad91474820001508980","619531dcf66c91622fa1b861","6195956bd7c3d188c4d585ed","null","","null","","","","","main_T1_ITI","","","","",""
"","","","","","visual-search-circle","105","222672","0.0-14.0-0.0-1.45","5c42aad91474820001508980","619531dcf66c91622fa1b861","6195956bd7c3d188c4d585ed","1018","","d","true","[[305,0],[42,145],[37,445],[294,599],[557,454],[562,154]]","true","6","main_T2_Trial","d","img/Fire_Down_Target.gif","[""img/Fire_Up_Distractor.gif"",""img/Fire_Up_Distractor.gif"",""img/Fire_Up_Distractor.gif"",""img/Fire_Up_Distractor.gif"",""img/Fire_Up_Distractor.gif"",""img/Fire_Up_Distractor.gif"",""img/Fire_Up_Distractor.gif"",""img/Fire_Up_Distractor.gif"",""img/Fire_Up_Distractor.gif"",""img/Fire_Up_Distractor.gif"",""img/Fire_Up_Distractor.gif"",""img/Fire_Up_Distractor.gif""]","6","targetDown_distractorsUp"
"","","","","","html-keyboard-response","106","222673","0.0-14.0-0.0-0.46","5c42aad91474820001508980","619531dcf66c91622fa1b861","6195956bd7c3d188c4d585ed","null","","null","","","","","main_T1_ITI","","","","",""
"","","","","","visual-search-circle","107","224612","0.0-14.0-0.0-1.46","5c42aad91474820001508980","619531dcf66c91622fa1b861","6195956bd7c3d188c4d585ed","913","","s","true","[[132,51],[0,320],[168,569],[467,548],[599,279],[431,30]]","false","6","main_T2_Trial","s","img/Fire_Up_Target.gif","[""img/Fire_Down_Distractor.gif"",""img/Fire_Down_Distractor.gif"",""img/Fire_Down_Distractor.gif"",""img/Fire_Down_Distractor.gif"",""img/Fire_Down_Distractor.gif"",""img/Fire_Down_Distractor.gif"",""img/Fire_Down_Distractor.gif"",""img/Fire_Down_Distractor.gif"",""img/Fire_Down_Distractor.gif"",""img/Fire_Down_Distractor.gif"",""img/Fire_Down_Distractor.gif"",""img/Fire_Down_Distractor.gif""]","6","targetUp_distractorsDown"
"","","","","","html-keyboard-response","108","224614","0.0-14.0-0.0-0.47","5c42aad91474820001508980","619531dcf66c91622fa1b861","6195956bd7c3d188c4d585ed","null","","null","","","","","main_T1_ITI","","","","",""
"","","","","","visual-search-circle","109","226710","0.0-14.0-0.0-1.47","5c42aad91474820001508980","619531dcf66c91622fa1b861","6195956bd7c3d188c4d585ed","1074","","s","true","[[585,392],[567,163],[392,14],[163,32],[14,207],[32,436],[207,585],[436,567]]","false","8","main_T2_Trial","s","img/Fire_Down_Target.gif","[""img/Fire_Up_Distractor.gif"",""img/Fire_Up_Distractor.gif"",""img/Fire_Up_Distractor.gif"",""img/Fire_Up_Distractor.gif"",""img/Fire_Up_Distractor.gif"",""img/Fire_Up_Distractor.gif"",""img/Fire_Up_Distractor.gif"",""img/Fire_Up_Distractor.gif"",""img/Fire_Up_Distractor.gif"",""img/Fire_Up_Distractor.gif"",""img/Fire_Up_Distractor.gif"",""img/Fire_Up_Distractor.gif""]","8","targetDown_distractorsUp"
"","","","","","html-keyboard-response","110","226712","0.0-14.0-0.0-0.48","5c42aad91474820001508980","619531dcf66c91622fa1b861","6195956bd7c3d188c4d585ed","null","","null","","","","","main_T1_ITI","","","","",""
"","","","","","visual-search-circle","111","228831","0.0-14.0-0.0-1.48","5c42aad91474820001508980","619531dcf66c91622fa1b861","6195956bd7c3d188c4d585ed","1080","","s","true","[[445,37],[185,22],[11,216],[55,473],[282,599],[523,500],[595,250]]","false","7","main_T2_Trial","s","img/Fire_Down_Target.gif","[""img/Fire_Up_Distractor.gif"",""img/Fire_Up_Distractor.gif"",""img/Fire_Up_Distractor.gif"",""img/Fire_Up_Distractor.gif"",""img/Fire_Up_Distractor.gif"",""img/Fire_Up_Distractor.gif"",""img/Fire_Up_Distractor.gif"",""img/Fire_Up_Distractor.gif"",""img/Fire_Up_Distractor.gif"",""img/Fire_Up_Distractor.gif"",""img/Fire_Up_Distractor.gif"",""img/Fire_Up_Distractor.gif""]","7","targetDown_distractorsUp"
"","","","","","html-keyboard-response","112","228831","0.0-14.0-0.0-0.49","5c42aad91474820001508980","619531dcf66c91622fa1b861","6195956bd7c3d188c4d585ed","null","","null","","","","","main_T1_ITI","","","","",""
"","","","","","visual-search-circle","113","231125","0.0-14.0-0.0-1.49","5c42aad91474820001508980","619531dcf66c91622fa1b861","6195956bd7c3d188c4d585ed","1267","","d","true","[[472,545],[586,212],[305,0],[16,202],[119,539]]","true","5","main_T2_Trial","d","img/Fire_Down_Target.gif","[""img/Fire_Up_Distractor.gif"",""img/Fire_Up_Distractor.gif"",""img/Fire_Up_Distractor.gif"",""img/Fire_Up_Distractor.gif"",""img/Fire_Up_Distractor.gif"",""img/Fire_Up_Distractor.gif"",""img/Fire_Up_Distractor.gif"",""img/Fire_Up_Distractor.gif"",""img/Fire_Up_Distractor.gif"",""img/Fire_Up_Distractor.gif"",""img/Fire_Up_Distractor.gif"",""img/Fire_Up_Distractor.gif""]","5","targetDown_distractorsUp"
"","","","","","html-keyboard-response","114","231128","0.0-14.0-0.0-0.50","5c42aad91474820001508980","619531dcf66c91622fa1b861","6195956bd7c3d188c4d585ed","null","","null","","","","","main_T1_ITI","","","","",""
"","","","","","visual-search-circle","115","233158","0.0-14.0-0.0-1.50","5c42aad91474820001508980","619531dcf66c91622fa1b861","6195956bd7c3d188c4d585ed","1005","","s","true","[[18,197],[28,426],[197,581],[426,571],[581,402],[571,173],[402,18],[173,28]]","false","8","main_T2_Trial","s","img/Fire_Up_Target.gif","[""img/Fire_Down_Distractor.gif"",""img/Fire_Down_Distractor.gif"",""img/Fire_Down_Distractor.gif"",""img/Fire_Down_Distractor.gif"",""img/Fire_Down_Distractor.gif"",""img/Fire_Down_Distractor.gif"",""img/Fire_Down_Distractor.gif"",""img/Fire_Down_Distractor.gif"",""img/Fire_Down_Distractor.gif"",""img/Fire_Down_Distractor.gif"",""img/Fire_Down_Distractor.gif"",""img/Fire_Down_Distractor.gif""]","8","targetUp_distractorsDown"
"","","","","","html-keyboard-response","116","233158","0.0-14.0-0.0-0.51","5c42aad91474820001508980","619531dcf66c91622fa1b861","6195956bd7c3d188c4d585ed","null","","null","","","","","main_T1_ITI","","","","",""
"","","","","","visual-search-circle","117","234912","0.0-14.0-0.0-1.51","5c42aad91474820001508980","619531dcf66c91622fa1b861","6195956bd7c3d188c4d585ed","740","","s","true","[[463,551],[599,284],[436,32],[136,48],[0,315],[163,567]]","false","6","main_T2_Trial","s","img/Fire_Up_Target.gif","[""img/Fire_Down_Distractor.gif"",""img/Fire_Down_Distractor.gif"",""img/Fire_Down_Distractor.gif"",""img/Fire_Down_Distractor.gif"",""img/Fire_Down_Distractor.gif"",""img/Fire_Down_Distractor.gif"",""img/Fire_Down_Distractor.gif"",""img/Fire_Down_Distractor.gif"",""img/Fire_Down_Distractor.gif"",""img/Fire_Down_Distractor.gif"",""img/Fire_Down_Distractor.gif"",""img/Fire_Down_Distractor.gif""]","6","targetUp_distractorsDown"
"","","","","","html-keyboard-response","118","234912","0.0-14.0-0.0-0.52","5c42aad91474820001508980","619531dcf66c91622fa1b861","6195956bd7c3d188c4d585ed","null","","null","","","","","main_T1_ITI","","","","",""
"","","","","","visual-search-circle","119","237127","0.0-14.0-0.0-1.52","5c42aad91474820001508980","619531dcf66c91622fa1b861","6195956bd7c3d188c4d585ed","1209","","s","true","[[436,567],[599,315],[463,48],[163,32],[0,284],[136,551]]","false","6","main_T2_Trial","s","img/Fire_Up_Target.gif","[""img/Fire_Down_Distractor.gif"",""img/Fire_Down_Distractor.gif"",""img/Fire_Down_Distractor.gif"",""img/Fire_Down_Distractor.gif"",""img/Fire_Down_Distractor.gif"",""img/Fire_Down_Distractor.gif"",""img/Fire_Down_Distractor.gif"",""img/Fire_Down_Distractor.gif"",""img/Fire_Down_Distractor.gif"",""img/Fire_Down_Distractor.gif"",""img/Fire_Down_Distractor.gif"",""img/Fire_Down_Distractor.gif""]","6","targetUp_distractorsDown"
"","","","","","html-keyboard-response","120","237128","0.0-14.0-0.0-0.53","5c42aad91474820001508980","619531dcf66c91622fa1b861","6195956bd7c3d188c4d585ed","null","","null","","","","","main_T1_ITI","","","","",""
"","","","","","visual-search-circle","121","238928","0.0-14.0-0.0-1.53","5c42aad91474820001508980","619531dcf66c91622fa1b861","6195956bd7c3d188c4d585ed","786","","d","true","[[402,581],[584,395],[552,137],[329,1],[85,90],[2,337],[143,555]]","true","7","main_T2_Trial","d","img/Fire_Down_Target.gif","[""img/Fire_Up_Distractor.gif"",""img/Fire_Up_Distractor.gif"",""img/Fire_Up_Distractor.gif"",""img/Fire_Up_Distractor.gif"",""img/Fire_Up_Distractor.gif"",""img/Fire_Up_Distractor.gif"",""img/Fire_Up_Distractor.gif"",""img/Fire_Up_Distractor.gif"",""img/Fire_Up_Distractor.gif"",""img/Fire_Up_Distractor.gif"",""img/Fire_Up_Distractor.gif"",""img/Fire_Up_Distractor.gif""]","7","targetDown_distractorsUp"
"","","","","","html-keyboard-response","122","238928","0.0-14.0-0.0-0.54","5c42aad91474820001508980","619531dcf66c91622fa1b861","6195956bd7c3d188c4d585ed","null","","null","","","","","main_T1_ITI","","","","",""
"","","","","","visual-search-circle","123","240957","0.0-14.0-0.0-1.54","5c42aad91474820001508980","619531dcf66c91622fa1b861","6195956bd7c3d188c4d585ed","1009","","s","true","[[492,529],[529,107],[107,70],[70,492]]","false","4","main_T2_Trial","s","img/Fire_Down_Target.gif","[""img/Fire_Up_Distractor.gif"",""img/Fire_Up_Distractor.gif"",""img/Fire_Up_Distractor.gif"",""img/Fire_Up_Distractor.gif"",""img/Fire_Up_Distractor.gif"",""img/Fire_Up_Distractor.gif"",""img/Fire_Up_Distractor.gif"",""img/Fire_Up_Distractor.gif"",""img/Fire_Up_Distractor.gif"",""img/Fire_Up_Distractor.gif"",""img/Fire_Up_Distractor.gif"",""img/Fire_Up_Distractor.gif""]","4","targetDown_distractorsUp"
"","","","","","html-keyboard-response","124","240978","0.0-14.0-0.0-0.55","5c42aad91474820001508980","619531dcf66c91622fa1b861","6195956bd7c3d188c4d585ed","null","","null","","","","","main_T1_ITI","","","","",""
"","","","","","visual-search-circle","125","242936","0.0-14.0-0.0-1.55","5c42aad91474820001508980","619531dcf66c91622fa1b861","6195956bd7c3d188c4d585ed","937","","d","true","[[232,7],[29,170],[30,430],[233,592],[487,534],[599,299],[486,64]]","true","7","main_T2_Trial","d","img/Fire_Down_Target.gif","[""img/Fire_Up_Distractor.gif"",""img/Fire_Up_Distractor.gif"",""img/Fire_Up_Distractor.gif"",""img/Fire_Up_Distractor.gif"",""img/Fire_Up_Distractor.gif"",""img/Fire_Up_Distractor.gif"",""img/Fire_Up_Distractor.gif"",""img/Fire_Up_Distractor.gif"",""img/Fire_Up_Distractor.gif"",""img/Fire_Up_Distractor.gif"",""img/Fire_Up_Distractor.gif"",""img/Fire_Up_Distractor.gif""]","7","targetDown_distractorsUp"
"","","","","","html-keyboard-response","126","242938","0.0-14.0-0.0-0.56","5c42aad91474820001508980","619531dcf66c91622fa1b861","6195956bd7c3d188c4d585ed","null","","null","","","","","main_T1_ITI","","","","",""
"","","","","","visual-search-circle","127","244924","0.0-14.0-0.0-1.56","5c42aad91474820001508980","619531dcf66c91622fa1b861","6195956bd7c3d188c4d585ed","958","","d","true","[[103,526],[397,583],[594,357],[496,73],[202,16],[5,242]]","true","6","main_T2_Trial","d","img/Fire_Up_Target.gif","[""img/Fire_Down_Distractor.gif"",""img/Fire_Down_Distractor.gif"",""img/Fire_Down_Distractor.gif"",""img/Fire_Down_Distractor.gif"",""img/Fire_Down_Distractor.gif"",""img/Fire_Down_Distractor.gif"",""img/Fire_Down_Distractor.gif"",""img/Fire_Down_Distractor.gif"",""img/Fire_Down_Distractor.gif"",""img/Fire_Down_Distractor.gif"",""img/Fire_Down_Distractor.gif"",""img/Fire_Down_Distractor.gif""]","6","targetUp_distractorsDown"
"","","","","","html-keyboard-response","128","244926","0.0-14.0-0.0-0.57","5c42aad91474820001508980","619531dcf66c91622fa1b861","6195956bd7c3d188c4d585ed","null","","null","","","","","main_T1_ITI","","","","",""
"","","","","","visual-search-circle","129","246894","0.0-14.0-0.0-1.57","5c42aad91474820001508980","619531dcf66c91622fa1b861","6195956bd7c3d188c4d585ed","953","","s","false","[[484,63],[63,115],[115,536],[536,484]]","true","4","main_T2_Trial","d","img/Fire_Down_Target.gif","[""img/Fire_Up_Distractor.gif"",""img/Fire_Up_Distractor.gif"",""img/Fire_Up_Distractor.gif"",""img/Fire_Up_Distractor.gif"",""img/Fire_Up_Distractor.gif"",""img/Fire_Up_Distractor.gif"",""img/Fire_Up_Distractor.gif"",""img/Fire_Up_Distractor.gif"",""img/Fire_Up_Distractor.gif"",""img/Fire_Up_Distractor.gif"",""img/Fire_Up_Distractor.gif"",""img/Fire_Up_Distractor.gif""]","4","targetDown_distractorsUp"
"","","","","","html-keyboard-response","130","246895","0.0-14.0-0.0-0.58","5c42aad91474820001508980","619531dcf66c91622fa1b861","6195956bd7c3d188c4d585ed","null","","null","","","","","main_T1_ITI","","","","",""
"","","","","","visual-search-circle","131","248843","0.0-14.0-0.0-1.58","5c42aad91474820001508980","619531dcf66c91622fa1b861","6195956bd7c3d188c4d585ed","931","","d","true","[[232,592],[592,367],[367,7],[7,232]]","true","4","main_T2_Trial","d","img/Fire_Up_Target.gif","[""img/Fire_Down_Distractor.gif"",""img/Fire_Down_Distractor.gif"",""img/Fire_Down_Distractor.gif"",""img/Fire_Down_Distractor.gif"",""img/Fire_Down_Distractor.gif"",""img/Fire_Down_Distractor.gif"",""img/Fire_Down_Distractor.gif"",""img/Fire_Down_Distractor.gif"",""img/Fire_Down_Distractor.gif"",""img/Fire_Down_Distractor.gif"",""img/Fire_Down_Distractor.gif"",""img/Fire_Down_Distractor.gif""]","4","targetUp_distractorsDown"
"","","","","","html-keyboard-response","132","256808","0.0-14.0-0.0-0.59","5c42aad91474820001508980","619531dcf66c91622fa1b861","6195956bd7c3d188c4d585ed","7962","Wow! You've completed 60 out of 160 trials! </p> <p>  </p><p> Take a quick break, then press any key when you're ready to continue."," ","","","","","main_T1_ITI","","","","",""
"","","","","","visual-search-circle","133","258705","0.0-14.0-0.0-1.59","5c42aad91474820001508980","619531dcf66c91622fa1b861","6195956bd7c3d188c4d585ed","877","","d","true","[[57,123],[57,476],[392,585],[600,300],[392,14]]","true","5","main_T2_Trial","d","img/Fire_Up_Target.gif","[""img/Fire_Down_Distractor.gif"",""img/Fire_Down_Distractor.gif"",""img/Fire_Down_Distractor.gif"",""img/Fire_Down_Distractor.gif"",""img/Fire_Down_Distractor.gif"",""img/Fire_Down_Distractor.gif"",""img/Fire_Down_Distractor.gif"",""img/Fire_Down_Distractor.gif"",""img/Fire_Down_Distractor.gif"",""img/Fire_Down_Distractor.gif"",""img/Fire_Down_Distractor.gif"",""img/Fire_Down_Distractor.gif""]","5","targetUp_distractorsDown"
"","","","","","html-keyboard-response","134","258705","0.0-14.0-0.0-0.60","5c42aad91474820001508980","619531dcf66c91622fa1b861","6195956bd7c3d188c4d585ed","null","","null","","","","","main_T1_ITI","","","","",""
"","","","","","visual-search-circle","135","260497","0.0-14.0-0.0-1.60","5c42aad91474820001508980","619531dcf66c91622fa1b861","6195956bd7c3d188c4d585ed","759","","d","true","[[42,145],[145,557],[557,454],[454,42]]","true","4","main_T2_Trial","d","img/Fire_Up_Target.gif","[""img/Fire_Down_Distractor.gif"",""img/Fire_Down_Distractor.gif"",""img/Fire_Down_Distractor.gif"",""img/Fire_Down_Distractor.gif"",""img/Fire_Down_Distractor.gif"",""img/Fire_Down_Distractor.gif"",""img/Fire_Down_Distractor.gif"",""img/Fire_Down_Distractor.gif"",""img/Fire_Down_Distractor.gif"",""img/Fire_Down_Distractor.gif"",""img/Fire_Down_Distractor.gif"",""img/Fire_Down_Distractor.gif""]","4","targetUp_distractorsDown"
"","","","","","html-keyboard-response","136","260513","0.0-14.0-0.0-0.61","5c42aad91474820001508980","619531dcf66c91622fa1b861","6195956bd7c3d188c4d585ed","null","","null","","","","","main_T1_ITI","","","","",""
"","","","","","visual-search-circle","137","262272","0.0-14.0-0.0-1.61","5c42aad91474820001508980","619531dcf66c91622fa1b861","6195956bd7c3d188c4d585ed","738","","s","true","[[159,564],[419,575],[589,378],[541,122],[311,0],[73,103],[5,355]]","false","7","main_T2_Trial","s","img/Fire_Up_Target.gif","[""img/Fire_Down_Distractor.gif"",""img/Fire_Down_Distractor.gif"",""img/Fire_Down_Distractor.gif"",""img/Fire_Down_Distractor.gif"",""img/Fire_Down_Distractor.gif"",""img/Fire_Down_Distractor.gif"",""img/Fire_Down_Distractor.gif"",""img/Fire_Down_Distractor.gif"",""img/Fire_Down_Distractor.gif"",""img/Fire_Down_Distractor.gif"",""img/Fire_Down_Distractor.gif"",""img/Fire_Down_Distractor.gif""]","7","targetUp_distractorsDown"
"","","","","","html-keyboard-response","138","262273","0.0-14.0-0.0-0.62","5c42aad91474820001508980","619531dcf66c91622fa1b861","6195956bd7c3d188c4d585ed","null","","null","","","","","main_T1_ITI","","","","",""
"","","","","","visual-search-circle","139","264036","0.0-14.0-0.0-1.62","5c42aad91474820001508980","619531dcf66c91622fa1b861","6195956bd7c3d188c4d585ed","732","","s","true","[[1,331],[138,552],[396,583],[582,401],[555,142],[335,2],[89,86]]","false","7","main_T2_Trial","s","img/Fire_Down_Target.gif","[""img/Fire_Up_Distractor.gif"",""img/Fire_Up_Distractor.gif"",""img/Fire_Up_Distractor.gif"",""img/Fire_Up_Distractor.gif"",""img/Fire_Up_Distractor.gif"",""img/Fire_Up_Distractor.gif"",""img/Fire_Up_Distractor.gif"",""img/Fire_Up_Distractor.gif"",""img/Fire_Up_Distractor.gif"",""img/Fire_Up_Distractor.gif"",""img/Fire_Up_Distractor.gif"",""img/Fire_Up_Distractor.gif""]","7","targetDown_distractorsUp"
"","","","","","html-keyboard-response","140","264043","0.0-14.0-0.0-0.63","5c42aad91474820001508980","619531dcf66c91622fa1b861","6195956bd7c3d188c4d585ed","null","","null","","","","","main_T1_ITI","","","","",""
"","","","","","visual-search-circle","141","265880","0.0-14.0-0.0-1.63","5c42aad91474820001508980","619531dcf66c91622fa1b861","6195956bd7c3d188c4d585ed","804","","d","true","[[564,440],[586,212],[440,35],[212,13],[35,159],[13,387],[159,564],[387,586]]","true","8","main_T2_Trial","d","img/Fire_Down_Target.gif","[""img/Fire_Up_Distractor.gif"",""img/Fire_Up_Distractor.gif"",""img/Fire_Up_Distractor.gif"",""img/Fire_Up_Distractor.gif"",""img/Fire_Up_Distractor.gif"",""img/Fire_Up_Distractor.gif"",""img/Fire_Up_Distractor.gif"",""img/Fire_Up_Distractor.gif"",""img/Fire_Up_Distractor.gif"",""img/Fire_Up_Distractor.gif"",""img/Fire_Up_Distractor.gif"",""img/Fire_Up_Distractor.gif""]","8","targetDown_distractorsUp"
"","","","","","html-keyboard-response","142","265884","0.0-14.0-0.0-0.64","5c42aad91474820001508980","619531dcf66c91622fa1b861","6195956bd7c3d188c4d585ed","null","","null","","","","","main_T1_ITI","","","","",""
"","","","","","visual-search-circle","143","267744","0.0-14.0-0.0-1.64","5c42aad91474820001508980","619531dcf66c91622fa1b861","6195956bd7c3d188c4d585ed","853","","d","true","[[551,463],[463,48],[48,136],[136,551]]","true","4","main_T2_Trial","d","img/Fire_Down_Target.gif","[""img/Fire_Up_Distractor.gif"",""img/Fire_Up_Distractor.gif"",""img/Fire_Up_Distractor.gif"",""img/Fire_Up_Distractor.gif"",""img/Fire_Up_Distractor.gif"",""img/Fire_Up_Distractor.gif"",""img/Fire_Up_Distractor.gif"",""img/Fire_Up_Distractor.gif"",""img/Fire_Up_Distractor.gif"",""img/Fire_Up_Distractor.gif"",""img/Fire_Up_Distractor.gif"",""img/Fire_Up_Distractor.gif""]","4","targetDown_distractorsUp"
"","","","","","html-keyboard-response","144","267754","0.0-14.0-0.0-0.65","5c42aad91474820001508980","619531dcf66c91622fa1b861","6195956bd7c3d188c4d585ed","null","","null","","","","","main_T1_ITI","","","","",""
"","","","","","visual-search-circle","145","269758","0.0-14.0-0.0-1.65","5c42aad91474820001508980","619531dcf66c91622fa1b861","6195956bd7c3d188c4d585ed","980","","s","true","[[484,536],[597,258],[412,21],[115,63],[2,341],[187,578]]","false","6","main_T2_Trial","s","img/Fire_Up_Target.gif","[""img/Fire_Down_Distractor.gif"",""img/Fire_Down_Distractor.gif"",""img/Fire_Down_Distractor.gif"",""img/Fire_Down_Distractor.gif"",""img/Fire_Down_Distractor.gif"",""img/Fire_Down_Distractor.gif"",""img/Fire_Down_Distractor.gif"",""img/Fire_Down_Distractor.gif"",""img/Fire_Down_Distractor.gif"",""img/Fire_Down_Distractor.gif"",""img/Fire_Down_Distractor.gif"",""img/Fire_Down_Distractor.gif""]","6","targetUp_distractorsDown"
"","","","","","html-keyboard-response","146","269759","0.0-14.0-0.0-0.66","5c42aad91474820001508980","619531dcf66c91622fa1b861","6195956bd7c3d188c4d585ed","null","","null","","","","","main_T1_ITI","","","","",""
"","","","","","visual-search-circle","147","271623","0.0-14.0-0.0-1.66","5c42aad91474820001508980","619531dcf66c91622fa1b861","6195956bd7c3d188c4d585ed","842","","d","true","[[504,80],[212,13],[7,232],[95,519],[387,586],[592,367]]","true","6","main_T2_Trial","d","img/Fire_Down_Target.gif","[""img/Fire_Up_Distractor.gif"",""img/Fire_Up_Distractor.gif"",""img/Fire_Up_Distractor.gif"",""img/Fire_Up_Distractor.gif"",""img/Fire_Up_Distractor.gif"",""img/Fire_Up_Distractor.gif"",""img/Fire_Up_Distractor.gif"",""img/Fire_Up_Distractor.gif"",""img/Fire_Up_Distractor.gif"",""img/Fire_Up_Distractor.gif"",""img/Fire_Up_Distractor.gif"",""img/Fire_Up_Distractor.gif""]","6","targetDown_distractorsUp"
"","","","","","html-keyboard-response","148","271624","0.0-14.0-0.0-0.67","5c42aad91474820001508980","619531dcf66c91622fa1b861","6195956bd7c3d188c4d585ed","null","","null","","","","","main_T1_ITI","","","","",""
"","","","","","visual-search-circle","149","273585","0.0-14.0-0.0-1.67","5c42aad91474820001508980","619531dcf66c91622fa1b861","6195956bd7c3d188c4d585ed","948","","s","true","[[119,539],[374,590],[573,422],[566,162],[358,5],[106,70],[0,308]]","false","7","main_T2_Trial","s","img/Fire_Up_Target.gif","[""img/Fire_Down_Distractor.gif"",""img/Fire_Down_Distractor.gif"",""img/Fire_Down_Distractor.gif"",""img/Fire_Down_Distractor.gif"",""img/Fire_Down_Distractor.gif"",""img/Fire_Down_Distractor.gif"",""img/Fire_Down_Distractor.gif"",""img/Fire_Down_Distractor.gif"",""img/Fire_Down_Distractor.gif"",""img/Fire_Down_Distractor.gif"",""img/Fire_Down_Distractor.gif"",""img/Fire_Down_Distractor.gif""]","7","targetUp_distractorsDown"
"","","","","","html-keyboard-response","150","273587","0.0-14.0-0.0-0.68","5c42aad91474820001508980","619531dcf66c91622fa1b861","6195956bd7c3d188c4d585ed","null","","null","","","","","main_T1_ITI","","","","",""
"","","","","","visual-search-circle","151","275527","0.0-14.0-0.0-1.68","5c42aad91474820001508980","619531dcf66c91622fa1b861","6195956bd7c3d188c4d585ed","913","","d","true","[[551,463],[533,111],[192,19],[0,315],[222,589]]","true","5","main_T2_Trial","d","img/Fire_Down_Target.gif","[""img/Fire_Up_Distractor.gif"",""img/Fire_Up_Distractor.gif"",""img/Fire_Up_Distractor.gif"",""img/Fire_Up_Distractor.gif"",""img/Fire_Up_Distractor.gif"",""img/Fire_Up_Distractor.gif"",""img/Fire_Up_Distractor.gif"",""img/Fire_Up_Distractor.gif"",""img/Fire_Up_Distractor.gif"",""img/Fire_Up_Distractor.gif"",""img/Fire_Up_Distractor.gif"",""img/Fire_Up_Distractor.gif""]","5","targetDown_distractorsUp"
"","","","","","html-keyboard-response","152","275529","0.0-14.0-0.0-0.69","5c42aad91474820001508980","619531dcf66c91622fa1b861","6195956bd7c3d188c4d585ed","null","","null","","","","","main_T1_ITI","","","","",""
"","","","","","visual-search-circle","153","277645","0.0-14.0-0.0-1.69","5c42aad91474820001508980","619531dcf66c91622fa1b861","6195956bd7c3d188c4d585ed","1089","","s","false","[[569,431],[548,132],[279,0],[30,168],[51,467],[320,599]]","true","6","main_T2_Trial","d","img/Fire_Up_Target.gif","[""img/Fire_Down_Distractor.gif"",""img/Fire_Down_Distractor.gif"",""img/Fire_Down_Distractor.gif"",""img/Fire_Down_Distractor.gif"",""img/Fire_Down_Distractor.gif"",""img/Fire_Down_Distractor.gif"",""img/Fire_Down_Distractor.gif"",""img/Fire_Down_Distractor.gif"",""img/Fire_Down_Distractor.gif"",""img/Fire_Down_Distractor.gif"",""img/Fire_Down_Distractor.gif"",""img/Fire_Down_Distractor.gif""]","6","targetUp_distractorsDown"
"","","","","","html-keyboard-response","154","277647","0.0-14.0-0.0-0.70","5c42aad91474820001508980","619531dcf66c91622fa1b861","6195956bd7c3d188c4d585ed","null","","null","","","","","main_T1_ITI","","","","",""
"","","","","","visual-search-circle","155","279570","0.0-14.0-0.0-1.70","5c42aad91474820001508980","619531dcf66c91622fa1b861","6195956bd7c3d188c4d585ed","900","","s","true","[[484,63],[63,115],[115,536],[536,484]]","false","4","main_T2_Trial","s","img/Fire_Up_Target.gif","[""img/Fire_Down_Distractor.gif"",""img/Fire_Down_Distractor.gif"",""img/Fire_Down_Distractor.gif"",""img/Fire_Down_Distractor.gif"",""img/Fire_Down_Distractor.gif"",""img/Fire_Down_Distractor.gif"",""img/Fire_Down_Distractor.gif"",""img/Fire_Down_Distractor.gif"",""img/Fire_Down_Distractor.gif"",""img/Fire_Down_Distractor.gif"",""img/Fire_Down_Distractor.gif"",""img/Fire_Down_Distractor.gif""]","4","targetUp_distractorsDown"
"","","","","","html-keyboard-response","156","279572","0.0-14.0-0.0-0.71","5c42aad91474820001508980","619531dcf66c91622fa1b861","6195956bd7c3d188c4d585ed","null","","null","","","","","main_T1_ITI","","","","",""
"","","","","","visual-search-circle","157","281626","0.0-14.0-0.0-1.71","5c42aad91474820001508980","619531dcf66c91622fa1b861","6195956bd7c3d188c4d585ed","1043","","s","true","[[1,326],[107,529],[326,598],[529,492],[598,273],[492,70],[273,1],[70,107]]","false","8","main_T2_Trial","s","img/Fire_Up_Target.gif","[""img/Fire_Down_Distractor.gif"",""img/Fire_Down_Distractor.gif"",""img/Fire_Down_Distractor.gif"",""img/Fire_Down_Distractor.gif"",""img/Fire_Down_Distractor.gif"",""img/Fire_Down_Distractor.gif"",""img/Fire_Down_Distractor.gif"",""img/Fire_Down_Distractor.gif"",""img/Fire_Down_Distractor.gif"",""img/Fire_Down_Distractor.gif"",""img/Fire_Down_Distractor.gif"",""img/Fire_Down_Distractor.gif""]","8","targetUp_distractorsDown"
"","","","","","html-keyboard-response","158","281629","0.0-14.0-0.0-0.72","5c42aad91474820001508980","619531dcf66c91622fa1b861","6195956bd7c3d188c4d585ed","null","","null","","","","","main_T1_ITI","","","","",""
"","","","","","visual-search-circle","159","283907","0.0-14.0-0.0-1.72","5c42aad91474820001508980","619531dcf66c91622fa1b861","6195956bd7c3d188c4d585ed","1254","","d","true","[[595,352],[492,70],[197,18],[4,247],[107,529],[402,581]]","true","6","main_T2_Trial","d","img/Fire_Up_Target.gif","[""img/Fire_Down_Distractor.gif"",""img/Fire_Down_Distractor.gif"",""img/Fire_Down_Distractor.gif"",""img/Fire_Down_Distractor.gif"",""img/Fire_Down_Distractor.gif"",""img/Fire_Down_Distractor.gif"",""img/Fire_Down_Distractor.gif"",""img/Fire_Down_Distractor.gif"",""img/Fire_Down_Distractor.gif"",""img/Fire_Down_Distractor.gif"",""img/Fire_Down_Distractor.gif"",""img/Fire_Down_Distractor.gif""]","6","targetUp_distractorsDown"
"","","","","","html-keyboard-response","160","283908","0.0-14.0-0.0-0.73","5c42aad91474820001508980","619531dcf66c91622fa1b861","6195956bd7c3d188c4d585ed","null","","null","","","","","main_T1_ITI","","","","",""
"","","","","","visual-search-circle","161","285809","0.0-14.0-0.0-1.73","5c42aad91474820001508980","619531dcf66c91622fa1b861","6195956bd7c3d188c4d585ed","879","","s","true","[[242,5],[5,357],[357,594],[594,242]]","false","4","main_T2_Trial","s","img/Fire_Up_Target.gif","[""img/Fire_Down_Distractor.gif"",""img/Fire_Down_Distractor.gif"",""img/Fire_Down_Distractor.gif"",""img/Fire_Down_Distractor.gif"",""img/Fire_Down_Distractor.gif"",""img/Fire_Down_Distractor.gif"",""img/Fire_Down_Distractor.gif"",""img/Fire_Down_Distractor.gif"",""img/Fire_Down_Distractor.gif"",""img/Fire_Down_Distractor.gif"",""img/Fire_Down_Distractor.gif"",""img/Fire_Down_Distractor.gif""]","4","targetUp_distractorsDown"
"","","","","","html-keyboard-response","162","285819","0.0-14.0-0.0-0.74","5c42aad91474820001508980","619531dcf66c91622fa1b861","6195956bd7c3d188c4d585ed","null","","null","","","","","main_T1_ITI","","","","",""
"","","","","","visual-search-circle","163","287713","0.0-14.0-0.0-1.74","5c42aad91474820001508980","619531dcf66c91622fa1b861","6195956bd7c3d188c4d585ed","869","","d","true","[[173,571],[433,568],[593,363],[532,110],[296,0],[63,115],[8,370]]","true","7","main_T2_Trial","d","img/Fire_Up_Target.gif","[""img/Fire_Down_Distractor.gif"",""img/Fire_Down_Distractor.gif"",""img/Fire_Down_Distractor.gif"",""img/Fire_Down_Distractor.gif"",""img/Fire_Down_Distractor.gif"",""img/Fire_Down_Distractor.gif"",""img/Fire_Down_Distractor.gif"",""img/Fire_Down_Distractor.gif"",""img/Fire_Down_Distractor.gif"",""img/Fire_Down_Distractor.gif"",""img/Fire_Down_Distractor.gif"",""img/Fire_Down_Distractor.gif""]","7","targetUp_distractorsDown"
"","","","","","html-keyboard-response","164","287721","0.0-14.0-0.0-0.75","5c42aad91474820001508980","619531dcf66c91622fa1b861","6195956bd7c3d188c4d585ed","null","","null","","","","","main_T1_ITI","","","","",""
"","","","","","visual-search-circle","165","289811","0.0-14.0-0.0-1.75","5c42aad91474820001508980","619531dcf66c91622fa1b861","6195956bd7c3d188c4d585ed","1070","","s","true","[[564,440],[440,35],[35,159],[159,564]]","false","4","main_T2_Trial","s","img/Fire_Down_Target.gif","[""img/Fire_Up_Distractor.gif"",""img/Fire_Up_Distractor.gif"",""img/Fire_Up_Distractor.gif"",""img/Fire_Up_Distractor.gif"",""img/Fire_Up_Distractor.gif"",""img/Fire_Up_Distractor.gif"",""img/Fire_Up_Distractor.gif"",""img/Fire_Up_Distractor.gif"",""img/Fire_Up_Distractor.gif"",""img/Fire_Up_Distractor.gif"",""img/Fire_Up_Distractor.gif"",""img/Fire_Up_Distractor.gif""]","4","targetDown_distractorsUp"
"","","","","","html-keyboard-response","166","289824","0.0-14.0-0.0-0.76","5c42aad91474820001508980","619531dcf66c91622fa1b861","6195956bd7c3d188c4d585ed","null","","null","","","","","main_T1_ITI","","","","",""
"","","","","","visual-search-circle","167","291747","0.0-14.0-0.0-1.76","5c42aad91474820001508980","619531dcf66c91622fa1b861","6195956bd7c3d188c4d585ed","891","","s","true","[[2,341],[119,539],[341,597],[539,480],[597,258],[480,60],[258,2],[60,119]]","false","8","main_T2_Trial","s","img/Fire_Down_Target.gif","[""img/Fire_Up_Distractor.gif"",""img/Fire_Up_Distractor.gif"",""img/Fire_Up_Distractor.gif"",""img/Fire_Up_Distractor.gif"",""img/Fire_Up_Distractor.gif"",""img/Fire_Up_Distractor.gif"",""img/Fire_Up_Distractor.gif"",""img/Fire_Up_Distractor.gif"",""img/Fire_Up_Distractor.gif"",""img/Fire_Up_Distractor.gif"",""img/Fire_Up_Distractor.gif"",""img/Fire_Up_Distractor.gif""]","8","targetDown_distractorsUp"
"","","","","","html-keyboard-response","168","291758","0.0-14.0-0.0-0.77","5c42aad91474820001508980","619531dcf66c91622fa1b861","6195956bd7c3d188c4d585ed","null","","null","","","","","main_T1_ITI","","","","",""
"","","","","","visual-search-circle","169","293620","0.0-14.0-0.0-1.77","5c42aad91474820001508980","619531dcf66c91622fa1b861","6195956bd7c3d188c4d585ed","830","","d","true","[[32,436],[284,599],[551,463],[567,163],[315,0],[48,136]]","true","6","main_T2_Trial","d","img/Fire_Up_Target.gif","[""img/Fire_Down_Distractor.gif"",""img/Fire_Down_Distractor.gif"",""img/Fire_Down_Distractor.gif"",""img/Fire_Down_Distractor.gif"",""img/Fire_Down_Distractor.gif"",""img/Fire_Down_Distractor.gif"",""img/Fire_Down_Distractor.gif"",""img/Fire_Down_Distractor.gif"",""img/Fire_Down_Distractor.gif"",""img/Fire_Down_Distractor.gif"",""img/Fire_Down_Distractor.gif"",""img/Fire_Down_Distractor.gif""]","6","targetUp_distractorsDown"
"","","","","","html-keyboard-response","170","293628","0.0-14.0-0.0-0.78","5c42aad91474820001508980","619531dcf66c91622fa1b861","6195956bd7c3d188c4d585ed","null","","null","","","","","main_T1_ITI","","","","",""
"","","","","","visual-search-circle","171","295904","0.0-14.0-0.0-1.78","5c42aad91474820001508980","619531dcf66c91622fa1b861","6195956bd7c3d188c4d585ed","1264","","d","true","[[598,273],[426,28],[127,54],[1,326],[173,571],[472,545]]","true","6","main_T2_Trial","d","img/Fire_Down_Target.gif","[""img/Fire_Up_Distractor.gif"",""img/Fire_Up_Distractor.gif"",""img/Fire_Up_Distractor.gif"",""img/Fire_Up_Distractor.gif"",""img/Fire_Up_Distractor.gif"",""img/Fire_Up_Distractor.gif"",""img/Fire_Up_Distractor.gif"",""img/Fire_Up_Distractor.gif"",""img/Fire_Up_Distractor.gif"",""img/Fire_Up_Distractor.gif"",""img/Fire_Up_Distractor.gif"",""img/Fire_Up_Distractor.gif""]","6","targetDown_distractorsUp"
"","","","","","html-keyboard-response","172","302953","0.0-14.0-0.0-0.79","5c42aad91474820001508980","619531dcf66c91622fa1b861","6195956bd7c3d188c4d585ed","7047","Wow! You've completed 80 out of 160 trials! </p> <p>  </p><p> Take a quick break, then press any key when you're ready to continue."," ","","","","","main_T1_ITI","","","","",""
"","","","","","visual-search-circle","173","304948","0.0-14.0-0.0-1.79","5c42aad91474820001508980","619531dcf66c91622fa1b861","6195956bd7c3d188c4d585ed","971","","d","true","[[107,70],[1,273],[70,492],[273,598],[492,529],[598,326],[529,107],[326,1]]","true","8","main_T2_Trial","d","img/Fire_Up_Target.gif","[""img/Fire_Down_Distractor.gif"",""img/Fire_Down_Distractor.gif"",""img/Fire_Down_Distractor.gif"",""img/Fire_Down_Distractor.gif"",""img/Fire_Down_Distractor.gif"",""img/Fire_Down_Distractor.gif"",""img/Fire_Down_Distractor.gif"",""img/Fire_Down_Distractor.gif"",""img/Fire_Down_Distractor.gif"",""img/Fire_Down_Distractor.gif"",""img/Fire_Down_Distractor.gif"",""img/Fire_Down_Distractor.gif""]","8","targetUp_distractorsDown"
"","","","","","html-keyboard-response","174","304959","0.0-14.0-0.0-0.80","5c42aad91474820001508980","619531dcf66c91622fa1b861","6195956bd7c3d188c4d585ed","null","","null","","","","","main_T1_ITI","","","","",""
"","","","","","visual-search-circle","175","306743","0.0-14.0-0.0-1.80","5c42aad91474820001508980","619531dcf66c91622fa1b861","6195956bd7c3d188c4d585ed","756","","s","true","[[13,387],[294,599],[583,397],[480,60],[127,54]]","false","5","main_T2_Trial","s","img/Fire_Down_Target.gif","[""img/Fire_Up_Distractor.gif"",""img/Fire_Up_Distractor.gif"",""img/Fire_Up_Distractor.gif"",""img/Fire_Up_Distractor.gif"",""img/Fire_Up_Distractor.gif"",""img/Fire_Up_Distractor.gif"",""img/Fire_Up_Distractor.gif"",""img/Fire_Up_Distractor.gif"",""img/Fire_Up_Distractor.gif"",""img/Fire_Up_Distractor.gif"",""img/Fire_Up_Distractor.gif"",""img/Fire_Up_Distractor.gif""]","5","targetDown_distractorsUp"
"","","","","","html-keyboard-response","176","306753","0.0-14.0-0.0-0.81","5c42aad91474820001508980","619531dcf66c91622fa1b861","6195956bd7c3d188c4d585ed","null","","null","","","","","main_T1_ITI","","","","",""
"","","","","","visual-search-circle","177","308591","0.0-14.0-0.0-1.81","5c42aad91474820001508980","619531dcf66c91622fa1b861","6195956bd7c3d188c4d585ed","820","","d","true","[[2,258],[82,506],[325,598],[549,466],[585,208],[406,19],[147,41]]","true","7","main_T2_Trial","d","img/Fire_Down_Target.gif","[""img/Fire_Up_Distractor.gif"",""img/Fire_Up_Distractor.gif"",""img/Fire_Up_Distractor.gif"",""img/Fire_Up_Distractor.gif"",""img/Fire_Up_Distractor.gif"",""img/Fire_Up_Distractor.gif"",""img/Fire_Up_Distractor.gif"",""img/Fire_Up_Distractor.gif"",""img/Fire_Up_Distractor.gif"",""img/Fire_Up_Distractor.gif"",""img/Fire_Up_Distractor.gif"",""img/Fire_Up_Distractor.gif""]","7","targetDown_distractorsUp"
"","","","","","html-keyboard-response","178","308591","0.0-14.0-0.0-0.82","5c42aad91474820001508980","619531dcf66c91622fa1b861","6195956bd7c3d188c4d585ed","null","","null","","","","","main_T1_ITI","","","","",""
"","","","","","visual-search-circle","179","310499","0.0-14.0-0.0-1.82","5c42aad91474820001508980","619531dcf66c91622fa1b861","6195956bd7c3d188c4d585ed","880","","s","true","[[16,397],[168,569],[397,583],[569,431],[583,202],[431,30],[202,16],[30,168]]","false","8","main_T2_Trial","s","img/Fire_Down_Target.gif","[""img/Fire_Up_Distractor.gif"",""img/Fire_Up_Distractor.gif"",""img/Fire_Up_Distractor.gif"",""img/Fire_Up_Distractor.gif"",""img/Fire_Up_Distractor.gif"",""img/Fire_Up_Distractor.gif"",""img/Fire_Up_Distractor.gif"",""img/Fire_Up_Distractor.gif"",""img/Fire_Up_Distractor.gif"",""img/Fire_Up_Distractor.gif"",""img/Fire_Up_Distractor.gif"",""img/Fire_Up_Distractor.gif""]","8","targetDown_distractorsUp"
"","","","","","html-keyboard-response","180","310508","0.0-14.0-0.0-0.83","5c42aad91474820001508980","619531dcf66c91622fa1b861","6195956bd7c3d188c4d585ed","null","","null","","","","","main_T1_ITI","","","","",""
"","","","","","visual-search-circle","181","312223","0.0-14.0-0.0-1.83","5c42aad91474820001508980","619531dcf66c91622fa1b861","6195956bd7c3d188c4d585ed","692","","s","true","[[132,548],[431,569],[599,320],[467,51],[168,30],[0,279]]","false","6","main_T2_Trial","s","img/Fire_Up_Target.gif","[""img/Fire_Down_Distractor.gif"",""img/Fire_Down_Distractor.gif"",""img/Fire_Down_Distractor.gif"",""img/Fire_Down_Distractor.gif"",""img/Fire_Down_Distractor.gif"",""img/Fire_Down_Distractor.gif"",""img/Fire_Down_Distractor.gif"",""img/Fire_Down_Distractor.gif"",""img/Fire_Down_Distractor.gif"",""img/Fire_Down_Distractor.gif"",""img/Fire_Down_Distractor.gif"",""img/Fire_Down_Distractor.gif""]","6","targetUp_distractorsDown"
"","","","","","html-keyboard-response","182","312226","0.0-14.0-0.0-0.84","5c42aad91474820001508980","619531dcf66c91622fa1b861","6195956bd7c3d188c4d585ed","null","","null","","","","","main_T1_ITI","","","","",""
"","","","","","visual-search-circle","183","314539","0.0-14.0-0.0-1.84","5c42aad91474820001508980","619531dcf66c91622fa1b861","6195956bd7c3d188c4d585ed","1292","","s","true","[[559,450],[589,222],[449,40],[222,10],[40,150],[10,377],[150,559],[377,589]]","false","8","main_T2_Trial","s","img/Fire_Down_Target.gif","[""img/Fire_Up_Distractor.gif"",""img/Fire_Up_Distractor.gif"",""img/Fire_Up_Distractor.gif"",""img/Fire_Up_Distractor.gif"",""img/Fire_Up_Distractor.gif"",""img/Fire_Up_Distractor.gif"",""img/Fire_Up_Distractor.gif"",""img/Fire_Up_Distractor.gif"",""img/Fire_Up_Distractor.gif"",""img/Fire_Up_Distractor.gif"",""img/Fire_Up_Distractor.gif"",""img/Fire_Up_Distractor.gif""]","8","targetDown_distractorsUp"
"","","","","","html-keyboard-response","184","314542","0.0-14.0-0.0-0.85","5c42aad91474820001508980","619531dcf66c91622fa1b861","6195956bd7c3d188c4d585ed","null","","null","","","","","main_T1_ITI","","","","",""
"","","","","","visual-search-circle","185","316355","0.0-14.0-0.0-1.85","5c42aad91474820001508980","619531dcf66c91622fa1b861","6195956bd7c3d188c4d585ed","799","","d","true","[[310,0],[45,141],[35,440],[289,599],[554,458],[564,159]]","true","6","main_T2_Trial","d","img/Fire_Up_Target.gif","[""img/Fire_Down_Distractor.gif"",""img/Fire_Down_Distractor.gif"",""img/Fire_Down_Distractor.gif"",""img/Fire_Down_Distractor.gif"",""img/Fire_Down_Distractor.gif"",""img/Fire_Down_Distractor.gif"",""img/Fire_Down_Distractor.gif"",""img/Fire_Down_Distractor.gif"",""img/Fire_Down_Distractor.gif"",""img/Fire_Down_Distractor.gif"",""img/Fire_Down_Distractor.gif"",""img/Fire_Down_Distractor.gif""]","6","targetUp_distractorsDown"
"","","","","","html-keyboard-response","186","316355","0.0-14.0-0.0-0.86","5c42aad91474820001508980","619531dcf66c91622fa1b861","6195956bd7c3d188c4d585ed","null","","null","","","","","main_T1_ITI","","","","",""
"","","","","","visual-search-circle","187","318542","0.0-14.0-0.0-1.86","5c42aad91474820001508980","619531dcf66c91622fa1b861","6195956bd7c3d188c4d585ed","1172","","s","false","[[326,598],[598,273],[273,1],[1,326]]","true","4","main_T2_Trial","d","img/Fire_Up_Target.gif","[""img/Fire_Down_Distractor.gif"",""img/Fire_Down_Distractor.gif"",""img/Fire_Down_Distractor.gif"",""img/Fire_Down_Distractor.gif"",""img/Fire_Down_Distractor.gif"",""img/Fire_Down_Distractor.gif"",""img/Fire_Down_Distractor.gif"",""img/Fire_Down_Distractor.gif"",""img/Fire_Down_Distractor.gif"",""img/Fire_Down_Distractor.gif"",""img/Fire_Down_Distractor.gif"",""img/Fire_Down_Distractor.gif""]","4","targetUp_distractorsDown"
"","","","","","html-keyboard-response","188","318542","0.0-14.0-0.0-0.87","5c42aad91474820001508980","619531dcf66c91622fa1b861","6195956bd7c3d188c4d585ed","null","","null","","","","","main_T1_ITI","","","","",""
"","","","","","visual-search-circle","189","320600","0.0-14.0-0.0-1.87","5c42aad91474820001508980","619531dcf66c91622fa1b861","6195956bd7c3d188c4d585ed","1023","","d","true","[[589,377],[512,87],[222,10],[10,222],[87,512],[377,589]]","true","6","main_T2_Trial","d","img/Fire_Down_Target.gif","[""img/Fire_Up_Distractor.gif"",""img/Fire_Up_Distractor.gif"",""img/Fire_Up_Distractor.gif"",""img/Fire_Up_Distractor.gif"",""img/Fire_Up_Distractor.gif"",""img/Fire_Up_Distractor.gif"",""img/Fire_Up_Distractor.gif"",""img/Fire_Up_Distractor.gif"",""img/Fire_Up_Distractor.gif"",""img/Fire_Up_Distractor.gif"",""img/Fire_Up_Distractor.gif"",""img/Fire_Up_Distractor.gif""]","6","targetDown_distractorsUp"
"","","","","","html-keyboard-response","190","320605","0.0-14.0-0.0-0.88","5c42aad91474820001508980","619531dcf66c91622fa1b861","6195956bd7c3d188c4d585ed","null","","null","","","","","main_T1_ITI","","","","",""
"","","","","","visual-search-circle","191","322638","0.0-14.0-0.0-1.88","5c42aad91474820001508980","619531dcf66c91622fa1b861","6195956bd7c3d188c4d585ed","1009","","s","false","[[21,412],[320,599],[591,372],[458,45],[107,70]]","true","5","main_T2_Trial","d","img/Fire_Down_Target.gif","[""img/Fire_Up_Distractor.gif"",""img/Fire_Up_Distractor.gif"",""img/Fire_Up_Distractor.gif"",""img/Fire_Up_Distractor.gif"",""img/Fire_Up_Distractor.gif"",""img/Fire_Up_Distractor.gif"",""img/Fire_Up_Distractor.gif"",""img/Fire_Up_Distractor.gif"",""img/Fire_Up_Distractor.gif"",""img/Fire_Up_Distractor.gif"",""img/Fire_Up_Distractor.gif"",""img/Fire_Up_Distractor.gif""]","5","targetDown_distractorsUp"
"","","","","","html-keyboard-response","192","322639","0.0-14.0-0.0-0.89","5c42aad91474820001508980","619531dcf66c91622fa1b861","6195956bd7c3d188c4d585ed","null","","null","","","","","main_T1_ITI","","","","",""
"","","","","","visual-search-circle","193","324654","0.0-14.0-0.0-1.89","5c42aad91474820001508980","619531dcf66c91622fa1b861","6195956bd7c3d188c4d585ed","990","","d","true","[[581,402],[484,63],[132,51],[11,382],[289,599]]","true","5","main_T2_Trial","d","img/Fire_Down_Target.gif","[""img/Fire_Up_Distractor.gif"",""img/Fire_Up_Distractor.gif"",""img/Fire_Up_Distractor.gif"",""img/Fire_Up_Distractor.gif"",""img/Fire_Up_Distractor.gif"",""img/Fire_Up_Distractor.gif"",""img/Fire_Up_Distractor.gif"",""img/Fire_Up_Distractor.gif"",""img/Fire_Up_Distractor.gif"",""img/Fire_Up_Distractor.gif"",""img/Fire_Up_Distractor.gif"",""img/Fire_Up_Distractor.gif""]","5","targetDown_distractorsUp"
"","","","","","html-keyboard-response","194","324656","0.0-14.0-0.0-0.90","5c42aad91474820001508980","619531dcf66c91622fa1b861","6195956bd7c3d188c4d585ed","null","","null","","","","","main_T1_ITI","","","","",""
"","","","","","visual-search-circle","195","326516","0.0-14.0-0.0-1.90","5c42aad91474820001508980","619531dcf66c91622fa1b861","6195956bd7c3d188c4d585ed","834","","d","true","[[80,95],[0,310],[95,519],[310,599],[519,504],[599,289],[504,80],[289,0]]","true","8","main_T2_Trial","d","img/Fire_Up_Target.gif","[""img/Fire_Down_Distractor.gif"",""img/Fire_Down_Distractor.gif"",""img/Fire_Down_Distractor.gif"",""img/Fire_Down_Distractor.gif"",""img/Fire_Down_Distractor.gif"",""img/Fire_Down_Distractor.gif"",""img/Fire_Down_Distractor.gif"",""img/Fire_Down_Distractor.gif"",""img/Fire_Down_Distractor.gif"",""img/Fire_Down_Distractor.gif"",""img/Fire_Down_Distractor.gif"",""img/Fire_Down_Distractor.gif""]","8","targetUp_distractorsDown"
"","","","","","html-keyboard-response","196","326519","0.0-14.0-0.0-0.91","5c42aad91474820001508980","619531dcf66c91622fa1b861","6195956bd7c3d188c4d585ed","null","","null","","","","","main_T1_ITI","","","","",""
"","","","","","visual-search-circle","197","328363","0.0-14.0-0.0-1.91","5c42aad91474820001508980","619531dcf66c91622fa1b861","6195956bd7c3d188c4d585ed","824","","s","true","[[23,417],[263,597],[539,480],[576,182],[336,2],[60,119]]","false","6","main_T2_Trial","s","img/Fire_Down_Target.gif","[""img/Fire_Up_Distractor.gif"",""img/Fire_Up_Distractor.gif"",""img/Fire_Up_Distractor.gif"",""img/Fire_Up_Distractor.gif"",""img/Fire_Up_Distractor.gif"",""img/Fire_Up_Distractor.gif"",""img/Fire_Up_Distractor.gif"",""img/Fire_Up_Distractor.gif"",""img/Fire_Up_Distractor.gif"",""img/Fire_Up_Distractor.gif"",""img/Fire_Up_Distractor.gif"",""img/Fire_Up_Distractor.gif""]","6","targetDown_distractorsUp"
"","","","","","html-keyboard-response","198","328364","0.0-14.0-0.0-0.92","5c42aad91474820001508980","619531dcf66c91622fa1b861","6195956bd7c3d188c4d585ed","null","","null","","","","","main_T1_ITI","","","","",""
"","","","","","visual-search-circle","199","330361","0.0-14.0-0.0-1.92","5c42aad91474820001508980","619531dcf66c91622fa1b861","6195956bd7c3d188c4d585ed","964","","s","true","[[4,247],[247,595],[595,352],[352,4]]","false","4","main_T2_Trial","s","img/Fire_Down_Target.gif","[""img/Fire_Up_Distractor.gif"",""img/Fire_Up_Distractor.gif"",""img/Fire_Up_Distractor.gif"",""img/Fire_Up_Distractor.gif"",""img/Fire_Up_Distractor.gif"",""img/Fire_Up_Distractor.gif"",""img/Fire_Up_Distractor.gif"",""img/Fire_Up_Distractor.gif"",""img/Fire_Up_Distractor.gif"",""img/Fire_Up_Distractor.gif"",""img/Fire_Up_Distractor.gif"",""img/Fire_Up_Distractor.gif""]","4","targetDown_distractorsUp"
"","","","","","html-keyboard-response","200","330367","0.0-14.0-0.0-0.93","5c42aad91474820001508980","619531dcf66c91622fa1b861","6195956bd7c3d188c4d585ed","null","","null","","","","","main_T1_ITI","","","","",""
"","","","","","visual-search-circle","201","332335","0.0-14.0-0.0-1.93","5c42aad91474820001508980","619531dcf66c91622fa1b861","6195956bd7c3d188c4d585ed","949","","d","true","[[163,32],[0,284],[136,551],[436,567],[599,315],[463,48]]","true","6","main_T2_Trial","d","img/Fire_Down_Target.gif","[""img/Fire_Up_Distractor.gif"",""img/Fire_Up_Distractor.gif"",""img/Fire_Up_Distractor.gif"",""img/Fire_Up_Distractor.gif"",""img/Fire_Up_Distractor.gif"",""img/Fire_Up_Distractor.gif"",""img/Fire_Up_Distractor.gif"",""img/Fire_Up_Distractor.gif"",""img/Fire_Up_Distractor.gif"",""img/Fire_Up_Distractor.gif"",""img/Fire_Up_Distractor.gif"",""img/Fire_Up_Distractor.gif""]","6","targetDown_distractorsUp"
"","","","","","html-keyboard-response","202","332335","0.0-14.0-0.0-0.94","5c42aad91474820001508980","619531dcf66c91622fa1b861","6195956bd7c3d188c4d585ed","null","","null","","","","","main_T1_ITI","","","","",""
"","","","","","visual-search-circle","203","334314","0.0-14.0-0.0-1.94","5c42aad91474820001508980","619531dcf66c91622fa1b861","6195956bd7c3d188c4d585ed","960","","d","true","[[127,54],[0,281],[98,522],[348,596],[561,446],[577,186],[384,12]]","true","7","main_T2_Trial","d","img/Fire_Down_Target.gif","[""img/Fire_Up_Distractor.gif"",""img/Fire_Up_Distractor.gif"",""img/Fire_Up_Distractor.gif"",""img/Fire_Up_Distractor.gif"",""img/Fire_Up_Distractor.gif"",""img/Fire_Up_Distractor.gif"",""img/Fire_Up_Distractor.gif"",""img/Fire_Up_Distractor.gif"",""img/Fire_Up_Distractor.gif"",""img/Fire_Up_Distractor.gif"",""img/Fire_Up_Distractor.gif"",""img/Fire_Up_Distractor.gif""]","7","targetDown_distractorsUp"
"","","","","","html-keyboard-response","204","334316","0.0-14.0-0.0-0.95","5c42aad91474820001508980","619531dcf66c91622fa1b861","6195956bd7c3d188c4d585ed","null","","null","","","","","main_T1_ITI","","","","",""
"","","","","","visual-search-circle","205","336236","0.0-14.0-0.0-1.95","5c42aad91474820001508980","619531dcf66c91622fa1b861","6195956bd7c3d188c4d585ed","901","","d","false","[[320,599],[547,470],[587,213],[410,21],[151,39],[3,253],[79,502]]","false","7","main_T2_Trial","s","img/Fire_Down_Target.gif","[""img/Fire_Up_Distractor.gif"",""img/Fire_Up_Distractor.gif"",""img/Fire_Up_Distractor.gif"",""img/Fire_Up_Distractor.gif"",""img/Fire_Up_Distractor.gif"",""img/Fire_Up_Distractor.gif"",""img/Fire_Up_Distractor.gif"",""img/Fire_Up_Distractor.gif"",""img/Fire_Up_Distractor.gif"",""img/Fire_Up_Distractor.gif"",""img/Fire_Up_Distractor.gif"",""img/Fire_Up_Distractor.gif""]","7","targetDown_distractorsUp"
"","","","","","html-keyboard-response","206","336237","0.0-14.0-0.0-0.96","5c42aad91474820001508980","619531dcf66c91622fa1b861","6195956bd7c3d188c4d585ed","null","","null","","","","","main_T1_ITI","","","","",""
"","","","","","visual-search-circle","207","338125","0.0-14.0-0.0-1.96","5c42aad91474820001508980","619531dcf66c91622fa1b861","6195956bd7c3d188c4d585ed","871","","d","true","[[91,84],[84,508],[508,515],[515,91]]","true","4","main_T2_Trial","d","img/Fire_Down_Target.gif","[""img/Fire_Up_Distractor.gif"",""img/Fire_Up_Distractor.gif"",""img/Fire_Up_Distractor.gif"",""img/Fire_Up_Distractor.gif"",""img/Fire_Up_Distractor.gif"",""img/Fire_Up_Distractor.gif"",""img/Fire_Up_Distractor.gif"",""img/Fire_Up_Distractor.gif"",""img/Fire_Up_Distractor.gif"",""img/Fire_Up_Distractor.gif"",""img/Fire_Up_Distractor.gif"",""img/Fire_Up_Distractor.gif""]","4","targetDown_distractorsUp"
"","","","","","html-keyboard-response","208","338140","0.0-14.0-0.0-0.97","5c42aad91474820001508980","619531dcf66c91622fa1b861","6195956bd7c3d188c4d585ed","null","","null","","","","","main_T1_ITI","","","","",""
"","","","","","visual-search-circle","209","339942","0.0-14.0-0.0-1.97","5c42aad91474820001508980","619531dcf66c91622fa1b861","6195956bd7c3d188c4d585ed","789","","s","true","[[589,222],[315,0],[19,192],[111,533],[463,551]]","false","5","main_T2_Trial","s","img/Fire_Down_Target.gif","[""img/Fire_Up_Distractor.gif"",""img/Fire_Up_Distractor.gif"",""img/Fire_Up_Distractor.gif"",""img/Fire_Up_Distractor.gif"",""img/Fire_Up_Distractor.gif"",""img/Fire_Up_Distractor.gif"",""img/Fire_Up_Distractor.gif"",""img/Fire_Up_Distractor.gif"",""img/Fire_Up_Distractor.gif"",""img/Fire_Up_Distractor.gif"",""img/Fire_Up_Distractor.gif"",""img/Fire_Up_Distractor.gif""]","5","targetDown_distractorsUp"
"","","","","","html-keyboard-response","210","339949","0.0-14.0-0.0-0.98","5c42aad91474820001508980","619531dcf66c91622fa1b861","6195956bd7c3d188c4d585ed","null","","null","","","","","main_T1_ITI","","","","",""
"","","","","","visual-search-circle","211","341811","0.0-14.0-0.0-1.98","5c42aad91474820001508980","619531dcf66c91622fa1b861","6195956bd7c3d188c4d585ed","841","","s","true","[[336,2],[28,173],[95,519],[445,562],[594,242]]","false","5","main_T2_Trial","s","img/Fire_Up_Target.gif","[""img/Fire_Down_Distractor.gif"",""img/Fire_Down_Distractor.gif"",""img/Fire_Down_Distractor.gif"",""img/Fire_Down_Distractor.gif"",""img/Fire_Down_Distractor.gif"",""img/Fire_Down_Distractor.gif"",""img/Fire_Down_Distractor.gif"",""img/Fire_Down_Distractor.gif"",""img/Fire_Down_Distractor.gif"",""img/Fire_Down_Distractor.gif"",""img/Fire_Down_Distractor.gif"",""img/Fire_Down_Distractor.gif""]","5","targetUp_distractorsDown"
"","","","","","html-keyboard-response","212","343507","0.0-14.0-0.0-0.99","5c42aad91474820001508980","619531dcf66c91622fa1b861","6195956bd7c3d188c4d585ed","1693","Wow! You've completed 100 out of 160 trials! </p> <p>  </p><p> Take a quick break, then press any key when you're ready to continue."," ","","","","","main_T1_ITI","","","","",""
"","","","","","visual-search-circle","213","345325","0.0-14.0-0.0-1.99","5c42aad91474820001508980","619531dcf66c91622fa1b861","6195956bd7c3d188c4d585ed","784","","d","true","[[119,60],[0,291],[106,529],[358,594],[566,437],[573,177],[374,9]]","true","7","main_T2_Trial","d","img/Fire_Up_Target.gif","[""img/Fire_Down_Distractor.gif"",""img/Fire_Down_Distractor.gif"",""img/Fire_Down_Distractor.gif"",""img/Fire_Down_Distractor.gif"",""img/Fire_Down_Distractor.gif"",""img/Fire_Down_Distractor.gif"",""img/Fire_Down_Distractor.gif"",""img/Fire_Down_Distractor.gif"",""img/Fire_Down_Distractor.gif"",""img/Fire_Down_Distractor.gif"",""img/Fire_Down_Distractor.gif"",""img/Fire_Down_Distractor.gif""]","7","targetUp_distractorsDown"
"","","","","","html-keyboard-response","214","345334","0.0-14.0-0.0-0.100","5c42aad91474820001508980","619531dcf66c91622fa1b861","6195956bd7c3d188c4d585ed","null","","null","","","","","main_T1_ITI","","","","",""
"","","","","","visual-search-circle","215","347213","0.0-14.0-0.0-1.100","5c42aad91474820001508980","619531dcf66c91622fa1b861","6195956bd7c3d188c4d585ed","860","","d","true","[[346,596],[596,346],[436,32],[87,87],[32,436]]","true","5","main_T2_Trial","d","img/Fire_Down_Target.gif","[""img/Fire_Up_Distractor.gif"",""img/Fire_Up_Distractor.gif"",""img/Fire_Up_Distractor.gif"",""img/Fire_Up_Distractor.gif"",""img/Fire_Up_Distractor.gif"",""img/Fire_Up_Distractor.gif"",""img/Fire_Up_Distractor.gif"",""img/Fire_Up_Distractor.gif"",""img/Fire_Up_Distractor.gif"",""img/Fire_Up_Distractor.gif"",""img/Fire_Up_Distractor.gif"",""img/Fire_Up_Distractor.gif""]","5","targetDown_distractorsUp"
"","","","","","html-keyboard-response","216","347222","0.0-14.0-0.0-0.101","5c42aad91474820001508980","619531dcf66c91622fa1b861","6195956bd7c3d188c4d585ed","null","","null","","","","","main_T1_ITI","","","","",""
"","","","","","visual-search-circle","217","349056","0.0-14.0-0.0-1.101","5c42aad91474820001508980","619531dcf66c91622fa1b861","6195956bd7c3d188c4d585ed","816","","d","true","[[11,217],[37,445],[217,588],[445,562],[588,382],[562,154],[382,11],[154,37]]","true","8","main_T2_Trial","d","img/Fire_Down_Target.gif","[""img/Fire_Up_Distractor.gif"",""img/Fire_Up_Distractor.gif"",""img/Fire_Up_Distractor.gif"",""img/Fire_Up_Distractor.gif"",""img/Fire_Up_Distractor.gif"",""img/Fire_Up_Distractor.gif"",""img/Fire_Up_Distractor.gif"",""img/Fire_Up_Distractor.gif"",""img/Fire_Up_Distractor.gif"",""img/Fire_Up_Distractor.gif"",""img/Fire_Up_Distractor.gif"",""img/Fire_Up_Distractor.gif""]","8","targetDown_distractorsUp"
"","","","","","html-keyboard-response","218","349062","0.0-14.0-0.0-0.102","5c42aad91474820001508980","619531dcf66c91622fa1b861","6195956bd7c3d188c4d585ed","null","","null","","","","","main_T1_ITI","","","","",""
