"success","timeout","failed_images","failed_audio","failed_video","trial_type","trial_index","time_elapsed","internal_node_id","subject_id","study_id","session_id","rt","stimulus","response","correct","locations","target_present","set_size","task","correct_response","target","foilCM","setSizeCM","searchCondition"
"true","false","[]","[]","[]","preload","0","46157","0.0-0.0","5c5493207f5e0c000143e96e","619531dcf66c91622fa1b861","6195a599ba92f06d8051c2a1","","","","","","","","","","","","",""
"true","","","","","fullscreen","1","60339","0.0-1.0","5c5493207f5e0c000143e96e","619531dcf66c91622fa1b861","6195a599ba92f06d8051c2a1","","","","","","","","","","","","",""
"","","","","","html-keyboard-response","2","79007","0.0-2.0","5c5493207f5e0c000143e96e","619531dcf66c91622fa1b861","6195a599ba92f06d8051c2a1","18666.70000000298","What a beautiful Thursday to do some awesome science! </p> <p>  </p><p> </p>
    By completing this survey or questionnaire, you are consenting to be in this research study. </p>
    Your participation is voluntary and you can stop at any time.
    <p> [Press any key to continue.] </p>
    
    "," ","","","","","","","","","",""
"","","","","","video-keyboard-response","3","180783","0.0-3.0","5c5493207f5e0c000143e96e","619531dcf66c91622fa1b861","6195a599ba92f06d8051c2a1","101774.10000000149","[""video/TaskInstructions.mp4""]"," ","","","","","","","","","",""
"","","","","","html-keyboard-response","4","187757","0.0-4.0","5c5493207f5e0c000143e96e","619531dcf66c91622fa1b861","6195a599ba92f06d8051c2a1","6974.79999999702","
    <p>First, we're going to do a few practice trials to make sure you understand the task. You will recieve feedback on each trial. </p>
    <p>[Press any key to begin the familiarization phase.]</p>
    "," ","","","","","","","","","",""
"","","","","","visual-search-circle","5","190157","0.0-5.0-0.0","5c5493207f5e0c000143e96e","619531dcf66c91622fa1b861","6195a599ba92f06d8051c2a1","1335.2000000029802","","d","true","[[5,242],[242,594],[594,357],[357,5]]","true","4","training","d","","","",""
"","","","","","html-keyboard-response","6","194527","0.0-6.0","5c5493207f5e0c000143e96e","619531dcf66c91622fa1b861","6195a599ba92f06d8051c2a1","4368.89999999851"," <div style='float: center; '><img src='img/feedbackRight.png'></img> </div> "," ","","","","","","","","","",""
"","","","","","visual-search-circle","7","196205","0.0-7.0-0.0","5c5493207f5e0c000143e96e","619531dcf66c91622fa1b861","6195a599ba92f06d8051c2a1","661","","s","true","[[150,40],[40,450],[450,559],[559,150]]","false","4","training","s","","","",""
"","","","","","html-keyboard-response","8","197823","0.0-8.0","5c5493207f5e0c000143e96e","619531dcf66c91622fa1b861","6195a599ba92f06d8051c2a1","1616.7000000029802"," <div style='float: center; '><img src='img/feedbackRight.png'></img> </div> "," ","","","","","","","","","",""
"","","","","","visual-search-circle","9","199916","0.0-9.0-0.0","5c5493207f5e0c000143e96e","619531dcf66c91622fa1b861","6195a599ba92f06d8051c2a1","1074.8999999985099","","s","true","[[66,488],[346,596],[580,407],[533,111],[253,3],[19,192]]","false","6","training","s","","","",""
"","","","","","html-keyboard-response","10","201118","0.0-10.0","5c5493207f5e0c000143e96e","619531dcf66c91622fa1b861","6195a599ba92f06d8051c2a1","1200.6000000014901"," <div style='float: center; '><img src='img/feedbackRight.png'></img> </div> "," ","","","","","","","","","",""
"","","","","","visual-search-circle","11","203135","0.0-11.0-0.0","5c5493207f5e0c000143e96e","619531dcf66c91622fa1b861","6195a599ba92f06d8051c2a1","1011.5","","d","true","[[445,562],[588,382],[562,154],[382,11],[154,37],[11,217],[37,445],[217,588]]","true","8","training","d","","","",""
"","","","","","html-keyboard-response","12","203774","0.0-12.0","5c5493207f5e0c000143e96e","619531dcf66c91622fa1b861","6195a599ba92f06d8051c2a1","638.5"," <div style='float: center; '><img src='img/feedbackRight.png'></img> </div> "," ","","","","","","","","","",""
"","","","","","video-keyboard-response","13","225566","0.0-13.0","5c5493207f5e0c000143e96e","619531dcf66c91622fa1b861","6195a599ba92f06d8051c2a1","21790.89999999851","[""video/endTraining.mp4""]"," ","","","","","","","","","",""
"","","","","","html-keyboard-response","14","225567","0.0-14.0-0.0-0.0","5c5493207f5e0c000143e96e","619531dcf66c91622fa1b861","6195a599ba92f06d8051c2a1","null","","null","","","","","main_T1_ITI","","","","",""
"","","","","","visual-search-circle","15","227374","0.0-14.0-0.0-1.0","5c5493207f5e0c000143e96e","619531dcf66c91622fa1b861","6195a599ba92f06d8051c2a1","792.6000000014901","","s","true","[[599,294],[508,84],[294,0],[84,91],[0,305],[91,515],[305,599],[515,508]]","false","8","main_T2_Trial","s","img/Fire_Down_Target.gif","[""img/Fire_Up_Distractor.gif"",""img/Fire_Up_Distractor.gif"",""img/Fire_Up_Distractor.gif"",""img/Fire_Up_Distractor.gif"",""img/Fire_Up_Distractor.gif"",""img/Fire_Up_Distractor.gif"",""img/Fire_Up_Distractor.gif"",""img/Fire_Up_Distractor.gif"",""img/Fire_Up_Distractor.gif"",""img/Fire_Up_Distractor.gif"",""img/Fire_Up_Distractor.gif"",""img/Fire_Up_Distractor.gif""]","8","targetDown_distractorsUp"
"","","","","","html-keyboard-response","16","227376","0.0-14.0-0.0-0.1","5c5493207f5e0c000143e96e","619531dcf66c91622fa1b861","6195a599ba92f06d8051c2a1","null","","null","","","","","main_T1_ITI","","","","",""
"","","","","","visual-search-circle","17","229324","0.0-14.0-0.0-1.1","5c5493207f5e0c000143e96e","619531dcf66c91622fa1b861","6195a599ba92f06d8051c2a1","931.7000000029802","","d","true","[[37,445],[357,594],[597,336],[426,28],[80,95]]","true","5","main_T2_Trial","d","img/Fire_Down_Target.gif","[""img/Fire_Up_Distractor.gif"",""img/Fire_Up_Distractor.gif"",""img/Fire_Up_Distractor.gif"",""img/Fire_Up_Distractor.gif"",""img/Fire_Up_Distractor.gif"",""img/Fire_Up_Distractor.gif"",""img/Fire_Up_Distractor.gif"",""img/Fire_Up_Distractor.gif"",""img/Fire_Up_Distractor.gif"",""img/Fire_Up_Distractor.gif"",""img/Fire_Up_Distractor.gif"",""img/Fire_Up_Distractor.gif""]","5","targetDown_distractorsUp"
"","","","","","html-keyboard-response","18","229326","0.0-14.0-0.0-0.2","5c5493207f5e0c000143e96e","619531dcf66c91622fa1b861","6195a599ba92f06d8051c2a1","null","","null","","","","","main_T1_ITI","","","","",""
"","","","","","visual-search-circle","19","235325","0.0-14.0-0.0-1.2","5c5493207f5e0c000143e96e","619531dcf66c91622fa1b861","6195a599ba92f06d8051c2a1","4982.9000000059605","","s","false","[[73,103],[42,454],[367,592],[598,326],[417,23]]","true","5","main_T2_Trial","d","img/Fire_Down_Target.gif","[""img/Fire_Up_Distractor.gif"",""img/Fire_Up_Distractor.gif"",""img/Fire_Up_Distractor.gif"",""img/Fire_Up_Distractor.gif"",""img/Fire_Up_Distractor.gif"",""img/Fire_Up_Distractor.gif"",""img/Fire_Up_Distractor.gif"",""img/Fire_Up_Distractor.gif"",""img/Fire_Up_Distractor.gif"",""img/Fire_Up_Distractor.gif"",""img/Fire_Up_Distractor.gif"",""img/Fire_Up_Distractor.gif""]","5","targetDown_distractorsUp"
"","","","","","html-keyboard-response","20","235327","0.0-14.0-0.0-0.3","5c5493207f5e0c000143e96e","619531dcf66c91622fa1b861","6195a599ba92f06d8051c2a1","null","","null","","","","","main_T1_ITI","","","","",""
"","","","","","visual-search-circle","21","244542","0.0-14.0-0.0-1.3","5c5493207f5e0c000143e96e","619531dcf66c91622fa1b861","6195a599ba92f06d8051c2a1","8207.19999999553","","d","true","[[526,496],[599,279],[496,73],[279,0],[73,103],[0,320],[103,526],[320,599]]","true","8","main_T2_Trial","d","img/Fire_Down_Target.gif","[""img/Fire_Up_Distractor.gif"",""img/Fire_Up_Distractor.gif"",""img/Fire_Up_Distractor.gif"",""img/Fire_Up_Distractor.gif"",""img/Fire_Up_Distractor.gif"",""img/Fire_Up_Distractor.gif"",""img/Fire_Up_Distractor.gif"",""img/Fire_Up_Distractor.gif"",""img/Fire_Up_Distractor.gif"",""img/Fire_Up_Distractor.gif"",""img/Fire_Up_Distractor.gif"",""img/Fire_Up_Distractor.gif""]","8","targetDown_distractorsUp"
"","","","","","html-keyboard-response","22","244544","0.0-14.0-0.0-0.4","5c5493207f5e0c000143e96e","619531dcf66c91622fa1b861","6195a599ba92f06d8051c2a1","null","","null","","","","","main_T1_ITI","","","","",""
"","","","","","visual-search-circle","23","246813","0.0-14.0-0.0-1.4","5c5493207f5e0c000143e96e","619531dcf66c91622fa1b861","6195a599ba92f06d8051c2a1","1251.3999999985099","","d","true","[[0,279],[187,578],[529,492],[554,141],[227,8]]","true","5","main_T2_Trial","d","img/Fire_Down_Target.gif","[""img/Fire_Up_Distractor.gif"",""img/Fire_Up_Distractor.gif"",""img/Fire_Up_Distractor.gif"",""img/Fire_Up_Distractor.gif"",""img/Fire_Up_Distractor.gif"",""img/Fire_Up_Distractor.gif"",""img/Fire_Up_Distractor.gif"",""img/Fire_Up_Distractor.gif"",""img/Fire_Up_Distractor.gif"",""img/Fire_Up_Distractor.gif"",""img/Fire_Up_Distractor.gif"",""img/Fire_Up_Distractor.gif""]","5","targetDown_distractorsUp"
"","","","","","html-keyboard-response","24","246821","0.0-14.0-0.0-0.5","5c5493207f5e0c000143e96e","619531dcf66c91622fa1b861","6195a599ba92f06d8051c2a1","null","","null","","","","","main_T1_ITI","","","","",""
"","","","","","visual-search-circle","25","249117","0.0-14.0-0.0-1.5","5c5493207f5e0c000143e96e","619531dcf66c91622fa1b861","6195a599ba92f06d8051c2a1","1288","","s","true","[[539,480],[576,182],[336,2],[60,119],[23,417],[263,597]]","false","6","main_T2_Trial","s","img/Fire_Down_Target.gif","[""img/Fire_Up_Distractor.gif"",""img/Fire_Up_Distractor.gif"",""img/Fire_Up_Distractor.gif"",""img/Fire_Up_Distractor.gif"",""img/Fire_Up_Distractor.gif"",""img/Fire_Up_Distractor.gif"",""img/Fire_Up_Distractor.gif"",""img/Fire_Up_Distractor.gif"",""img/Fire_Up_Distractor.gif"",""img/Fire_Up_Distractor.gif"",""img/Fire_Up_Distractor.gif"",""img/Fire_Up_Distractor.gif""]","6","targetDown_distractorsUp"
"","","","","","html-keyboard-response","26","249120","0.0-14.0-0.0-0.6","5c5493207f5e0c000143e96e","619531dcf66c91622fa1b861","6195a599ba92f06d8051c2a1","null","","null","","","","","main_T1_ITI","","","","",""
"","","","","","visual-search-circle","27","251582","0.0-14.0-0.0-1.6","5c5493207f5e0c000143e96e","619531dcf66c91622fa1b861","6195a599ba92f06d8051c2a1","1458","","s","false","[[18,197],[197,581],[581,402],[402,18]]","true","4","main_T2_Trial","d","img/Fire_Down_Target.gif","[""img/Fire_Up_Distractor.gif"",""img/Fire_Up_Distractor.gif"",""img/Fire_Up_Distractor.gif"",""img/Fire_Up_Distractor.gif"",""img/Fire_Up_Distractor.gif"",""img/Fire_Up_Distractor.gif"",""img/Fire_Up_Distractor.gif"",""img/Fire_Up_Distractor.gif"",""img/Fire_Up_Distractor.gif"",""img/Fire_Up_Distractor.gif"",""img/Fire_Up_Distractor.gif"",""img/Fire_Up_Distractor.gif""]","4","targetDown_distractorsUp"
"","","","","","html-keyboard-response","28","251585","0.0-14.0-0.0-0.7","5c5493207f5e0c000143e96e","619531dcf66c91622fa1b861","6195a599ba92f06d8051c2a1","null","","null","","","","","main_T1_ITI","","","","",""
"","","","","","visual-search-circle","29","253598","0.0-14.0-0.0-1.7","5c5493207f5e0c000143e96e","619531dcf66c91622fa1b861","6195a599ba92f06d8051c2a1","998.9000000059605","","s","true","[[127,545],[480,539],[583,202],[294,0],[13,212]]","false","5","main_T2_Trial","s","img/Fire_Up_Target.gif","[""img/Fire_Down_Distractor.gif"",""img/Fire_Down_Distractor.gif"",""img/Fire_Down_Distractor.gif"",""img/Fire_Down_Distractor.gif"",""img/Fire_Down_Distractor.gif"",""img/Fire_Down_Distractor.gif"",""img/Fire_Down_Distractor.gif"",""img/Fire_Down_Distractor.gif"",""img/Fire_Down_Distractor.gif"",""img/Fire_Down_Distractor.gif"",""img/Fire_Down_Distractor.gif"",""img/Fire_Down_Distractor.gif""]","5","targetUp_distractorsDown"
"","","","","","html-keyboard-response","30","253600","0.0-14.0-0.0-0.8","5c5493207f5e0c000143e96e","619531dcf66c91622fa1b861","6195a599ba92f06d8051c2a1","null","","null","","","","","main_T1_ITI","","","","",""
"","","","","","visual-search-circle","31","255422","0.0-14.0-0.0-1.8","5c5493207f5e0c000143e96e","619531dcf66c91622fa1b861","6195a599ba92f06d8051c2a1","809.7000000029802","","s","true","[[107,70],[4,352],[197,581],[492,529],[595,247],[402,18]]","false","6","main_T2_Trial","s","img/Fire_Up_Target.gif","[""img/Fire_Down_Distractor.gif"",""img/Fire_Down_Distractor.gif"",""img/Fire_Down_Distractor.gif"",""img/Fire_Down_Distractor.gif"",""img/Fire_Down_Distractor.gif"",""img/Fire_Down_Distractor.gif"",""img/Fire_Down_Distractor.gif"",""img/Fire_Down_Distractor.gif"",""img/Fire_Down_Distractor.gif"",""img/Fire_Down_Distractor.gif"",""img/Fire_Down_Distractor.gif"",""img/Fire_Down_Distractor.gif""]","6","targetUp_distractorsDown"
"","","","","","html-keyboard-response","32","255425","0.0-14.0-0.0-0.9","5c5493207f5e0c000143e96e","619531dcf66c91622fa1b861","6195a599ba92f06d8051c2a1","null","","null","","","","","main_T1_ITI","","","","",""
"","","","","","visual-search-circle","33","257277","0.0-14.0-0.0-1.9","5c5493207f5e0c000143e96e","619531dcf66c91622fa1b861","6195a599ba92f06d8051c2a1","836.4000000059605","","s","true","[[7,367],[141,554],[367,592],[554,458],[592,232],[458,45],[232,7],[45,141]]","false","8","main_T2_Trial","s","img/Fire_Down_Target.gif","[""img/Fire_Up_Distractor.gif"",""img/Fire_Up_Distractor.gif"",""img/Fire_Up_Distractor.gif"",""img/Fire_Up_Distractor.gif"",""img/Fire_Up_Distractor.gif"",""img/Fire_Up_Distractor.gif"",""img/Fire_Up_Distractor.gif"",""img/Fire_Up_Distractor.gif"",""img/Fire_Up_Distractor.gif"",""img/Fire_Up_Distractor.gif"",""img/Fire_Up_Distractor.gif"",""img/Fire_Up_Distractor.gif""]","8","targetDown_distractorsUp"
"","","","","","html-keyboard-response","34","257280","0.0-14.0-0.0-0.10","5c5493207f5e0c000143e96e","619531dcf66c91622fa1b861","6195a599ba92f06d8051c2a1","null","","null","","","","","main_T1_ITI","","","","",""
"","","","","","visual-search-circle","35","259374","0.0-14.0-0.0-1.10","5c5493207f5e0c000143e96e","619531dcf66c91622fa1b861","6195a599ba92f06d8051c2a1","1087.2000000029802","","d","true","[[508,515],[515,91],[91,84],[84,508]]","true","4","main_T2_Trial","d","img/Fire_Down_Target.gif","[""img/Fire_Up_Distractor.gif"",""img/Fire_Up_Distractor.gif"",""img/Fire_Up_Distractor.gif"",""img/Fire_Up_Distractor.gif"",""img/Fire_Up_Distractor.gif"",""img/Fire_Up_Distractor.gif"",""img/Fire_Up_Distractor.gif"",""img/Fire_Up_Distractor.gif"",""img/Fire_Up_Distractor.gif"",""img/Fire_Up_Distractor.gif"",""img/Fire_Up_Distractor.gif"",""img/Fire_Up_Distractor.gif""]","4","targetDown_distractorsUp"
"","","","","","html-keyboard-response","36","259376","0.0-14.0-0.0-0.11","5c5493207f5e0c000143e96e","619531dcf66c91622fa1b861","6195a599ba92f06d8051c2a1","null","","null","","","","","main_T1_ITI","","","","",""
"","","","","","visual-search-circle","37","261775","0.0-14.0-0.0-1.11","5c5493207f5e0c000143e96e","619531dcf66c91622fa1b861","6195a599ba92f06d8051c2a1","1387.8999999985099","","s","true","[[597,336],[514,89],[269,1],[47,137],[15,396],[198,582],[457,555]]","false","7","main_T2_Trial","s","img/Fire_Up_Target.gif","[""img/Fire_Down_Distractor.gif"",""img/Fire_Down_Distractor.gif"",""img/Fire_Down_Distractor.gif"",""img/Fire_Down_Distractor.gif"",""img/Fire_Down_Distractor.gif"",""img/Fire_Down_Distractor.gif"",""img/Fire_Down_Distractor.gif"",""img/Fire_Down_Distractor.gif"",""img/Fire_Down_Distractor.gif"",""img/Fire_Down_Distractor.gif"",""img/Fire_Down_Distractor.gif"",""img/Fire_Down_Distractor.gif""]","7","targetUp_distractorsDown"
"","","","","","html-keyboard-response","38","261777","0.0-14.0-0.0-0.12","5c5493207f5e0c000143e96e","619531dcf66c91622fa1b861","6195a599ba92f06d8051c2a1","null","","null","","","","","main_T1_ITI","","","","",""
"","","","","","visual-search-circle","39","263695","0.0-14.0-0.0-1.12","5c5493207f5e0c000143e96e","619531dcf66c91622fa1b861","6195a599ba92f06d8051c2a1","905.9000000059605","","d","true","[[599,279],[431,30],[132,51],[0,320],[168,569],[467,548]]","true","6","main_T2_Trial","d","img/Fire_Up_Target.gif","[""img/Fire_Down_Distractor.gif"",""img/Fire_Down_Distractor.gif"",""img/Fire_Down_Distractor.gif"",""img/Fire_Down_Distractor.gif"",""img/Fire_Down_Distractor.gif"",""img/Fire_Down_Distractor.gif"",""img/Fire_Down_Distractor.gif"",""img/Fire_Down_Distractor.gif"",""img/Fire_Down_Distractor.gif"",""img/Fire_Down_Distractor.gif"",""img/Fire_Down_Distractor.gif"",""img/Fire_Down_Distractor.gif""]","6","targetUp_distractorsDown"
"","","","","","html-keyboard-response","40","263698","0.0-14.0-0.0-0.13","5c5493207f5e0c000143e96e","619531dcf66c91622fa1b861","6195a599ba92f06d8051c2a1","null","","null","","","","","main_T1_ITI","","","","",""
"","","","","","visual-search-circle","41","265727","0.0-14.0-0.0-1.13","5c5493207f5e0c000143e96e","619531dcf66c91622fa1b861","6195a599ba92f06d8051c2a1","1023.3000000044703","","d","true","[[382,588],[577,415],[562,155],[350,4],[100,76],[0,316],[126,544]]","true","7","main_T2_Trial","d","img/Fire_Down_Target.gif","[""img/Fire_Up_Distractor.gif"",""img/Fire_Up_Distractor.gif"",""img/Fire_Up_Distractor.gif"",""img/Fire_Up_Distractor.gif"",""img/Fire_Up_Distractor.gif"",""img/Fire_Up_Distractor.gif"",""img/Fire_Up_Distractor.gif"",""img/Fire_Up_Distractor.gif"",""img/Fire_Up_Distractor.gif"",""img/Fire_Up_Distractor.gif"",""img/Fire_Up_Distractor.gif"",""img/Fire_Up_Distractor.gif""]","7","targetDown_distractorsUp"
"","","","","","html-keyboard-response","42","265728","0.0-14.0-0.0-0.14","5c5493207f5e0c000143e96e","619531dcf66c91622fa1b861","6195a599ba92f06d8051c2a1","null","","null","","","","","main_T1_ITI","","","","",""
"","","","","","visual-search-circle","43","267727","0.0-14.0-0.0-1.14","5c5493207f5e0c000143e96e","619531dcf66c91622fa1b861","6195a599ba92f06d8051c2a1","992.1000000014901","","d","true","[[123,57],[57,476],[476,542],[542,123]]","true","4","main_T2_Trial","d","img/Fire_Down_Target.gif","[""img/Fire_Up_Distractor.gif"",""img/Fire_Up_Distractor.gif"",""img/Fire_Up_Distractor.gif"",""img/Fire_Up_Distractor.gif"",""img/Fire_Up_Distractor.gif"",""img/Fire_Up_Distractor.gif"",""img/Fire_Up_Distractor.gif"",""img/Fire_Up_Distractor.gif"",""img/Fire_Up_Distractor.gif"",""img/Fire_Up_Distractor.gif"",""img/Fire_Up_Distractor.gif"",""img/Fire_Up_Distractor.gif""]","4","targetDown_distractorsUp"
"","","","","","html-keyboard-response","44","267729","0.0-14.0-0.0-0.15","5c5493207f5e0c000143e96e","619531dcf66c91622fa1b861","6195a599ba92f06d8051c2a1","null","","null","","","","","main_T1_ITI","","","","",""
"","","","","","visual-search-circle","45","269629","0.0-14.0-0.0-1.15","5c5493207f5e0c000143e96e","619531dcf66c91622fa1b861","6195a599ba92f06d8051c2a1","895.6000000014901","","s","true","[[163,32],[6,239],[69,492],[306,599],[538,481],[590,226],[424,26]]","false","7","main_T2_Trial","s","img/Fire_Up_Target.gif","[""img/Fire_Down_Distractor.gif"",""img/Fire_Down_Distractor.gif"",""img/Fire_Down_Distractor.gif"",""img/Fire_Down_Distractor.gif"",""img/Fire_Down_Distractor.gif"",""img/Fire_Down_Distractor.gif"",""img/Fire_Down_Distractor.gif"",""img/Fire_Down_Distractor.gif"",""img/Fire_Down_Distractor.gif"",""img/Fire_Down_Distractor.gif"",""img/Fire_Down_Distractor.gif"",""img/Fire_Down_Distractor.gif""]","7","targetUp_distractorsDown"
"","","","","","html-keyboard-response","46","269637","0.0-14.0-0.0-0.16","5c5493207f5e0c000143e96e","619531dcf66c91622fa1b861","6195a599ba92f06d8051c2a1","null","","null","","","","","main_T1_ITI","","","","",""
"","","","","","visual-search-circle","47","271533","0.0-14.0-0.0-1.16","5c5493207f5e0c000143e96e","619531dcf66c91622fa1b861","6195a599ba92f06d8051c2a1","889.4000000059605","","s","true","[[60,480],[480,539],[539,119],[119,60]]","false","4","main_T2_Trial","s","img/Fire_Up_Target.gif","[""img/Fire_Down_Distractor.gif"",""img/Fire_Down_Distractor.gif"",""img/Fire_Down_Distractor.gif"",""img/Fire_Down_Distractor.gif"",""img/Fire_Down_Distractor.gif"",""img/Fire_Down_Distractor.gif"",""img/Fire_Down_Distractor.gif"",""img/Fire_Down_Distractor.gif"",""img/Fire_Down_Distractor.gif"",""img/Fire_Down_Distractor.gif"",""img/Fire_Down_Distractor.gif"",""img/Fire_Down_Distractor.gif""]","4","targetUp_distractorsDown"
"","","","","","html-keyboard-response","48","271539","0.0-14.0-0.0-0.17","5c5493207f5e0c000143e96e","619531dcf66c91622fa1b861","6195a599ba92f06d8051c2a1","null","","null","","","","","main_T1_ITI","","","","",""
"","","","","","visual-search-circle","49","273325","0.0-14.0-0.0-1.17","5c5493207f5e0c000143e96e","619531dcf66c91622fa1b861","6195a599ba92f06d8051c2a1","773.3999999985099","","s","true","[[87,512],[333,598],[554,459],[583,200],[399,16],[140,45],[1,266]]","false","7","main_T2_Trial","s","img/Fire_Up_Target.gif","[""img/Fire_Down_Distractor.gif"",""img/Fire_Down_Distractor.gif"",""img/Fire_Down_Distractor.gif"",""img/Fire_Down_Distractor.gif"",""img/Fire_Down_Distractor.gif"",""img/Fire_Down_Distractor.gif"",""img/Fire_Down_Distractor.gif"",""img/Fire_Down_Distractor.gif"",""img/Fire_Down_Distractor.gif"",""img/Fire_Down_Distractor.gif"",""img/Fire_Down_Distractor.gif"",""img/Fire_Down_Distractor.gif""]","7","targetUp_distractorsDown"
"","","","","","html-keyboard-response","50","273327","0.0-14.0-0.0-0.18","5c5493207f5e0c000143e96e","619531dcf66c91622fa1b861","6195a599ba92f06d8051c2a1","null","","null","","","","","main_T1_ITI","","","","",""
"","","","","","visual-search-circle","51","275230","0.0-14.0-0.0-1.18","5c5493207f5e0c000143e96e","619531dcf66c91622fa1b861","6195a599ba92f06d8051c2a1","885.8999999985099","","s","true","[[551,136],[362,6],[136,48],[6,237],[48,463],[237,593],[463,551],[593,362]]","false","8","main_T2_Trial","s","img/Fire_Up_Target.gif","[""img/Fire_Down_Distractor.gif"",""img/Fire_Down_Distractor.gif"",""img/Fire_Down_Distractor.gif"",""img/Fire_Down_Distractor.gif"",""img/Fire_Down_Distractor.gif"",""img/Fire_Down_Distractor.gif"",""img/Fire_Down_Distractor.gif"",""img/Fire_Down_Distractor.gif"",""img/Fire_Down_Distractor.gif"",""img/Fire_Down_Distractor.gif"",""img/Fire_Down_Distractor.gif"",""img/Fire_Down_Distractor.gif""]","8","targetUp_distractorsDown"
"","","","","","html-keyboard-response","52","429104","0.0-14.0-0.0-0.19","5c5493207f5e0c000143e96e","619531dcf66c91622fa1b861","6195a599ba92f06d8051c2a1","153874","Wow! You've completed 20 out of 160 trials! </p> <p>  </p><p> Take a quick break, then press any key when you're ready to continue."," ","","","","","main_T1_ITI","","","","",""
"","","","","","visual-search-circle","53","431085","0.0-14.0-0.0-1.19","5c5493207f5e0c000143e96e","619531dcf66c91622fa1b861","6195a599ba92f06d8051c2a1","966.9000000059605","","d","true","[[159,35],[4,352],[258,597],[569,431],[508,84]]","true","5","main_T2_Trial","d","img/Fire_Up_Target.gif","[""img/Fire_Down_Distractor.gif"",""img/Fire_Down_Distractor.gif"",""img/Fire_Down_Distractor.gif"",""img/Fire_Down_Distractor.gif"",""img/Fire_Down_Distractor.gif"",""img/Fire_Down_Distractor.gif"",""img/Fire_Down_Distractor.gif"",""img/Fire_Down_Distractor.gif"",""img/Fire_Down_Distractor.gif"",""img/Fire_Down_Distractor.gif"",""img/Fire_Down_Distractor.gif"",""img/Fire_Down_Distractor.gif""]","5","targetUp_distractorsDown"
"","","","","","html-keyboard-response","54","431088","0.0-14.0-0.0-0.20","5c5493207f5e0c000143e96e","619531dcf66c91622fa1b861","6195a599ba92f06d8051c2a1","null","","null","","","","","main_T1_ITI","","","","",""
"","","","","","visual-search-circle","55","432717","0.0-14.0-0.0-1.20","5c5493207f5e0c000143e96e","619531dcf66c91622fa1b861","6195a599ba92f06d8051c2a1","619.1000000014901","","s","true","[[163,32],[0,284],[136,551],[436,567],[599,315],[463,48]]","false","6","main_T2_Trial","s","img/Fire_Up_Target.gif","[""img/Fire_Down_Distractor.gif"",""img/Fire_Down_Distractor.gif"",""img/Fire_Down_Distractor.gif"",""img/Fire_Down_Distractor.gif"",""img/Fire_Down_Distractor.gif"",""img/Fire_Down_Distractor.gif"",""img/Fire_Down_Distractor.gif"",""img/Fire_Down_Distractor.gif"",""img/Fire_Down_Distractor.gif"",""img/Fire_Down_Distractor.gif"",""img/Fire_Down_Distractor.gif"",""img/Fire_Down_Distractor.gif""]","6","targetUp_distractorsDown"
"","","","","","html-keyboard-response","56","432721","0.0-14.0-0.0-0.21","5c5493207f5e0c000143e96e","619531dcf66c91622fa1b861","6195a599ba92f06d8051c2a1","null","","null","","","","","main_T1_ITI","","","","",""
"","","","","","visual-search-circle","57","434173","0.0-14.0-0.0-1.21","5c5493207f5e0c000143e96e","619531dcf66c91622fa1b861","6195a599ba92f06d8051c2a1","434","","s","false","[[242,594],[467,548],[594,357],[548,132],[357,5],[132,51],[5,242],[51,467]]","true","8","main_T2_Trial","d","img/Fire_Down_Target.gif","[""img/Fire_Up_Distractor.gif"",""img/Fire_Up_Distractor.gif"",""img/Fire_Up_Distractor.gif"",""img/Fire_Up_Distractor.gif"",""img/Fire_Up_Distractor.gif"",""img/Fire_Up_Distractor.gif"",""img/Fire_Up_Distractor.gif"",""img/Fire_Up_Distractor.gif"",""img/Fire_Up_Distractor.gif"",""img/Fire_Up_Distractor.gif"",""img/Fire_Up_Distractor.gif"",""img/Fire_Up_Distractor.gif""]","8","targetDown_distractorsUp"
"","","","","","html-keyboard-response","58","434178","0.0-14.0-0.0-0.22","5c5493207f5e0c000143e96e","619531dcf66c91622fa1b861","6195a599ba92f06d8051c2a1","null","","null","","","","","main_T1_ITI","","","","",""
"","","","","","visual-search-circle","59","435726","0.0-14.0-0.0-1.22","5c5493207f5e0c000143e96e","619531dcf66c91622fa1b861","6195a599ba92f06d8051c2a1","535.3000000044703","","s","true","[[522,99],[177,25],[1,331],[237,593],[559,450]]","false","5","main_T2_Trial","s","img/Fire_Up_Target.gif","[""img/Fire_Down_Distractor.gif"",""img/Fire_Down_Distractor.gif"",""img/Fire_Down_Distractor.gif"",""img/Fire_Down_Distractor.gif"",""img/Fire_Down_Distractor.gif"",""img/Fire_Down_Distractor.gif"",""img/Fire_Down_Distractor.gif"",""img/Fire_Down_Distractor.gif"",""img/Fire_Down_Distractor.gif"",""img/Fire_Down_Distractor.gif"",""img/Fire_Down_Distractor.gif"",""img/Fire_Down_Distractor.gif""]","5","targetUp_distractorsDown"
"","","","","","html-keyboard-response","60","435729","0.0-14.0-0.0-0.23","5c5493207f5e0c000143e96e","619531dcf66c91622fa1b861","6195a599ba92f06d8051c2a1","null","","null","","","","","main_T1_ITI","","","","",""
"","","","","","visual-search-circle","61","438029","0.0-14.0-0.0-1.23","5c5493207f5e0c000143e96e","619531dcf66c91622fa1b861","6195a599ba92f06d8051c2a1","1292.8999999985099","","d","true","[[592,367],[454,42],[103,73],[23,417],[326,598]]","true","5","main_T2_Trial","d","img/Fire_Up_Target.gif","[""img/Fire_Down_Distractor.gif"",""img/Fire_Down_Distractor.gif"",""img/Fire_Down_Distractor.gif"",""img/Fire_Down_Distractor.gif"",""img/Fire_Down_Distractor.gif"",""img/Fire_Down_Distractor.gif"",""img/Fire_Down_Distractor.gif"",""img/Fire_Down_Distractor.gif"",""img/Fire_Down_Distractor.gif"",""img/Fire_Down_Distractor.gif"",""img/Fire_Down_Distractor.gif"",""img/Fire_Down_Distractor.gif""]","5","targetUp_distractorsDown"
"","","","","","html-keyboard-response","62","438030","0.0-14.0-0.0-0.24","5c5493207f5e0c000143e96e","619531dcf66c91622fa1b861","6195a599ba92f06d8051c2a1","null","","null","","","","","main_T1_ITI","","","","",""
"","","","","","visual-search-circle","63","439839","0.0-14.0-0.0-1.24","5c5493207f5e0c000143e96e","619531dcf66c91622fa1b861","6195a599ba92f06d8051c2a1","798.1000000014901","","s","true","[[336,597],[555,457],[582,198],[396,15],[137,47],[1,269],[89,514]]","false","7","main_T2_Trial","s","img/Fire_Down_Target.gif","[""img/Fire_Up_Distractor.gif"",""img/Fire_Up_Distractor.gif"",""img/Fire_Up_Distractor.gif"",""img/Fire_Up_Distractor.gif"",""img/Fire_Up_Distractor.gif"",""img/Fire_Up_Distractor.gif"",""img/Fire_Up_Distractor.gif"",""img/Fire_Up_Distractor.gif"",""img/Fire_Up_Distractor.gif"",""img/Fire_Up_Distractor.gif"",""img/Fire_Up_Distractor.gif"",""img/Fire_Up_Distractor.gif""]","7","targetDown_distractorsUp"
"","","","","","html-keyboard-response","64","439840","0.0-14.0-0.0-0.25","5c5493207f5e0c000143e96e","619531dcf66c91622fa1b861","6195a599ba92f06d8051c2a1","null","","null","","","","","main_T1_ITI","","","","",""
"","","","","","visual-search-circle","65","441981","0.0-14.0-0.0-1.25","5c5493207f5e0c000143e96e","619531dcf66c91622fa1b861","6195a599ba92f06d8051c2a1","1130.4000000059605","","d","true","[[467,51],[115,63],[18,402],[310,599],[588,382]]","true","5","main_T2_Trial","d","img/Fire_Down_Target.gif","[""img/Fire_Up_Distractor.gif"",""img/Fire_Up_Distractor.gif"",""img/Fire_Up_Distractor.gif"",""img/Fire_Up_Distractor.gif"",""img/Fire_Up_Distractor.gif"",""img/Fire_Up_Distractor.gif"",""img/Fire_Up_Distractor.gif"",""img/Fire_Up_Distractor.gif"",""img/Fire_Up_Distractor.gif"",""img/Fire_Up_Distractor.gif"",""img/Fire_Up_Distractor.gif"",""img/Fire_Up_Distractor.gif""]","5","targetDown_distractorsUp"
"","","","","","html-keyboard-response","66","441983","0.0-14.0-0.0-0.26","5c5493207f5e0c000143e96e","619531dcf66c91622fa1b861","6195a599ba92f06d8051c2a1","null","","null","","","","","main_T1_ITI","","","","",""
"","","","","","visual-search-circle","67","443629","0.0-14.0-0.0-1.26","5c5493207f5e0c000143e96e","619531dcf66c91622fa1b861","6195a599ba92f06d8051c2a1","639.3999999985099","","s","true","[[585,207],[207,14],[14,392],[392,585]]","false","4","main_T2_Trial","s","img/Fire_Down_Target.gif","[""img/Fire_Up_Distractor.gif"",""img/Fire_Up_Distractor.gif"",""img/Fire_Up_Distractor.gif"",""img/Fire_Up_Distractor.gif"",""img/Fire_Up_Distractor.gif"",""img/Fire_Up_Distractor.gif"",""img/Fire_Up_Distractor.gif"",""img/Fire_Up_Distractor.gif"",""img/Fire_Up_Distractor.gif"",""img/Fire_Up_Distractor.gif"",""img/Fire_Up_Distractor.gif"",""img/Fire_Up_Distractor.gif""]","4","targetDown_distractorsUp"
"","","","","","html-keyboard-response","68","443631","0.0-14.0-0.0-0.27","5c5493207f5e0c000143e96e","619531dcf66c91622fa1b861","6195a599ba92f06d8051c2a1","null","","null","","","","","main_T1_ITI","","","","",""
"","","","","","visual-search-circle","69","445101","0.0-14.0-0.0-1.27","5c5493207f5e0c000143e96e","619531dcf66c91622fa1b861","6195a599ba92f06d8051c2a1","456.8999999985099","","s","true","[[273,1],[50,134],[14,391],[193,580],[453,557],[597,341],[517,93]]","false","7","main_T2_Trial","s","img/Fire_Down_Target.gif","[""img/Fire_Up_Distractor.gif"",""img/Fire_Up_Distractor.gif"",""img/Fire_Up_Distractor.gif"",""img/Fire_Up_Distractor.gif"",""img/Fire_Up_Distractor.gif"",""img/Fire_Up_Distractor.gif"",""img/Fire_Up_Distractor.gif"",""img/Fire_Up_Distractor.gif"",""img/Fire_Up_Distractor.gif"",""img/Fire_Up_Distractor.gif"",""img/Fire_Up_Distractor.gif"",""img/Fire_Up_Distractor.gif""]","7","targetDown_distractorsUp"
"","","","","","html-keyboard-response","70","445103","0.0-14.0-0.0-0.28","5c5493207f5e0c000143e96e","619531dcf66c91622fa1b861","6195a599ba92f06d8051c2a1","null","","null","","","","","main_T1_ITI","","","","",""
"","","","","","visual-search-circle","71","446926","0.0-14.0-0.0-1.28","5c5493207f5e0c000143e96e","619531dcf66c91622fa1b861","6195a599ba92f06d8051c2a1","812.6999999955297","","s","true","[[454,42],[42,145],[145,557],[557,454]]","false","4","main_T2_Trial","s","img/Fire_Down_Target.gif","[""img/Fire_Up_Distractor.gif"",""img/Fire_Up_Distractor.gif"",""img/Fire_Up_Distractor.gif"",""img/Fire_Up_Distractor.gif"",""img/Fire_Up_Distractor.gif"",""img/Fire_Up_Distractor.gif"",""img/Fire_Up_Distractor.gif"",""img/Fire_Up_Distractor.gif"",""img/Fire_Up_Distractor.gif"",""img/Fire_Up_Distractor.gif"",""img/Fire_Up_Distractor.gif"",""img/Fire_Up_Distractor.gif""]","4","targetDown_distractorsUp"
"","","","","","html-keyboard-response","72","446928","0.0-14.0-0.0-0.29","5c5493207f5e0c000143e96e","619531dcf66c91622fa1b861","6195a599ba92f06d8051c2a1","null","","null","","","","","main_T1_ITI","","","","",""
"","","","","","visual-search-circle","73","448510","0.0-14.0-0.0-1.29","5c5493207f5e0c000143e96e","619531dcf66c91622fa1b861","6195a599ba92f06d8051c2a1","570.1000000014901","","s","false","[[91,84],[0,294],[84,508],[294,599],[508,515],[599,305],[515,91],[305,0]]","true","8","main_T2_Trial","d","img/Fire_Up_Target.gif","[""img/Fire_Down_Distractor.gif"",""img/Fire_Down_Distractor.gif"",""img/Fire_Down_Distractor.gif"",""img/Fire_Down_Distractor.gif"",""img/Fire_Down_Distractor.gif"",""img/Fire_Down_Distractor.gif"",""img/Fire_Down_Distractor.gif"",""img/Fire_Down_Distractor.gif"",""img/Fire_Down_Distractor.gif"",""img/Fire_Down_Distractor.gif"",""img/Fire_Down_Distractor.gif"",""img/Fire_Down_Distractor.gif""]","8","targetUp_distractorsDown"
"","","","","","html-keyboard-response","74","448519","0.0-14.0-0.0-0.30","5c5493207f5e0c000143e96e","619531dcf66c91622fa1b861","6195a599ba92f06d8051c2a1","null","","null","","","","","main_T1_ITI","","","","",""
"","","","","","visual-search-circle","75","450558","0.0-14.0-0.0-1.30","5c5493207f5e0c000143e96e","619531dcf66c91622fa1b861","6195a599ba92f06d8051c2a1","1021.5","","d","true","[[37,445],[217,588],[445,562],[588,382],[562,154],[382,11],[154,37],[11,217]]","true","8","main_T2_Trial","d","img/Fire_Down_Target.gif","[""img/Fire_Up_Distractor.gif"",""img/Fire_Up_Distractor.gif"",""img/Fire_Up_Distractor.gif"",""img/Fire_Up_Distractor.gif"",""img/Fire_Up_Distractor.gif"",""img/Fire_Up_Distractor.gif"",""img/Fire_Up_Distractor.gif"",""img/Fire_Up_Distractor.gif"",""img/Fire_Up_Distractor.gif"",""img/Fire_Up_Distractor.gif"",""img/Fire_Up_Distractor.gif"",""img/Fire_Up_Distractor.gif""]","8","targetDown_distractorsUp"
"","","","","","html-keyboard-response","76","450560","0.0-14.0-0.0-0.31","5c5493207f5e0c000143e96e","619531dcf66c91622fa1b861","6195a599ba92f06d8051c2a1","null","","null","","","","","main_T1_ITI","","","","",""
"","","","","","visual-search-circle","77","452285","0.0-14.0-0.0-1.31","5c5493207f5e0c000143e96e","619531dcf66c91622fa1b861","6195a599ba92f06d8051c2a1","718.3999999985099","","s","true","[[310,599],[599,289],[289,0],[0,310]]","false","4","main_T2_Trial","s","img/Fire_Down_Target.gif","[""img/Fire_Up_Distractor.gif"",""img/Fire_Up_Distractor.gif"",""img/Fire_Up_Distractor.gif"",""img/Fire_Up_Distractor.gif"",""img/Fire_Up_Distractor.gif"",""img/Fire_Up_Distractor.gif"",""img/Fire_Up_Distractor.gif"",""img/Fire_Up_Distractor.gif"",""img/Fire_Up_Distractor.gif"",""img/Fire_Up_Distractor.gif"",""img/Fire_Up_Distractor.gif"",""img/Fire_Up_Distractor.gif""]","4","targetDown_distractorsUp"
"","","","","","html-keyboard-response","78","452286","0.0-14.0-0.0-0.32","5c5493207f5e0c000143e96e","619531dcf66c91622fa1b861","6195a599ba92f06d8051c2a1","null","","null","","","","","main_T1_ITI","","","","",""
"","","","","","visual-search-circle","79","454141","0.0-14.0-0.0-1.32","5c5493207f5e0c000143e96e","619531dcf66c91622fa1b861","6195a599ba92f06d8051c2a1","851","","d","true","[[23,182],[103,526],[454,557],[592,232],[326,1]]","true","5","main_T2_Trial","d","img/Fire_Up_Target.gif","[""img/Fire_Down_Distractor.gif"",""img/Fire_Down_Distractor.gif"",""img/Fire_Down_Distractor.gif"",""img/Fire_Down_Distractor.gif"",""img/Fire_Down_Distractor.gif"",""img/Fire_Down_Distractor.gif"",""img/Fire_Down_Distractor.gif"",""img/Fire_Down_Distractor.gif"",""img/Fire_Down_Distractor.gif"",""img/Fire_Down_Distractor.gif"",""img/Fire_Down_Distractor.gif"",""img/Fire_Down_Distractor.gif""]","5","targetUp_distractorsDown"
"","","","","","html-keyboard-response","80","454149","0.0-14.0-0.0-0.33","5c5493207f5e0c000143e96e","619531dcf66c91622fa1b861","6195a599ba92f06d8051c2a1","null","","null","","","","","main_T1_ITI","","","","",""
"","","","","","visual-search-circle","81","455869","0.0-14.0-0.0-1.33","5c5493207f5e0c000143e96e","619531dcf66c91622fa1b861","6195a599ba92f06d8051c2a1","712.7000000029802","","s","false","[[450,559],[589,377],[559,150],[377,10],[150,40],[10,222],[40,449],[222,589]]","true","8","main_T2_Trial","d","img/Fire_Down_Target.gif","[""img/Fire_Up_Distractor.gif"",""img/Fire_Up_Distractor.gif"",""img/Fire_Up_Distractor.gif"",""img/Fire_Up_Distractor.gif"",""img/Fire_Up_Distractor.gif"",""img/Fire_Up_Distractor.gif"",""img/Fire_Up_Distractor.gif"",""img/Fire_Up_Distractor.gif"",""img/Fire_Up_Distractor.gif"",""img/Fire_Up_Distractor.gif"",""img/Fire_Up_Distractor.gif"",""img/Fire_Up_Distractor.gif""]","8","targetDown_distractorsUp"
"","","","","","html-keyboard-response","82","455871","0.0-14.0-0.0-0.34","5c5493207f5e0c000143e96e","619531dcf66c91622fa1b861","6195a599ba92f06d8051c2a1","null","","null","","","","","main_T1_ITI","","","","",""
"","","","","","visual-search-circle","83","457453","0.0-14.0-0.0-1.34","5c5493207f5e0c000143e96e","619531dcf66c91622fa1b861","6195a599ba92f06d8051c2a1","577","","s","false","[[7,367],[273,598],[576,417],[496,73],[145,42]]","true","5","main_T2_Trial","d","img/Fire_Up_Target.gif","[""img/Fire_Down_Distractor.gif"",""img/Fire_Down_Distractor.gif"",""img/Fire_Down_Distractor.gif"",""img/Fire_Down_Distractor.gif"",""img/Fire_Down_Distractor.gif"",""img/Fire_Down_Distractor.gif"",""img/Fire_Down_Distractor.gif"",""img/Fire_Down_Distractor.gif"",""img/Fire_Down_Distractor.gif"",""img/Fire_Down_Distractor.gif"",""img/Fire_Down_Distractor.gif"",""img/Fire_Down_Distractor.gif""]","5","targetUp_distractorsDown"
"","","","","","html-keyboard-response","84","457455","0.0-14.0-0.0-0.35","5c5493207f5e0c000143e96e","619531dcf66c91622fa1b861","6195a599ba92f06d8051c2a1","null","","null","","","","","main_T1_ITI","","","","",""
"","","","","","visual-search-circle","85","459069","0.0-14.0-0.0-1.35","5c5493207f5e0c000143e96e","619531dcf66c91622fa1b861","6195a599ba92f06d8051c2a1","606.2000000029802","","s","true","[[569,431],[431,30],[30,168],[168,569]]","false","4","main_T2_Trial","s","img/Fire_Up_Target.gif","[""img/Fire_Down_Distractor.gif"",""img/Fire_Down_Distractor.gif"",""img/Fire_Down_Distractor.gif"",""img/Fire_Down_Distractor.gif"",""img/Fire_Down_Distractor.gif"",""img/Fire_Down_Distractor.gif"",""img/Fire_Down_Distractor.gif"",""img/Fire_Down_Distractor.gif"",""img/Fire_Down_Distractor.gif"",""img/Fire_Down_Distractor.gif"",""img/Fire_Down_Distractor.gif"",""img/Fire_Down_Distractor.gif""]","4","targetUp_distractorsDown"
"","","","","","html-keyboard-response","86","459071","0.0-14.0-0.0-0.36","5c5493207f5e0c000143e96e","619531dcf66c91622fa1b861","6195a599ba92f06d8051c2a1","null","","null","","","","","main_T1_ITI","","","","",""
"","","","","","visual-search-circle","87","461341","0.0-14.0-0.0-1.36","5c5493207f5e0c000143e96e","619531dcf66c91622fa1b861","6195a599ba92f06d8051c2a1","1263.8999999985099","","s","false","[[529,107],[292,0],[60,118],[9,374],[176,573],[436,566],[594,359]]","true","7","main_T2_Trial","d","img/Fire_Down_Target.gif","[""img/Fire_Up_Distractor.gif"",""img/Fire_Up_Distractor.gif"",""img/Fire_Up_Distractor.gif"",""img/Fire_Up_Distractor.gif"",""img/Fire_Up_Distractor.gif"",""img/Fire_Up_Distractor.gif"",""img/Fire_Up_Distractor.gif"",""img/Fire_Up_Distractor.gif"",""img/Fire_Up_Distractor.gif"",""img/Fire_Up_Distractor.gif"",""img/Fire_Up_Distractor.gif"",""img/Fire_Up_Distractor.gif""]","7","targetDown_distractorsUp"
"","","","","","html-keyboard-response","88","461343","0.0-14.0-0.0-0.37","5c5493207f5e0c000143e96e","619531dcf66c91622fa1b861","6195a599ba92f06d8051c2a1","null","","null","","","","","main_T1_ITI","","","","",""
"","","","","","visual-search-circle","89","463277","0.0-14.0-0.0-1.37","5c5493207f5e0c000143e96e","619531dcf66c91622fa1b861","6195a599ba92f06d8051c2a1","927.5","","d","true","[[508,515],[515,91],[91,84],[84,508]]","true","4","main_T2_Trial","d","img/Fire_Down_Target.gif","[""img/Fire_Up_Distractor.gif"",""img/Fire_Up_Distractor.gif"",""img/Fire_Up_Distractor.gif"",""img/Fire_Up_Distractor.gif"",""img/Fire_Up_Distractor.gif"",""img/Fire_Up_Distractor.gif"",""img/Fire_Up_Distractor.gif"",""img/Fire_Up_Distractor.gif"",""img/Fire_Up_Distractor.gif"",""img/Fire_Up_Distractor.gif"",""img/Fire_Up_Distractor.gif"",""img/Fire_Up_Distractor.gif""]","4","targetDown_distractorsUp"
"","","","","","html-keyboard-response","90","463279","0.0-14.0-0.0-0.38","5c5493207f5e0c000143e96e","619531dcf66c91622fa1b861","6195a599ba92f06d8051c2a1","null","","null","","","","","main_T1_ITI","","","","",""
"","","","","","visual-search-circle","91","466013","0.0-14.0-0.0-1.38","5c5493207f5e0c000143e96e","619531dcf66c91622fa1b861","6195a599ba92f06d8051c2a1","1725.3000000044703","","d","true","[[599,315],[315,0],[0,284],[284,599]]","true","4","main_T2_Trial","d","img/Fire_Down_Target.gif","[""img/Fire_Up_Distractor.gif"",""img/Fire_Up_Distractor.gif"",""img/Fire_Up_Distractor.gif"",""img/Fire_Up_Distractor.gif"",""img/Fire_Up_Distractor.gif"",""img/Fire_Up_Distractor.gif"",""img/Fire_Up_Distractor.gif"",""img/Fire_Up_Distractor.gif"",""img/Fire_Up_Distractor.gif"",""img/Fire_Up_Distractor.gif"",""img/Fire_Up_Distractor.gif"",""img/Fire_Up_Distractor.gif""]","4","targetDown_distractorsUp"
"","","","","","html-keyboard-response","92","468093","0.0-14.0-0.0-0.39","5c5493207f5e0c000143e96e","619531dcf66c91622fa1b861","6195a599ba92f06d8051c2a1","2079.60000000149","Wow! You've completed 40 out of 160 trials! </p> <p>  </p><p> Take a quick break, then press any key when you're ready to continue."," ","","","","","main_T1_ITI","","","","",""
"","","","","","visual-search-circle","93","470029","0.0-14.0-0.0-1.39","5c5493207f5e0c000143e96e","619531dcf66c91622fa1b861","6195a599ba92f06d8051c2a1","926.1999999955297","","d","true","[[536,115],[336,2],[115,63],[2,263],[63,484],[263,597],[484,536],[597,336]]","true","8","main_T2_Trial","d","img/Fire_Down_Target.gif","[""img/Fire_Up_Distractor.gif"",""img/Fire_Up_Distractor.gif"",""img/Fire_Up_Distractor.gif"",""img/Fire_Up_Distractor.gif"",""img/Fire_Up_Distractor.gif"",""img/Fire_Up_Distractor.gif"",""img/Fire_Up_Distractor.gif"",""img/Fire_Up_Distractor.gif"",""img/Fire_Up_Distractor.gif"",""img/Fire_Up_Distractor.gif"",""img/Fire_Up_Distractor.gif"",""img/Fire_Up_Distractor.gif""]","8","targetDown_distractorsUp"
"","","","","","html-keyboard-response","94","470031","0.0-14.0-0.0-0.40","5c5493207f5e0c000143e96e","619531dcf66c91622fa1b861","6195a599ba92f06d8051c2a1","null","","null","","","","","main_T1_ITI","","","","",""
"","","","","","visual-search-circle","95","472014","0.0-14.0-0.0-1.40","5c5493207f5e0c000143e96e","619531dcf66c91622fa1b861","6195a599ba92f06d8051c2a1","971.2999999970198","","s","true","[[28,426],[197,581],[426,571],[581,402],[571,173],[402,18],[173,28],[18,197]]","false","8","main_T2_Trial","s","img/Fire_Up_Target.gif","[""img/Fire_Down_Distractor.gif"",""img/Fire_Down_Distractor.gif"",""img/Fire_Down_Distractor.gif"",""img/Fire_Down_Distractor.gif"",""img/Fire_Down_Distractor.gif"",""img/Fire_Down_Distractor.gif"",""img/Fire_Down_Distractor.gif"",""img/Fire_Down_Distractor.gif"",""img/Fire_Down_Distractor.gif"",""img/Fire_Down_Distractor.gif"",""img/Fire_Down_Distractor.gif"",""img/Fire_Down_Distractor.gif""]","8","targetUp_distractorsDown"
"","","","","","html-keyboard-response","96","472015","0.0-14.0-0.0-0.41","5c5493207f5e0c000143e96e","619531dcf66c91622fa1b861","6195a599ba92f06d8051c2a1","null","","null","","","","","main_T1_ITI","","","","",""
"","","","","","visual-search-circle","97","473885","0.0-14.0-0.0-1.41","5c5493207f5e0c000143e96e","619531dcf66c91622fa1b861","6195a599ba92f06d8051c2a1","852.5","","s","false","[[66,488],[268,598],[488,533],[598,331],[533,111],[331,1],[111,66],[1,268]]","true","8","main_T2_Trial","d","img/Fire_Down_Target.gif","[""img/Fire_Up_Distractor.gif"",""img/Fire_Up_Distractor.gif"",""img/Fire_Up_Distractor.gif"",""img/Fire_Up_Distractor.gif"",""img/Fire_Up_Distractor.gif"",""img/Fire_Up_Distractor.gif"",""img/Fire_Up_Distractor.gif"",""img/Fire_Up_Distractor.gif"",""img/Fire_Up_Distractor.gif"",""img/Fire_Up_Distractor.gif"",""img/Fire_Up_Distractor.gif"",""img/Fire_Up_Distractor.gif""]","8","targetDown_distractorsUp"
"","","","","","html-keyboard-response","98","473886","0.0-14.0-0.0-0.42","5c5493207f5e0c000143e96e","619531dcf66c91622fa1b861","6195a599ba92f06d8051c2a1","null","","null","","","","","main_T1_ITI","","","","",""
"","","","","","visual-search-circle","99","475837","0.0-14.0-0.0-1.42","5c5493207f5e0c000143e96e","619531dcf66c91622fa1b861","6195a599ba92f06d8051c2a1","942.5","","d","true","[[599,320],[502,79],[253,3],[39,151],[21,410],[213,587],[470,547]]","true","7","main_T2_Trial","d","img/Fire_Up_Target.gif","[""img/Fire_Down_Distractor.gif"",""img/Fire_Down_Distractor.gif"",""img/Fire_Down_Distractor.gif"",""img/Fire_Down_Distractor.gif"",""img/Fire_Down_Distractor.gif"",""img/Fire_Down_Distractor.gif"",""img/Fire_Down_Distractor.gif"",""img/Fire_Down_Distractor.gif"",""img/Fire_Down_Distractor.gif"",""img/Fire_Down_Distractor.gif"",""img/Fire_Down_Distractor.gif"",""img/Fire_Down_Distractor.gif""]","7","targetUp_distractorsDown"
"","","","","","html-keyboard-response","100","475839","0.0-14.0-0.0-0.43","5c5493207f5e0c000143e96e","619531dcf66c91622fa1b861","6195a599ba92f06d8051c2a1","null","","null","","","","","main_T1_ITI","","","","",""
"","","","","","visual-search-circle","101","477549","0.0-14.0-0.0-1.43","5c5493207f5e0c000143e96e","619531dcf66c91622fa1b861","6195a599ba92f06d8051c2a1","697.7999999970198","","s","false","[[422,574],[590,375],[540,120],[308,0],[71,106],[5,357],[161,566]]","true","7","main_T2_Trial","d","img/Fire_Up_Target.gif","[""img/Fire_Down_Distractor.gif"",""img/Fire_Down_Distractor.gif"",""img/Fire_Down_Distractor.gif"",""img/Fire_Down_Distractor.gif"",""img/Fire_Down_Distractor.gif"",""img/Fire_Down_Distractor.gif"",""img/Fire_Down_Distractor.gif"",""img/Fire_Down_Distractor.gif"",""img/Fire_Down_Distractor.gif"",""img/Fire_Down_Distractor.gif"",""img/Fire_Down_Distractor.gif"",""img/Fire_Down_Distractor.gif""]","7","targetUp_distractorsDown"
"","","","","","html-keyboard-response","102","477553","0.0-14.0-0.0-0.44","5c5493207f5e0c000143e96e","619531dcf66c91622fa1b861","6195a599ba92f06d8051c2a1","null","","null","","","","","main_T1_ITI","","","","",""
"","","","","","visual-search-circle","103","480287","0.0-14.0-0.0-1.44","5c5493207f5e0c000143e96e","619531dcf66c91622fa1b861","6195a599ba92f06d8051c2a1","1722.5","","d","true","[[463,48],[163,32],[0,284],[136,551],[436,567],[599,315]]","true","6","main_T2_Trial","d","img/Fire_Up_Target.gif","[""img/Fire_Down_Distractor.gif"",""img/Fire_Down_Distractor.gif"",""img/Fire_Down_Distractor.gif"",""img/Fire_Down_Distractor.gif"",""img/Fire_Down_Distractor.gif"",""img/Fire_Down_Distractor.gif"",""img/Fire_Down_Distractor.gif"",""img/Fire_Down_Distractor.gif"",""img/Fire_Down_Distractor.gif"",""img/Fire_Down_Distractor.gif"",""img/Fire_Down_Distractor.gif"",""img/Fire_Down_Distractor.gif""]","6","targetUp_distractorsDown"
"","","","","","html-keyboard-response","104","480290","0.0-14.0-0.0-0.45","5c5493207f5e0c000143e96e","619531dcf66c91622fa1b861","6195a599ba92f06d8051c2a1","null","","null","","","","","main_T1_ITI","","","","",""
"","","","","","visual-search-circle","105","482125","0.0-14.0-0.0-1.45","5c5493207f5e0c000143e96e","619531dcf66c91622fa1b861","6195a599ba92f06d8051c2a1","832","","s","false","[[45,458],[372,591],[599,320],[412,21],[70,107]]","true","5","main_T2_Trial","d","img/Fire_Up_Target.gif","[""img/Fire_Down_Distractor.gif"",""img/Fire_Down_Distractor.gif"",""img/Fire_Down_Distractor.gif"",""img/Fire_Down_Distractor.gif"",""img/Fire_Down_Distractor.gif"",""img/Fire_Down_Distractor.gif"",""img/Fire_Down_Distractor.gif"",""img/Fire_Down_Distractor.gif"",""img/Fire_Down_Distractor.gif"",""img/Fire_Down_Distractor.gif"",""img/Fire_Down_Distractor.gif"",""img/Fire_Down_Distractor.gif""]","5","targetUp_distractorsDown"
"","","","","","html-keyboard-response","106","482127","0.0-14.0-0.0-0.46","5c5493207f5e0c000143e96e","619531dcf66c91622fa1b861","6195a599ba92f06d8051c2a1","null","","null","","","","","main_T1_ITI","","","","",""
"","","","","","visual-search-circle","107","484013","0.0-14.0-0.0-1.46","5c5493207f5e0c000143e96e","619531dcf66c91622fa1b861","6195a599ba92f06d8051c2a1","874.5","","s","true","[[25,422],[224,590],[479,540],[599,308],[493,71],[242,5],[33,161]]","false","7","main_T2_Trial","s","img/Fire_Down_Target.gif","[""img/Fire_Up_Distractor.gif"",""img/Fire_Up_Distractor.gif"",""img/Fire_Up_Distractor.gif"",""img/Fire_Up_Distractor.gif"",""img/Fire_Up_Distractor.gif"",""img/Fire_Up_Distractor.gif"",""img/Fire_Up_Distractor.gif"",""img/Fire_Up_Distractor.gif"",""img/Fire_Up_Distractor.gif"",""img/Fire_Up_Distractor.gif"",""img/Fire_Up_Distractor.gif"",""img/Fire_Up_Distractor.gif""]","7","targetDown_distractorsUp"
"","","","","","html-keyboard-response","108","484015","0.0-14.0-0.0-0.47","5c5493207f5e0c000143e96e","619531dcf66c91622fa1b861","6195a599ba92f06d8051c2a1","null","","null","","","","","main_T1_ITI","","","","",""
"","","","","","visual-search-circle","109","485565","0.0-14.0-0.0-1.47","5c5493207f5e0c000143e96e","619531dcf66c91622fa1b861","6195a599ba92f06d8051c2a1","537","","s","true","[[40,450],[362,593],[598,331],[422,25],[77,99]]","false","5","main_T2_Trial","s","img/Fire_Down_Target.gif","[""img/Fire_Up_Distractor.gif"",""img/Fire_Up_Distractor.gif"",""img/Fire_Up_Distractor.gif"",""img/Fire_Up_Distractor.gif"",""img/Fire_Up_Distractor.gif"",""img/Fire_Up_Distractor.gif"",""img/Fire_Up_Distractor.gif"",""img/Fire_Up_Distractor.gif"",""img/Fire_Up_Distractor.gif"",""img/Fire_Up_Distractor.gif"",""img/Fire_Up_Distractor.gif"",""img/Fire_Up_Distractor.gif""]","5","targetDown_distractorsUp"
"","","","","","html-keyboard-response","110","485866","0.0-14.0-0.0-0.48","5c5493207f5e0c000143e96e","619531dcf66c91622fa1b861","6195a599ba92f06d8051c2a1","null","","null","","","","","main_T1_ITI","","","","",""
"","","","","","visual-search-circle","111","487599","0.0-14.0-0.0-1.48","5c5493207f5e0c000143e96e","619531dcf66c91622fa1b861","6195a599ba92f06d8051c2a1","719.1999999955297","","s","true","[[263,597],[510,514],[598,269],[462,47],[203,15],[17,198],[44,457]]","false","7","main_T2_Trial","s","img/Fire_Down_Target.gif","[""img/Fire_Up_Distractor.gif"",""img/Fire_Up_Distractor.gif"",""img/Fire_Up_Distractor.gif"",""img/Fire_Up_Distractor.gif"",""img/Fire_Up_Distractor.gif"",""img/Fire_Up_Distractor.gif"",""img/Fire_Up_Distractor.gif"",""img/Fire_Up_Distractor.gif"",""img/Fire_Up_Distractor.gif"",""img/Fire_Up_Distractor.gif"",""img/Fire_Up_Distractor.gif"",""img/Fire_Up_Distractor.gif""]","7","targetDown_distractorsUp"
"","","","","","html-keyboard-response","112","487607","0.0-14.0-0.0-0.49","5c5493207f5e0c000143e96e","619531dcf66c91622fa1b861","6195a599ba92f06d8051c2a1","null","","null","","","","","main_T1_ITI","","","","",""
"","","","","","visual-search-circle","113","489502","0.0-14.0-0.0-1.49","5c5493207f5e0c000143e96e","619531dcf66c91622fa1b861","6195a599ba92f06d8051c2a1","887.7000000029802","","d","true","[[591,227],[227,8],[8,372],[372,591]]","true","4","main_T2_Trial","d","img/Fire_Down_Target.gif","[""img/Fire_Up_Distractor.gif"",""img/Fire_Up_Distractor.gif"",""img/Fire_Up_Distractor.gif"",""img/Fire_Up_Distractor.gif"",""img/Fire_Up_Distractor.gif"",""img/Fire_Up_Distractor.gif"",""img/Fire_Up_Distractor.gif"",""img/Fire_Up_Distractor.gif"",""img/Fire_Up_Distractor.gif"",""img/Fire_Up_Distractor.gif"",""img/Fire_Up_Distractor.gif"",""img/Fire_Up_Distractor.gif""]","4","targetDown_distractorsUp"
"","","","","","html-keyboard-response","114","489504","0.0-14.0-0.0-0.50","5c5493207f5e0c000143e96e","619531dcf66c91622fa1b861","6195a599ba92f06d8051c2a1","null","","null","","","","","main_T1_ITI","","","","",""
"","","","","","visual-search-circle","115","491341","0.0-14.0-0.0-1.50","5c5493207f5e0c000143e96e","619531dcf66c91622fa1b861","6195a599ba92f06d8051c2a1","822.9000000059605","","d","false","[[422,574],[598,268],[362,6],[40,150],[77,500]]","false","5","main_T2_Trial","s","img/Fire_Down_Target.gif","[""img/Fire_Up_Distractor.gif"",""img/Fire_Up_Distractor.gif"",""img/Fire_Up_Distractor.gif"",""img/Fire_Up_Distractor.gif"",""img/Fire_Up_Distractor.gif"",""img/Fire_Up_Distractor.gif"",""img/Fire_Up_Distractor.gif"",""img/Fire_Up_Distractor.gif"",""img/Fire_Up_Distractor.gif"",""img/Fire_Up_Distractor.gif"",""img/Fire_Up_Distractor.gif"",""img/Fire_Up_Distractor.gif""]","5","targetDown_distractorsUp"
"","","","","","html-keyboard-response","116","491345","0.0-14.0-0.0-0.51","5c5493207f5e0c000143e96e","619531dcf66c91622fa1b861","6195a599ba92f06d8051c2a1","null","","null","","","","","main_T1_ITI","","","","",""
"","","","","","visual-search-circle","117","493502","0.0-14.0-0.0-1.51","5c5493207f5e0c000143e96e","619531dcf66c91622fa1b861","6195a599ba92f06d8051c2a1","1153.8000000044703","","s","true","[[192,580],[580,407],[407,19],[19,192]]","false","4","main_T2_Trial","s","img/Fire_Up_Target.gif","[""img/Fire_Down_Distractor.gif"",""img/Fire_Down_Distractor.gif"",""img/Fire_Down_Distractor.gif"",""img/Fire_Down_Distractor.gif"",""img/Fire_Down_Distractor.gif"",""img/Fire_Down_Distractor.gif"",""img/Fire_Down_Distractor.gif"",""img/Fire_Down_Distractor.gif"",""img/Fire_Down_Distractor.gif"",""img/Fire_Down_Distractor.gif"",""img/Fire_Down_Distractor.gif"",""img/Fire_Down_Distractor.gif""]","4","targetUp_distractorsDown"
"","","","","","html-keyboard-response","118","493504","0.0-14.0-0.0-0.52","5c5493207f5e0c000143e96e","619531dcf66c91622fa1b861","6195a599ba92f06d8051c2a1","null","","null","","","","","main_T1_ITI","","","","",""
"","","","","","visual-search-circle","119","495292","0.0-14.0-0.0-1.52","5c5493207f5e0c000143e96e","619531dcf66c91622fa1b861","6195a599ba92f06d8051c2a1","782.5","","s","true","[[13,212],[212,586],[586,387],[387,13]]","false","4","main_T2_Trial","s","img/Fire_Down_Target.gif","[""img/Fire_Up_Distractor.gif"",""img/Fire_Up_Distractor.gif"",""img/Fire_Up_Distractor.gif"",""img/Fire_Up_Distractor.gif"",""img/Fire_Up_Distractor.gif"",""img/Fire_Up_Distractor.gif"",""img/Fire_Up_Distractor.gif"",""img/Fire_Up_Distractor.gif"",""img/Fire_Up_Distractor.gif"",""img/Fire_Up_Distractor.gif"",""img/Fire_Up_Distractor.gif"",""img/Fire_Up_Distractor.gif""]","4","targetDown_distractorsUp"
"","","","","","html-keyboard-response","120","495294","0.0-14.0-0.0-0.53","5c5493207f5e0c000143e96e","619531dcf66c91622fa1b861","6195a599ba92f06d8051c2a1","null","","null","","","","","main_T1_ITI","","","","",""
"","","","","","visual-search-circle","121","497038","0.0-14.0-0.0-1.53","5c5493207f5e0c000143e96e","619531dcf66c91622fa1b861","6195a599ba92f06d8051c2a1","736.1999999955297","","s","true","[[445,562],[594,242],[336,2],[28,173],[95,519]]","false","5","main_T2_Trial","s","img/Fire_Up_Target.gif","[""img/Fire_Down_Distractor.gif"",""img/Fire_Down_Distractor.gif"",""img/Fire_Down_Distractor.gif"",""img/Fire_Down_Distractor.gif"",""img/Fire_Down_Distractor.gif"",""img/Fire_Down_Distractor.gif"",""img/Fire_Down_Distractor.gif"",""img/Fire_Down_Distractor.gif"",""img/Fire_Down_Distractor.gif"",""img/Fire_Down_Distractor.gif"",""img/Fire_Down_Distractor.gif"",""img/Fire_Down_Distractor.gif""]","5","targetUp_distractorsDown"
"","","","","","html-keyboard-response","122","497042","0.0-14.0-0.0-0.54","5c5493207f5e0c000143e96e","619531dcf66c91622fa1b861","6195a599ba92f06d8051c2a1","null","","null","","","","","main_T1_ITI","","","","",""
"","","","","","visual-search-circle","123","499725","0.0-14.0-0.0-1.54","5c5493207f5e0c000143e96e","619531dcf66c91622fa1b861","6195a599ba92f06d8051c2a1","1678.6000000014901","","s","true","[[95,519],[387,586],[592,367],[504,80],[212,13],[7,232]]","false","6","main_T2_Trial","s","img/Fire_Down_Target.gif","[""img/Fire_Up_Distractor.gif"",""img/Fire_Up_Distractor.gif"",""img/Fire_Up_Distractor.gif"",""img/Fire_Up_Distractor.gif"",""img/Fire_Up_Distractor.gif"",""img/Fire_Up_Distractor.gif"",""img/Fire_Up_Distractor.gif"",""img/Fire_Up_Distractor.gif"",""img/Fire_Up_Distractor.gif"",""img/Fire_Up_Distractor.gif"",""img/Fire_Up_Distractor.gif"",""img/Fire_Up_Distractor.gif""]","6","targetDown_distractorsUp"
"","","","","","html-keyboard-response","124","499727","0.0-14.0-0.0-0.55","5c5493207f5e0c000143e96e","619531dcf66c91622fa1b861","6195a599ba92f06d8051c2a1","null","","null","","","","","main_T1_ITI","","","","",""
"","","","","","visual-search-circle","125","501597","0.0-14.0-0.0-1.55","5c5493207f5e0c000143e96e","619531dcf66c91622fa1b861","6195a599ba92f06d8051c2a1","855.8999999985099","","s","true","[[598,268],[461,47],[203,16],[17,198],[44,457],[264,597],[510,513]]","false","7","main_T2_Trial","s","img/Fire_Down_Target.gif","[""img/Fire_Up_Distractor.gif"",""img/Fire_Up_Distractor.gif"",""img/Fire_Up_Distractor.gif"",""img/Fire_Up_Distractor.gif"",""img/Fire_Up_Distractor.gif"",""img/Fire_Up_Distractor.gif"",""img/Fire_Up_Distractor.gif"",""img/Fire_Up_Distractor.gif"",""img/Fire_Up_Distractor.gif"",""img/Fire_Up_Distractor.gif"",""img/Fire_Up_Distractor.gif"",""img/Fire_Up_Distractor.gif""]","7","targetDown_distractorsUp"
"","","","","","html-keyboard-response","126","501599","0.0-14.0-0.0-0.56","5c5493207f5e0c000143e96e","619531dcf66c91622fa1b861","6195a599ba92f06d8051c2a1","null","","null","","","","","main_T1_ITI","","","","",""
"","","","","","visual-search-circle","127","503501","0.0-14.0-0.0-1.56","5c5493207f5e0c000143e96e","619531dcf66c91622fa1b861","6195a599ba92f06d8051c2a1","884.8999999985099","","s","true","[[107,529],[529,492],[492,70],[70,107]]","false","4","main_T2_Trial","s","img/Fire_Down_Target.gif","[""img/Fire_Up_Distractor.gif"",""img/Fire_Up_Distractor.gif"",""img/Fire_Up_Distractor.gif"",""img/Fire_Up_Distractor.gif"",""img/Fire_Up_Distractor.gif"",""img/Fire_Up_Distractor.gif"",""img/Fire_Up_Distractor.gif"",""img/Fire_Up_Distractor.gif"",""img/Fire_Up_Distractor.gif"",""img/Fire_Up_Distractor.gif"",""img/Fire_Up_Distractor.gif"",""img/Fire_Up_Distractor.gif""]","4","targetDown_distractorsUp"
"","","","","","html-keyboard-response","128","503503","0.0-14.0-0.0-0.57","5c5493207f5e0c000143e96e","619531dcf66c91622fa1b861","6195a599ba92f06d8051c2a1","null","","null","","","","","main_T1_ITI","","","","",""
"","","","","","visual-search-circle","129","505422","0.0-14.0-0.0-1.57","5c5493207f5e0c000143e96e","619531dcf66c91622fa1b861","6195a599ba92f06d8051c2a1","912.3999999985099","","d","false","[[508,84],[159,35],[4,352],[258,597],[569,431]]","false","5","main_T2_Trial","s","img/Fire_Down_Target.gif","[""img/Fire_Up_Distractor.gif"",""img/Fire_Up_Distractor.gif"",""img/Fire_Up_Distractor.gif"",""img/Fire_Up_Distractor.gif"",""img/Fire_Up_Distractor.gif"",""img/Fire_Up_Distractor.gif"",""img/Fire_Up_Distractor.gif"",""img/Fire_Up_Distractor.gif"",""img/Fire_Up_Distractor.gif"",""img/Fire_Up_Distractor.gif"",""img/Fire_Up_Distractor.gif"",""img/Fire_Up_Distractor.gif""]","5","targetDown_distractorsUp"
"","","","","","html-keyboard-response","130","505423","0.0-14.0-0.0-0.58","5c5493207f5e0c000143e96e","619531dcf66c91622fa1b861","6195a599ba92f06d8051c2a1","null","","null","","","","","main_T1_ITI","","","","",""
"","","","","","visual-search-circle","131","509261","0.0-14.0-0.0-1.58","5c5493207f5e0c000143e96e","619531dcf66c91622fa1b861","6195a599ba92f06d8051c2a1","2829.89999999851","","d","true","[[284,0],[32,163],[48,463],[315,599],[567,436],[551,136]]","true","6","main_T2_Trial","d","img/Fire_Down_Target.gif","[""img/Fire_Up_Distractor.gif"",""img/Fire_Up_Distractor.gif"",""img/Fire_Up_Distractor.gif"",""img/Fire_Up_Distractor.gif"",""img/Fire_Up_Distractor.gif"",""img/Fire_Up_Distractor.gif"",""img/Fire_Up_Distractor.gif"",""img/Fire_Up_Distractor.gif"",""img/Fire_Up_Distractor.gif"",""img/Fire_Up_Distractor.gif"",""img/Fire_Up_Distractor.gif"",""img/Fire_Up_Distractor.gif""]","6","targetDown_distractorsUp"
"","","","","","html-keyboard-response","132","510574","0.0-14.0-0.0-0.59","5c5493207f5e0c000143e96e","619531dcf66c91622fa1b861","6195a599ba92f06d8051c2a1","1312.5","Wow! You've completed 60 out of 160 trials! </p> <p>  </p><p> Take a quick break, then press any key when you're ready to continue."," ","","","","","main_T1_ITI","","","","",""
"","","","","","visual-search-circle","133","512717","0.0-14.0-0.0-1.59","5c5493207f5e0c000143e96e","619531dcf66c91622fa1b861","6195a599ba92f06d8051c2a1","1131.0999999940395","","s","true","[[197,18],[28,173],[18,402],[173,571],[402,581],[571,426],[581,197],[426,28]]","false","8","main_T2_Trial","s","img/Fire_Up_Target.gif","[""img/Fire_Down_Distractor.gif"",""img/Fire_Down_Distractor.gif"",""img/Fire_Down_Distractor.gif"",""img/Fire_Down_Distractor.gif"",""img/Fire_Down_Distractor.gif"",""img/Fire_Down_Distractor.gif"",""img/Fire_Down_Distractor.gif"",""img/Fire_Down_Distractor.gif"",""img/Fire_Down_Distractor.gif"",""img/Fire_Down_Distractor.gif"",""img/Fire_Down_Distractor.gif"",""img/Fire_Down_Distractor.gif""]","8","targetUp_distractorsDown"
"","","","","","html-keyboard-response","134","512719","0.0-14.0-0.0-0.60","5c5493207f5e0c000143e96e","619531dcf66c91622fa1b861","6195a599ba92f06d8051c2a1","null","","null","","","","","main_T1_ITI","","","","",""
"","","","","","visual-search-circle","135","514766","0.0-14.0-0.0-1.60","5c5493207f5e0c000143e96e","619531dcf66c91622fa1b861","6195a599ba92f06d8051c2a1","1040.2000000029802","","s","true","[[70,107],[18,402],[247,595],[529,492],[581,197],[352,4]]","false","6","main_T2_Trial","s","img/Fire_Down_Target.gif","[""img/Fire_Up_Distractor.gif"",""img/Fire_Up_Distractor.gif"",""img/Fire_Up_Distractor.gif"",""img/Fire_Up_Distractor.gif"",""img/Fire_Up_Distractor.gif"",""img/Fire_Up_Distractor.gif"",""img/Fire_Up_Distractor.gif"",""img/Fire_Up_Distractor.gif"",""img/Fire_Up_Distractor.gif"",""img/Fire_Up_Distractor.gif"",""img/Fire_Up_Distractor.gif"",""img/Fire_Up_Distractor.gif""]","6","targetDown_distractorsUp"
"","","","","","html-keyboard-response","136","514768","0.0-14.0-0.0-0.61","5c5493207f5e0c000143e96e","619531dcf66c91622fa1b861","6195a599ba92f06d8051c2a1","null","","null","","","","","main_T1_ITI","","","","",""
"","","","","","visual-search-circle","137","516336","0.0-14.0-0.0-1.61","5c5493207f5e0c000143e96e","619531dcf66c91622fa1b861","6195a599ba92f06d8051c2a1","561.8999999985099","","s","true","[[299,600],[559,450],[559,150],[300,0],[40,150],[40,449]]","false","6","main_T2_Trial","s","img/Fire_Down_Target.gif","[""img/Fire_Up_Distractor.gif"",""img/Fire_Up_Distractor.gif"",""img/Fire_Up_Distractor.gif"",""img/Fire_Up_Distractor.gif"",""img/Fire_Up_Distractor.gif"",""img/Fire_Up_Distractor.gif"",""img/Fire_Up_Distractor.gif"",""img/Fire_Up_Distractor.gif"",""img/Fire_Up_Distractor.gif"",""img/Fire_Up_Distractor.gif"",""img/Fire_Up_Distractor.gif"",""img/Fire_Up_Distractor.gif""]","6","targetDown_distractorsUp"
"","","","","","html-keyboard-response","138","516338","0.0-14.0-0.0-0.62","5c5493207f5e0c000143e96e","619531dcf66c91622fa1b861","6195a599ba92f06d8051c2a1","null","","null","","","","","main_T1_ITI","","","","",""
"","","","","","visual-search-circle","139","518879","0.0-14.0-0.0-1.62","5c5493207f5e0c000143e96e","619531dcf66c91622fa1b861","6195a599ba92f06d8051c2a1","1528.3999999985099","","s","true","[[95,519],[387,586],[592,367],[504,80],[212,13],[7,232]]","false","6","main_T2_Trial","s","img/Fire_Down_Target.gif","[""img/Fire_Up_Distractor.gif"",""img/Fire_Up_Distractor.gif"",""img/Fire_Up_Distractor.gif"",""img/Fire_Up_Distractor.gif"",""img/Fire_Up_Distractor.gif"",""img/Fire_Up_Distractor.gif"",""img/Fire_Up_Distractor.gif"",""img/Fire_Up_Distractor.gif"",""img/Fire_Up_Distractor.gif"",""img/Fire_Up_Distractor.gif"",""img/Fire_Up_Distractor.gif"",""img/Fire_Up_Distractor.gif""]","6","targetDown_distractorsUp"
"","","","","","html-keyboard-response","140","518880","0.0-14.0-0.0-0.63","5c5493207f5e0c000143e96e","619531dcf66c91622fa1b861","6195a599ba92f06d8051c2a1","null","","null","","","","","main_T1_ITI","","","","",""
"","","","","","visual-search-circle","141","520701","0.0-14.0-0.0-1.63","5c5493207f5e0c000143e96e","619531dcf66c91622fa1b861","6195a599ba92f06d8051c2a1","818","","s","true","[[45,141],[141,554],[554,458],[458,45]]","false","4","main_T2_Trial","s","img/Fire_Down_Target.gif","[""img/Fire_Up_Distractor.gif"",""img/Fire_Up_Distractor.gif"",""img/Fire_Up_Distractor.gif"",""img/Fire_Up_Distractor.gif"",""img/Fire_Up_Distractor.gif"",""img/Fire_Up_Distractor.gif"",""img/Fire_Up_Distractor.gif"",""img/Fire_Up_Distractor.gif"",""img/Fire_Up_Distractor.gif"",""img/Fire_Up_Distractor.gif"",""img/Fire_Up_Distractor.gif"",""img/Fire_Up_Distractor.gif""]","4","targetDown_distractorsUp"
"","","","","","html-keyboard-response","142","520704","0.0-14.0-0.0-0.64","5c5493207f5e0c000143e96e","619531dcf66c91622fa1b861","6195a599ba92f06d8051c2a1","null","","null","","","","","main_T1_ITI","","","","",""
"","","","","","visual-search-circle","143","522429","0.0-14.0-0.0-1.64","5c5493207f5e0c000143e96e","619531dcf66c91622fa1b861","6195a599ba92f06d8051c2a1","712.4000000059605","","s","true","[[591,372],[557,145],[372,8],[145,42],[8,227],[42,454],[227,591],[454,557]]","false","8","main_T2_Trial","s","img/Fire_Up_Target.gif","[""img/Fire_Down_Distractor.gif"",""img/Fire_Down_Distractor.gif"",""img/Fire_Down_Distractor.gif"",""img/Fire_Down_Distractor.gif"",""img/Fire_Down_Distractor.gif"",""img/Fire_Down_Distractor.gif"",""img/Fire_Down_Distractor.gif"",""img/Fire_Down_Distractor.gif"",""img/Fire_Down_Distractor.gif"",""img/Fire_Down_Distractor.gif"",""img/Fire_Down_Distractor.gif"",""img/Fire_Down_Distractor.gif""]","8","targetUp_distractorsDown"
"","","","","","html-keyboard-response","144","522432","0.0-14.0-0.0-0.65","5c5493207f5e0c000143e96e","619531dcf66c91622fa1b861","6195a599ba92f06d8051c2a1","null","","null","","","","","main_T1_ITI","","","","",""
"","","","","","visual-search-circle","145","524255","0.0-14.0-0.0-1.65","5c5493207f5e0c000143e96e","619531dcf66c91622fa1b861","6195a599ba92f06d8051c2a1","818","","d","true","[[127,54],[0,281],[98,522],[348,596],[561,446],[577,186],[384,12]]","true","7","main_T2_Trial","d","img/Fire_Up_Target.gif","[""img/Fire_Down_Distractor.gif"",""img/Fire_Down_Distractor.gif"",""img/Fire_Down_Distractor.gif"",""img/Fire_Down_Distractor.gif"",""img/Fire_Down_Distractor.gif"",""img/Fire_Down_Distractor.gif"",""img/Fire_Down_Distractor.gif"",""img/Fire_Down_Distractor.gif"",""img/Fire_Down_Distractor.gif"",""img/Fire_Down_Distractor.gif"",""img/Fire_Down_Distractor.gif"",""img/Fire_Down_Distractor.gif""]","7","targetUp_distractorsDown"
"","","","","","html-keyboard-response","146","524258","0.0-14.0-0.0-0.66","5c5493207f5e0c000143e96e","619531dcf66c91622fa1b861","6195a599ba92f06d8051c2a1","null","","null","","","","","main_T1_ITI","","","","",""
"","","","","","visual-search-circle","147","526029","0.0-14.0-0.0-1.66","5c5493207f5e0c000143e96e","619531dcf66c91622fa1b861","6195a599ba92f06d8051c2a1","755.2000000029802","","s","true","[[588,217],[217,11],[11,382],[382,588]]","false","4","main_T2_Trial","s","img/Fire_Down_Target.gif","[""img/Fire_Up_Distractor.gif"",""img/Fire_Up_Distractor.gif"",""img/Fire_Up_Distractor.gif"",""img/Fire_Up_Distractor.gif"",""img/Fire_Up_Distractor.gif"",""img/Fire_Up_Distractor.gif"",""img/Fire_Up_Distractor.gif"",""img/Fire_Up_Distractor.gif"",""img/Fire_Up_Distractor.gif"",""img/Fire_Up_Distractor.gif"",""img/Fire_Up_Distractor.gif"",""img/Fire_Up_Distractor.gif""]","4","targetDown_distractorsUp"
"","","","","","html-keyboard-response","148","526033","0.0-14.0-0.0-0.67","5c5493207f5e0c000143e96e","619531dcf66c91622fa1b861","6195a599ba92f06d8051c2a1","null","","null","","","","","main_T1_ITI","","","","",""
"","","","","","visual-search-circle","149","527678","0.0-14.0-0.0-1.67","5c5493207f5e0c000143e96e","619531dcf66c91622fa1b861","6195a599ba92f06d8051c2a1","638.8000000044703","","s","true","[[357,594],[583,397],[526,103],[242,5],[16,202],[73,496]]","false","6","main_T2_Trial","s","img/Fire_Up_Target.gif","[""img/Fire_Down_Distractor.gif"",""img/Fire_Down_Distractor.gif"",""img/Fire_Down_Distractor.gif"",""img/Fire_Down_Distractor.gif"",""img/Fire_Down_Distractor.gif"",""img/Fire_Down_Distractor.gif"",""img/Fire_Down_Distractor.gif"",""img/Fire_Down_Distractor.gif"",""img/Fire_Down_Distractor.gif"",""img/Fire_Down_Distractor.gif"",""img/Fire_Down_Distractor.gif"",""img/Fire_Down_Distractor.gif""]","6","targetUp_distractorsDown"
"","","","","","html-keyboard-response","150","527679","0.0-14.0-0.0-0.68","5c5493207f5e0c000143e96e","619531dcf66c91622fa1b861","6195a599ba92f06d8051c2a1","null","","null","","","","","main_T1_ITI","","","","",""
"","","","","","visual-search-circle","151","529358","0.0-14.0-0.0-1.68","5c5493207f5e0c000143e96e","619531dcf66c91622fa1b861","6195a599ba92f06d8051c2a1","674","","s","true","[[5,242],[103,526],[397,583],[594,357],[496,73],[202,16]]","false","6","main_T2_Trial","s","img/Fire_Up_Target.gif","[""img/Fire_Down_Distractor.gif"",""img/Fire_Down_Distractor.gif"",""img/Fire_Down_Distractor.gif"",""img/Fire_Down_Distractor.gif"",""img/Fire_Down_Distractor.gif"",""img/Fire_Down_Distractor.gif"",""img/Fire_Down_Distractor.gif"",""img/Fire_Down_Distractor.gif"",""img/Fire_Down_Distractor.gif"",""img/Fire_Down_Distractor.gif"",""img/Fire_Down_Distractor.gif"",""img/Fire_Down_Distractor.gif""]","6","targetUp_distractorsDown"
"","","","","","html-keyboard-response","152","529360","0.0-14.0-0.0-0.69","5c5493207f5e0c000143e96e","619531dcf66c91622fa1b861","6195a599ba92f06d8051c2a1","null","","null","","","","","main_T1_ITI","","","","",""
"","","","","","visual-search-circle","153","530877","0.0-14.0-0.0-1.69","5c5493207f5e0c000143e96e","619531dcf66c91622fa1b861","6195a599ba92f06d8051c2a1","505.19999999552965","","s","true","[[168,30],[7,234],[66,488],[301,599],[535,485],[592,231],[428,29]]","false","7","main_T2_Trial","s","img/Fire_Down_Target.gif","[""img/Fire_Up_Distractor.gif"",""img/Fire_Up_Distractor.gif"",""img/Fire_Up_Distractor.gif"",""img/Fire_Up_Distractor.gif"",""img/Fire_Up_Distractor.gif"",""img/Fire_Up_Distractor.gif"",""img/Fire_Up_Distractor.gif"",""img/Fire_Up_Distractor.gif"",""img/Fire_Up_Distractor.gif"",""img/Fire_Up_Distractor.gif"",""img/Fire_Up_Distractor.gif"",""img/Fire_Up_Distractor.gif""]","7","targetDown_distractorsUp"
"","","","","","html-keyboard-response","154","530879","0.0-14.0-0.0-0.70","5c5493207f5e0c000143e96e","619531dcf66c91622fa1b861","6195a599ba92f06d8051c2a1","null","","null","","","","","main_T1_ITI","","","","",""
"","","","","","visual-search-circle","155","532494","0.0-14.0-0.0-1.70","5c5493207f5e0c000143e96e","619531dcf66c91622fa1b861","6195a599ba92f06d8051c2a1","603.1000000014901","","s","true","[[212,586],[469,547],[599,321],[503,79],[254,3],[39,150],[21,410]]","false","7","main_T2_Trial","s","img/Fire_Up_Target.gif","[""img/Fire_Down_Distractor.gif"",""img/Fire_Down_Distractor.gif"",""img/Fire_Down_Distractor.gif"",""img/Fire_Down_Distractor.gif"",""img/Fire_Down_Distractor.gif"",""img/Fire_Down_Distractor.gif"",""img/Fire_Down_Distractor.gif"",""img/Fire_Down_Distractor.gif"",""img/Fire_Down_Distractor.gif"",""img/Fire_Down_Distractor.gif"",""img/Fire_Down_Distractor.gif"",""img/Fire_Down_Distractor.gif""]","7","targetUp_distractorsDown"
"","","","","","html-keyboard-response","156","532497","0.0-14.0-0.0-0.71","5c5493207f5e0c000143e96e","619531dcf66c91622fa1b861","6195a599ba92f06d8051c2a1","null","","null","","","","","main_T1_ITI","","","","",""
"","","","","","visual-search-circle","157","534381","0.0-14.0-0.0-1.71","5c5493207f5e0c000143e96e","619531dcf66c91622fa1b861","6195a599ba92f06d8051c2a1","881","","d","true","[[476,542],[598,268],[422,25],[123,57],[1,331],[177,574]]","true","6","main_T2_Trial","d","img/Fire_Down_Target.gif","[""img/Fire_Up_Distractor.gif"",""img/Fire_Up_Distractor.gif"",""img/Fire_Up_Distractor.gif"",""img/Fire_Up_Distractor.gif"",""img/Fire_Up_Distractor.gif"",""img/Fire_Up_Distractor.gif"",""img/Fire_Up_Distractor.gif"",""img/Fire_Up_Distractor.gif"",""img/Fire_Up_Distractor.gif"",""img/Fire_Up_Distractor.gif"",""img/Fire_Up_Distractor.gif"",""img/Fire_Up_Distractor.gif""]","6","targetDown_distractorsUp"
"","","","","","html-keyboard-response","158","534385","0.0-14.0-0.0-0.72","5c5493207f5e0c000143e96e","619531dcf66c91622fa1b861","6195a599ba92f06d8051c2a1","null","","null","","","","","main_T1_ITI","","","","",""
"","","","","","visual-search-circle","159","536397","0.0-14.0-0.0-1.72","5c5493207f5e0c000143e96e","619531dcf66c91622fa1b861","6195a599ba92f06d8051c2a1","1006.8000000044703","","d","true","[[123,57],[14,392],[299,600],[585,392],[476,57]]","true","5","main_T2_Trial","d","img/Fire_Down_Target.gif","[""img/Fire_Up_Distractor.gif"",""img/Fire_Up_Distractor.gif"",""img/Fire_Up_Distractor.gif"",""img/Fire_Up_Distractor.gif"",""img/Fire_Up_Distractor.gif"",""img/Fire_Up_Distractor.gif"",""img/Fire_Up_Distractor.gif"",""img/Fire_Up_Distractor.gif"",""img/Fire_Up_Distractor.gif"",""img/Fire_Up_Distractor.gif"",""img/Fire_Up_Distractor.gif"",""img/Fire_Up_Distractor.gif""]","5","targetDown_distractorsUp"
"","","","","","html-keyboard-response","160","536403","0.0-14.0-0.0-0.73","5c5493207f5e0c000143e96e","619531dcf66c91622fa1b861","6195a599ba92f06d8051c2a1","null","","null","","","","","main_T1_ITI","","","","",""
"","","","","","visual-search-circle","161","538286","0.0-14.0-0.0-1.73","5c5493207f5e0c000143e96e","619531dcf66c91622fa1b861","6195a599ba92f06d8051c2a1","867.1000000014901","","d","true","[[51,467],[467,548],[548,132],[132,51]]","true","4","main_T2_Trial","d","img/Fire_Down_Target.gif","[""img/Fire_Up_Distractor.gif"",""img/Fire_Up_Distractor.gif"",""img/Fire_Up_Distractor.gif"",""img/Fire_Up_Distractor.gif"",""img/Fire_Up_Distractor.gif"",""img/Fire_Up_Distractor.gif"",""img/Fire_Up_Distractor.gif"",""img/Fire_Up_Distractor.gif"",""img/Fire_Up_Distractor.gif"",""img/Fire_Up_Distractor.gif"",""img/Fire_Up_Distractor.gif"",""img/Fire_Up_Distractor.gif""]","4","targetDown_distractorsUp"
"","","","","","html-keyboard-response","162","538291","0.0-14.0-0.0-0.74","5c5493207f5e0c000143e96e","619531dcf66c91622fa1b861","6195a599ba92f06d8051c2a1","null","","null","","","","","main_T1_ITI","","","","",""
"","","","","","visual-search-circle","163","540158","0.0-14.0-0.0-1.74","5c5493207f5e0c000143e96e","619531dcf66c91622fa1b861","6195a599ba92f06d8051c2a1","862.2999999970198","","s","true","[[450,559],[589,377],[559,150],[377,10],[150,40],[10,222],[40,449],[222,589]]","false","8","main_T2_Trial","s","img/Fire_Down_Target.gif","[""img/Fire_Up_Distractor.gif"",""img/Fire_Up_Distractor.gif"",""img/Fire_Up_Distractor.gif"",""img/Fire_Up_Distractor.gif"",""img/Fire_Up_Distractor.gif"",""img/Fire_Up_Distractor.gif"",""img/Fire_Up_Distractor.gif"",""img/Fire_Up_Distractor.gif"",""img/Fire_Up_Distractor.gif"",""img/Fire_Up_Distractor.gif"",""img/Fire_Up_Distractor.gif"",""img/Fire_Up_Distractor.gif""]","8","targetDown_distractorsUp"
"","","","","","html-keyboard-response","164","540160","0.0-14.0-0.0-0.75","5c5493207f5e0c000143e96e","619531dcf66c91622fa1b861","6195a599ba92f06d8051c2a1","null","","null","","","","","main_T1_ITI","","","","",""
"","","","","","visual-search-circle","165","541981","0.0-14.0-0.0-1.75","5c5493207f5e0c000143e96e","619531dcf66c91622fa1b861","6195a599ba92f06d8051c2a1","812.1000000014901","","s","false","[[0,284],[77,500],[284,599],[500,522],[599,315],[522,99],[315,0],[99,77]]","true","8","main_T2_Trial","d","img/Fire_Up_Target.gif","[""img/Fire_Down_Distractor.gif"",""img/Fire_Down_Distractor.gif"",""img/Fire_Down_Distractor.gif"",""img/Fire_Down_Distractor.gif"",""img/Fire_Down_Distractor.gif"",""img/Fire_Down_Distractor.gif"",""img/Fire_Down_Distractor.gif"",""img/Fire_Down_Distractor.gif"",""img/Fire_Down_Distractor.gif"",""img/Fire_Down_Distractor.gif"",""img/Fire_Down_Distractor.gif"",""img/Fire_Down_Distractor.gif""]","8","targetUp_distractorsDown"
"","","","","","html-keyboard-response","166","541989","0.0-14.0-0.0-0.76","5c5493207f5e0c000143e96e","619531dcf66c91622fa1b861","6195a599ba92f06d8051c2a1","null","","null","","","","","main_T1_ITI","","","","",""
"","","","","","visual-search-circle","167","543868","0.0-14.0-0.0-1.76","5c5493207f5e0c000143e96e","619531dcf66c91622fa1b861","6195a599ba92f06d8051c2a1","870.6000000014901","","d","true","[[28,173],[54,472],[326,598],[571,426],[545,127],[273,1]]","true","6","main_T2_Trial","d","img/Fire_Up_Target.gif","[""img/Fire_Down_Distractor.gif"",""img/Fire_Down_Distractor.gif"",""img/Fire_Down_Distractor.gif"",""img/Fire_Down_Distractor.gif"",""img/Fire_Down_Distractor.gif"",""img/Fire_Down_Distractor.gif"",""img/Fire_Down_Distractor.gif"",""img/Fire_Down_Distractor.gif"",""img/Fire_Down_Distractor.gif"",""img/Fire_Down_Distractor.gif"",""img/Fire_Down_Distractor.gif"",""img/Fire_Down_Distractor.gif""]","6","targetUp_distractorsDown"
"","","","","","html-keyboard-response","168","543870","0.0-14.0-0.0-0.77","5c5493207f5e0c000143e96e","619531dcf66c91622fa1b861","6195a599ba92f06d8051c2a1","null","","null","","","","","main_T1_ITI","","","","",""
"","","","","","visual-search-circle","169","546301","0.0-14.0-0.0-1.77","5c5493207f5e0c000143e96e","619531dcf66c91622fa1b861","6195a599ba92f06d8051c2a1","1413.6000000014901","","s","true","[[598,268],[422,25],[123,57],[1,331],[177,574],[476,542]]","false","6","main_T2_Trial","s","img/Fire_Down_Target.gif","[""img/Fire_Up_Distractor.gif"",""img/Fire_Up_Distractor.gif"",""img/Fire_Up_Distractor.gif"",""img/Fire_Up_Distractor.gif"",""img/Fire_Up_Distractor.gif"",""img/Fire_Up_Distractor.gif"",""img/Fire_Up_Distractor.gif"",""img/Fire_Up_Distractor.gif"",""img/Fire_Up_Distractor.gif"",""img/Fire_Up_Distractor.gif"",""img/Fire_Up_Distractor.gif"",""img/Fire_Up_Distractor.gif""]","6","targetDown_distractorsUp"
"","","","","","html-keyboard-response","170","546302","0.0-14.0-0.0-0.78","5c5493207f5e0c000143e96e","619531dcf66c91622fa1b861","6195a599ba92f06d8051c2a1","null","","null","","","","","main_T1_ITI","","","","",""
"","","","","","visual-search-circle","171","548093","0.0-14.0-0.0-1.78","5c5493207f5e0c000143e96e","619531dcf66c91622fa1b861","6195a599ba92f06d8051c2a1","786.8999999985099","","s","true","[[472,545],[545,127],[127,54],[54,472]]","false","4","main_T2_Trial","s","img/Fire_Up_Target.gif","[""img/Fire_Down_Distractor.gif"",""img/Fire_Down_Distractor.gif"",""img/Fire_Down_Distractor.gif"",""img/Fire_Down_Distractor.gif"",""img/Fire_Down_Distractor.gif"",""img/Fire_Down_Distractor.gif"",""img/Fire_Down_Distractor.gif"",""img/Fire_Down_Distractor.gif"",""img/Fire_Down_Distractor.gif"",""img/Fire_Down_Distractor.gif"",""img/Fire_Down_Distractor.gif"",""img/Fire_Down_Distractor.gif""]","4","targetUp_distractorsDown"
"","","","","","html-keyboard-response","172","549150","0.0-14.0-0.0-0.79","5c5493207f5e0c000143e96e","619531dcf66c91622fa1b861","6195a599ba92f06d8051c2a1","1055.8999999985099","Wow! You've completed 80 out of 160 trials! </p> <p>  </p><p> Take a quick break, then press any key when you're ready to continue."," ","","","","","main_T1_ITI","","","","",""
"","","","","","visual-search-circle","173","551135","0.0-14.0-0.0-1.79","5c5493207f5e0c000143e96e","619531dcf66c91622fa1b861","6195a599ba92f06d8051c2a1","971.1000000014901","","s","true","[[392,585],[600,300],[392,14],[57,123],[57,476]]","false","5","main_T2_Trial","s","img/Fire_Up_Target.gif","[""img/Fire_Down_Distractor.gif"",""img/Fire_Down_Distractor.gif"",""img/Fire_Down_Distractor.gif"",""img/Fire_Down_Distractor.gif"",""img/Fire_Down_Distractor.gif"",""img/Fire_Down_Distractor.gif"",""img/Fire_Down_Distractor.gif"",""img/Fire_Down_Distractor.gif"",""img/Fire_Down_Distractor.gif"",""img/Fire_Down_Distractor.gif"",""img/Fire_Down_Distractor.gif"",""img/Fire_Down_Distractor.gif""]","5","targetUp_distractorsDown"
"","","","","","html-keyboard-response","174","551137","0.0-14.0-0.0-0.80","5c5493207f5e0c000143e96e","619531dcf66c91622fa1b861","6195a599ba92f06d8051c2a1","null","","null","","","","","main_T1_ITI","","","","",""
"","","","","","visual-search-circle","175","553743","0.0-14.0-0.0-1.80","5c5493207f5e0c000143e96e","619531dcf66c91622fa1b861","6195a599ba92f06d8051c2a1","1593.7999999970198","","d","true","[[95,80],[0,323],[131,548],[389,586],[579,408],[559,149],[343,3]]","true","7","main_T2_Trial","d","img/Fire_Down_Target.gif","[""img/Fire_Up_Distractor.gif"",""img/Fire_Up_Distractor.gif"",""img/Fire_Up_Distractor.gif"",""img/Fire_Up_Distractor.gif"",""img/Fire_Up_Distractor.gif"",""img/Fire_Up_Distractor.gif"",""img/Fire_Up_Distractor.gif"",""img/Fire_Up_Distractor.gif"",""img/Fire_Up_Distractor.gif"",""img/Fire_Up_Distractor.gif"",""img/Fire_Up_Distractor.gif"",""img/Fire_Up_Distractor.gif""]","7","targetDown_distractorsUp"
"","","","","","html-keyboard-response","176","553745","0.0-14.0-0.0-0.81","5c5493207f5e0c000143e96e","619531dcf66c91622fa1b861","6195a599ba92f06d8051c2a1","null","","null","","","","","main_T1_ITI","","","","",""
"","","","","","visual-search-circle","177","555645","0.0-14.0-0.0-1.81","5c5493207f5e0c000143e96e","619531dcf66c91622fa1b861","6195a599ba92f06d8051c2a1","893.8999999985099","","d","true","[[70,107],[18,402],[247,595],[529,492],[581,197],[352,4]]","true","6","main_T2_Trial","d","img/Fire_Up_Target.gif","[""img/Fire_Down_Distractor.gif"",""img/Fire_Down_Distractor.gif"",""img/Fire_Down_Distractor.gif"",""img/Fire_Down_Distractor.gif"",""img/Fire_Down_Distractor.gif"",""img/Fire_Down_Distractor.gif"",""img/Fire_Down_Distractor.gif"",""img/Fire_Down_Distractor.gif"",""img/Fire_Down_Distractor.gif"",""img/Fire_Down_Distractor.gif"",""img/Fire_Down_Distractor.gif"",""img/Fire_Down_Distractor.gif""]","6","targetUp_distractorsDown"
"","","","","","html-keyboard-response","178","555647","0.0-14.0-0.0-0.82","5c5493207f5e0c000143e96e","619531dcf66c91622fa1b861","6195a599ba92f06d8051c2a1","null","","null","","","","","main_T1_ITI","","","","",""
"","","","","","visual-search-circle","179","557550","0.0-14.0-0.0-1.82","5c5493207f5e0c000143e96e","619531dcf66c91622fa1b861","6195a599ba92f06d8051c2a1","890.8999999985099","","s","false","[[504,80],[80,95],[95,519],[519,504]]","true","4","main_T2_Trial","d","img/Fire_Up_Target.gif","[""img/Fire_Down_Distractor.gif"",""img/Fire_Down_Distractor.gif"",""img/Fire_Down_Distractor.gif"",""img/Fire_Down_Distractor.gif"",""img/Fire_Down_Distractor.gif"",""img/Fire_Down_Distractor.gif"",""img/Fire_Down_Distractor.gif"",""img/Fire_Down_Distractor.gif"",""img/Fire_Down_Distractor.gif"",""img/Fire_Down_Distractor.gif"",""img/Fire_Down_Distractor.gif"",""img/Fire_Down_Distractor.gif""]","4","targetUp_distractorsDown"
"","","","","","html-keyboard-response","180","557551","0.0-14.0-0.0-0.83","5c5493207f5e0c000143e96e","619531dcf66c91622fa1b861","6195a599ba92f06d8051c2a1","null","","null","","","","","main_T1_ITI","","","","",""
"","","","","","visual-search-circle","181","560030","0.0-14.0-0.0-1.83","5c5493207f5e0c000143e96e","619531dcf66c91622fa1b861","6195a599ba92f06d8051c2a1","1471","","d","true","[[10,377],[377,589],[589,222],[222,10]]","true","4","main_T2_Trial","d","img/Fire_Down_Target.gif","[""img/Fire_Up_Distractor.gif"",""img/Fire_Up_Distractor.gif"",""img/Fire_Up_Distractor.gif"",""img/Fire_Up_Distractor.gif"",""img/Fire_Up_Distractor.gif"",""img/Fire_Up_Distractor.gif"",""img/Fire_Up_Distractor.gif"",""img/Fire_Up_Distractor.gif"",""img/Fire_Up_Distractor.gif"",""img/Fire_Up_Distractor.gif"",""img/Fire_Up_Distractor.gif"",""img/Fire_Up_Distractor.gif""]","4","targetDown_distractorsUp"
"","","","","","html-keyboard-response","182","560033","0.0-14.0-0.0-0.84","5c5493207f5e0c000143e96e","619531dcf66c91622fa1b861","6195a599ba92f06d8051c2a1","null","","null","","","","","main_T1_ITI","","","","",""
"","","","","","visual-search-circle","183","562159","0.0-14.0-0.0-1.84","5c5493207f5e0c000143e96e","619531dcf66c91622fa1b861","6195a599ba92f06d8051c2a1","1114.3000000044703","","s","false","[[182,576],[442,563],[595,352],[525,102],[285,0],[56,124],[11,380]]","true","7","main_T2_Trial","d","img/Fire_Up_Target.gif","[""img/Fire_Down_Distractor.gif"",""img/Fire_Down_Distractor.gif"",""img/Fire_Down_Distractor.gif"",""img/Fire_Down_Distractor.gif"",""img/Fire_Down_Distractor.gif"",""img/Fire_Down_Distractor.gif"",""img/Fire_Down_Distractor.gif"",""img/Fire_Down_Distractor.gif"",""img/Fire_Down_Distractor.gif"",""img/Fire_Down_Distractor.gif"",""img/Fire_Down_Distractor.gif"",""img/Fire_Down_Distractor.gif""]","7","targetUp_distractorsDown"
"","","","","","html-keyboard-response","184","562160","0.0-14.0-0.0-0.85","5c5493207f5e0c000143e96e","619531dcf66c91622fa1b861","6195a599ba92f06d8051c2a1","null","","null","","","","","main_T1_ITI","","","","",""
"","","","","","visual-search-circle","185","563838","0.0-14.0-0.0-1.85","5c5493207f5e0c000143e96e","619531dcf66c91622fa1b861","6195a599ba92f06d8051c2a1","659.8000000044703","","s","false","[[539,119],[341,2],[119,60],[2,258],[60,480],[258,597],[480,539],[597,341]]","true","8","main_T2_Trial","d","img/Fire_Down_Target.gif","[""img/Fire_Up_Distractor.gif"",""img/Fire_Up_Distractor.gif"",""img/Fire_Up_Distractor.gif"",""img/Fire_Up_Distractor.gif"",""img/Fire_Up_Distractor.gif"",""img/Fire_Up_Distractor.gif"",""img/Fire_Up_Distractor.gif"",""img/Fire_Up_Distractor.gif"",""img/Fire_Up_Distractor.gif"",""img/Fire_Up_Distractor.gif"",""img/Fire_Up_Distractor.gif"",""img/Fire_Up_Distractor.gif""]","8","targetDown_distractorsUp"
"","","","","","html-keyboard-response","186","563841","0.0-14.0-0.0-0.86","5c5493207f5e0c000143e96e","619531dcf66c91622fa1b861","6195a599ba92f06d8051c2a1","null","","null","","","","","main_T1_ITI","","","","",""
"","","","","","visual-search-circle","187","565581","0.0-14.0-0.0-1.86","5c5493207f5e0c000143e96e","619531dcf66c91622fa1b861","6195a599ba92f06d8051c2a1","726.8000000044703","","s","false","[[70,107],[107,529],[529,492],[492,70]]","true","4","main_T2_Trial","d","img/Fire_Up_Target.gif","[""img/Fire_Down_Distractor.gif"",""img/Fire_Down_Distractor.gif"",""img/Fire_Down_Distractor.gif"",""img/Fire_Down_Distractor.gif"",""img/Fire_Down_Distractor.gif"",""img/Fire_Down_Distractor.gif"",""img/Fire_Down_Distractor.gif"",""img/Fire_Down_Distractor.gif"",""img/Fire_Down_Distractor.gif"",""img/Fire_Down_Distractor.gif"",""img/Fire_Down_Distractor.gif"",""img/Fire_Down_Distractor.gif""]","4","targetUp_distractorsDown"
"","","","","","html-keyboard-response","188","565583","0.0-14.0-0.0-0.87","5c5493207f5e0c000143e96e","619531dcf66c91622fa1b861","6195a599ba92f06d8051c2a1","null","","null","","","","","main_T1_ITI","","","","",""
"","","","","","visual-search-circle","189","567502","0.0-14.0-0.0-1.87","5c5493207f5e0c000143e96e","619531dcf66c91622fa1b861","6195a599ba92f06d8051c2a1","906.5","","s","false","[[357,5],[73,103],[16,397],[242,594],[526,496],[583,202]]","true","6","main_T2_Trial","d","img/Fire_Up_Target.gif","[""img/Fire_Down_Distractor.gif"",""img/Fire_Down_Distractor.gif"",""img/Fire_Down_Distractor.gif"",""img/Fire_Down_Distractor.gif"",""img/Fire_Down_Distractor.gif"",""img/Fire_Down_Distractor.gif"",""img/Fire_Down_Distractor.gif"",""img/Fire_Down_Distractor.gif"",""img/Fire_Down_Distractor.gif"",""img/Fire_Down_Distractor.gif"",""img/Fire_Down_Distractor.gif"",""img/Fire_Down_Distractor.gif""]","6","targetUp_distractorsDown"
"","","","","","html-keyboard-response","190","567509","0.0-14.0-0.0-0.88","5c5493207f5e0c000143e96e","619531dcf66c91622fa1b861","6195a599ba92f06d8051c2a1","null","","null","","","","","main_T1_ITI","","","","",""
"","","","","","visual-search-circle","191","569581","0.0-14.0-0.0-1.88","5c5493207f5e0c000143e96e","619531dcf66c91622fa1b861","6195a599ba92f06d8051c2a1","1062.3999999985099","","s","true","[[539,119],[341,2],[119,60],[2,258],[60,480],[258,597],[480,539],[597,341]]","false","8","main_T2_Trial","s","img/Fire_Down_Target.gif","[""img/Fire_Up_Distractor.gif"",""img/Fire_Up_Distractor.gif"",""img/Fire_Up_Distractor.gif"",""img/Fire_Up_Distractor.gif"",""img/Fire_Up_Distractor.gif"",""img/Fire_Up_Distractor.gif"",""img/Fire_Up_Distractor.gif"",""img/Fire_Up_Distractor.gif"",""img/Fire_Up_Distractor.gif"",""img/Fire_Up_Distractor.gif"",""img/Fire_Up_Distractor.gif"",""img/Fire_Up_Distractor.gif""]","8","targetDown_distractorsUp"
"","","","","","html-keyboard-response","192","569583","0.0-14.0-0.0-0.89","5c5493207f5e0c000143e96e","619531dcf66c91622fa1b861","6195a599ba92f06d8051c2a1","null","","null","","","","","main_T1_ITI","","","","",""
"","","","","","visual-search-circle","193","571711","0.0-14.0-0.0-1.89","5c5493207f5e0c000143e96e","619531dcf66c91622fa1b861","6195a599ba92f06d8051c2a1","1109.4000000059605","","d","true","[[542,476],[596,253],[476,57],[253,3],[57,123],[3,346],[123,542],[346,596]]","true","8","main_T2_Trial","d","img/Fire_Up_Target.gif","[""img/Fire_Down_Distractor.gif"",""img/Fire_Down_Distractor.gif"",""img/Fire_Down_Distractor.gif"",""img/Fire_Down_Distractor.gif"",""img/Fire_Down_Distractor.gif"",""img/Fire_Down_Distractor.gif"",""img/Fire_Down_Distractor.gif"",""img/Fire_Down_Distractor.gif"",""img/Fire_Down_Distractor.gif"",""img/Fire_Down_Distractor.gif"",""img/Fire_Down_Distractor.gif"",""img/Fire_Down_Distractor.gif""]","8","targetUp_distractorsDown"
"","","","","","html-keyboard-response","194","571712","0.0-14.0-0.0-0.90","5c5493207f5e0c000143e96e","619531dcf66c91622fa1b861","6195a599ba92f06d8051c2a1","null","","null","","","","","main_T1_ITI","","","","",""
"","","","","","visual-search-circle","195","573502","0.0-14.0-0.0-1.90","5c5493207f5e0c000143e96e","619531dcf66c91622fa1b861","6195a599ba92f06d8051c2a1","781.1000000014901","","s","true","[[407,580],[596,346],[488,66],[192,19],[3,253],[111,533]]","false","6","main_T2_Trial","s","img/Fire_Down_Target.gif","[""img/Fire_Up_Distractor.gif"",""img/Fire_Up_Distractor.gif"",""img/Fire_Up_Distractor.gif"",""img/Fire_Up_Distractor.gif"",""img/Fire_Up_Distractor.gif"",""img/Fire_Up_Distractor.gif"",""img/Fire_Up_Distractor.gif"",""img/Fire_Up_Distractor.gif"",""img/Fire_Up_Distractor.gif"",""img/Fire_Up_Distractor.gif"",""img/Fire_Up_Distractor.gif"",""img/Fire_Up_Distractor.gif""]","6","targetDown_distractorsUp"
"","","","","","html-keyboard-response","196","573505","0.0-14.0-0.0-0.91","5c5493207f5e0c000143e96e","619531dcf66c91622fa1b861","6195a599ba92f06d8051c2a1","null","","null","","","","","main_T1_ITI","","","","",""
"","","","","","visual-search-circle","197","576126","0.0-14.0-0.0-1.91","5c5493207f5e0c000143e96e","619531dcf66c91622fa1b861","6195a599ba92f06d8051c2a1","1607.6999999955297","","d","true","[[557,145],[232,7],[1,273],[182,576],[526,496]]","true","5","main_T2_Trial","d","img/Fire_Down_Target.gif","[""img/Fire_Up_Distractor.gif"",""img/Fire_Up_Distractor.gif"",""img/Fire_Up_Distractor.gif"",""img/Fire_Up_Distractor.gif"",""img/Fire_Up_Distractor.gif"",""img/Fire_Up_Distractor.gif"",""img/Fire_Up_Distractor.gif"",""img/Fire_Up_Distractor.gif"",""img/Fire_Up_Distractor.gif"",""img/Fire_Up_Distractor.gif"",""img/Fire_Up_Distractor.gif"",""img/Fire_Up_Distractor.gif""]","5","targetDown_distractorsUp"
"","","","","","html-keyboard-response","198","576127","0.0-14.0-0.0-0.92","5c5493207f5e0c000143e96e","619531dcf66c91622fa1b861","6195a599ba92f06d8051c2a1","null","","null","","","","","main_T1_ITI","","","","",""
"","","","","","visual-search-circle","199","578094","0.0-14.0-0.0-1.92","5c5493207f5e0c000143e96e","619531dcf66c91622fa1b861","6195a599ba92f06d8051c2a1","952.8999999985099","","s","true","[[3,253],[111,533],[407,580],[596,346],[488,66],[192,19]]","false","6","main_T2_Trial","s","img/Fire_Up_Target.gif","[""img/Fire_Down_Distractor.gif"",""img/Fire_Down_Distractor.gif"",""img/Fire_Down_Distractor.gif"",""img/Fire_Down_Distractor.gif"",""img/Fire_Down_Distractor.gif"",""img/Fire_Down_Distractor.gif"",""img/Fire_Down_Distractor.gif"",""img/Fire_Down_Distractor.gif"",""img/Fire_Down_Distractor.gif"",""img/Fire_Down_Distractor.gif"",""img/Fire_Down_Distractor.gif"",""img/Fire_Down_Distractor.gif""]","6","targetUp_distractorsDown"
"","","","","","html-keyboard-response","200","578097","0.0-14.0-0.0-0.93","5c5493207f5e0c000143e96e","619531dcf66c91622fa1b861","6195a599ba92f06d8051c2a1","null","","null","","","","","main_T1_ITI","","","","",""
"","","","","","visual-search-circle","201","579870","0.0-14.0-0.0-1.93","5c5493207f5e0c000143e96e","619531dcf66c91622fa1b861","6195a599ba92f06d8051c2a1","760.6000000014901","","d","true","[[346,596],[560,448],[578,188],[386,12],[129,53],[0,279],[97,521]]","true","7","main_T2_Trial","d","img/Fire_Down_Target.gif","[""img/Fire_Up_Distractor.gif"",""img/Fire_Up_Distractor.gif"",""img/Fire_Up_Distractor.gif"",""img/Fire_Up_Distractor.gif"",""img/Fire_Up_Distractor.gif"",""img/Fire_Up_Distractor.gif"",""img/Fire_Up_Distractor.gif"",""img/Fire_Up_Distractor.gif"",""img/Fire_Up_Distractor.gif"",""img/Fire_Up_Distractor.gif"",""img/Fire_Up_Distractor.gif"",""img/Fire_Up_Distractor.gif""]","7","targetDown_distractorsUp"
"","","","","","html-keyboard-response","202","579872","0.0-14.0-0.0-0.94","5c5493207f5e0c000143e96e","619531dcf66c91622fa1b861","6195a599ba92f06d8051c2a1","null","","null","","","","","main_T1_ITI","","","","",""
"","","","","","visual-search-circle","203","581630","0.0-14.0-0.0-1.94","5c5493207f5e0c000143e96e","619531dcf66c91622fa1b861","6195a599ba92f06d8051c2a1","753.3999999985099","","s","true","[[515,91],[168,30],[2,341],[247,595],[564,440]]","false","5","main_T2_Trial","s","img/Fire_Up_Target.gif","[""img/Fire_Down_Distractor.gif"",""img/Fire_Down_Distractor.gif"",""img/Fire_Down_Distractor.gif"",""img/Fire_Down_Distractor.gif"",""img/Fire_Down_Distractor.gif"",""img/Fire_Down_Distractor.gif"",""img/Fire_Down_Distractor.gif"",""img/Fire_Down_Distractor.gif"",""img/Fire_Down_Distractor.gif"",""img/Fire_Down_Distractor.gif"",""img/Fire_Down_Distractor.gif"",""img/Fire_Down_Distractor.gif""]","5","targetUp_distractorsDown"
"","","","","","html-keyboard-response","204","581633","0.0-14.0-0.0-0.95","5c5493207f5e0c000143e96e","619531dcf66c91622fa1b861","6195a599ba92f06d8051c2a1","null","","null","","","","","main_T1_ITI","","","","",""
"","","","","","visual-search-circle","205","583534","0.0-14.0-0.0-1.95","5c5493207f5e0c000143e96e","619531dcf66c91622fa1b861","6195a599ba92f06d8051c2a1","889.1000000014901","","s","true","[[529,107],[187,21],[0,320],[227,591],[554,458]]","false","5","main_T2_Trial","s","img/Fire_Up_Target.gif","[""img/Fire_Down_Distractor.gif"",""img/Fire_Down_Distractor.gif"",""img/Fire_Down_Distractor.gif"",""img/Fire_Down_Distractor.gif"",""img/Fire_Down_Distractor.gif"",""img/Fire_Down_Distractor.gif"",""img/Fire_Down_Distractor.gif"",""img/Fire_Down_Distractor.gif"",""img/Fire_Down_Distractor.gif"",""img/Fire_Down_Distractor.gif"",""img/Fire_Down_Distractor.gif"",""img/Fire_Down_Distractor.gif""]","5","targetUp_distractorsDown"
"","","","","","html-keyboard-response","206","583537","0.0-14.0-0.0-0.96","5c5493207f5e0c000143e96e","619531dcf66c91622fa1b861","6195a599ba92f06d8051c2a1","null","","null","","","","","main_T1_ITI","","","","",""
"","","","","","visual-search-circle","207","585375","0.0-14.0-0.0-1.96","5c5493207f5e0c000143e96e","619531dcf66c91622fa1b861","6195a599ba92f06d8051c2a1","826.2000000029802","","s","true","[[123,542],[542,476],[476,57],[57,123]]","false","4","main_T2_Trial","s","img/Fire_Up_Target.gif","[""img/Fire_Down_Distractor.gif"",""img/Fire_Down_Distractor.gif"",""img/Fire_Down_Distractor.gif"",""img/Fire_Down_Distractor.gif"",""img/Fire_Down_Distractor.gif"",""img/Fire_Down_Distractor.gif"",""img/Fire_Down_Distractor.gif"",""img/Fire_Down_Distractor.gif"",""img/Fire_Down_Distractor.gif"",""img/Fire_Down_Distractor.gif"",""img/Fire_Down_Distractor.gif"",""img/Fire_Down_Distractor.gif""]","4","targetUp_distractorsDown"
"","","","","","html-keyboard-response","208","585376","0.0-14.0-0.0-0.97","5c5493207f5e0c000143e96e","619531dcf66c91622fa1b861","6195a599ba92f06d8051c2a1","null","","null","","","","","main_T1_ITI","","","","",""
"","","","","","visual-search-circle","209","587102","0.0-14.0-0.0-1.97","5c5493207f5e0c000143e96e","619531dcf66c91622fa1b861","6195a599ba92f06d8051c2a1","712.3000000044703","","s","true","[[467,548],[599,323],[505,81],[256,3],[40,148],[20,408],[210,586]]","false","7","main_T2_Trial","s","img/Fire_Up_Target.gif","[""img/Fire_Down_Distractor.gif"",""img/Fire_Down_Distractor.gif"",""img/Fire_Down_Distractor.gif"",""img/Fire_Down_Distractor.gif"",""img/Fire_Down_Distractor.gif"",""img/Fire_Down_Distractor.gif"",""img/Fire_Down_Distractor.gif"",""img/Fire_Down_Distractor.gif"",""img/Fire_Down_Distractor.gif"",""img/Fire_Down_Distractor.gif"",""img/Fire_Down_Distractor.gif"",""img/Fire_Down_Distractor.gif""]","7","targetUp_distractorsDown"
"","","","","","html-keyboard-response","210","587106","0.0-14.0-0.0-0.98","5c5493207f5e0c000143e96e","619531dcf66c91622fa1b861","6195a599ba92f06d8051c2a1","null","","null","","","","","main_T1_ITI","","","","",""
"","","","","","visual-search-circle","211","589389","0.0-14.0-0.0-1.98","5c5493207f5e0c000143e96e","619531dcf66c91622fa1b861","6195a599ba92f06d8051c2a1","1270.2999999970198","","d","true","[[0,320],[320,599],[599,279],[279,0]]","true","4","main_T2_Trial","d","img/Fire_Up_Target.gif","[""img/Fire_Down_Distractor.gif"",""img/Fire_Down_Distractor.gif"",""img/Fire_Down_Distractor.gif"",""img/Fire_Down_Distractor.gif"",""img/Fire_Down_Distractor.gif"",""img/Fire_Down_Distractor.gif"",""img/Fire_Down_Distractor.gif"",""img/Fire_Down_Distractor.gif"",""img/Fire_Down_Distractor.gif"",""img/Fire_Down_Distractor.gif"",""img/Fire_Down_Distractor.gif"",""img/Fire_Down_Distractor.gif""]","4","targetUp_distractorsDown"
"","","","","","html-keyboard-response","212","590606","0.0-14.0-0.0-0.99","5c5493207f5e0c000143e96e","619531dcf66c91622fa1b861","6195a599ba92f06d8051c2a1","1216.6999999955297","Wow! You've completed 100 out of 160 trials! </p> <p>  </p><p> Take a quick break, then press any key when you're ready to continue."," ","","","","","main_T1_ITI","","","","",""
"","","","","","visual-search-circle","213","592606","0.0-14.0-0.0-1.99","5c5493207f5e0c000143e96e","619531dcf66c91622fa1b861","6195a599ba92f06d8051c2a1","995.8000000044703","","s","true","[[595,352],[545,127],[352,4],[127,54],[4,247],[54,472],[247,595],[472,545]]","false","8","main_T2_Trial","s","img/Fire_Down_Target.gif","[""img/Fire_Up_Distractor.gif"",""img/Fire_Up_Distractor.gif"",""img/Fire_Up_Distractor.gif"",""img/Fire_Up_Distractor.gif"",""img/Fire_Up_Distractor.gif"",""img/Fire_Up_Distractor.gif"",""img/Fire_Up_Distractor.gif"",""img/Fire_Up_Distractor.gif"",""img/Fire_Up_Distractor.gif"",""img/Fire_Up_Distractor.gif"",""img/Fire_Up_Distractor.gif"",""img/Fire_Up_Distractor.gif""]","8","targetDown_distractorsUp"
"","","","","","html-keyboard-response","214","592608","0.0-14.0-0.0-0.100","5c5493207f5e0c000143e96e","619531dcf66c91622fa1b861","6195a599ba92f06d8051c2a1","null","","null","","","","","main_T1_ITI","","","","",""
"","","","","","visual-search-circle","215","594510","0.0-14.0-0.0-1.100","5c5493207f5e0c000143e96e","619531dcf66c91622fa1b861","6195a599ba92f06d8051c2a1","896.3999999985099","","d","true","[[536,115],[336,2],[115,63],[2,263],[63,484],[263,597],[484,536],[597,336]]","true","8","main_T2_Trial","d","img/Fire_Up_Target.gif","[""img/Fire_Down_Distractor.gif"",""img/Fire_Down_Distractor.gif"",""img/Fire_Down_Distractor.gif"",""img/Fire_Down_Distractor.gif"",""img/Fire_Down_Distractor.gif"",""img/Fire_Down_Distractor.gif"",""img/Fire_Down_Distractor.gif"",""img/Fire_Down_Distractor.gif"",""img/Fire_Down_Distractor.gif"",""img/Fire_Down_Distractor.gif"",""img/Fire_Down_Distractor.gif"",""img/Fire_Down_Distractor.gif""]","8","targetUp_distractorsDown"
"","","","","","html-keyboard-response","216","594511","0.0-14.0-0.0-0.101","5c5493207f5e0c000143e96e","619531dcf66c91622fa1b861","6195a599ba92f06d8051c2a1","null","","null","","","","","main_T1_ITI","","","","",""
