"success","timeout","failed_images","failed_audio","failed_video","trial_type","trial_index","time_elapsed","internal_node_id","subject_id","study_id","session_id","rt","stimulus","response","correct","locations","target_present","set_size","task","correct_response","target","foilCM","setSizeCM","searchCondition"
"true","false","[]","[]","[]","preload","0","16236","0.0-0.0","5d8cbd29cad5dc0015e66f9e","619531dcf66c91622fa1b861","619596fd4956c4e25123b605","","","","","","","","","","","","",""
"true","","","","","fullscreen","1","20485","0.0-1.0","5d8cbd29cad5dc0015e66f9e","619531dcf66c91622fa1b861","619596fd4956c4e25123b605","","","","","","","","","","","","",""
"","","","","","html-keyboard-response","2","25429","0.0-2.0","5d8cbd29cad5dc0015e66f9e","619531dcf66c91622fa1b861","619596fd4956c4e25123b605","4939.79999999702","What a beautiful Wednesday to do some awesome science! </p> <p>  </p><p> </p>
    By completing this survey or questionnaire, you are consenting to be in this research study. </p>
    Your participation is voluntary and you can stop at any time.
    <p> [Press any key to continue.] </p>
    
    "," ","","","","","","","","","",""
"","","","","","video-keyboard-response","3","57429","0.0-3.0","5d8cbd29cad5dc0015e66f9e","619531dcf66c91622fa1b861","619596fd4956c4e25123b605","31995","[""video/TaskInstructions.mp4""]"," ","","","","","","","","","",""
"","","","","","html-keyboard-response","4","61645","0.0-4.0","5d8cbd29cad5dc0015e66f9e","619531dcf66c91622fa1b861","619596fd4956c4e25123b605","4214.5","
    <p>First, we're going to do a few practice trials to make sure you understand the task. You will recieve feedback on each trial. </p>
    <p>[Press any key to begin the familiarization phase.]</p>
    "," ","","","","","","","","","",""
"","","","","","visual-search-circle","5","65633","0.0-5.0-0.0","5d8cbd29cad5dc0015e66f9e","619531dcf66c91622fa1b861","619596fd4956c4e25123b605","2897.300000011921","","s","false","[[545,472],[472,54],[54,127],[127,545]]","true","4","training","d","","","",""
"","","","","","html-keyboard-response","6","67214","0.0-6.0","5d8cbd29cad5dc0015e66f9e","619531dcf66c91622fa1b861","619596fd4956c4e25123b605","1579.7000000029802"," <div style='float: center;'><img src='img/feedbackWrong.png'></img> </div> "," ","","","","","","","","","",""
"","","","","","visual-search-circle","7","71056","0.0-7.0-0.0","5d8cbd29cad5dc0015e66f9e","619531dcf66c91622fa1b861","619596fd4956c4e25123b605","2809.2999999970198","","s","true","[[488,533],[533,111],[111,66],[66,488]]","false","4","training","s","","","",""
"","","","","","html-keyboard-response","8","72345","0.0-8.0","5d8cbd29cad5dc0015e66f9e","619531dcf66c91622fa1b861","619596fd4956c4e25123b605","1287.7999999970198"," <div style='float: center; '><img src='img/feedbackRight.png'></img> </div> "," ","","","","","","","","","",""
"","","","","","visual-search-circle","9","75454","0.0-9.0-0.0","5d8cbd29cad5dc0015e66f9e","619531dcf66c91622fa1b861","619596fd4956c4e25123b605","2093.7999999970198","","s","true","[[299,600],[559,450],[559,150],[300,0],[40,150],[40,449]]","false","6","training","s","","","",""
"","","","","","html-keyboard-response","10","78270","0.0-10.0","5d8cbd29cad5dc0015e66f9e","619531dcf66c91622fa1b861","619596fd4956c4e25123b605","2813.7999999970198"," <div style='float: center; '><img src='img/feedbackRight.png'></img> </div> "," ","","","","","","","","","",""
"","","","","","visual-search-circle","11","80811","0.0-11.0-0.0","5d8cbd29cad5dc0015e66f9e","619531dcf66c91622fa1b861","619596fd4956c4e25123b605","1528.2000000029802","","d","true","[[562,154],[382,11],[154,37],[11,217],[37,445],[217,588],[445,562],[588,382]]","true","8","training","d","","","",""
"","","","","","html-keyboard-response","12","81994","0.0-12.0","5d8cbd29cad5dc0015e66f9e","619531dcf66c91622fa1b861","619596fd4956c4e25123b605","1181.9000000059605"," <div style='float: center; '><img src='img/feedbackRight.png'></img> </div> "," ","","","","","","","","","",""
"","","","","","video-keyboard-response","13","88599","0.0-13.0","5d8cbd29cad5dc0015e66f9e","619531dcf66c91622fa1b861","619596fd4956c4e25123b605","6602.199999988079","[""video/endTraining.mp4""]"," ","","","","","","","","","",""
"","","","","","html-keyboard-response","14","88603","0.0-14.0-0.0-0.0","5d8cbd29cad5dc0015e66f9e","619531dcf66c91622fa1b861","619596fd4956c4e25123b605","null","","null","","","","","main_T1_ITI","","","","",""
"","","","","","visual-search-circle","15","90849","0.0-14.0-0.0-1.0","5d8cbd29cad5dc0015e66f9e","619531dcf66c91622fa1b861","619596fd4956c4e25123b605","1221.1000000089407","","d","true","[[598,268],[268,1],[1,331],[331,598]]","true","4","main_T2_Trial","d","img/Fire_Up_Target.gif","[""img/Fire_Down_Distractor.gif"",""img/Fire_Down_Distractor.gif"",""img/Fire_Down_Distractor.gif"",""img/Fire_Down_Distractor.gif"",""img/Fire_Down_Distractor.gif"",""img/Fire_Down_Distractor.gif"",""img/Fire_Down_Distractor.gif"",""img/Fire_Down_Distractor.gif"",""img/Fire_Down_Distractor.gif"",""img/Fire_Down_Distractor.gif"",""img/Fire_Down_Distractor.gif"",""img/Fire_Down_Distractor.gif""]","4","targetUp_distractorsDown"
"","","","","","html-keyboard-response","16","90856","0.0-14.0-0.0-0.1","5d8cbd29cad5dc0015e66f9e","619531dcf66c91622fa1b861","619596fd4956c4e25123b605","null","","null","","","","","main_T1_ITI","","","","",""
"","","","","","visual-search-circle","17","93394","0.0-14.0-0.0-1.1","5d8cbd29cad5dc0015e66f9e","619531dcf66c91622fa1b861","619596fd4956c4e25123b605","1514.2000000029802","","s","true","[[597,263],[357,5],[37,154],[80,504],[426,571]]","false","5","main_T2_Trial","s","img/Fire_Up_Target.gif","[""img/Fire_Down_Distractor.gif"",""img/Fire_Down_Distractor.gif"",""img/Fire_Down_Distractor.gif"",""img/Fire_Down_Distractor.gif"",""img/Fire_Down_Distractor.gif"",""img/Fire_Down_Distractor.gif"",""img/Fire_Down_Distractor.gif"",""img/Fire_Down_Distractor.gif"",""img/Fire_Down_Distractor.gif"",""img/Fire_Down_Distractor.gif"",""img/Fire_Down_Distractor.gif"",""img/Fire_Down_Distractor.gif""]","5","targetUp_distractorsDown"
"","","","","","html-keyboard-response","18","93395","0.0-14.0-0.0-0.2","5d8cbd29cad5dc0015e66f9e","619531dcf66c91622fa1b861","619596fd4956c4e25123b605","null","","null","","","","","main_T1_ITI","","","","",""
"","","","","","visual-search-circle","19","96197","0.0-14.0-0.0-1.2","5d8cbd29cad5dc0015e66f9e","619531dcf66c91622fa1b861","619596fd4956c4e25123b605","1776.7999999970198","","s","true","[[42,145],[18,404],[206,585],[464,550],[598,327],[507,83],[260,2]]","false","7","main_T2_Trial","s","img/Fire_Down_Target.gif","[""img/Fire_Up_Distractor.gif"",""img/Fire_Up_Distractor.gif"",""img/Fire_Up_Distractor.gif"",""img/Fire_Up_Distractor.gif"",""img/Fire_Up_Distractor.gif"",""img/Fire_Up_Distractor.gif"",""img/Fire_Up_Distractor.gif"",""img/Fire_Up_Distractor.gif"",""img/Fire_Up_Distractor.gif"",""img/Fire_Up_Distractor.gif"",""img/Fire_Up_Distractor.gif"",""img/Fire_Up_Distractor.gif""]","7","targetDown_distractorsUp"
"","","","","","html-keyboard-response","20","96200","0.0-14.0-0.0-0.3","5d8cbd29cad5dc0015e66f9e","619531dcf66c91622fa1b861","619596fd4956c4e25123b605","null","","null","","","","","main_T1_ITI","","","","",""
"","","","","","visual-search-circle","21","98631","0.0-14.0-0.0-1.3","5d8cbd29cad5dc0015e66f9e","619531dcf66c91622fa1b861","619596fd4956c4e25123b605","1419.2999999970198","","d","false","[[551,136],[136,48],[48,463],[463,551]]","false","4","main_T2_Trial","s","img/Fire_Down_Target.gif","[""img/Fire_Up_Distractor.gif"",""img/Fire_Up_Distractor.gif"",""img/Fire_Up_Distractor.gif"",""img/Fire_Up_Distractor.gif"",""img/Fire_Up_Distractor.gif"",""img/Fire_Up_Distractor.gif"",""img/Fire_Up_Distractor.gif"",""img/Fire_Up_Distractor.gif"",""img/Fire_Up_Distractor.gif"",""img/Fire_Up_Distractor.gif"",""img/Fire_Up_Distractor.gif"",""img/Fire_Up_Distractor.gif""]","4","targetDown_distractorsUp"
"","","","","","html-keyboard-response","22","98635","0.0-14.0-0.0-0.4","5d8cbd29cad5dc0015e66f9e","619531dcf66c91622fa1b861","619596fd4956c4e25123b605","null","","null","","","","","main_T1_ITI","","","","",""
"","","","","","visual-search-circle","23","101409","0.0-14.0-0.0-1.4","5d8cbd29cad5dc0015e66f9e","619531dcf66c91622fa1b861","619596fd4956c4e25123b605","1757.3999999910593","","s","true","[[488,66],[235,7],[30,167],[28,428],[231,591],[485,535],[599,302]]","false","7","main_T2_Trial","s","img/Fire_Down_Target.gif","[""img/Fire_Up_Distractor.gif"",""img/Fire_Up_Distractor.gif"",""img/Fire_Up_Distractor.gif"",""img/Fire_Up_Distractor.gif"",""img/Fire_Up_Distractor.gif"",""img/Fire_Up_Distractor.gif"",""img/Fire_Up_Distractor.gif"",""img/Fire_Up_Distractor.gif"",""img/Fire_Up_Distractor.gif"",""img/Fire_Up_Distractor.gif"",""img/Fire_Up_Distractor.gif"",""img/Fire_Up_Distractor.gif""]","7","targetDown_distractorsUp"
"","","","","","html-keyboard-response","24","101411","0.0-14.0-0.0-0.5","5d8cbd29cad5dc0015e66f9e","619531dcf66c91622fa1b861","619596fd4956c4e25123b605","null","","null","","","","","main_T1_ITI","","","","",""
"","","","","","visual-search-circle","25","103831","0.0-14.0-0.0-1.5","5d8cbd29cad5dc0015e66f9e","619531dcf66c91622fa1b861","619596fd4956c4e25123b605","1409.3999999910593","","s","true","[[548,467],[594,242],[467,51],[242,5],[51,132],[5,357],[132,548],[357,594]]","false","8","main_T2_Trial","s","img/Fire_Down_Target.gif","[""img/Fire_Up_Distractor.gif"",""img/Fire_Up_Distractor.gif"",""img/Fire_Up_Distractor.gif"",""img/Fire_Up_Distractor.gif"",""img/Fire_Up_Distractor.gif"",""img/Fire_Up_Distractor.gif"",""img/Fire_Up_Distractor.gif"",""img/Fire_Up_Distractor.gif"",""img/Fire_Up_Distractor.gif"",""img/Fire_Up_Distractor.gif"",""img/Fire_Up_Distractor.gif"",""img/Fire_Up_Distractor.gif""]","8","targetDown_distractorsUp"
"","","","","","html-keyboard-response","26","103859","0.0-14.0-0.0-0.6","5d8cbd29cad5dc0015e66f9e","619531dcf66c91622fa1b861","619596fd4956c4e25123b605","null","","null","","","","","main_T1_ITI","","","","",""
"","","","","","visual-search-circle","27","106532","0.0-14.0-0.0-1.6","5d8cbd29cad5dc0015e66f9e","619531dcf66c91622fa1b861","619596fd4956c4e25123b605","1657.3999999910593","","s","true","[[28,173],[18,402],[173,571],[402,581],[571,426],[581,197],[426,28],[197,18]]","false","8","main_T2_Trial","s","img/Fire_Down_Target.gif","[""img/Fire_Up_Distractor.gif"",""img/Fire_Up_Distractor.gif"",""img/Fire_Up_Distractor.gif"",""img/Fire_Up_Distractor.gif"",""img/Fire_Up_Distractor.gif"",""img/Fire_Up_Distractor.gif"",""img/Fire_Up_Distractor.gif"",""img/Fire_Up_Distractor.gif"",""img/Fire_Up_Distractor.gif"",""img/Fire_Up_Distractor.gif"",""img/Fire_Up_Distractor.gif"",""img/Fire_Up_Distractor.gif""]","8","targetDown_distractorsUp"
"","","","","","html-keyboard-response","28","106551","0.0-14.0-0.0-0.7","5d8cbd29cad5dc0015e66f9e","619531dcf66c91622fa1b861","619596fd4956c4e25123b605","null","","null","","","","","main_T1_ITI","","","","",""
"","","","","","visual-search-circle","29","110142","0.0-14.0-0.0-1.7","5d8cbd29cad5dc0015e66f9e","619531dcf66c91622fa1b861","619596fd4956c4e25123b605","2578.1000000089407","","s","true","[[320,599],[526,496],[599,279],[496,73],[279,0],[73,103],[0,320],[103,526]]","false","8","main_T2_Trial","s","img/Fire_Up_Target.gif","[""img/Fire_Down_Distractor.gif"",""img/Fire_Down_Distractor.gif"",""img/Fire_Down_Distractor.gif"",""img/Fire_Down_Distractor.gif"",""img/Fire_Down_Distractor.gif"",""img/Fire_Down_Distractor.gif"",""img/Fire_Down_Distractor.gif"",""img/Fire_Down_Distractor.gif"",""img/Fire_Down_Distractor.gif"",""img/Fire_Down_Distractor.gif"",""img/Fire_Down_Distractor.gif"",""img/Fire_Down_Distractor.gif""]","8","targetUp_distractorsDown"
"","","","","","html-keyboard-response","30","110146","0.0-14.0-0.0-0.8","5d8cbd29cad5dc0015e66f9e","619531dcf66c91622fa1b861","619596fd4956c4e25123b605","null","","null","","","","","main_T1_ITI","","","","",""
"","","","","","visual-search-circle","31","112410","0.0-14.0-0.0-1.8","5d8cbd29cad5dc0015e66f9e","619531dcf66c91622fa1b861","619596fd4956c4e25123b605","1247.0999999940395","","d","true","[[559,450],[589,222],[449,40],[222,10],[40,150],[10,377],[150,559],[377,589]]","true","8","main_T2_Trial","d","img/Fire_Down_Target.gif","[""img/Fire_Up_Distractor.gif"",""img/Fire_Up_Distractor.gif"",""img/Fire_Up_Distractor.gif"",""img/Fire_Up_Distractor.gif"",""img/Fire_Up_Distractor.gif"",""img/Fire_Up_Distractor.gif"",""img/Fire_Up_Distractor.gif"",""img/Fire_Up_Distractor.gif"",""img/Fire_Up_Distractor.gif"",""img/Fire_Up_Distractor.gif"",""img/Fire_Up_Distractor.gif"",""img/Fire_Up_Distractor.gif""]","8","targetDown_distractorsUp"
"","","","","","html-keyboard-response","32","112412","0.0-14.0-0.0-0.9","5d8cbd29cad5dc0015e66f9e","619531dcf66c91622fa1b861","619596fd4956c4e25123b605","null","","null","","","","","main_T1_ITI","","","","",""
"","","","","","visual-search-circle","33","115456","0.0-14.0-0.0-1.9","5d8cbd29cad5dc0015e66f9e","619531dcf66c91622fa1b861","619596fd4956c4e25123b605","2032.7999999970198","","d","true","[[542,476],[574,177],[331,1],[57,123],[25,422],[268,598]]","true","6","main_T2_Trial","d","img/Fire_Up_Target.gif","[""img/Fire_Down_Distractor.gif"",""img/Fire_Down_Distractor.gif"",""img/Fire_Down_Distractor.gif"",""img/Fire_Down_Distractor.gif"",""img/Fire_Down_Distractor.gif"",""img/Fire_Down_Distractor.gif"",""img/Fire_Down_Distractor.gif"",""img/Fire_Down_Distractor.gif"",""img/Fire_Down_Distractor.gif"",""img/Fire_Down_Distractor.gif"",""img/Fire_Down_Distractor.gif"",""img/Fire_Down_Distractor.gif""]","6","targetUp_distractorsDown"
"","","","","","html-keyboard-response","34","115467","0.0-14.0-0.0-0.10","5d8cbd29cad5dc0015e66f9e","619531dcf66c91622fa1b861","619596fd4956c4e25123b605","null","","null","","","","","main_T1_ITI","","","","",""
"","","","","","visual-search-circle","35","118426","0.0-14.0-0.0-1.10","5d8cbd29cad5dc0015e66f9e","619531dcf66c91622fa1b861","619596fd4956c4e25123b605","1948.9000000059605","","d","true","[[581,402],[529,107],[247,4],[18,197],[70,492],[352,595]]","true","6","main_T2_Trial","d","img/Fire_Up_Target.gif","[""img/Fire_Down_Distractor.gif"",""img/Fire_Down_Distractor.gif"",""img/Fire_Down_Distractor.gif"",""img/Fire_Down_Distractor.gif"",""img/Fire_Down_Distractor.gif"",""img/Fire_Down_Distractor.gif"",""img/Fire_Down_Distractor.gif"",""img/Fire_Down_Distractor.gif"",""img/Fire_Down_Distractor.gif"",""img/Fire_Down_Distractor.gif"",""img/Fire_Down_Distractor.gif"",""img/Fire_Down_Distractor.gif""]","6","targetUp_distractorsDown"
"","","","","","html-keyboard-response","36","118430","0.0-14.0-0.0-0.11","5d8cbd29cad5dc0015e66f9e","619531dcf66c91622fa1b861","619596fd4956c4e25123b605","null","","null","","","","","main_T1_ITI","","","","",""
"","","","","","visual-search-circle","37","122933","0.0-14.0-0.0-1.11","5d8cbd29cad5dc0015e66f9e","619531dcf66c91622fa1b861","619596fd4956c4e25123b605","3485.7000000029802","","s","false","[[589,222],[315,0],[19,192],[111,533],[463,551]]","true","5","main_T2_Trial","d","img/Fire_Down_Target.gif","[""img/Fire_Up_Distractor.gif"",""img/Fire_Up_Distractor.gif"",""img/Fire_Up_Distractor.gif"",""img/Fire_Up_Distractor.gif"",""img/Fire_Up_Distractor.gif"",""img/Fire_Up_Distractor.gif"",""img/Fire_Up_Distractor.gif"",""img/Fire_Up_Distractor.gif"",""img/Fire_Up_Distractor.gif"",""img/Fire_Up_Distractor.gif"",""img/Fire_Up_Distractor.gif"",""img/Fire_Up_Distractor.gif""]","5","targetDown_distractorsUp"
"","","","","","html-keyboard-response","38","122942","0.0-14.0-0.0-0.12","5d8cbd29cad5dc0015e66f9e","619531dcf66c91622fa1b861","619596fd4956c4e25123b605","null","","null","","","","","main_T1_ITI","","","","",""
"","","","","","visual-search-circle","39","125187","0.0-14.0-0.0-1.12","5d8cbd29cad5dc0015e66f9e","619531dcf66c91622fa1b861","619596fd4956c4e25123b605","1234.6000000089407","","s","true","[[580,407],[574,177],[407,19],[177,25],[19,192],[25,422],[192,580],[422,574]]","false","8","main_T2_Trial","s","img/Fire_Down_Target.gif","[""img/Fire_Up_Distractor.gif"",""img/Fire_Up_Distractor.gif"",""img/Fire_Up_Distractor.gif"",""img/Fire_Up_Distractor.gif"",""img/Fire_Up_Distractor.gif"",""img/Fire_Up_Distractor.gif"",""img/Fire_Up_Distractor.gif"",""img/Fire_Up_Distractor.gif"",""img/Fire_Up_Distractor.gif"",""img/Fire_Up_Distractor.gif"",""img/Fire_Up_Distractor.gif"",""img/Fire_Up_Distractor.gif""]","8","targetDown_distractorsUp"
"","","","","","html-keyboard-response","40","125189","0.0-14.0-0.0-0.13","5d8cbd29cad5dc0015e66f9e","619531dcf66c91622fa1b861","619596fd4956c4e25123b605","null","","null","","","","","main_T1_ITI","","","","",""
"","","","","","visual-search-circle","41","127267","0.0-14.0-0.0-1.13","5d8cbd29cad5dc0015e66f9e","619531dcf66c91622fa1b861","619596fd4956c4e25123b605","1063.6000000089407","","d","true","[[539,480],[597,258],[480,60],[258,2],[60,119],[2,341],[119,539],[341,597]]","true","8","main_T2_Trial","d","img/Fire_Down_Target.gif","[""img/Fire_Up_Distractor.gif"",""img/Fire_Up_Distractor.gif"",""img/Fire_Up_Distractor.gif"",""img/Fire_Up_Distractor.gif"",""img/Fire_Up_Distractor.gif"",""img/Fire_Up_Distractor.gif"",""img/Fire_Up_Distractor.gif"",""img/Fire_Up_Distractor.gif"",""img/Fire_Up_Distractor.gif"",""img/Fire_Up_Distractor.gif"",""img/Fire_Up_Distractor.gif"",""img/Fire_Up_Distractor.gif""]","8","targetDown_distractorsUp"
"","","","","","html-keyboard-response","42","127270","0.0-14.0-0.0-0.14","5d8cbd29cad5dc0015e66f9e","619531dcf66c91622fa1b861","619596fd4956c4e25123b605","null","","null","","","","","main_T1_ITI","","","","",""
"","","","","","visual-search-circle","43","129909","0.0-14.0-0.0-1.14","5d8cbd29cad5dc0015e66f9e","619531dcf66c91622fa1b861","619596fd4956c4e25123b605","1632.7999999970198","","s","true","[[2,336],[242,594],[562,445],[519,95],[173,28]]","false","5","main_T2_Trial","s","img/Fire_Up_Target.gif","[""img/Fire_Down_Distractor.gif"",""img/Fire_Down_Distractor.gif"",""img/Fire_Down_Distractor.gif"",""img/Fire_Down_Distractor.gif"",""img/Fire_Down_Distractor.gif"",""img/Fire_Down_Distractor.gif"",""img/Fire_Down_Distractor.gif"",""img/Fire_Down_Distractor.gif"",""img/Fire_Down_Distractor.gif"",""img/Fire_Down_Distractor.gif"",""img/Fire_Down_Distractor.gif"",""img/Fire_Down_Distractor.gif""]","5","targetUp_distractorsDown"
"","","","","","html-keyboard-response","44","129914","0.0-14.0-0.0-0.15","5d8cbd29cad5dc0015e66f9e","619531dcf66c91622fa1b861","619596fd4956c4e25123b605","null","","null","","","","","main_T1_ITI","","","","",""
"","","","","","visual-search-circle","45","132231","0.0-14.0-0.0-1.15","5d8cbd29cad5dc0015e66f9e","619531dcf66c91622fa1b861","619596fd4956c4e25123b605","1305.5","","s","false","[[187,21],[21,412],[412,578],[578,187]]","true","4","main_T2_Trial","d","img/Fire_Down_Target.gif","[""img/Fire_Up_Distractor.gif"",""img/Fire_Up_Distractor.gif"",""img/Fire_Up_Distractor.gif"",""img/Fire_Up_Distractor.gif"",""img/Fire_Up_Distractor.gif"",""img/Fire_Up_Distractor.gif"",""img/Fire_Up_Distractor.gif"",""img/Fire_Up_Distractor.gif"",""img/Fire_Up_Distractor.gif"",""img/Fire_Up_Distractor.gif"",""img/Fire_Up_Distractor.gif"",""img/Fire_Up_Distractor.gif""]","4","targetDown_distractorsUp"
"","","","","","html-keyboard-response","46","132257","0.0-14.0-0.0-0.16","5d8cbd29cad5dc0015e66f9e","619531dcf66c91622fa1b861","619596fd4956c4e25123b605","null","","null","","","","","main_T1_ITI","","","","",""
"","","","","","visual-search-circle","47","135957","0.0-14.0-0.0-1.16","5d8cbd29cad5dc0015e66f9e","619531dcf66c91622fa1b861","619596fd4956c4e25123b605","2690","","s","false","[[57,123],[25,422],[268,598],[542,476],[574,177],[331,1]]","true","6","main_T2_Trial","d","img/Fire_Down_Target.gif","[""img/Fire_Up_Distractor.gif"",""img/Fire_Up_Distractor.gif"",""img/Fire_Up_Distractor.gif"",""img/Fire_Up_Distractor.gif"",""img/Fire_Up_Distractor.gif"",""img/Fire_Up_Distractor.gif"",""img/Fire_Up_Distractor.gif"",""img/Fire_Up_Distractor.gif"",""img/Fire_Up_Distractor.gif"",""img/Fire_Up_Distractor.gif"",""img/Fire_Up_Distractor.gif"",""img/Fire_Up_Distractor.gif""]","6","targetDown_distractorsUp"
"","","","","","html-keyboard-response","48","135962","0.0-14.0-0.0-0.17","5d8cbd29cad5dc0015e66f9e","619531dcf66c91622fa1b861","619596fd4956c4e25123b605","null","","null","","","","","main_T1_ITI","","","","",""
"","","","","","visual-search-circle","49","138004","0.0-14.0-0.0-1.17","5d8cbd29cad5dc0015e66f9e","619531dcf66c91622fa1b861","619596fd4956c4e25123b605","1021.7999999970198","","s","true","[[551,463],[593,237],[463,48],[237,6],[48,136],[6,362],[136,551],[362,593]]","false","8","main_T2_Trial","s","img/Fire_Down_Target.gif","[""img/Fire_Up_Distractor.gif"",""img/Fire_Up_Distractor.gif"",""img/Fire_Up_Distractor.gif"",""img/Fire_Up_Distractor.gif"",""img/Fire_Up_Distractor.gif"",""img/Fire_Up_Distractor.gif"",""img/Fire_Up_Distractor.gif"",""img/Fire_Up_Distractor.gif"",""img/Fire_Up_Distractor.gif"",""img/Fire_Up_Distractor.gif"",""img/Fire_Up_Distractor.gif"",""img/Fire_Up_Distractor.gif""]","8","targetDown_distractorsUp"
"","","","","","html-keyboard-response","50","138022","0.0-14.0-0.0-0.18","5d8cbd29cad5dc0015e66f9e","619531dcf66c91622fa1b861","619596fd4956c4e25123b605","null","","null","","","","","main_T1_ITI","","","","",""
"","","","","","visual-search-circle","51","141158","0.0-14.0-0.0-1.18","5d8cbd29cad5dc0015e66f9e","619531dcf66c91622fa1b861","619596fd4956c4e25123b605","2116","","s","false","[[0,294],[84,508],[294,599],[508,515],[599,305],[515,91],[305,0],[91,84]]","true","8","main_T2_Trial","d","img/Fire_Up_Target.gif","[""img/Fire_Down_Distractor.gif"",""img/Fire_Down_Distractor.gif"",""img/Fire_Down_Distractor.gif"",""img/Fire_Down_Distractor.gif"",""img/Fire_Down_Distractor.gif"",""img/Fire_Down_Distractor.gif"",""img/Fire_Down_Distractor.gif"",""img/Fire_Down_Distractor.gif"",""img/Fire_Down_Distractor.gif"",""img/Fire_Down_Distractor.gif"",""img/Fire_Down_Distractor.gif"",""img/Fire_Down_Distractor.gif""]","8","targetUp_distractorsDown"
"","","","","","html-keyboard-response","52","145602","0.0-14.0-0.0-0.19","5d8cbd29cad5dc0015e66f9e","619531dcf66c91622fa1b861","619596fd4956c4e25123b605","4443.20000000298","Wow! You've completed 20 out of 160 trials! </p> <p>  </p><p> Take a quick break, then press any key when you're ready to continue."," ","","","","","main_T1_ITI","","","","",""
"","","","","","visual-search-circle","53","148831","0.0-14.0-0.0-1.19","5d8cbd29cad5dc0015e66f9e","619531dcf66c91622fa1b861","619596fd4956c4e25123b605","2209.8999999910593","","s","true","[[557,145],[145,42],[42,454],[454,557]]","false","4","main_T2_Trial","s","img/Fire_Up_Target.gif","[""img/Fire_Down_Distractor.gif"",""img/Fire_Down_Distractor.gif"",""img/Fire_Down_Distractor.gif"",""img/Fire_Down_Distractor.gif"",""img/Fire_Down_Distractor.gif"",""img/Fire_Down_Distractor.gif"",""img/Fire_Down_Distractor.gif"",""img/Fire_Down_Distractor.gif"",""img/Fire_Down_Distractor.gif"",""img/Fire_Down_Distractor.gif"",""img/Fire_Down_Distractor.gif"",""img/Fire_Down_Distractor.gif""]","4","targetUp_distractorsDown"
"","","","","","html-keyboard-response","54","148833","0.0-14.0-0.0-0.20","5d8cbd29cad5dc0015e66f9e","619531dcf66c91622fa1b861","619596fd4956c4e25123b605","null","","null","","","","","main_T1_ITI","","","","",""
"","","","","","visual-search-circle","55","150925","0.0-14.0-0.0-1.20","5d8cbd29cad5dc0015e66f9e","619531dcf66c91622fa1b861","619596fd4956c4e25123b605","1075.6000000089407","","s","false","[[123,57],[3,253],[57,476],[253,596],[476,542],[596,346],[542,123],[346,3]]","true","8","main_T2_Trial","d","img/Fire_Up_Target.gif","[""img/Fire_Down_Distractor.gif"",""img/Fire_Down_Distractor.gif"",""img/Fire_Down_Distractor.gif"",""img/Fire_Down_Distractor.gif"",""img/Fire_Down_Distractor.gif"",""img/Fire_Down_Distractor.gif"",""img/Fire_Down_Distractor.gif"",""img/Fire_Down_Distractor.gif"",""img/Fire_Down_Distractor.gif"",""img/Fire_Down_Distractor.gif"",""img/Fire_Down_Distractor.gif"",""img/Fire_Down_Distractor.gif""]","8","targetUp_distractorsDown"
"","","","","","html-keyboard-response","56","150931","0.0-14.0-0.0-0.21","5d8cbd29cad5dc0015e66f9e","619531dcf66c91622fa1b861","619596fd4956c4e25123b605","null","","null","","","","","main_T1_ITI","","","","",""
"","","","","","visual-search-circle","57","153388","0.0-14.0-0.0-1.21","5d8cbd29cad5dc0015e66f9e","619531dcf66c91622fa1b861","619596fd4956c4e25123b605","1439","","s","false","[[8,227],[141,554],[492,529],[578,187],[279,0]]","true","5","main_T2_Trial","d","img/Fire_Down_Target.gif","[""img/Fire_Up_Distractor.gif"",""img/Fire_Up_Distractor.gif"",""img/Fire_Up_Distractor.gif"",""img/Fire_Up_Distractor.gif"",""img/Fire_Up_Distractor.gif"",""img/Fire_Up_Distractor.gif"",""img/Fire_Up_Distractor.gif"",""img/Fire_Up_Distractor.gif"",""img/Fire_Up_Distractor.gif"",""img/Fire_Up_Distractor.gif"",""img/Fire_Up_Distractor.gif"",""img/Fire_Up_Distractor.gif""]","5","targetDown_distractorsUp"
"","","","","","html-keyboard-response","58","153392","0.0-14.0-0.0-0.22","5d8cbd29cad5dc0015e66f9e","619531dcf66c91622fa1b861","619596fd4956c4e25123b605","null","","null","","","","","main_T1_ITI","","","","",""
"","","","","","visual-search-circle","59","155210","0.0-14.0-0.0-1.22","5d8cbd29cad5dc0015e66f9e","619531dcf66c91622fa1b861","619596fd4956c4e25123b605","800","","d","true","[[592,232],[458,45],[232,7],[45,141],[7,367],[141,554],[367,592],[554,458]]","true","8","main_T2_Trial","d","img/Fire_Down_Target.gif","[""img/Fire_Up_Distractor.gif"",""img/Fire_Up_Distractor.gif"",""img/Fire_Up_Distractor.gif"",""img/Fire_Up_Distractor.gif"",""img/Fire_Up_Distractor.gif"",""img/Fire_Up_Distractor.gif"",""img/Fire_Up_Distractor.gif"",""img/Fire_Up_Distractor.gif"",""img/Fire_Up_Distractor.gif"",""img/Fire_Up_Distractor.gif"",""img/Fire_Up_Distractor.gif"",""img/Fire_Up_Distractor.gif""]","8","targetDown_distractorsUp"
"","","","","","html-keyboard-response","60","155221","0.0-14.0-0.0-0.23","5d8cbd29cad5dc0015e66f9e","619531dcf66c91622fa1b861","619596fd4956c4e25123b605","null","","null","","","","","main_T1_ITI","","","","",""
"","","","","","visual-search-circle","61","157638","0.0-14.0-0.0-1.23","5d8cbd29cad5dc0015e66f9e","619531dcf66c91622fa1b861","619596fd4956c4e25123b605","1396.5","","s","false","[[60,480],[336,597],[576,417],[539,119],[263,2],[23,182]]","true","6","main_T2_Trial","d","img/Fire_Up_Target.gif","[""img/Fire_Down_Distractor.gif"",""img/Fire_Down_Distractor.gif"",""img/Fire_Down_Distractor.gif"",""img/Fire_Down_Distractor.gif"",""img/Fire_Down_Distractor.gif"",""img/Fire_Down_Distractor.gif"",""img/Fire_Down_Distractor.gif"",""img/Fire_Down_Distractor.gif"",""img/Fire_Down_Distractor.gif"",""img/Fire_Down_Distractor.gif"",""img/Fire_Down_Distractor.gif"",""img/Fire_Down_Distractor.gif""]","6","targetUp_distractorsDown"
"","","","","","html-keyboard-response","62","157640","0.0-14.0-0.0-0.24","5d8cbd29cad5dc0015e66f9e","619531dcf66c91622fa1b861","619596fd4956c4e25123b605","null","","null","","","","","main_T1_ITI","","","","",""
"","","","","","visual-search-circle","63","160559","0.0-14.0-0.0-1.24","5d8cbd29cad5dc0015e66f9e","619531dcf66c91622fa1b861","619596fd4956c4e25123b605","1900.300000011921","","s","false","[[454,42],[42,145],[145,557],[557,454]]","true","4","main_T2_Trial","d","img/Fire_Down_Target.gif","[""img/Fire_Up_Distractor.gif"",""img/Fire_Up_Distractor.gif"",""img/Fire_Up_Distractor.gif"",""img/Fire_Up_Distractor.gif"",""img/Fire_Up_Distractor.gif"",""img/Fire_Up_Distractor.gif"",""img/Fire_Up_Distractor.gif"",""img/Fire_Up_Distractor.gif"",""img/Fire_Up_Distractor.gif"",""img/Fire_Up_Distractor.gif"",""img/Fire_Up_Distractor.gif"",""img/Fire_Up_Distractor.gif""]","4","targetDown_distractorsUp"
"","","","","","html-keyboard-response","64","160561","0.0-14.0-0.0-0.25","5d8cbd29cad5dc0015e66f9e","619531dcf66c91622fa1b861","619596fd4956c4e25123b605","null","","null","","","","","main_T1_ITI","","","","",""
"","","","","","visual-search-circle","65","163255","0.0-14.0-0.0-1.25","5d8cbd29cad5dc0015e66f9e","619531dcf66c91622fa1b861","619596fd4956c4e25123b605","1687","","s","true","[[212,586],[586,387],[387,13],[13,212]]","false","4","main_T2_Trial","s","img/Fire_Down_Target.gif","[""img/Fire_Up_Distractor.gif"",""img/Fire_Up_Distractor.gif"",""img/Fire_Up_Distractor.gif"",""img/Fire_Up_Distractor.gif"",""img/Fire_Up_Distractor.gif"",""img/Fire_Up_Distractor.gif"",""img/Fire_Up_Distractor.gif"",""img/Fire_Up_Distractor.gif"",""img/Fire_Up_Distractor.gif"",""img/Fire_Up_Distractor.gif"",""img/Fire_Up_Distractor.gif"",""img/Fire_Up_Distractor.gif""]","4","targetDown_distractorsUp"
"","","","","","html-keyboard-response","66","163261","0.0-14.0-0.0-0.26","5d8cbd29cad5dc0015e66f9e","619531dcf66c91622fa1b861","619596fd4956c4e25123b605","null","","null","","","","","main_T1_ITI","","","","",""
"","","","","","visual-search-circle","67","166847","0.0-14.0-0.0-1.26","5d8cbd29cad5dc0015e66f9e","619531dcf66c91622fa1b861","619596fd4956c4e25123b605","2571.4000000059605","","s","false","[[445,37],[185,22],[11,216],[55,473],[282,599],[523,500],[595,250]]","true","7","main_T2_Trial","d","img/Fire_Down_Target.gif","[""img/Fire_Up_Distractor.gif"",""img/Fire_Up_Distractor.gif"",""img/Fire_Up_Distractor.gif"",""img/Fire_Up_Distractor.gif"",""img/Fire_Up_Distractor.gif"",""img/Fire_Up_Distractor.gif"",""img/Fire_Up_Distractor.gif"",""img/Fire_Up_Distractor.gif"",""img/Fire_Up_Distractor.gif"",""img/Fire_Up_Distractor.gif"",""img/Fire_Up_Distractor.gif"",""img/Fire_Up_Distractor.gif""]","7","targetDown_distractorsUp"
"","","","","","html-keyboard-response","68","166859","0.0-14.0-0.0-0.27","5d8cbd29cad5dc0015e66f9e","619531dcf66c91622fa1b861","619596fd4956c4e25123b605","null","","null","","","","","main_T1_ITI","","","","",""
"","","","","","visual-search-circle","69","169568","0.0-14.0-0.0-1.27","5d8cbd29cad5dc0015e66f9e","619531dcf66c91622fa1b861","619596fd4956c4e25123b605","1698.2000000029802","","s","true","[[107,529],[359,594],[566,436],[573,176],[374,9],[118,60],[0,292]]","false","7","main_T2_Trial","s","img/Fire_Up_Target.gif","[""img/Fire_Down_Distractor.gif"",""img/Fire_Down_Distractor.gif"",""img/Fire_Down_Distractor.gif"",""img/Fire_Down_Distractor.gif"",""img/Fire_Down_Distractor.gif"",""img/Fire_Down_Distractor.gif"",""img/Fire_Down_Distractor.gif"",""img/Fire_Down_Distractor.gif"",""img/Fire_Down_Distractor.gif"",""img/Fire_Down_Distractor.gif"",""img/Fire_Down_Distractor.gif"",""img/Fire_Down_Distractor.gif""]","7","targetUp_distractorsDown"
"","","","","","html-keyboard-response","70","169573","0.0-14.0-0.0-0.28","5d8cbd29cad5dc0015e66f9e","619531dcf66c91622fa1b861","619596fd4956c4e25123b605","null","","null","","","","","main_T1_ITI","","","","",""
"","","","","","visual-search-circle","71","171859","0.0-14.0-0.0-1.28","5d8cbd29cad5dc0015e66f9e","619531dcf66c91622fa1b861","619596fd4956c4e25123b605","1261","","d","true","[[32,436],[207,585],[436,567],[585,392],[567,163],[392,14],[163,32],[14,207]]","true","8","main_T2_Trial","d","img/Fire_Down_Target.gif","[""img/Fire_Up_Distractor.gif"",""img/Fire_Up_Distractor.gif"",""img/Fire_Up_Distractor.gif"",""img/Fire_Up_Distractor.gif"",""img/Fire_Up_Distractor.gif"",""img/Fire_Up_Distractor.gif"",""img/Fire_Up_Distractor.gif"",""img/Fire_Up_Distractor.gif"",""img/Fire_Up_Distractor.gif"",""img/Fire_Up_Distractor.gif"",""img/Fire_Up_Distractor.gif"",""img/Fire_Up_Distractor.gif""]","8","targetDown_distractorsUp"
"","","","","","html-keyboard-response","72","171863","0.0-14.0-0.0-0.29","5d8cbd29cad5dc0015e66f9e","619531dcf66c91622fa1b861","619596fd4956c4e25123b605","null","","null","","","","","main_T1_ITI","","","","",""
"","","","","","visual-search-circle","73","173750","0.0-14.0-0.0-1.29","5d8cbd29cad5dc0015e66f9e","619531dcf66c91622fa1b861","619596fd4956c4e25123b605","875.3000000119209","","s","true","[[3,346],[253,596],[567,436],[512,87],[163,32]]","false","5","main_T2_Trial","s","img/Fire_Up_Target.gif","[""img/Fire_Down_Distractor.gif"",""img/Fire_Down_Distractor.gif"",""img/Fire_Down_Distractor.gif"",""img/Fire_Down_Distractor.gif"",""img/Fire_Down_Distractor.gif"",""img/Fire_Down_Distractor.gif"",""img/Fire_Down_Distractor.gif"",""img/Fire_Down_Distractor.gif"",""img/Fire_Down_Distractor.gif"",""img/Fire_Down_Distractor.gif"",""img/Fire_Down_Distractor.gif"",""img/Fire_Down_Distractor.gif""]","5","targetUp_distractorsDown"
"","","","","","html-keyboard-response","74","173760","0.0-14.0-0.0-0.30","5d8cbd29cad5dc0015e66f9e","619531dcf66c91622fa1b861","619596fd4956c4e25123b605","null","","null","","","","","main_T1_ITI","","","","",""
"","","","","","visual-search-circle","75","175594","0.0-14.0-0.0-1.30","5d8cbd29cad5dc0015e66f9e","619531dcf66c91622fa1b861","619596fd4956c4e25123b605","820.5999999940395","","s","true","[[0,279],[279,599],[599,320],[320,0]]","false","4","main_T2_Trial","s","img/Fire_Down_Target.gif","[""img/Fire_Up_Distractor.gif"",""img/Fire_Up_Distractor.gif"",""img/Fire_Up_Distractor.gif"",""img/Fire_Up_Distractor.gif"",""img/Fire_Up_Distractor.gif"",""img/Fire_Up_Distractor.gif"",""img/Fire_Up_Distractor.gif"",""img/Fire_Up_Distractor.gif"",""img/Fire_Up_Distractor.gif"",""img/Fire_Up_Distractor.gif"",""img/Fire_Up_Distractor.gif"",""img/Fire_Up_Distractor.gif""]","4","targetDown_distractorsUp"
"","","","","","html-keyboard-response","76","175597","0.0-14.0-0.0-0.31","5d8cbd29cad5dc0015e66f9e","619531dcf66c91622fa1b861","619596fd4956c4e25123b605","null","","null","","","","","main_T1_ITI","","","","",""
"","","","","","visual-search-circle","77","177509","0.0-14.0-0.0-1.31","5d8cbd29cad5dc0015e66f9e","619531dcf66c91622fa1b861","619596fd4956c4e25123b605","901.7000000029802","","s","false","[[163,32],[3,346],[253,596],[567,436],[512,87]]","true","5","main_T2_Trial","d","img/Fire_Down_Target.gif","[""img/Fire_Up_Distractor.gif"",""img/Fire_Up_Distractor.gif"",""img/Fire_Up_Distractor.gif"",""img/Fire_Up_Distractor.gif"",""img/Fire_Up_Distractor.gif"",""img/Fire_Up_Distractor.gif"",""img/Fire_Up_Distractor.gif"",""img/Fire_Up_Distractor.gif"",""img/Fire_Up_Distractor.gif"",""img/Fire_Up_Distractor.gif"",""img/Fire_Up_Distractor.gif"",""img/Fire_Up_Distractor.gif""]","5","targetDown_distractorsUp"
"","","","","","html-keyboard-response","78","177511","0.0-14.0-0.0-0.32","5d8cbd29cad5dc0015e66f9e","619531dcf66c91622fa1b861","619596fd4956c4e25123b605","null","","null","","","","","main_T1_ITI","","","","",""
"","","","","","visual-search-circle","79","180356","0.0-14.0-0.0-1.32","5d8cbd29cad5dc0015e66f9e","619531dcf66c91622fa1b861","619596fd4956c4e25123b605","1830.2999999970198","","s","false","[[40,450],[299,600],[559,450],[559,150],[300,0],[40,150]]","true","6","main_T2_Trial","d","img/Fire_Down_Target.gif","[""img/Fire_Up_Distractor.gif"",""img/Fire_Up_Distractor.gif"",""img/Fire_Up_Distractor.gif"",""img/Fire_Up_Distractor.gif"",""img/Fire_Up_Distractor.gif"",""img/Fire_Up_Distractor.gif"",""img/Fire_Up_Distractor.gif"",""img/Fire_Up_Distractor.gif"",""img/Fire_Up_Distractor.gif"",""img/Fire_Up_Distractor.gif"",""img/Fire_Up_Distractor.gif"",""img/Fire_Up_Distractor.gif""]","6","targetDown_distractorsUp"
"","","","","","html-keyboard-response","80","180358","0.0-14.0-0.0-0.33","5d8cbd29cad5dc0015e66f9e","619531dcf66c91622fa1b861","619596fd4956c4e25123b605","null","","null","","","","","main_T1_ITI","","","","",""
"","","","","","visual-search-circle","81","182652","0.0-14.0-0.0-1.33","5d8cbd29cad5dc0015e66f9e","619531dcf66c91622fa1b861","619596fd4956c4e25123b605","1276.4000000059605","","s","true","[[77,500],[362,593],[585,392],[522,99],[237,6],[14,207]]","false","6","main_T2_Trial","s","img/Fire_Up_Target.gif","[""img/Fire_Down_Distractor.gif"",""img/Fire_Down_Distractor.gif"",""img/Fire_Down_Distractor.gif"",""img/Fire_Down_Distractor.gif"",""img/Fire_Down_Distractor.gif"",""img/Fire_Down_Distractor.gif"",""img/Fire_Down_Distractor.gif"",""img/Fire_Down_Distractor.gif"",""img/Fire_Down_Distractor.gif"",""img/Fire_Down_Distractor.gif"",""img/Fire_Down_Distractor.gif"",""img/Fire_Down_Distractor.gif""]","6","targetUp_distractorsDown"
"","","","","","html-keyboard-response","82","182654","0.0-14.0-0.0-0.34","5d8cbd29cad5dc0015e66f9e","619531dcf66c91622fa1b861","619596fd4956c4e25123b605","null","","null","","","","","main_T1_ITI","","","","",""
"","","","","","visual-search-circle","83","184802","0.0-14.0-0.0-1.34","5d8cbd29cad5dc0015e66f9e","619531dcf66c91622fa1b861","619596fd4956c4e25123b605","1135.9000000059605","","s","true","[[402,18],[143,44],[2,262],[85,509],[329,598],[552,462],[584,204]]","false","7","main_T2_Trial","s","img/Fire_Up_Target.gif","[""img/Fire_Down_Distractor.gif"",""img/Fire_Down_Distractor.gif"",""img/Fire_Down_Distractor.gif"",""img/Fire_Down_Distractor.gif"",""img/Fire_Down_Distractor.gif"",""img/Fire_Down_Distractor.gif"",""img/Fire_Down_Distractor.gif"",""img/Fire_Down_Distractor.gif"",""img/Fire_Down_Distractor.gif"",""img/Fire_Down_Distractor.gif"",""img/Fire_Down_Distractor.gif"",""img/Fire_Down_Distractor.gif""]","7","targetUp_distractorsDown"
"","","","","","html-keyboard-response","84","184805","0.0-14.0-0.0-0.35","5d8cbd29cad5dc0015e66f9e","619531dcf66c91622fa1b861","619596fd4956c4e25123b605","null","","null","","","","","main_T1_ITI","","","","",""
"","","","","","visual-search-circle","85","186776","0.0-14.0-0.0-1.35","5d8cbd29cad5dc0015e66f9e","619531dcf66c91622fa1b861","619596fd4956c4e25123b605","958.4000000059605","","s","true","[[554,141],[227,8],[0,279],[187,578],[529,492]]","false","5","main_T2_Trial","s","img/Fire_Down_Target.gif","[""img/Fire_Up_Distractor.gif"",""img/Fire_Up_Distractor.gif"",""img/Fire_Up_Distractor.gif"",""img/Fire_Up_Distractor.gif"",""img/Fire_Up_Distractor.gif"",""img/Fire_Up_Distractor.gif"",""img/Fire_Up_Distractor.gif"",""img/Fire_Up_Distractor.gif"",""img/Fire_Up_Distractor.gif"",""img/Fire_Up_Distractor.gif"",""img/Fire_Up_Distractor.gif"",""img/Fire_Up_Distractor.gif""]","5","targetDown_distractorsUp"
"","","","","","html-keyboard-response","86","186777","0.0-14.0-0.0-0.36","5d8cbd29cad5dc0015e66f9e","619531dcf66c91622fa1b861","619596fd4956c4e25123b605","null","","null","","","","","main_T1_ITI","","","","",""
"","","","","","visual-search-circle","87","188783","0.0-14.0-0.0-1.36","5d8cbd29cad5dc0015e66f9e","619531dcf66c91622fa1b861","619596fd4956c4e25123b605","993.3000000119209","","s","true","[[536,484],[578,187],[341,2],[63,115],[21,412],[258,597]]","false","6","main_T2_Trial","s","img/Fire_Down_Target.gif","[""img/Fire_Up_Distractor.gif"",""img/Fire_Up_Distractor.gif"",""img/Fire_Up_Distractor.gif"",""img/Fire_Up_Distractor.gif"",""img/Fire_Up_Distractor.gif"",""img/Fire_Up_Distractor.gif"",""img/Fire_Up_Distractor.gif"",""img/Fire_Up_Distractor.gif"",""img/Fire_Up_Distractor.gif"",""img/Fire_Up_Distractor.gif"",""img/Fire_Up_Distractor.gif"",""img/Fire_Up_Distractor.gif""]","6","targetDown_distractorsUp"
"","","","","","html-keyboard-response","88","188789","0.0-14.0-0.0-0.37","5d8cbd29cad5dc0015e66f9e","619531dcf66c91622fa1b861","619596fd4956c4e25123b605","null","","null","","","","","main_T1_ITI","","","","",""
"","","","","","visual-search-circle","89","191723","0.0-14.0-0.0-1.37","5d8cbd29cad5dc0015e66f9e","619531dcf66c91622fa1b861","619596fd4956c4e25123b605","1911.9000000059605","","s","true","[[597,263],[457,44],[198,17],[15,203],[47,462],[269,598],[514,510]]","false","7","main_T2_Trial","s","img/Fire_Down_Target.gif","[""img/Fire_Up_Distractor.gif"",""img/Fire_Up_Distractor.gif"",""img/Fire_Up_Distractor.gif"",""img/Fire_Up_Distractor.gif"",""img/Fire_Up_Distractor.gif"",""img/Fire_Up_Distractor.gif"",""img/Fire_Up_Distractor.gif"",""img/Fire_Up_Distractor.gif"",""img/Fire_Up_Distractor.gif"",""img/Fire_Up_Distractor.gif"",""img/Fire_Up_Distractor.gif"",""img/Fire_Up_Distractor.gif""]","7","targetDown_distractorsUp"
"","","","","","html-keyboard-response","90","191728","0.0-14.0-0.0-0.38","5d8cbd29cad5dc0015e66f9e","619531dcf66c91622fa1b861","619596fd4956c4e25123b605","null","","null","","","","","main_T1_ITI","","","","",""
"","","","","","visual-search-circle","91","193741","0.0-14.0-0.0-1.38","5d8cbd29cad5dc0015e66f9e","619531dcf66c91622fa1b861","619596fd4956c4e25123b605","999","","s","false","[[7,367],[273,598],[576,417],[496,73],[145,42]]","true","5","main_T2_Trial","d","img/Fire_Up_Target.gif","[""img/Fire_Down_Distractor.gif"",""img/Fire_Down_Distractor.gif"",""img/Fire_Down_Distractor.gif"",""img/Fire_Down_Distractor.gif"",""img/Fire_Down_Distractor.gif"",""img/Fire_Down_Distractor.gif"",""img/Fire_Down_Distractor.gif"",""img/Fire_Down_Distractor.gif"",""img/Fire_Down_Distractor.gif"",""img/Fire_Down_Distractor.gif"",""img/Fire_Down_Distractor.gif"",""img/Fire_Down_Distractor.gif""]","5","targetUp_distractorsDown"
"","","","","","html-keyboard-response","92","195433","0.0-14.0-0.0-0.39","5d8cbd29cad5dc0015e66f9e","619531dcf66c91622fa1b861","619596fd4956c4e25123b605","1690.8999999910593","Wow! You've completed 40 out of 160 trials! </p> <p>  </p><p> Take a quick break, then press any key when you're ready to continue."," ","","","","","main_T1_ITI","","","","",""
"","","","","","visual-search-circle","93","197442","0.0-14.0-0.0-1.39","5d8cbd29cad5dc0015e66f9e","619531dcf66c91622fa1b861","619596fd4956c4e25123b605","1002.0999999940395","","s","true","[[5,357],[263,597],[571,426],[504,80],[154,37]]","false","5","main_T2_Trial","s","img/Fire_Up_Target.gif","[""img/Fire_Down_Distractor.gif"",""img/Fire_Down_Distractor.gif"",""img/Fire_Down_Distractor.gif"",""img/Fire_Down_Distractor.gif"",""img/Fire_Down_Distractor.gif"",""img/Fire_Down_Distractor.gif"",""img/Fire_Down_Distractor.gif"",""img/Fire_Down_Distractor.gif"",""img/Fire_Down_Distractor.gif"",""img/Fire_Down_Distractor.gif"",""img/Fire_Down_Distractor.gif"",""img/Fire_Down_Distractor.gif""]","5","targetUp_distractorsDown"
"","","","","","html-keyboard-response","94","197449","0.0-14.0-0.0-0.40","5d8cbd29cad5dc0015e66f9e","619531dcf66c91622fa1b861","619596fd4956c4e25123b605","null","","null","","","","","main_T1_ITI","","","","",""
"","","","","","visual-search-circle","95","200664","0.0-14.0-0.0-1.40","5d8cbd29cad5dc0015e66f9e","619531dcf66c91622fa1b861","619596fd4956c4e25123b605","2204.2999999970198","","s","false","[[596,253],[448,39],[188,21],[12,213],[53,470],[279,599],[521,502]]","true","7","main_T2_Trial","d","img/Fire_Down_Target.gif","[""img/Fire_Up_Distractor.gif"",""img/Fire_Up_Distractor.gif"",""img/Fire_Up_Distractor.gif"",""img/Fire_Up_Distractor.gif"",""img/Fire_Up_Distractor.gif"",""img/Fire_Up_Distractor.gif"",""img/Fire_Up_Distractor.gif"",""img/Fire_Up_Distractor.gif"",""img/Fire_Up_Distractor.gif"",""img/Fire_Up_Distractor.gif"",""img/Fire_Up_Distractor.gif"",""img/Fire_Up_Distractor.gif""]","7","targetDown_distractorsUp"
"","","","","","html-keyboard-response","96","200666","0.0-14.0-0.0-0.41","5d8cbd29cad5dc0015e66f9e","619531dcf66c91622fa1b861","619596fd4956c4e25123b605","null","","null","","","","","main_T1_ITI","","","","",""
"","","","","","visual-search-circle","97","202898","0.0-14.0-0.0-1.41","5d8cbd29cad5dc0015e66f9e","619531dcf66c91622fa1b861","619596fd4956c4e25123b605","1217.2999999970198","","d","true","[[450,559],[589,377],[559,150],[377,10],[150,40],[10,222],[40,449],[222,589]]","true","8","main_T2_Trial","d","img/Fire_Up_Target.gif","[""img/Fire_Down_Distractor.gif"",""img/Fire_Down_Distractor.gif"",""img/Fire_Down_Distractor.gif"",""img/Fire_Down_Distractor.gif"",""img/Fire_Down_Distractor.gif"",""img/Fire_Down_Distractor.gif"",""img/Fire_Down_Distractor.gif"",""img/Fire_Down_Distractor.gif"",""img/Fire_Down_Distractor.gif"",""img/Fire_Down_Distractor.gif"",""img/Fire_Down_Distractor.gif"",""img/Fire_Down_Distractor.gif""]","8","targetUp_distractorsDown"
"","","","","","html-keyboard-response","98","202900","0.0-14.0-0.0-0.42","5d8cbd29cad5dc0015e66f9e","619531dcf66c91622fa1b861","619596fd4956c4e25123b605","null","","null","","","","","main_T1_ITI","","","","",""
"","","","","","visual-search-circle","99","205671","0.0-14.0-0.0-1.42","5d8cbd29cad5dc0015e66f9e","619531dcf66c91622fa1b861","619596fd4956c4e25123b605","1754.7999999970198","","d","true","[[30,431],[202,583],[431,569],[583,397],[569,168],[397,16],[168,30],[16,202]]","true","8","main_T2_Trial","d","img/Fire_Up_Target.gif","[""img/Fire_Down_Distractor.gif"",""img/Fire_Down_Distractor.gif"",""img/Fire_Down_Distractor.gif"",""img/Fire_Down_Distractor.gif"",""img/Fire_Down_Distractor.gif"",""img/Fire_Down_Distractor.gif"",""img/Fire_Down_Distractor.gif"",""img/Fire_Down_Distractor.gif"",""img/Fire_Down_Distractor.gif"",""img/Fire_Down_Distractor.gif"",""img/Fire_Down_Distractor.gif"",""img/Fire_Down_Distractor.gif""]","8","targetUp_distractorsDown"
"","","","","","html-keyboard-response","100","205678","0.0-14.0-0.0-0.43","5d8cbd29cad5dc0015e66f9e","619531dcf66c91622fa1b861","619596fd4956c4e25123b605","null","","null","","","","","main_T1_ITI","","","","",""
"","","","","","visual-search-circle","101","207974","0.0-14.0-0.0-1.43","5d8cbd29cad5dc0015e66f9e","619531dcf66c91622fa1b861","619596fd4956c4e25123b605","1282.5999999940395","","s","true","[[542,476],[574,177],[331,1],[57,123],[25,422],[268,598]]","false","6","main_T2_Trial","s","img/Fire_Down_Target.gif","[""img/Fire_Up_Distractor.gif"",""img/Fire_Up_Distractor.gif"",""img/Fire_Up_Distractor.gif"",""img/Fire_Up_Distractor.gif"",""img/Fire_Up_Distractor.gif"",""img/Fire_Up_Distractor.gif"",""img/Fire_Up_Distractor.gif"",""img/Fire_Up_Distractor.gif"",""img/Fire_Up_Distractor.gif"",""img/Fire_Up_Distractor.gif"",""img/Fire_Up_Distractor.gif"",""img/Fire_Up_Distractor.gif""]","6","targetDown_distractorsUp"
"","","","","","html-keyboard-response","102","207990","0.0-14.0-0.0-0.44","5d8cbd29cad5dc0015e66f9e","619531dcf66c91622fa1b861","619596fd4956c4e25123b605","null","","null","","","","","main_T1_ITI","","","","",""
"","","","","","visual-search-circle","103","210455","0.0-14.0-0.0-1.44","5d8cbd29cad5dc0015e66f9e","619531dcf66c91622fa1b861","619596fd4956c4e25123b605","1445.8999999910593","","d","true","[[0,305],[305,599],[599,294],[294,0]]","true","4","main_T2_Trial","d","img/Fire_Down_Target.gif","[""img/Fire_Up_Distractor.gif"",""img/Fire_Up_Distractor.gif"",""img/Fire_Up_Distractor.gif"",""img/Fire_Up_Distractor.gif"",""img/Fire_Up_Distractor.gif"",""img/Fire_Up_Distractor.gif"",""img/Fire_Up_Distractor.gif"",""img/Fire_Up_Distractor.gif"",""img/Fire_Up_Distractor.gif"",""img/Fire_Up_Distractor.gif"",""img/Fire_Up_Distractor.gif"",""img/Fire_Up_Distractor.gif""]","4","targetDown_distractorsUp"
"","","","","","html-keyboard-response","104","210466","0.0-14.0-0.0-0.45","5d8cbd29cad5dc0015e66f9e","619531dcf66c91622fa1b861","619596fd4956c4e25123b605","null","","null","","","","","main_T1_ITI","","","","",""
"","","","","","visual-search-circle","105","212345","0.0-14.0-0.0-1.45","5d8cbd29cad5dc0015e66f9e","619531dcf66c91622fa1b861","619596fd4956c4e25123b605","864.3000000119209","","s","true","[[599,289],[440,35],[141,45],[0,310],[159,564],[458,554]]","false","6","main_T2_Trial","s","img/Fire_Up_Target.gif","[""img/Fire_Down_Distractor.gif"",""img/Fire_Down_Distractor.gif"",""img/Fire_Down_Distractor.gif"",""img/Fire_Down_Distractor.gif"",""img/Fire_Down_Distractor.gif"",""img/Fire_Down_Distractor.gif"",""img/Fire_Down_Distractor.gif"",""img/Fire_Down_Distractor.gif"",""img/Fire_Down_Distractor.gif"",""img/Fire_Down_Distractor.gif"",""img/Fire_Down_Distractor.gif"",""img/Fire_Down_Distractor.gif""]","6","targetUp_distractorsDown"
"","","","","","html-keyboard-response","106","212349","0.0-14.0-0.0-0.46","5d8cbd29cad5dc0015e66f9e","619531dcf66c91622fa1b861","619596fd4956c4e25123b605","null","","null","","","","","main_T1_ITI","","","","",""
"","","","","","visual-search-circle","107","215501","0.0-14.0-0.0-1.46","5d8cbd29cad5dc0015e66f9e","619531dcf66c91622fa1b861","619596fd4956c4e25123b605","2143.3999999910593","","s","false","[[227,8],[8,372],[372,591],[591,227]]","true","4","main_T2_Trial","d","img/Fire_Up_Target.gif","[""img/Fire_Down_Distractor.gif"",""img/Fire_Down_Distractor.gif"",""img/Fire_Down_Distractor.gif"",""img/Fire_Down_Distractor.gif"",""img/Fire_Down_Distractor.gif"",""img/Fire_Down_Distractor.gif"",""img/Fire_Down_Distractor.gif"",""img/Fire_Down_Distractor.gif"",""img/Fire_Down_Distractor.gif"",""img/Fire_Down_Distractor.gif"",""img/Fire_Down_Distractor.gif"",""img/Fire_Down_Distractor.gif""]","4","targetUp_distractorsDown"
"","","","","","html-keyboard-response","108","215685","0.0-14.0-0.0-0.47","5d8cbd29cad5dc0015e66f9e","619531dcf66c91622fa1b861","619596fd4956c4e25123b605","null","","null","","","","","main_T1_ITI","","","","",""
"","","","","","visual-search-circle","109","217531","0.0-14.0-0.0-1.47","5d8cbd29cad5dc0015e66f9e","619531dcf66c91622fa1b861","619596fd4956c4e25123b605","830.8000000119209","","s","false","[[362,6],[77,99],[14,392],[237,593],[522,500],[585,207]]","true","6","main_T2_Trial","d","img/Fire_Down_Target.gif","[""img/Fire_Up_Distractor.gif"",""img/Fire_Up_Distractor.gif"",""img/Fire_Up_Distractor.gif"",""img/Fire_Up_Distractor.gif"",""img/Fire_Up_Distractor.gif"",""img/Fire_Up_Distractor.gif"",""img/Fire_Up_Distractor.gif"",""img/Fire_Up_Distractor.gif"",""img/Fire_Up_Distractor.gif"",""img/Fire_Up_Distractor.gif"",""img/Fire_Up_Distractor.gif"",""img/Fire_Up_Distractor.gif""]","6","targetDown_distractorsUp"
"","","","","","html-keyboard-response","110","217533","0.0-14.0-0.0-0.48","5d8cbd29cad5dc0015e66f9e","619531dcf66c91622fa1b861","619596fd4956c4e25123b605","null","","null","","","","","main_T1_ITI","","","","",""
"","","","","","visual-search-circle","111","219936","0.0-14.0-0.0-1.48","5d8cbd29cad5dc0015e66f9e","619531dcf66c91622fa1b861","619596fd4956c4e25123b605","1396.0999999940395","","s","false","[[21,187],[107,529],[458,554],[591,227],[320,0]]","true","5","main_T2_Trial","d","img/Fire_Down_Target.gif","[""img/Fire_Up_Distractor.gif"",""img/Fire_Up_Distractor.gif"",""img/Fire_Up_Distractor.gif"",""img/Fire_Up_Distractor.gif"",""img/Fire_Up_Distractor.gif"",""img/Fire_Up_Distractor.gif"",""img/Fire_Up_Distractor.gif"",""img/Fire_Up_Distractor.gif"",""img/Fire_Up_Distractor.gif"",""img/Fire_Up_Distractor.gif"",""img/Fire_Up_Distractor.gif"",""img/Fire_Up_Distractor.gif""]","5","targetDown_distractorsUp"
"","","","","","html-keyboard-response","112","219941","0.0-14.0-0.0-0.49","5d8cbd29cad5dc0015e66f9e","619531dcf66c91622fa1b861","619596fd4956c4e25123b605","null","","null","","","","","main_T1_ITI","","","","",""
"","","","","","visual-search-circle","113","222254","0.0-14.0-0.0-1.49","5d8cbd29cad5dc0015e66f9e","619531dcf66c91622fa1b861","619596fd4956c4e25123b605","1296.5","","s","true","[[217,11],[11,382],[382,588],[588,217]]","false","4","main_T2_Trial","s","img/Fire_Down_Target.gif","[""img/Fire_Up_Distractor.gif"",""img/Fire_Up_Distractor.gif"",""img/Fire_Up_Distractor.gif"",""img/Fire_Up_Distractor.gif"",""img/Fire_Up_Distractor.gif"",""img/Fire_Up_Distractor.gif"",""img/Fire_Up_Distractor.gif"",""img/Fire_Up_Distractor.gif"",""img/Fire_Up_Distractor.gif"",""img/Fire_Up_Distractor.gif"",""img/Fire_Up_Distractor.gif"",""img/Fire_Up_Distractor.gif""]","4","targetDown_distractorsUp"
"","","","","","html-keyboard-response","114","222256","0.0-14.0-0.0-0.50","5d8cbd29cad5dc0015e66f9e","619531dcf66c91622fa1b861","619596fd4956c4e25123b605","null","","null","","","","","main_T1_ITI","","","","",""
"","","","","","visual-search-circle","115","224995","0.0-14.0-0.0-1.50","5d8cbd29cad5dc0015e66f9e","619531dcf66c91622fa1b861","619596fd4956c4e25123b605","1718.6000000089407","","s","false","[[454,42],[195,18],[14,206],[49,464],[272,598],[516,507],[597,260]]","true","7","main_T2_Trial","d","img/Fire_Down_Target.gif","[""img/Fire_Up_Distractor.gif"",""img/Fire_Up_Distractor.gif"",""img/Fire_Up_Distractor.gif"",""img/Fire_Up_Distractor.gif"",""img/Fire_Up_Distractor.gif"",""img/Fire_Up_Distractor.gif"",""img/Fire_Up_Distractor.gif"",""img/Fire_Up_Distractor.gif"",""img/Fire_Up_Distractor.gif"",""img/Fire_Up_Distractor.gif"",""img/Fire_Up_Distractor.gif"",""img/Fire_Up_Distractor.gif""]","7","targetDown_distractorsUp"
"","","","","","html-keyboard-response","116","224997","0.0-14.0-0.0-0.51","5d8cbd29cad5dc0015e66f9e","619531dcf66c91622fa1b861","619596fd4956c4e25123b605","null","","null","","","","","main_T1_ITI","","","","",""
"","","","","","visual-search-circle","117","227619","0.0-14.0-0.0-1.51","5d8cbd29cad5dc0015e66f9e","619531dcf66c91622fa1b861","619596fd4956c4e25123b605","1605.2000000029802","","s","false","[[60,480],[480,539],[539,119],[119,60]]","true","4","main_T2_Trial","d","img/Fire_Up_Target.gif","[""img/Fire_Down_Distractor.gif"",""img/Fire_Down_Distractor.gif"",""img/Fire_Down_Distractor.gif"",""img/Fire_Down_Distractor.gif"",""img/Fire_Down_Distractor.gif"",""img/Fire_Down_Distractor.gif"",""img/Fire_Down_Distractor.gif"",""img/Fire_Down_Distractor.gif"",""img/Fire_Down_Distractor.gif"",""img/Fire_Down_Distractor.gif"",""img/Fire_Down_Distractor.gif"",""img/Fire_Down_Distractor.gif""]","4","targetUp_distractorsDown"
"","","","","","html-keyboard-response","118","227624","0.0-14.0-0.0-0.52","5d8cbd29cad5dc0015e66f9e","619531dcf66c91622fa1b861","619596fd4956c4e25123b605","null","","null","","","","","main_T1_ITI","","","","",""
"","","","","","visual-search-circle","119","229668","0.0-14.0-0.0-1.52","5d8cbd29cad5dc0015e66f9e","619531dcf66c91622fa1b861","619596fd4956c4e25123b605","1024.9000000059605","","s","true","[[294,0],[13,212],[127,545],[480,539],[583,202]]","false","5","main_T2_Trial","s","img/Fire_Down_Target.gif","[""img/Fire_Up_Distractor.gif"",""img/Fire_Up_Distractor.gif"",""img/Fire_Up_Distractor.gif"",""img/Fire_Up_Distractor.gif"",""img/Fire_Up_Distractor.gif"",""img/Fire_Up_Distractor.gif"",""img/Fire_Up_Distractor.gif"",""img/Fire_Up_Distractor.gif"",""img/Fire_Up_Distractor.gif"",""img/Fire_Up_Distractor.gif"",""img/Fire_Up_Distractor.gif"",""img/Fire_Up_Distractor.gif""]","5","targetDown_distractorsUp"
"","","","","","html-keyboard-response","120","229674","0.0-14.0-0.0-0.53","5d8cbd29cad5dc0015e66f9e","619531dcf66c91622fa1b861","619596fd4956c4e25123b605","null","","null","","","","","main_T1_ITI","","","","",""
"","","","","","visual-search-circle","121","232215","0.0-14.0-0.0-1.53","5d8cbd29cad5dc0015e66f9e","619531dcf66c91622fa1b861","619596fd4956c4e25123b605","1524.8999999910593","","d","true","[[32,436],[346,596],[596,346],[436,32],[87,87]]","true","5","main_T2_Trial","d","img/Fire_Up_Target.gif","[""img/Fire_Down_Distractor.gif"",""img/Fire_Down_Distractor.gif"",""img/Fire_Down_Distractor.gif"",""img/Fire_Down_Distractor.gif"",""img/Fire_Down_Distractor.gif"",""img/Fire_Down_Distractor.gif"",""img/Fire_Down_Distractor.gif"",""img/Fire_Down_Distractor.gif"",""img/Fire_Down_Distractor.gif"",""img/Fire_Down_Distractor.gif"",""img/Fire_Down_Distractor.gif"",""img/Fire_Down_Distractor.gif""]","5","targetUp_distractorsDown"
"","","","","","html-keyboard-response","122","232223","0.0-14.0-0.0-0.54","5d8cbd29cad5dc0015e66f9e","619531dcf66c91622fa1b861","619596fd4956c4e25123b605","null","","null","","","","","main_T1_ITI","","","","",""
"","","","","","visual-search-circle","123","234315","0.0-14.0-0.0-1.54","5d8cbd29cad5dc0015e66f9e","619531dcf66c91622fa1b861","619596fd4956c4e25123b605","1066.9000000059605","","d","false","[[182,576],[576,417],[417,23],[23,182]]","false","4","main_T2_Trial","s","img/Fire_Up_Target.gif","[""img/Fire_Down_Distractor.gif"",""img/Fire_Down_Distractor.gif"",""img/Fire_Down_Distractor.gif"",""img/Fire_Down_Distractor.gif"",""img/Fire_Down_Distractor.gif"",""img/Fire_Down_Distractor.gif"",""img/Fire_Down_Distractor.gif"",""img/Fire_Down_Distractor.gif"",""img/Fire_Down_Distractor.gif"",""img/Fire_Down_Distractor.gif"",""img/Fire_Down_Distractor.gif"",""img/Fire_Down_Distractor.gif""]","4","targetUp_distractorsDown"
"","","","","","html-keyboard-response","124","234317","0.0-14.0-0.0-0.55","5d8cbd29cad5dc0015e66f9e","619531dcf66c91622fa1b861","619596fd4956c4e25123b605","null","","null","","","","","main_T1_ITI","","","","",""
"","","","","","visual-search-circle","125","238010","0.0-14.0-0.0-1.55","5d8cbd29cad5dc0015e66f9e","619531dcf66c91622fa1b861","619596fd4956c4e25123b605","2680.4000000059605","","d","true","[[454,42],[103,73],[23,417],[326,598],[592,367]]","true","5","main_T2_Trial","d","img/Fire_Up_Target.gif","[""img/Fire_Down_Distractor.gif"",""img/Fire_Down_Distractor.gif"",""img/Fire_Down_Distractor.gif"",""img/Fire_Down_Distractor.gif"",""img/Fire_Down_Distractor.gif"",""img/Fire_Down_Distractor.gif"",""img/Fire_Down_Distractor.gif"",""img/Fire_Down_Distractor.gif"",""img/Fire_Down_Distractor.gif"",""img/Fire_Down_Distractor.gif"",""img/Fire_Down_Distractor.gif"",""img/Fire_Down_Distractor.gif""]","5","targetUp_distractorsDown"
"","","","","","html-keyboard-response","126","238015","0.0-14.0-0.0-0.56","5d8cbd29cad5dc0015e66f9e","619531dcf66c91622fa1b861","619596fd4956c4e25123b605","null","","null","","","","","main_T1_ITI","","","","",""
"","","","","","visual-search-circle","127","240729","0.0-14.0-0.0-1.56","5d8cbd29cad5dc0015e66f9e","619531dcf66c91622fa1b861","619596fd4956c4e25123b605","1695.5999999940395","","s","false","[[392,585],[593,362],[500,77],[207,14],[6,237],[99,522]]","true","6","main_T2_Trial","d","img/Fire_Up_Target.gif","[""img/Fire_Down_Distractor.gif"",""img/Fire_Down_Distractor.gif"",""img/Fire_Down_Distractor.gif"",""img/Fire_Down_Distractor.gif"",""img/Fire_Down_Distractor.gif"",""img/Fire_Down_Distractor.gif"",""img/Fire_Down_Distractor.gif"",""img/Fire_Down_Distractor.gif"",""img/Fire_Down_Distractor.gif"",""img/Fire_Down_Distractor.gif"",""img/Fire_Down_Distractor.gif"",""img/Fire_Down_Distractor.gif""]","6","targetUp_distractorsDown"
"","","","","","html-keyboard-response","128","240732","0.0-14.0-0.0-0.57","5d8cbd29cad5dc0015e66f9e","619531dcf66c91622fa1b861","619596fd4956c4e25123b605","null","","null","","","","","main_T1_ITI","","","","",""
"","","","","","visual-search-circle","129","243196","0.0-14.0-0.0-1.57","5d8cbd29cad5dc0015e66f9e","619531dcf66c91622fa1b861","619596fd4956c4e25123b605","1450.699999988079","","d","true","[[402,18],[63,115],[51,467],[382,588],[599,310]]","true","5","main_T2_Trial","d","img/Fire_Up_Target.gif","[""img/Fire_Down_Distractor.gif"",""img/Fire_Down_Distractor.gif"",""img/Fire_Down_Distractor.gif"",""img/Fire_Down_Distractor.gif"",""img/Fire_Down_Distractor.gif"",""img/Fire_Down_Distractor.gif"",""img/Fire_Down_Distractor.gif"",""img/Fire_Down_Distractor.gif"",""img/Fire_Down_Distractor.gif"",""img/Fire_Down_Distractor.gif"",""img/Fire_Down_Distractor.gif"",""img/Fire_Down_Distractor.gif""]","5","targetUp_distractorsDown"
"","","","","","html-keyboard-response","130","243199","0.0-14.0-0.0-0.58","5d8cbd29cad5dc0015e66f9e","619531dcf66c91622fa1b861","619596fd4956c4e25123b605","null","","null","","","","","main_T1_ITI","","","","",""
"","","","","","visual-search-circle","131","245550","0.0-14.0-0.0-1.58","5d8cbd29cad5dc0015e66f9e","619531dcf66c91622fa1b861","619596fd4956c4e25123b605","1342.5","","s","true","[[599,289],[382,11],[51,132],[63,484],[402,581]]","false","5","main_T2_Trial","s","img/Fire_Down_Target.gif","[""img/Fire_Up_Distractor.gif"",""img/Fire_Up_Distractor.gif"",""img/Fire_Up_Distractor.gif"",""img/Fire_Up_Distractor.gif"",""img/Fire_Up_Distractor.gif"",""img/Fire_Up_Distractor.gif"",""img/Fire_Up_Distractor.gif"",""img/Fire_Up_Distractor.gif"",""img/Fire_Up_Distractor.gif"",""img/Fire_Up_Distractor.gif"",""img/Fire_Up_Distractor.gif"",""img/Fire_Up_Distractor.gif""]","5","targetDown_distractorsUp"
"","","","","","html-keyboard-response","132","247094","0.0-14.0-0.0-0.59","5d8cbd29cad5dc0015e66f9e","619531dcf66c91622fa1b861","619596fd4956c4e25123b605","1542.7000000029802","Wow! You've completed 60 out of 160 trials! </p> <p>  </p><p> Take a quick break, then press any key when you're ready to continue."," ","","","","","main_T1_ITI","","","","",""
"","","","","","visual-search-circle","133","248983","0.0-14.0-0.0-1.59","5d8cbd29cad5dc0015e66f9e","619531dcf66c91622fa1b861","619596fd4956c4e25123b605","872.0999999940395","","s","true","[[515,508],[588,217],[372,8],[84,91],[11,382],[227,591]]","false","6","main_T2_Trial","s","img/Fire_Down_Target.gif","[""img/Fire_Up_Distractor.gif"",""img/Fire_Up_Distractor.gif"",""img/Fire_Up_Distractor.gif"",""img/Fire_Up_Distractor.gif"",""img/Fire_Up_Distractor.gif"",""img/Fire_Up_Distractor.gif"",""img/Fire_Up_Distractor.gif"",""img/Fire_Up_Distractor.gif"",""img/Fire_Up_Distractor.gif"",""img/Fire_Up_Distractor.gif"",""img/Fire_Up_Distractor.gif"",""img/Fire_Up_Distractor.gif""]","6","targetDown_distractorsUp"
"","","","","","html-keyboard-response","134","248986","0.0-14.0-0.0-0.60","5d8cbd29cad5dc0015e66f9e","619531dcf66c91622fa1b861","619596fd4956c4e25123b605","null","","null","","","","","main_T1_ITI","","","","",""
"","","","","","visual-search-circle","135","250904","0.0-14.0-0.0-1.60","5d8cbd29cad5dc0015e66f9e","619531dcf66c91622fa1b861","619596fd4956c4e25123b605","912.9000000059605","","s","true","[[387,13],[13,212],[212,586],[586,387]]","false","4","main_T2_Trial","s","img/Fire_Up_Target.gif","[""img/Fire_Down_Distractor.gif"",""img/Fire_Down_Distractor.gif"",""img/Fire_Down_Distractor.gif"",""img/Fire_Down_Distractor.gif"",""img/Fire_Down_Distractor.gif"",""img/Fire_Down_Distractor.gif"",""img/Fire_Down_Distractor.gif"",""img/Fire_Down_Distractor.gif"",""img/Fire_Down_Distractor.gif"",""img/Fire_Down_Distractor.gif"",""img/Fire_Down_Distractor.gif"",""img/Fire_Down_Distractor.gif""]","4","targetUp_distractorsDown"
"","","","","","html-keyboard-response","136","250906","0.0-14.0-0.0-0.61","5d8cbd29cad5dc0015e66f9e","619531dcf66c91622fa1b861","619596fd4956c4e25123b605","null","","null","","","","","main_T1_ITI","","","","",""
"","","","","","visual-search-circle","137","253590","0.0-14.0-0.0-1.61","5d8cbd29cad5dc0015e66f9e","619531dcf66c91622fa1b861","619596fd4956c4e25123b605","1667.6000000089407","","s","false","[[426,571],[597,263],[357,5],[37,154],[80,504]]","true","5","main_T2_Trial","d","img/Fire_Up_Target.gif","[""img/Fire_Down_Distractor.gif"",""img/Fire_Down_Distractor.gif"",""img/Fire_Down_Distractor.gif"",""img/Fire_Down_Distractor.gif"",""img/Fire_Down_Distractor.gif"",""img/Fire_Down_Distractor.gif"",""img/Fire_Down_Distractor.gif"",""img/Fire_Down_Distractor.gif"",""img/Fire_Down_Distractor.gif"",""img/Fire_Down_Distractor.gif"",""img/Fire_Down_Distractor.gif"",""img/Fire_Down_Distractor.gif""]","5","targetUp_distractorsDown"
"","","","","","html-keyboard-response","138","253593","0.0-14.0-0.0-0.62","5d8cbd29cad5dc0015e66f9e","619531dcf66c91622fa1b861","619596fd4956c4e25123b605","null","","null","","","","","main_T1_ITI","","","","",""
"","","","","","visual-search-circle","139","255884","0.0-14.0-0.0-1.62","5d8cbd29cad5dc0015e66f9e","619531dcf66c91622fa1b861","619596fd4956c4e25123b605","1270.6000000089407","","s","true","[[557,454],[581,195],[393,14],[135,49],[1,272],[92,516],[339,597]]","false","7","main_T2_Trial","s","img/Fire_Up_Target.gif","[""img/Fire_Down_Distractor.gif"",""img/Fire_Down_Distractor.gif"",""img/Fire_Down_Distractor.gif"",""img/Fire_Down_Distractor.gif"",""img/Fire_Down_Distractor.gif"",""img/Fire_Down_Distractor.gif"",""img/Fire_Down_Distractor.gif"",""img/Fire_Down_Distractor.gif"",""img/Fire_Down_Distractor.gif"",""img/Fire_Down_Distractor.gif"",""img/Fire_Down_Distractor.gif"",""img/Fire_Down_Distractor.gif""]","7","targetUp_distractorsDown"
"","","","","","html-keyboard-response","140","255886","0.0-14.0-0.0-0.63","5d8cbd29cad5dc0015e66f9e","619531dcf66c91622fa1b861","619596fd4956c4e25123b605","null","","null","","","","","main_T1_ITI","","","","",""
"","","","","","visual-search-circle","141","257676","0.0-14.0-0.0-1.63","5d8cbd29cad5dc0015e66f9e","619531dcf66c91622fa1b861","619596fd4956c4e25123b605","774.1999999880791","","s","true","[[578,187],[385,12],[128,53],[0,280],[98,521],[347,596],[561,447]]","false","7","main_T2_Trial","s","img/Fire_Up_Target.gif","[""img/Fire_Down_Distractor.gif"",""img/Fire_Down_Distractor.gif"",""img/Fire_Down_Distractor.gif"",""img/Fire_Down_Distractor.gif"",""img/Fire_Down_Distractor.gif"",""img/Fire_Down_Distractor.gif"",""img/Fire_Down_Distractor.gif"",""img/Fire_Down_Distractor.gif"",""img/Fire_Down_Distractor.gif"",""img/Fire_Down_Distractor.gif"",""img/Fire_Down_Distractor.gif"",""img/Fire_Down_Distractor.gif""]","7","targetUp_distractorsDown"
"","","","","","html-keyboard-response","142","257680","0.0-14.0-0.0-0.64","5d8cbd29cad5dc0015e66f9e","619531dcf66c91622fa1b861","619596fd4956c4e25123b605","null","","null","","","","","main_T1_ITI","","","","",""
"","","","","","visual-search-circle","143","259874","0.0-14.0-0.0-1.64","5d8cbd29cad5dc0015e66f9e","619531dcf66c91622fa1b861","619596fd4956c4e25123b605","1174","","s","true","[[37,154],[42,454],[305,599],[562,445],[557,145],[294,0]]","false","6","main_T2_Trial","s","img/Fire_Down_Target.gif","[""img/Fire_Up_Distractor.gif"",""img/Fire_Up_Distractor.gif"",""img/Fire_Up_Distractor.gif"",""img/Fire_Up_Distractor.gif"",""img/Fire_Up_Distractor.gif"",""img/Fire_Up_Distractor.gif"",""img/Fire_Up_Distractor.gif"",""img/Fire_Up_Distractor.gif"",""img/Fire_Up_Distractor.gif"",""img/Fire_Up_Distractor.gif"",""img/Fire_Up_Distractor.gif"",""img/Fire_Up_Distractor.gif""]","6","targetDown_distractorsUp"
"","","","","","html-keyboard-response","144","259875","0.0-14.0-0.0-0.65","5d8cbd29cad5dc0015e66f9e","619531dcf66c91622fa1b861","619596fd4956c4e25123b605","null","","null","","","","","main_T1_ITI","","","","",""
"","","","","","visual-search-circle","145","262352","0.0-14.0-0.0-1.65","5d8cbd29cad5dc0015e66f9e","619531dcf66c91622fa1b861","619596fd4956c4e25123b605","1458.7000000029802","","s","true","[[51,467],[276,599],[518,505],[596,256],[451,40],[191,20],[13,210]]","false","7","main_T2_Trial","s","img/Fire_Down_Target.gif","[""img/Fire_Up_Distractor.gif"",""img/Fire_Up_Distractor.gif"",""img/Fire_Up_Distractor.gif"",""img/Fire_Up_Distractor.gif"",""img/Fire_Up_Distractor.gif"",""img/Fire_Up_Distractor.gif"",""img/Fire_Up_Distractor.gif"",""img/Fire_Up_Distractor.gif"",""img/Fire_Up_Distractor.gif"",""img/Fire_Up_Distractor.gif"",""img/Fire_Up_Distractor.gif"",""img/Fire_Up_Distractor.gif""]","7","targetDown_distractorsUp"
"","","","","","html-keyboard-response","146","262363","0.0-14.0-0.0-0.66","5d8cbd29cad5dc0015e66f9e","619531dcf66c91622fa1b861","619596fd4956c4e25123b605","null","","null","","","","","main_T1_ITI","","","","",""
"","","","","","visual-search-circle","147","265277","0.0-14.0-0.0-1.66","5d8cbd29cad5dc0015e66f9e","619531dcf66c91622fa1b861","619596fd4956c4e25123b605","1903.2999999970198","","s","true","[[595,352],[440,35],[91,84],[30,431],[341,597]]","false","5","main_T2_Trial","s","img/Fire_Down_Target.gif","[""img/Fire_Up_Distractor.gif"",""img/Fire_Up_Distractor.gif"",""img/Fire_Up_Distractor.gif"",""img/Fire_Up_Distractor.gif"",""img/Fire_Up_Distractor.gif"",""img/Fire_Up_Distractor.gif"",""img/Fire_Up_Distractor.gif"",""img/Fire_Up_Distractor.gif"",""img/Fire_Up_Distractor.gif"",""img/Fire_Up_Distractor.gif"",""img/Fire_Up_Distractor.gif"",""img/Fire_Up_Distractor.gif""]","5","targetDown_distractorsUp"
"","","","","","html-keyboard-response","148","265280","0.0-14.0-0.0-0.67","5d8cbd29cad5dc0015e66f9e","619531dcf66c91622fa1b861","619596fd4956c4e25123b605","null","","null","","","","","main_T1_ITI","","","","",""
"","","","","","visual-search-circle","149","267356","0.0-14.0-0.0-1.67","5d8cbd29cad5dc0015e66f9e","619531dcf66c91622fa1b861","619596fd4956c4e25123b605","1060.5","","s","true","[[35,440],[212,586],[440,564],[586,387],[564,159],[387,13],[159,35],[13,212]]","false","8","main_T2_Trial","s","img/Fire_Down_Target.gif","[""img/Fire_Up_Distractor.gif"",""img/Fire_Up_Distractor.gif"",""img/Fire_Up_Distractor.gif"",""img/Fire_Up_Distractor.gif"",""img/Fire_Up_Distractor.gif"",""img/Fire_Up_Distractor.gif"",""img/Fire_Up_Distractor.gif"",""img/Fire_Up_Distractor.gif"",""img/Fire_Up_Distractor.gif"",""img/Fire_Up_Distractor.gif"",""img/Fire_Up_Distractor.gif"",""img/Fire_Up_Distractor.gif""]","8","targetDown_distractorsUp"
"","","","","","html-keyboard-response","150","267367","0.0-14.0-0.0-0.68","5d8cbd29cad5dc0015e66f9e","619531dcf66c91622fa1b861","619596fd4956c4e25123b605","null","","null","","","","","main_T1_ITI","","","","",""
"","","","","","visual-search-circle","151","269919","0.0-14.0-0.0-1.68","5d8cbd29cad5dc0015e66f9e","619531dcf66c91622fa1b861","619596fd4956c4e25123b605","1534.7999999970198","","d","true","[[599,294],[482,62],[228,8],[27,174],[32,434],[238,593],[491,531]]","true","7","main_T2_Trial","d","img/Fire_Down_Target.gif","[""img/Fire_Up_Distractor.gif"",""img/Fire_Up_Distractor.gif"",""img/Fire_Up_Distractor.gif"",""img/Fire_Up_Distractor.gif"",""img/Fire_Up_Distractor.gif"",""img/Fire_Up_Distractor.gif"",""img/Fire_Up_Distractor.gif"",""img/Fire_Up_Distractor.gif"",""img/Fire_Up_Distractor.gif"",""img/Fire_Up_Distractor.gif"",""img/Fire_Up_Distractor.gif"",""img/Fire_Up_Distractor.gif""]","7","targetDown_distractorsUp"
"","","","","","html-keyboard-response","152","269923","0.0-14.0-0.0-0.69","5d8cbd29cad5dc0015e66f9e","619531dcf66c91622fa1b861","619596fd4956c4e25123b605","null","","null","","","","","main_T1_ITI","","","","",""
"","","","","","visual-search-circle","153","271816","0.0-14.0-0.0-1.69","5d8cbd29cad5dc0015e66f9e","619531dcf66c91622fa1b861","619596fd4956c4e25123b605","875.3999999910593","","s","true","[[253,3],[3,346],[346,596],[596,253]]","false","4","main_T2_Trial","s","img/Fire_Up_Target.gif","[""img/Fire_Down_Distractor.gif"",""img/Fire_Down_Distractor.gif"",""img/Fire_Down_Distractor.gif"",""img/Fire_Down_Distractor.gif"",""img/Fire_Down_Distractor.gif"",""img/Fire_Down_Distractor.gif"",""img/Fire_Down_Distractor.gif"",""img/Fire_Down_Distractor.gif"",""img/Fire_Down_Distractor.gif"",""img/Fire_Down_Distractor.gif"",""img/Fire_Down_Distractor.gif"",""img/Fire_Down_Distractor.gif""]","4","targetUp_distractorsDown"
"","","","","","html-keyboard-response","154","271820","0.0-14.0-0.0-0.70","5d8cbd29cad5dc0015e66f9e","619531dcf66c91622fa1b861","619596fd4956c4e25123b605","null","","null","","","","","main_T1_ITI","","","","",""
"","","","","","visual-search-circle","155","273940","0.0-14.0-0.0-1.70","5d8cbd29cad5dc0015e66f9e","619531dcf66c91622fa1b861","619596fd4956c4e25123b605","1103.8999999910593","","d","true","[[598,326],[326,1],[1,273],[273,598]]","true","4","main_T2_Trial","d","img/Fire_Down_Target.gif","[""img/Fire_Up_Distractor.gif"",""img/Fire_Up_Distractor.gif"",""img/Fire_Up_Distractor.gif"",""img/Fire_Up_Distractor.gif"",""img/Fire_Up_Distractor.gif"",""img/Fire_Up_Distractor.gif"",""img/Fire_Up_Distractor.gif"",""img/Fire_Up_Distractor.gif"",""img/Fire_Up_Distractor.gif"",""img/Fire_Up_Distractor.gif"",""img/Fire_Up_Distractor.gif"",""img/Fire_Up_Distractor.gif""]","4","targetDown_distractorsUp"
"","","","","","html-keyboard-response","156","273942","0.0-14.0-0.0-0.71","5d8cbd29cad5dc0015e66f9e","619531dcf66c91622fa1b861","619596fd4956c4e25123b605","null","","null","","","","","main_T1_ITI","","","","",""
"","","","","","visual-search-circle","157","275976","0.0-14.0-0.0-1.71","5d8cbd29cad5dc0015e66f9e","619531dcf66c91622fa1b861","619596fd4956c4e25123b605","1014.5","","d","true","[[23,182],[182,576],[576,417],[417,23]]","true","4","main_T2_Trial","d","img/Fire_Up_Target.gif","[""img/Fire_Down_Distractor.gif"",""img/Fire_Down_Distractor.gif"",""img/Fire_Down_Distractor.gif"",""img/Fire_Down_Distractor.gif"",""img/Fire_Down_Distractor.gif"",""img/Fire_Down_Distractor.gif"",""img/Fire_Down_Distractor.gif"",""img/Fire_Down_Distractor.gif"",""img/Fire_Down_Distractor.gif"",""img/Fire_Down_Distractor.gif"",""img/Fire_Down_Distractor.gif"",""img/Fire_Down_Distractor.gif""]","4","targetUp_distractorsDown"
"","","","","","html-keyboard-response","158","275982","0.0-14.0-0.0-0.72","5d8cbd29cad5dc0015e66f9e","619531dcf66c91622fa1b861","619596fd4956c4e25123b605","null","","null","","","","","main_T1_ITI","","","","",""
"","","","","","visual-search-circle","159","277925","0.0-14.0-0.0-1.72","5d8cbd29cad5dc0015e66f9e","619531dcf66c91622fa1b861","619596fd4956c4e25123b605","929.4000000059605","","s","true","[[589,377],[463,48],[111,66],[19,407],[315,599]]","false","5","main_T2_Trial","s","img/Fire_Up_Target.gif","[""img/Fire_Down_Distractor.gif"",""img/Fire_Down_Distractor.gif"",""img/Fire_Down_Distractor.gif"",""img/Fire_Down_Distractor.gif"",""img/Fire_Down_Distractor.gif"",""img/Fire_Down_Distractor.gif"",""img/Fire_Down_Distractor.gif"",""img/Fire_Down_Distractor.gif"",""img/Fire_Down_Distractor.gif"",""img/Fire_Down_Distractor.gif"",""img/Fire_Down_Distractor.gif"",""img/Fire_Down_Distractor.gif""]","5","targetUp_distractorsDown"
"","","","","","html-keyboard-response","160","277931","0.0-14.0-0.0-0.73","5d8cbd29cad5dc0015e66f9e","619531dcf66c91622fa1b861","619596fd4956c4e25123b605","null","","null","","","","","main_T1_ITI","","","","",""
"","","","","","visual-search-circle","161","279682","0.0-14.0-0.0-1.73","5d8cbd29cad5dc0015e66f9e","619531dcf66c91622fa1b861","619596fd4956c4e25123b605","733.2000000029802","","s","true","[[554,458],[529,107],[187,21],[0,320],[227,591]]","false","5","main_T2_Trial","s","img/Fire_Up_Target.gif","[""img/Fire_Down_Distractor.gif"",""img/Fire_Down_Distractor.gif"",""img/Fire_Down_Distractor.gif"",""img/Fire_Down_Distractor.gif"",""img/Fire_Down_Distractor.gif"",""img/Fire_Down_Distractor.gif"",""img/Fire_Down_Distractor.gif"",""img/Fire_Down_Distractor.gif"",""img/Fire_Down_Distractor.gif"",""img/Fire_Down_Distractor.gif"",""img/Fire_Down_Distractor.gif"",""img/Fire_Down_Distractor.gif""]","5","targetUp_distractorsDown"
"","","","","","html-keyboard-response","162","279684","0.0-14.0-0.0-0.74","5d8cbd29cad5dc0015e66f9e","619531dcf66c91622fa1b861","619596fd4956c4e25123b605","null","","null","","","","","main_T1_ITI","","","","",""
"","","","","","visual-search-circle","163","281742","0.0-14.0-0.0-1.74","5d8cbd29cad5dc0015e66f9e","619531dcf66c91622fa1b861","619596fd4956c4e25123b605","1041.5","","d","true","[[352,4],[101,75],[0,314],[124,543],[381,588],[576,416],[563,156]]","true","7","main_T2_Trial","d","img/Fire_Up_Target.gif","[""img/Fire_Down_Distractor.gif"",""img/Fire_Down_Distractor.gif"",""img/Fire_Down_Distractor.gif"",""img/Fire_Down_Distractor.gif"",""img/Fire_Down_Distractor.gif"",""img/Fire_Down_Distractor.gif"",""img/Fire_Down_Distractor.gif"",""img/Fire_Down_Distractor.gif"",""img/Fire_Down_Distractor.gif"",""img/Fire_Down_Distractor.gif"",""img/Fire_Down_Distractor.gif"",""img/Fire_Down_Distractor.gif""]","7","targetUp_distractorsDown"
"","","","","","html-keyboard-response","164","281744","0.0-14.0-0.0-0.75","5d8cbd29cad5dc0015e66f9e","619531dcf66c91622fa1b861","619596fd4956c4e25123b605","null","","null","","","","","main_T1_ITI","","","","",""
"","","","","","visual-search-circle","165","283935","0.0-14.0-0.0-1.75","5d8cbd29cad5dc0015e66f9e","619531dcf66c91622fa1b861","619596fd4956c4e25123b605","1178.8999999910593","","d","true","[[77,500],[500,522],[522,99],[99,77]]","true","4","main_T2_Trial","d","img/Fire_Down_Target.gif","[""img/Fire_Up_Distractor.gif"",""img/Fire_Up_Distractor.gif"",""img/Fire_Up_Distractor.gif"",""img/Fire_Up_Distractor.gif"",""img/Fire_Up_Distractor.gif"",""img/Fire_Up_Distractor.gif"",""img/Fire_Up_Distractor.gif"",""img/Fire_Up_Distractor.gif"",""img/Fire_Up_Distractor.gif"",""img/Fire_Up_Distractor.gif"",""img/Fire_Up_Distractor.gif"",""img/Fire_Up_Distractor.gif""]","4","targetDown_distractorsUp"
"","","","","","html-keyboard-response","166","283941","0.0-14.0-0.0-0.76","5d8cbd29cad5dc0015e66f9e","619531dcf66c91622fa1b861","619596fd4956c4e25123b605","null","","null","","","","","main_T1_ITI","","","","",""
"","","","","","visual-search-circle","167","285813","0.0-14.0-0.0-1.76","5d8cbd29cad5dc0015e66f9e","619531dcf66c91622fa1b861","619596fd4956c4e25123b605","857.3999999910593","","s","true","[[574,177],[375,9],[120,59],[0,291],[106,528],[357,594],[566,438]]","false","7","main_T2_Trial","s","img/Fire_Down_Target.gif","[""img/Fire_Up_Distractor.gif"",""img/Fire_Up_Distractor.gif"",""img/Fire_Up_Distractor.gif"",""img/Fire_Up_Distractor.gif"",""img/Fire_Up_Distractor.gif"",""img/Fire_Up_Distractor.gif"",""img/Fire_Up_Distractor.gif"",""img/Fire_Up_Distractor.gif"",""img/Fire_Up_Distractor.gif"",""img/Fire_Up_Distractor.gif"",""img/Fire_Up_Distractor.gif"",""img/Fire_Up_Distractor.gif""]","7","targetDown_distractorsUp"
"","","","","","html-keyboard-response","168","285819","0.0-14.0-0.0-0.77","5d8cbd29cad5dc0015e66f9e","619531dcf66c91622fa1b861","619596fd4956c4e25123b605","null","","null","","","","","main_T1_ITI","","","","",""
"","","","","","visual-search-circle","169","288022","0.0-14.0-0.0-1.77","5d8cbd29cad5dc0015e66f9e","619531dcf66c91622fa1b861","619596fd4956c4e25123b605","1188.7000000029802","","d","true","[[472,54],[54,127],[127,545],[545,472]]","true","4","main_T2_Trial","d","img/Fire_Up_Target.gif","[""img/Fire_Down_Distractor.gif"",""img/Fire_Down_Distractor.gif"",""img/Fire_Down_Distractor.gif"",""img/Fire_Down_Distractor.gif"",""img/Fire_Down_Distractor.gif"",""img/Fire_Down_Distractor.gif"",""img/Fire_Down_Distractor.gif"",""img/Fire_Down_Distractor.gif"",""img/Fire_Down_Distractor.gif"",""img/Fire_Down_Distractor.gif"",""img/Fire_Down_Distractor.gif"",""img/Fire_Down_Distractor.gif""]","4","targetUp_distractorsDown"
"","","","","","html-keyboard-response","170","288026","0.0-14.0-0.0-0.78","5d8cbd29cad5dc0015e66f9e","619531dcf66c91622fa1b861","619596fd4956c4e25123b605","null","","null","","","","","main_T1_ITI","","","","",""
"","","","","","visual-search-circle","171","289883","0.0-14.0-0.0-1.78","5d8cbd29cad5dc0015e66f9e","619531dcf66c91622fa1b861","619596fd4956c4e25123b605","846.5999999940395","","s","true","[[21,412],[182,576],[412,578],[576,417],[578,187],[417,23],[187,21],[23,182]]","false","8","main_T2_Trial","s","img/Fire_Down_Target.gif","[""img/Fire_Up_Distractor.gif"",""img/Fire_Up_Distractor.gif"",""img/Fire_Up_Distractor.gif"",""img/Fire_Up_Distractor.gif"",""img/Fire_Up_Distractor.gif"",""img/Fire_Up_Distractor.gif"",""img/Fire_Up_Distractor.gif"",""img/Fire_Up_Distractor.gif"",""img/Fire_Up_Distractor.gif"",""img/Fire_Up_Distractor.gif"",""img/Fire_Up_Distractor.gif"",""img/Fire_Up_Distractor.gif""]","8","targetDown_distractorsUp"
"","","","","","html-keyboard-response","172","291027","0.0-14.0-0.0-0.79","5d8cbd29cad5dc0015e66f9e","619531dcf66c91622fa1b861","619596fd4956c4e25123b605","1143.5","Wow! You've completed 80 out of 160 trials! </p> <p>  </p><p> Take a quick break, then press any key when you're ready to continue."," ","","","","","main_T1_ITI","","","","",""
"","","","","","visual-search-circle","173","292752","0.0-14.0-0.0-1.79","5d8cbd29cad5dc0015e66f9e","619531dcf66c91622fa1b861","619596fd4956c4e25123b605","704.1000000089407","","s","true","[[63,484],[263,597],[484,536],[597,336],[536,115],[336,2],[115,63],[2,263]]","false","8","main_T2_Trial","s","img/Fire_Up_Target.gif","[""img/Fire_Down_Distractor.gif"",""img/Fire_Down_Distractor.gif"",""img/Fire_Down_Distractor.gif"",""img/Fire_Down_Distractor.gif"",""img/Fire_Down_Distractor.gif"",""img/Fire_Down_Distractor.gif"",""img/Fire_Down_Distractor.gif"",""img/Fire_Down_Distractor.gif"",""img/Fire_Down_Distractor.gif"",""img/Fire_Down_Distractor.gif"",""img/Fire_Down_Distractor.gif"",""img/Fire_Down_Distractor.gif""]","8","targetUp_distractorsDown"
"","","","","","html-keyboard-response","174","292759","0.0-14.0-0.0-0.80","5d8cbd29cad5dc0015e66f9e","619531dcf66c91622fa1b861","619596fd4956c4e25123b605","null","","null","","","","","main_T1_ITI","","","","",""
"","","","","","visual-search-circle","175","294306","0.0-14.0-0.0-1.80","5d8cbd29cad5dc0015e66f9e","619531dcf66c91622fa1b861","619596fd4956c4e25123b605","524.9000000059605","","s","true","[[545,127],[352,4],[127,54],[4,247],[54,472],[247,595],[472,545],[595,352]]","false","8","main_T2_Trial","s","img/Fire_Up_Target.gif","[""img/Fire_Down_Distractor.gif"",""img/Fire_Down_Distractor.gif"",""img/Fire_Down_Distractor.gif"",""img/Fire_Down_Distractor.gif"",""img/Fire_Down_Distractor.gif"",""img/Fire_Down_Distractor.gif"",""img/Fire_Down_Distractor.gif"",""img/Fire_Down_Distractor.gif"",""img/Fire_Down_Distractor.gif"",""img/Fire_Down_Distractor.gif"",""img/Fire_Down_Distractor.gif"",""img/Fire_Down_Distractor.gif""]","8","targetUp_distractorsDown"
"","","","","","html-keyboard-response","176","294308","0.0-14.0-0.0-0.81","5d8cbd29cad5dc0015e66f9e","619531dcf66c91622fa1b861","619596fd4956c4e25123b605","null","","null","","","","","main_T1_ITI","","","","",""
"","","","","","visual-search-circle","177","296235","0.0-14.0-0.0-1.81","5d8cbd29cad5dc0015e66f9e","619531dcf66c91622fa1b861","619596fd4956c4e25123b605","909.2999999970198","","d","true","[[377,10],[48,136],[66,488],[407,580],[599,284]]","true","5","main_T2_Trial","d","img/Fire_Down_Target.gif","[""img/Fire_Up_Distractor.gif"",""img/Fire_Up_Distractor.gif"",""img/Fire_Up_Distractor.gif"",""img/Fire_Up_Distractor.gif"",""img/Fire_Up_Distractor.gif"",""img/Fire_Up_Distractor.gif"",""img/Fire_Up_Distractor.gif"",""img/Fire_Up_Distractor.gif"",""img/Fire_Up_Distractor.gif"",""img/Fire_Up_Distractor.gif"",""img/Fire_Up_Distractor.gif"",""img/Fire_Up_Distractor.gif""]","5","targetDown_distractorsUp"
"","","","","","html-keyboard-response","178","296237","0.0-14.0-0.0-0.82","5d8cbd29cad5dc0015e66f9e","619531dcf66c91622fa1b861","619596fd4956c4e25123b605","null","","null","","","","","main_T1_ITI","","","","",""
"","","","","","visual-search-circle","179","298112","0.0-14.0-0.0-1.82","5d8cbd29cad5dc0015e66f9e","619531dcf66c91622fa1b861","619596fd4956c4e25123b605","866.5999999940395","","s","true","[[336,597],[576,417],[539,119],[263,2],[23,182],[60,480]]","false","6","main_T2_Trial","s","img/Fire_Down_Target.gif","[""img/Fire_Up_Distractor.gif"",""img/Fire_Up_Distractor.gif"",""img/Fire_Up_Distractor.gif"",""img/Fire_Up_Distractor.gif"",""img/Fire_Up_Distractor.gif"",""img/Fire_Up_Distractor.gif"",""img/Fire_Up_Distractor.gif"",""img/Fire_Up_Distractor.gif"",""img/Fire_Up_Distractor.gif"",""img/Fire_Up_Distractor.gif"",""img/Fire_Up_Distractor.gif"",""img/Fire_Up_Distractor.gif""]","6","targetDown_distractorsUp"
"","","","","","html-keyboard-response","180","298114","0.0-14.0-0.0-0.83","5d8cbd29cad5dc0015e66f9e","619531dcf66c91622fa1b861","619596fd4956c4e25123b605","null","","null","","","","","main_T1_ITI","","","","",""
"","","","","","visual-search-circle","181","299832","0.0-14.0-0.0-1.83","5d8cbd29cad5dc0015e66f9e","619531dcf66c91622fa1b861","619596fd4956c4e25123b605","713.4000000059605","","s","true","[[212,13],[13,387],[387,586],[586,212]]","false","4","main_T2_Trial","s","img/Fire_Up_Target.gif","[""img/Fire_Down_Distractor.gif"",""img/Fire_Down_Distractor.gif"",""img/Fire_Down_Distractor.gif"",""img/Fire_Down_Distractor.gif"",""img/Fire_Down_Distractor.gif"",""img/Fire_Down_Distractor.gif"",""img/Fire_Down_Distractor.gif"",""img/Fire_Down_Distractor.gif"",""img/Fire_Down_Distractor.gif"",""img/Fire_Down_Distractor.gif"",""img/Fire_Down_Distractor.gif"",""img/Fire_Down_Distractor.gif""]","4","targetUp_distractorsDown"
"","","","","","html-keyboard-response","182","299834","0.0-14.0-0.0-0.84","5d8cbd29cad5dc0015e66f9e","619531dcf66c91622fa1b861","619596fd4956c4e25123b605","null","","null","","","","","main_T1_ITI","","","","",""
"","","","","","visual-search-circle","183","302021","0.0-14.0-0.0-1.84","5d8cbd29cad5dc0015e66f9e","619531dcf66c91622fa1b861","619596fd4956c4e25123b605","1163.5999999940395","","d","true","[[554,141],[334,1],[88,87],[1,332],[139,553],[398,583],[582,399]]","true","7","main_T2_Trial","d","img/Fire_Down_Target.gif","[""img/Fire_Up_Distractor.gif"",""img/Fire_Up_Distractor.gif"",""img/Fire_Up_Distractor.gif"",""img/Fire_Up_Distractor.gif"",""img/Fire_Up_Distractor.gif"",""img/Fire_Up_Distractor.gif"",""img/Fire_Up_Distractor.gif"",""img/Fire_Up_Distractor.gif"",""img/Fire_Up_Distractor.gif"",""img/Fire_Up_Distractor.gif"",""img/Fire_Up_Distractor.gif"",""img/Fire_Up_Distractor.gif""]","7","targetDown_distractorsUp"
"","","","","","html-keyboard-response","184","302038","0.0-14.0-0.0-0.85","5d8cbd29cad5dc0015e66f9e","619531dcf66c91622fa1b861","619596fd4956c4e25123b605","null","","null","","","","","main_T1_ITI","","","","",""
"","","","","","visual-search-circle","185","303765","0.0-14.0-0.0-1.85","5d8cbd29cad5dc0015e66f9e","619531dcf66c91622fa1b861","619596fd4956c4e25123b605","709.3000000119209","","s","true","[[5,357],[202,583],[496,526],[594,242],[397,16],[103,73]]","false","6","main_T2_Trial","s","img/Fire_Up_Target.gif","[""img/Fire_Down_Distractor.gif"",""img/Fire_Down_Distractor.gif"",""img/Fire_Down_Distractor.gif"",""img/Fire_Down_Distractor.gif"",""img/Fire_Down_Distractor.gif"",""img/Fire_Down_Distractor.gif"",""img/Fire_Down_Distractor.gif"",""img/Fire_Down_Distractor.gif"",""img/Fire_Down_Distractor.gif"",""img/Fire_Down_Distractor.gif"",""img/Fire_Down_Distractor.gif"",""img/Fire_Down_Distractor.gif""]","6","targetUp_distractorsDown"
"","","","","","html-keyboard-response","186","303767","0.0-14.0-0.0-0.86","5d8cbd29cad5dc0015e66f9e","619531dcf66c91622fa1b861","619596fd4956c4e25123b605","null","","null","","","","","main_T1_ITI","","","","",""
"","","","","","visual-search-circle","187","305442","0.0-14.0-0.0-1.86","5d8cbd29cad5dc0015e66f9e","619531dcf66c91622fa1b861","619596fd4956c4e25123b605","656.8000000119209","","s","true","[[310,599],[564,440],[554,141],[289,0],[35,159],[45,458]]","false","6","main_T2_Trial","s","img/Fire_Up_Target.gif","[""img/Fire_Down_Distractor.gif"",""img/Fire_Down_Distractor.gif"",""img/Fire_Down_Distractor.gif"",""img/Fire_Down_Distractor.gif"",""img/Fire_Down_Distractor.gif"",""img/Fire_Down_Distractor.gif"",""img/Fire_Down_Distractor.gif"",""img/Fire_Down_Distractor.gif"",""img/Fire_Down_Distractor.gif"",""img/Fire_Down_Distractor.gif"",""img/Fire_Down_Distractor.gif"",""img/Fire_Down_Distractor.gif""]","6","targetUp_distractorsDown"
"","","","","","html-keyboard-response","188","305447","0.0-14.0-0.0-0.87","5d8cbd29cad5dc0015e66f9e","619531dcf66c91622fa1b861","619596fd4956c4e25123b605","null","","null","","","","","main_T1_ITI","","","","",""
"","","","","","visual-search-circle","189","307592","0.0-14.0-0.0-1.87","5d8cbd29cad5dc0015e66f9e","619531dcf66c91622fa1b861","619596fd4956c4e25123b605","1128.7999999970198","","d","true","[[163,567],[567,436],[436,32],[32,163]]","true","4","main_T2_Trial","d","img/Fire_Up_Target.gif","[""img/Fire_Down_Distractor.gif"",""img/Fire_Down_Distractor.gif"",""img/Fire_Down_Distractor.gif"",""img/Fire_Down_Distractor.gif"",""img/Fire_Down_Distractor.gif"",""img/Fire_Down_Distractor.gif"",""img/Fire_Down_Distractor.gif"",""img/Fire_Down_Distractor.gif"",""img/Fire_Down_Distractor.gif"",""img/Fire_Down_Distractor.gif"",""img/Fire_Down_Distractor.gif"",""img/Fire_Down_Distractor.gif""]","4","targetUp_distractorsDown"
"","","","","","html-keyboard-response","190","307594","0.0-14.0-0.0-0.88","5d8cbd29cad5dc0015e66f9e","619531dcf66c91622fa1b861","619596fd4956c4e25123b605","null","","null","","","","","main_T1_ITI","","","","",""
"","","","","","visual-search-circle","191","309099","0.0-14.0-0.0-1.88","5d8cbd29cad5dc0015e66f9e","619531dcf66c91622fa1b861","619596fd4956c4e25123b605","491.29999999701977","","s","true","[[192,580],[451,558],[596,342],[518,94],[275,1],[50,132],[13,390]]","false","7","main_T2_Trial","s","img/Fire_Down_Target.gif","[""img/Fire_Up_Distractor.gif"",""img/Fire_Up_Distractor.gif"",""img/Fire_Up_Distractor.gif"",""img/Fire_Up_Distractor.gif"",""img/Fire_Up_Distractor.gif"",""img/Fire_Up_Distractor.gif"",""img/Fire_Up_Distractor.gif"",""img/Fire_Up_Distractor.gif"",""img/Fire_Up_Distractor.gif"",""img/Fire_Up_Distractor.gif"",""img/Fire_Up_Distractor.gif"",""img/Fire_Up_Distractor.gif""]","7","targetDown_distractorsUp"
"","","","","","html-keyboard-response","192","309109","0.0-14.0-0.0-0.89","5d8cbd29cad5dc0015e66f9e","619531dcf66c91622fa1b861","619596fd4956c4e25123b605","null","","null","","","","","main_T1_ITI","","","","",""
"","","","","","visual-search-circle","193","310705","0.0-14.0-0.0-1.89","5d8cbd29cad5dc0015e66f9e","619531dcf66c91622fa1b861","619596fd4956c4e25123b605","577.9000000059605","","s","true","[[422,25],[192,19],[25,177],[19,407],[177,574],[407,580],[574,422],[580,192]]","false","8","main_T2_Trial","s","img/Fire_Up_Target.gif","[""img/Fire_Down_Distractor.gif"",""img/Fire_Down_Distractor.gif"",""img/Fire_Down_Distractor.gif"",""img/Fire_Down_Distractor.gif"",""img/Fire_Down_Distractor.gif"",""img/Fire_Down_Distractor.gif"",""img/Fire_Down_Distractor.gif"",""img/Fire_Down_Distractor.gif"",""img/Fire_Down_Distractor.gif"",""img/Fire_Down_Distractor.gif"",""img/Fire_Down_Distractor.gif"",""img/Fire_Down_Distractor.gif""]","8","targetUp_distractorsDown"
"","","","","","html-keyboard-response","194","310707","0.0-14.0-0.0-0.90","5d8cbd29cad5dc0015e66f9e","619531dcf66c91622fa1b861","619596fd4956c4e25123b605","null","","null","","","","","main_T1_ITI","","","","",""
"","","","","","visual-search-circle","195","312382","0.0-14.0-0.0-1.90","5d8cbd29cad5dc0015e66f9e","619531dcf66c91622fa1b861","619596fd4956c4e25123b605","657.4000000059605","","s","true","[[242,594],[526,496],[583,202],[357,5],[73,103],[16,397]]","false","6","main_T2_Trial","s","img/Fire_Down_Target.gif","[""img/Fire_Up_Distractor.gif"",""img/Fire_Up_Distractor.gif"",""img/Fire_Up_Distractor.gif"",""img/Fire_Up_Distractor.gif"",""img/Fire_Up_Distractor.gif"",""img/Fire_Up_Distractor.gif"",""img/Fire_Up_Distractor.gif"",""img/Fire_Up_Distractor.gif"",""img/Fire_Up_Distractor.gif"",""img/Fire_Up_Distractor.gif"",""img/Fire_Up_Distractor.gif"",""img/Fire_Up_Distractor.gif""]","6","targetDown_distractorsUp"
"","","","","","html-keyboard-response","196","312384","0.0-14.0-0.0-0.91","5d8cbd29cad5dc0015e66f9e","619531dcf66c91622fa1b861","619596fd4956c4e25123b605","null","","null","","","","","main_T1_ITI","","","","",""
"","","","","","visual-search-circle","197","313873","0.0-14.0-0.0-1.91","5d8cbd29cad5dc0015e66f9e","619531dcf66c91622fa1b861","619596fd4956c4e25123b605","475.80000001192093","","s","true","[[212,586],[545,472],[539,119],[202,16],[0,305]]","false","5","main_T2_Trial","s","img/Fire_Down_Target.gif","[""img/Fire_Up_Distractor.gif"",""img/Fire_Up_Distractor.gif"",""img/Fire_Up_Distractor.gif"",""img/Fire_Up_Distractor.gif"",""img/Fire_Up_Distractor.gif"",""img/Fire_Up_Distractor.gif"",""img/Fire_Up_Distractor.gif"",""img/Fire_Up_Distractor.gif"",""img/Fire_Up_Distractor.gif"",""img/Fire_Up_Distractor.gif"",""img/Fire_Up_Distractor.gif"",""img/Fire_Up_Distractor.gif""]","5","targetDown_distractorsUp"
"","","","","","html-keyboard-response","198","313875","0.0-14.0-0.0-0.92","5d8cbd29cad5dc0015e66f9e","619531dcf66c91622fa1b861","619596fd4956c4e25123b605","null","","null","","","","","main_T1_ITI","","","","",""
"","","","","","visual-search-circle","199","316023","0.0-14.0-0.0-1.92","5d8cbd29cad5dc0015e66f9e","619531dcf66c91622fa1b861","619596fd4956c4e25123b605","1125","","d","true","[[57,476],[253,596],[476,542],[596,346],[542,123],[346,3],[123,57],[3,253]]","true","8","main_T2_Trial","d","img/Fire_Down_Target.gif","[""img/Fire_Up_Distractor.gif"",""img/Fire_Up_Distractor.gif"",""img/Fire_Up_Distractor.gif"",""img/Fire_Up_Distractor.gif"",""img/Fire_Up_Distractor.gif"",""img/Fire_Up_Distractor.gif"",""img/Fire_Up_Distractor.gif"",""img/Fire_Up_Distractor.gif"",""img/Fire_Up_Distractor.gif"",""img/Fire_Up_Distractor.gif"",""img/Fire_Up_Distractor.gif"",""img/Fire_Up_Distractor.gif""]","8","targetDown_distractorsUp"
"","","","","","html-keyboard-response","200","316025","0.0-14.0-0.0-0.93","5d8cbd29cad5dc0015e66f9e","619531dcf66c91622fa1b861","619596fd4956c4e25123b605","null","","null","","","","","main_T1_ITI","","","","",""
"","","","","","visual-search-circle","201","317736","0.0-14.0-0.0-1.93","5d8cbd29cad5dc0015e66f9e","619531dcf66c91622fa1b861","619596fd4956c4e25123b605","697.6000000089407","","s","false","[[242,594],[562,445],[519,95],[173,28],[2,336]]","true","5","main_T2_Trial","d","img/Fire_Up_Target.gif","[""img/Fire_Down_Distractor.gif"",""img/Fire_Down_Distractor.gif"",""img/Fire_Down_Distractor.gif"",""img/Fire_Down_Distractor.gif"",""img/Fire_Down_Distractor.gif"",""img/Fire_Down_Distractor.gif"",""img/Fire_Down_Distractor.gif"",""img/Fire_Down_Distractor.gif"",""img/Fire_Down_Distractor.gif"",""img/Fire_Down_Distractor.gif"",""img/Fire_Down_Distractor.gif"",""img/Fire_Down_Distractor.gif""]","5","targetUp_distractorsDown"
"","","","","","html-keyboard-response","202","317739","0.0-14.0-0.0-0.94","5d8cbd29cad5dc0015e66f9e","619531dcf66c91622fa1b861","619596fd4956c4e25123b605","null","","null","","","","","main_T1_ITI","","","","",""
"","","","","","visual-search-circle","203","319391","0.0-14.0-0.0-1.94","5d8cbd29cad5dc0015e66f9e","619531dcf66c91622fa1b861","619596fd4956c4e25123b605","638","","s","true","[[596,346],[488,66],[192,19],[3,253],[111,533],[407,580]]","false","6","main_T2_Trial","s","img/Fire_Up_Target.gif","[""img/Fire_Down_Distractor.gif"",""img/Fire_Down_Distractor.gif"",""img/Fire_Down_Distractor.gif"",""img/Fire_Down_Distractor.gif"",""img/Fire_Down_Distractor.gif"",""img/Fire_Down_Distractor.gif"",""img/Fire_Down_Distractor.gif"",""img/Fire_Down_Distractor.gif"",""img/Fire_Down_Distractor.gif"",""img/Fire_Down_Distractor.gif"",""img/Fire_Down_Distractor.gif"",""img/Fire_Down_Distractor.gif""]","6","targetUp_distractorsDown"
"","","","","","html-keyboard-response","204","319393","0.0-14.0-0.0-0.95","5d8cbd29cad5dc0015e66f9e","619531dcf66c91622fa1b861","619596fd4956c4e25123b605","null","","null","","","","","main_T1_ITI","","","","",""
"","","","","","visual-search-circle","205","321021","0.0-14.0-0.0-1.95","5d8cbd29cad5dc0015e66f9e","619531dcf66c91622fa1b861","619596fd4956c4e25123b605","609.6999999880791","","s","false","[[73,103],[0,320],[103,526],[320,599],[526,496],[599,279],[496,73],[279,0]]","true","8","main_T2_Trial","d","img/Fire_Up_Target.gif","[""img/Fire_Down_Distractor.gif"",""img/Fire_Down_Distractor.gif"",""img/Fire_Down_Distractor.gif"",""img/Fire_Down_Distractor.gif"",""img/Fire_Down_Distractor.gif"",""img/Fire_Down_Distractor.gif"",""img/Fire_Down_Distractor.gif"",""img/Fire_Down_Distractor.gif"",""img/Fire_Down_Distractor.gif"",""img/Fire_Down_Distractor.gif"",""img/Fire_Down_Distractor.gif"",""img/Fire_Down_Distractor.gif""]","8","targetUp_distractorsDown"
"","","","","","html-keyboard-response","206","321025","0.0-14.0-0.0-0.96","5d8cbd29cad5dc0015e66f9e","619531dcf66c91622fa1b861","619596fd4956c4e25123b605","null","","null","","","","","main_T1_ITI","","","","",""
"","","","","","visual-search-circle","207","323024","0.0-14.0-0.0-1.96","5d8cbd29cad5dc0015e66f9e","619531dcf66c91622fa1b861","619596fd4956c4e25123b605","987.5","","d","false","[[242,5],[5,357],[357,594],[594,242]]","false","4","main_T2_Trial","s","img/Fire_Down_Target.gif","[""img/Fire_Up_Distractor.gif"",""img/Fire_Up_Distractor.gif"",""img/Fire_Up_Distractor.gif"",""img/Fire_Up_Distractor.gif"",""img/Fire_Up_Distractor.gif"",""img/Fire_Up_Distractor.gif"",""img/Fire_Up_Distractor.gif"",""img/Fire_Up_Distractor.gif"",""img/Fire_Up_Distractor.gif"",""img/Fire_Up_Distractor.gif"",""img/Fire_Up_Distractor.gif"",""img/Fire_Up_Distractor.gif""]","4","targetDown_distractorsUp"
"","","","","","html-keyboard-response","208","323029","0.0-14.0-0.0-0.97","5d8cbd29cad5dc0015e66f9e","619531dcf66c91622fa1b861","619596fd4956c4e25123b605","null","","null","","","","","main_T1_ITI","","","","",""
"","","","","","visual-search-circle","209","324633","0.0-14.0-0.0-1.97","5d8cbd29cad5dc0015e66f9e","619531dcf66c91622fa1b861","619596fd4956c4e25123b605","588.0999999940395","","s","true","[[132,51],[5,242],[51,467],[242,594],[467,548],[594,357],[548,132],[357,5]]","false","8","main_T2_Trial","s","img/Fire_Up_Target.gif","[""img/Fire_Down_Distractor.gif"",""img/Fire_Down_Distractor.gif"",""img/Fire_Down_Distractor.gif"",""img/Fire_Down_Distractor.gif"",""img/Fire_Down_Distractor.gif"",""img/Fire_Down_Distractor.gif"",""img/Fire_Down_Distractor.gif"",""img/Fire_Down_Distractor.gif"",""img/Fire_Down_Distractor.gif"",""img/Fire_Down_Distractor.gif"",""img/Fire_Down_Distractor.gif"",""img/Fire_Down_Distractor.gif""]","8","targetUp_distractorsDown"
"","","","","","html-keyboard-response","210","324634","0.0-14.0-0.0-0.98","5d8cbd29cad5dc0015e66f9e","619531dcf66c91622fa1b861","619596fd4956c4e25123b605","null","","null","","","","","main_T1_ITI","","","","",""
"","","","","","visual-search-circle","211","326145","0.0-14.0-0.0-1.98","5d8cbd29cad5dc0015e66f9e","619531dcf66c91622fa1b861","619596fd4956c4e25123b605","501.70000000298023","","s","true","[[545,127],[212,13],[0,294],[202,583],[539,480]]","false","5","main_T2_Trial","s","img/Fire_Down_Target.gif","[""img/Fire_Up_Distractor.gif"",""img/Fire_Up_Distractor.gif"",""img/Fire_Up_Distractor.gif"",""img/Fire_Up_Distractor.gif"",""img/Fire_Up_Distractor.gif"",""img/Fire_Up_Distractor.gif"",""img/Fire_Up_Distractor.gif"",""img/Fire_Up_Distractor.gif"",""img/Fire_Up_Distractor.gif"",""img/Fire_Up_Distractor.gif"",""img/Fire_Up_Distractor.gif"",""img/Fire_Up_Distractor.gif""]","5","targetDown_distractorsUp"
"","","","","","html-keyboard-response","212","327060","0.0-14.0-0.0-0.99","5d8cbd29cad5dc0015e66f9e","619531dcf66c91622fa1b861","619596fd4956c4e25123b605","914.2999999970198","Wow! You've completed 100 out of 160 trials! </p> <p>  </p><p> Take a quick break, then press any key when you're ready to continue."," ","","","","","main_T1_ITI","","","","",""
"","","","","","visual-search-circle","213","329167","0.0-14.0-0.0-1.99","5d8cbd29cad5dc0015e66f9e","619531dcf66c91622fa1b861","619596fd4956c4e25123b605","1088.0999999940395","","d","true","[[19,407],[209,586],[467,549],[598,324],[505,81],[257,3],[41,148]]","true","7","main_T2_Trial","d","img/Fire_Up_Target.gif","[""img/Fire_Down_Distractor.gif"",""img/Fire_Down_Distractor.gif"",""img/Fire_Down_Distractor.gif"",""img/Fire_Down_Distractor.gif"",""img/Fire_Down_Distractor.gif"",""img/Fire_Down_Distractor.gif"",""img/Fire_Down_Distractor.gif"",""img/Fire_Down_Distractor.gif"",""img/Fire_Down_Distractor.gif"",""img/Fire_Down_Distractor.gif"",""img/Fire_Down_Distractor.gif"",""img/Fire_Down_Distractor.gif""]","7","targetUp_distractorsDown"
"","","","","","html-keyboard-response","214","329176","0.0-14.0-0.0-0.100","5d8cbd29cad5dc0015e66f9e","619531dcf66c91622fa1b861","619596fd4956c4e25123b605","null","","null","","","","","main_T1_ITI","","","","",""
"","","","","","visual-search-circle","215","330864","0.0-14.0-0.0-1.100","5d8cbd29cad5dc0015e66f9e","619531dcf66c91622fa1b861","619596fd4956c4e25123b605","675.2000000029802","","s","true","[[8,227],[227,591],[591,372],[372,8]]","false","4","main_T2_Trial","s","img/Fire_Up_Target.gif","[""img/Fire_Down_Distractor.gif"",""img/Fire_Down_Distractor.gif"",""img/Fire_Down_Distractor.gif"",""img/Fire_Down_Distractor.gif"",""img/Fire_Down_Distractor.gif"",""img/Fire_Down_Distractor.gif"",""img/Fire_Down_Distractor.gif"",""img/Fire_Down_Distractor.gif"",""img/Fire_Down_Distractor.gif"",""img/Fire_Down_Distractor.gif"",""img/Fire_Down_Distractor.gif"",""img/Fire_Down_Distractor.gif""]","4","targetUp_distractorsDown"
"","","","","","html-keyboard-response","216","330866","0.0-14.0-0.0-0.101","5d8cbd29cad5dc0015e66f9e","619531dcf66c91622fa1b861","619596fd4956c4e25123b605","null","","null","","","","","main_T1_ITI","","","","",""
