"success","timeout","failed_images","failed_audio","failed_video","trial_type","trial_index","time_elapsed","internal_node_id","subject_id","study_id","session_id","rt","stimulus","response","correct","locations","target_present","set_size","task","correct_response","target","foilCM","setSizeCM","searchCondition"
"true","false","[]","[]","[]","preload","0","222299","0.0-0.0","5d9a125f1714540016a40a27","619531dcf66c91622fa1b861","619595f495f7c703c836bf8e","","","","","","","","","","","","",""
"true","","","","","fullscreen","1","758612","0.0-1.0","5d9a125f1714540016a40a27","619531dcf66c91622fa1b861","619595f495f7c703c836bf8e","","","","","","","","","","","","",""
"","","","","","html-keyboard-response","2","764814","0.0-2.0","5d9a125f1714540016a40a27","619531dcf66c91622fa1b861","619595f495f7c703c836bf8e","6199.60000000149","What a beautiful Wednesday to do some awesome science! </p> <p>  </p><p> </p>
    By completing this survey or questionnaire, you are consenting to be in this research study. </p>
    Your participation is voluntary and you can stop at any time.
    <p> [Press any key to continue.] </p>
    
    "," ","","","","","","","","","",""
"","","","","","video-keyboard-response","3","798467","0.0-3.0","5d9a125f1714540016a40a27","619531dcf66c91622fa1b861","619595f495f7c703c836bf8e","33648.29999999702","[""video/TaskInstructions.mp4""]"," ","","","","","","","","","",""
"","","","","","html-keyboard-response","4","803992","0.0-4.0","5d9a125f1714540016a40a27","619531dcf66c91622fa1b861","619595f495f7c703c836bf8e","5522.89999999851","
    <p>First, we're going to do a few practice trials to make sure you understand the task. You will recieve feedback on each trial. </p>
    <p>[Press any key to begin the familiarization phase.]</p>
    "," ","","","","","","","","","",""
"","","","","","visual-search-circle","5","807165","0.0-5.0-0.0","5d9a125f1714540016a40a27","619531dcf66c91622fa1b861","619595f495f7c703c836bf8e","2098.60000000149","","d","true","[[247,4],[4,352],[352,595],[595,247]]","true","4","training","d","","","",""
"","","","","","html-keyboard-response","6","809283","0.0-6.0","5d9a125f1714540016a40a27","619531dcf66c91622fa1b861","619595f495f7c703c836bf8e","2114.5"," <div style='float: center; '><img src='img/feedbackRight.png'></img> </div> ","d","","","","","","","","","",""
"","","","","","visual-search-circle","7","811465","0.0-7.0-0.0","5d9a125f1714540016a40a27","619531dcf66c91622fa1b861","619595f495f7c703c836bf8e","1163.1000000014901","","s","true","[[14,207],[207,585],[585,392],[392,14]]","false","4","training","s","","","",""
"","","","","","html-keyboard-response","8","812619","0.0-8.0","5d9a125f1714540016a40a27","619531dcf66c91622fa1b861","619595f495f7c703c836bf8e","1152.3999999985099"," <div style='float: center; '><img src='img/feedbackRight.png'></img> </div> "," ","","","","","","","","","",""
"","","","","","visual-search-circle","9","815689","0.0-9.0-0.0","5d9a125f1714540016a40a27","619531dcf66c91622fa1b861","619595f495f7c703c836bf8e","2064.2000000029802","","s","true","[[0,279],[132,548],[431,569],[599,320],[467,51],[168,30]]","false","6","training","s","","","",""
"","","","","","html-keyboard-response","10","816646","0.0-10.0","5d9a125f1714540016a40a27","619531dcf66c91622fa1b861","619595f495f7c703c836bf8e","955.5"," <div style='float: center; '><img src='img/feedbackRight.png'></img> </div> "," ","","","","","","","","","",""
"","","","","","visual-search-circle","11","819594","0.0-11.0-0.0","5d9a125f1714540016a40a27","619531dcf66c91622fa1b861","619595f495f7c703c836bf8e","1923.9000000059605","","d","true","[[536,484],[597,263],[484,63],[263,2],[63,115],[2,336],[115,536],[336,597]]","true","8","training","d","","","",""
"","","","","","html-keyboard-response","12","820609","0.0-12.0","5d9a125f1714540016a40a27","619531dcf66c91622fa1b861","619595f495f7c703c836bf8e","1014.3000000044703"," <div style='float: center; '><img src='img/feedbackRight.png'></img> </div> "," ","","","","","","","","","",""
"","","","","","video-keyboard-response","13","829525","0.0-13.0","5d9a125f1714540016a40a27","619531dcf66c91622fa1b861","619595f495f7c703c836bf8e","8914.60000000149","[""video/endTraining.mp4""]","d","","","","","","","","","",""
"","","","","","html-keyboard-response","14","829530","0.0-14.0-0.0-0.0","5d9a125f1714540016a40a27","619531dcf66c91622fa1b861","619595f495f7c703c836bf8e","null","","null","","","","","main_T1_ITI","","","","",""
"","","","","","visual-search-circle","15","832303","0.0-14.0-0.0-1.0","5d9a125f1714540016a40a27","619531dcf66c91622fa1b861","619595f495f7c703c836bf8e","1762.3999999985099","","d","true","[[30,168],[168,569],[569,431],[431,30]]","true","4","main_T2_Trial","d","img/Fire_Down_Target.gif","[""img/Fire_Up_Distractor.gif"",""img/Fire_Up_Distractor.gif"",""img/Fire_Up_Distractor.gif"",""img/Fire_Up_Distractor.gif"",""img/Fire_Up_Distractor.gif"",""img/Fire_Up_Distractor.gif"",""img/Fire_Up_Distractor.gif"",""img/Fire_Up_Distractor.gif"",""img/Fire_Up_Distractor.gif"",""img/Fire_Up_Distractor.gif"",""img/Fire_Up_Distractor.gif"",""img/Fire_Up_Distractor.gif""]","4","targetDown_distractorsUp"
"","","","","","html-keyboard-response","16","832311","0.0-14.0-0.0-0.1","5d9a125f1714540016a40a27","619531dcf66c91622fa1b861","619595f495f7c703c836bf8e","null","","null","","","","","main_T1_ITI","","","","",""
"","","","","","visual-search-circle","17","834276","0.0-14.0-0.0-1.1","5d9a125f1714540016a40a27","619531dcf66c91622fa1b861","619595f495f7c703c836bf8e","937.1999999955297","","s","true","[[57,123],[25,422],[268,598],[542,476],[574,177],[331,1]]","false","6","main_T2_Trial","s","img/Fire_Down_Target.gif","[""img/Fire_Up_Distractor.gif"",""img/Fire_Up_Distractor.gif"",""img/Fire_Up_Distractor.gif"",""img/Fire_Up_Distractor.gif"",""img/Fire_Up_Distractor.gif"",""img/Fire_Up_Distractor.gif"",""img/Fire_Up_Distractor.gif"",""img/Fire_Up_Distractor.gif"",""img/Fire_Up_Distractor.gif"",""img/Fire_Up_Distractor.gif"",""img/Fire_Up_Distractor.gif"",""img/Fire_Up_Distractor.gif""]","6","targetDown_distractorsUp"
"","","","","","html-keyboard-response","18","834278","0.0-14.0-0.0-0.2","5d9a125f1714540016a40a27","619531dcf66c91622fa1b861","619595f495f7c703c836bf8e","null","","null","","","","","main_T1_ITI","","","","",""
"","","","","","visual-search-circle","19","836736","0.0-14.0-0.0-1.2","5d9a125f1714540016a40a27","619531dcf66c91622fa1b861","619595f495f7c703c836bf8e","1442.6999999955297","","s","true","[[6,362],[207,585],[500,522],[593,237],[392,14],[99,77]]","false","6","main_T2_Trial","s","img/Fire_Up_Target.gif","[""img/Fire_Down_Distractor.gif"",""img/Fire_Down_Distractor.gif"",""img/Fire_Down_Distractor.gif"",""img/Fire_Down_Distractor.gif"",""img/Fire_Down_Distractor.gif"",""img/Fire_Down_Distractor.gif"",""img/Fire_Down_Distractor.gif"",""img/Fire_Down_Distractor.gif"",""img/Fire_Down_Distractor.gif"",""img/Fire_Down_Distractor.gif"",""img/Fire_Down_Distractor.gif"",""img/Fire_Down_Distractor.gif""]","6","targetUp_distractorsDown"
"","","","","","html-keyboard-response","20","836783","0.0-14.0-0.0-0.3","5d9a125f1714540016a40a27","619531dcf66c91622fa1b861","619595f495f7c703c836bf8e","null","","null","","","","","main_T1_ITI","","","","",""
"","","","","","visual-search-circle","21","839788","0.0-14.0-0.0-1.3","5d9a125f1714540016a40a27","619531dcf66c91622fa1b861","619595f495f7c703c836bf8e","1997.2000000029802","","s","true","[[569,168],[320,0],[51,132],[30,431],[279,599],[548,467]]","false","6","main_T2_Trial","s","img/Fire_Down_Target.gif","[""img/Fire_Up_Distractor.gif"",""img/Fire_Up_Distractor.gif"",""img/Fire_Up_Distractor.gif"",""img/Fire_Up_Distractor.gif"",""img/Fire_Up_Distractor.gif"",""img/Fire_Up_Distractor.gif"",""img/Fire_Up_Distractor.gif"",""img/Fire_Up_Distractor.gif"",""img/Fire_Up_Distractor.gif"",""img/Fire_Up_Distractor.gif"",""img/Fire_Up_Distractor.gif"",""img/Fire_Up_Distractor.gif""]","6","targetDown_distractorsUp"
"","","","","","html-keyboard-response","22","839792","0.0-14.0-0.0-0.4","5d9a125f1714540016a40a27","619531dcf66c91622fa1b861","619595f495f7c703c836bf8e","null","","null","","","","","main_T1_ITI","","","","",""
"","","","","","visual-search-circle","23","843078","0.0-14.0-0.0-1.4","5d9a125f1714540016a40a27","619531dcf66c91622fa1b861","619595f495f7c703c836bf8e","2245.10000000149","","s","true","[[450,559],[600,300],[449,40],[150,40],[0,299],[150,559]]","false","6","main_T2_Trial","s","img/Fire_Up_Target.gif","[""img/Fire_Down_Distractor.gif"",""img/Fire_Down_Distractor.gif"",""img/Fire_Down_Distractor.gif"",""img/Fire_Down_Distractor.gif"",""img/Fire_Down_Distractor.gif"",""img/Fire_Down_Distractor.gif"",""img/Fire_Down_Distractor.gif"",""img/Fire_Down_Distractor.gif"",""img/Fire_Down_Distractor.gif"",""img/Fire_Down_Distractor.gif"",""img/Fire_Down_Distractor.gif"",""img/Fire_Down_Distractor.gif""]","6","targetUp_distractorsDown"
"","","","","","html-keyboard-response","24","843081","0.0-14.0-0.0-0.5","5d9a125f1714540016a40a27","619531dcf66c91622fa1b861","619595f495f7c703c836bf8e","null","","null","","","","","main_T1_ITI","","","","",""
"","","","","","visual-search-circle","25","845021","0.0-14.0-0.0-1.5","5d9a125f1714540016a40a27","619531dcf66c91622fa1b861","619595f495f7c703c836bf8e","928.2000000029802","","d","true","[[8,227],[42,454],[227,591],[454,557],[591,372],[557,145],[372,8],[145,42]]","true","8","main_T2_Trial","d","img/Fire_Down_Target.gif","[""img/Fire_Up_Distractor.gif"",""img/Fire_Up_Distractor.gif"",""img/Fire_Up_Distractor.gif"",""img/Fire_Up_Distractor.gif"",""img/Fire_Up_Distractor.gif"",""img/Fire_Up_Distractor.gif"",""img/Fire_Up_Distractor.gif"",""img/Fire_Up_Distractor.gif"",""img/Fire_Up_Distractor.gif"",""img/Fire_Up_Distractor.gif"",""img/Fire_Up_Distractor.gif"",""img/Fire_Up_Distractor.gif""]","8","targetDown_distractorsUp"
"","","","","","html-keyboard-response","26","845043","0.0-14.0-0.0-0.6","5d9a125f1714540016a40a27","619531dcf66c91622fa1b861","619595f495f7c703c836bf8e","null","","null","","","","","main_T1_ITI","","","","",""
"","","","","","visual-search-circle","27","847063","0.0-14.0-0.0-1.6","5d9a125f1714540016a40a27","619531dcf66c91622fa1b861","619595f495f7c703c836bf8e","1005.8000000044703","","s","true","[[77,99],[99,522],[522,500],[500,77]]","false","4","main_T2_Trial","s","img/Fire_Down_Target.gif","[""img/Fire_Up_Distractor.gif"",""img/Fire_Up_Distractor.gif"",""img/Fire_Up_Distractor.gif"",""img/Fire_Up_Distractor.gif"",""img/Fire_Up_Distractor.gif"",""img/Fire_Up_Distractor.gif"",""img/Fire_Up_Distractor.gif"",""img/Fire_Up_Distractor.gif"",""img/Fire_Up_Distractor.gif"",""img/Fire_Up_Distractor.gif"",""img/Fire_Up_Distractor.gif"",""img/Fire_Up_Distractor.gif""]","4","targetDown_distractorsUp"
"","","","","","html-keyboard-response","28","847066","0.0-14.0-0.0-0.7","5d9a125f1714540016a40a27","619531dcf66c91622fa1b861","619595f495f7c703c836bf8e","null","","null","","","","","main_T1_ITI","","","","",""
"","","","","","visual-search-circle","29","849114","0.0-14.0-0.0-1.7","5d9a125f1714540016a40a27","619531dcf66c91622fa1b861","619595f495f7c703c836bf8e","1031","","d","false","[[54,127],[28,426],[273,598],[545,472],[571,173],[326,1]]","false","6","main_T2_Trial","s","img/Fire_Down_Target.gif","[""img/Fire_Up_Distractor.gif"",""img/Fire_Up_Distractor.gif"",""img/Fire_Up_Distractor.gif"",""img/Fire_Up_Distractor.gif"",""img/Fire_Up_Distractor.gif"",""img/Fire_Up_Distractor.gif"",""img/Fire_Up_Distractor.gif"",""img/Fire_Up_Distractor.gif"",""img/Fire_Up_Distractor.gif"",""img/Fire_Up_Distractor.gif"",""img/Fire_Up_Distractor.gif"",""img/Fire_Up_Distractor.gif""]","6","targetDown_distractorsUp"
"","","","","","html-keyboard-response","30","849132","0.0-14.0-0.0-0.8","5d9a125f1714540016a40a27","619531dcf66c91622fa1b861","619595f495f7c703c836bf8e","null","","null","","","","","main_T1_ITI","","","","",""
"","","","","","visual-search-circle","31","851326","0.0-14.0-0.0-1.8","5d9a125f1714540016a40a27","619531dcf66c91622fa1b861","619595f495f7c703c836bf8e","1171.0999999940395","","d","true","[[341,597],[595,352],[440,35],[91,84],[30,431]]","true","5","main_T2_Trial","d","img/Fire_Down_Target.gif","[""img/Fire_Up_Distractor.gif"",""img/Fire_Up_Distractor.gif"",""img/Fire_Up_Distractor.gif"",""img/Fire_Up_Distractor.gif"",""img/Fire_Up_Distractor.gif"",""img/Fire_Up_Distractor.gif"",""img/Fire_Up_Distractor.gif"",""img/Fire_Up_Distractor.gif"",""img/Fire_Up_Distractor.gif"",""img/Fire_Up_Distractor.gif"",""img/Fire_Up_Distractor.gif"",""img/Fire_Up_Distractor.gif""]","5","targetDown_distractorsUp"
"","","","","","html-keyboard-response","32","851333","0.0-14.0-0.0-0.9","5d9a125f1714540016a40a27","619531dcf66c91622fa1b861","619595f495f7c703c836bf8e","null","","null","","","","","main_T1_ITI","","","","",""
"","","","","","visual-search-circle","33","854332","0.0-14.0-0.0-1.9","5d9a125f1714540016a40a27","619531dcf66c91622fa1b861","619595f495f7c703c836bf8e","1982.2000000029802","","d","true","[[87,87],[1,333],[140,554],[399,583],[583,399],[554,140],[333,1]]","true","7","main_T2_Trial","d","img/Fire_Down_Target.gif","[""img/Fire_Up_Distractor.gif"",""img/Fire_Up_Distractor.gif"",""img/Fire_Up_Distractor.gif"",""img/Fire_Up_Distractor.gif"",""img/Fire_Up_Distractor.gif"",""img/Fire_Up_Distractor.gif"",""img/Fire_Up_Distractor.gif"",""img/Fire_Up_Distractor.gif"",""img/Fire_Up_Distractor.gif"",""img/Fire_Up_Distractor.gif"",""img/Fire_Up_Distractor.gif"",""img/Fire_Up_Distractor.gif""]","7","targetDown_distractorsUp"
"","","","","","html-keyboard-response","34","854337","0.0-14.0-0.0-0.10","5d9a125f1714540016a40a27","619531dcf66c91622fa1b861","619595f495f7c703c836bf8e","null","","null","","","","","main_T1_ITI","","","","",""
"","","","","","visual-search-circle","35","856469","0.0-14.0-0.0-1.10","5d9a125f1714540016a40a27","619531dcf66c91622fa1b861","619595f495f7c703c836bf8e","1115.5","","s","true","[[592,367],[504,80],[212,13],[7,232],[95,519],[387,586]]","false","6","main_T2_Trial","s","img/Fire_Down_Target.gif","[""img/Fire_Up_Distractor.gif"",""img/Fire_Up_Distractor.gif"",""img/Fire_Up_Distractor.gif"",""img/Fire_Up_Distractor.gif"",""img/Fire_Up_Distractor.gif"",""img/Fire_Up_Distractor.gif"",""img/Fire_Up_Distractor.gif"",""img/Fire_Up_Distractor.gif"",""img/Fire_Up_Distractor.gif"",""img/Fire_Up_Distractor.gif"",""img/Fire_Up_Distractor.gif"",""img/Fire_Up_Distractor.gif""]","6","targetDown_distractorsUp"
"","","","","","html-keyboard-response","36","856471","0.0-14.0-0.0-0.11","5d9a125f1714540016a40a27","619531dcf66c91622fa1b861","619595f495f7c703c836bf8e","null","","null","","","","","main_T1_ITI","","","","",""
"","","","","","visual-search-circle","37","859412","0.0-14.0-0.0-1.11","5d9a125f1714540016a40a27","619531dcf66c91622fa1b861","619595f495f7c703c836bf8e","1923.7999999970198","","d","true","[[136,551],[362,593],[551,463],[593,237],[463,48],[237,6],[48,136],[6,362]]","true","8","main_T2_Trial","d","img/Fire_Up_Target.gif","[""img/Fire_Down_Distractor.gif"",""img/Fire_Down_Distractor.gif"",""img/Fire_Down_Distractor.gif"",""img/Fire_Down_Distractor.gif"",""img/Fire_Down_Distractor.gif"",""img/Fire_Down_Distractor.gif"",""img/Fire_Down_Distractor.gif"",""img/Fire_Down_Distractor.gif"",""img/Fire_Down_Distractor.gif"",""img/Fire_Down_Distractor.gif"",""img/Fire_Down_Distractor.gif"",""img/Fire_Down_Distractor.gif""]","8","targetUp_distractorsDown"
"","","","","","html-keyboard-response","38","859425","0.0-14.0-0.0-0.12","5d9a125f1714540016a40a27","619531dcf66c91622fa1b861","619595f495f7c703c836bf8e","null","","null","","","","","main_T1_ITI","","","","",""
"","","","","","visual-search-circle","39","862002","0.0-14.0-0.0-1.12","5d9a125f1714540016a40a27","619531dcf66c91622fa1b861","619595f495f7c703c836bf8e","1564","","s","true","[[284,599],[551,463],[567,163],[315,0],[48,136],[32,436]]","false","6","main_T2_Trial","s","img/Fire_Down_Target.gif","[""img/Fire_Up_Distractor.gif"",""img/Fire_Up_Distractor.gif"",""img/Fire_Up_Distractor.gif"",""img/Fire_Up_Distractor.gif"",""img/Fire_Up_Distractor.gif"",""img/Fire_Up_Distractor.gif"",""img/Fire_Up_Distractor.gif"",""img/Fire_Up_Distractor.gif"",""img/Fire_Up_Distractor.gif"",""img/Fire_Up_Distractor.gif"",""img/Fire_Up_Distractor.gif"",""img/Fire_Up_Distractor.gif""]","6","targetDown_distractorsUp"
"","","","","","html-keyboard-response","40","862010","0.0-14.0-0.0-0.13","5d9a125f1714540016a40a27","619531dcf66c91622fa1b861","619595f495f7c703c836bf8e","null","","null","","","","","main_T1_ITI","","","","",""
"","","","","","visual-search-circle","41","864837","0.0-14.0-0.0-1.13","5d9a125f1714540016a40a27","619531dcf66c91622fa1b861","619595f495f7c703c836bf8e","1807.2999999970198","","s","false","[[0,279],[187,578],[529,492],[554,141],[227,8]]","true","5","main_T2_Trial","d","img/Fire_Up_Target.gif","[""img/Fire_Down_Distractor.gif"",""img/Fire_Down_Distractor.gif"",""img/Fire_Down_Distractor.gif"",""img/Fire_Down_Distractor.gif"",""img/Fire_Down_Distractor.gif"",""img/Fire_Down_Distractor.gif"",""img/Fire_Down_Distractor.gif"",""img/Fire_Down_Distractor.gif"",""img/Fire_Down_Distractor.gif"",""img/Fire_Down_Distractor.gif"",""img/Fire_Down_Distractor.gif"",""img/Fire_Down_Distractor.gif""]","5","targetUp_distractorsDown"
"","","","","","html-keyboard-response","42","864842","0.0-14.0-0.0-0.14","5d9a125f1714540016a40a27","619531dcf66c91622fa1b861","619595f495f7c703c836bf8e","null","","null","","","","","main_T1_ITI","","","","",""
"","","","","","visual-search-circle","43","867191","0.0-14.0-0.0-1.14","5d9a125f1714540016a40a27","619531dcf66c91622fa1b861","619595f495f7c703c836bf8e","1341.6000000014901","","s","true","[[580,407],[407,19],[19,192],[192,580]]","false","4","main_T2_Trial","s","img/Fire_Up_Target.gif","[""img/Fire_Down_Distractor.gif"",""img/Fire_Down_Distractor.gif"",""img/Fire_Down_Distractor.gif"",""img/Fire_Down_Distractor.gif"",""img/Fire_Down_Distractor.gif"",""img/Fire_Down_Distractor.gif"",""img/Fire_Down_Distractor.gif"",""img/Fire_Down_Distractor.gif"",""img/Fire_Down_Distractor.gif"",""img/Fire_Down_Distractor.gif"",""img/Fire_Down_Distractor.gif"",""img/Fire_Down_Distractor.gif""]","4","targetUp_distractorsDown"
"","","","","","html-keyboard-response","44","867195","0.0-14.0-0.0-0.15","5d9a125f1714540016a40a27","619531dcf66c91622fa1b861","619595f495f7c703c836bf8e","null","","null","","","","","main_T1_ITI","","","","",""
"","","","","","visual-search-circle","45","869390","0.0-14.0-0.0-1.15","5d9a125f1714540016a40a27","619531dcf66c91622fa1b861","619595f495f7c703c836bf8e","1192.8999999985099","","d","true","[[407,580],[586,390],[549,132],[324,1],[81,94],[3,342],[148,558]]","true","7","main_T2_Trial","d","img/Fire_Up_Target.gif","[""img/Fire_Down_Distractor.gif"",""img/Fire_Down_Distractor.gif"",""img/Fire_Down_Distractor.gif"",""img/Fire_Down_Distractor.gif"",""img/Fire_Down_Distractor.gif"",""img/Fire_Down_Distractor.gif"",""img/Fire_Down_Distractor.gif"",""img/Fire_Down_Distractor.gif"",""img/Fire_Down_Distractor.gif"",""img/Fire_Down_Distractor.gif"",""img/Fire_Down_Distractor.gif"",""img/Fire_Down_Distractor.gif""]","7","targetUp_distractorsDown"
"","","","","","html-keyboard-response","46","869392","0.0-14.0-0.0-0.16","5d9a125f1714540016a40a27","619531dcf66c91622fa1b861","619595f495f7c703c836bf8e","null","","null","","","","","main_T1_ITI","","","","",""
"","","","","","visual-search-circle","47","871650","0.0-14.0-0.0-1.16","5d9a125f1714540016a40a27","619531dcf66c91622fa1b861","619595f495f7c703c836bf8e","1247.1999999955297","","s","true","[[132,51],[11,382],[289,599],[581,402],[484,63]]","false","5","main_T2_Trial","s","img/Fire_Down_Target.gif","[""img/Fire_Up_Distractor.gif"",""img/Fire_Up_Distractor.gif"",""img/Fire_Up_Distractor.gif"",""img/Fire_Up_Distractor.gif"",""img/Fire_Up_Distractor.gif"",""img/Fire_Up_Distractor.gif"",""img/Fire_Up_Distractor.gif"",""img/Fire_Up_Distractor.gif"",""img/Fire_Up_Distractor.gif"",""img/Fire_Up_Distractor.gif"",""img/Fire_Up_Distractor.gif"",""img/Fire_Up_Distractor.gif""]","5","targetDown_distractorsUp"
"","","","","","html-keyboard-response","48","871662","0.0-14.0-0.0-0.17","5d9a125f1714540016a40a27","619531dcf66c91622fa1b861","619595f495f7c703c836bf8e","null","","null","","","","","main_T1_ITI","","","","",""
"","","","","","visual-search-circle","49","873651","0.0-14.0-0.0-1.17","5d9a125f1714540016a40a27","619531dcf66c91622fa1b861","619595f495f7c703c836bf8e","939.1000000014901","","d","true","[[519,95],[173,28],[2,336],[242,594],[562,445]]","true","5","main_T2_Trial","d","img/Fire_Up_Target.gif","[""img/Fire_Down_Distractor.gif"",""img/Fire_Down_Distractor.gif"",""img/Fire_Down_Distractor.gif"",""img/Fire_Down_Distractor.gif"",""img/Fire_Down_Distractor.gif"",""img/Fire_Down_Distractor.gif"",""img/Fire_Down_Distractor.gif"",""img/Fire_Down_Distractor.gif"",""img/Fire_Down_Distractor.gif"",""img/Fire_Down_Distractor.gif"",""img/Fire_Down_Distractor.gif"",""img/Fire_Down_Distractor.gif""]","5","targetUp_distractorsDown"
"","","","","","html-keyboard-response","50","873653","0.0-14.0-0.0-0.18","5d9a125f1714540016a40a27","619531dcf66c91622fa1b861","619595f495f7c703c836bf8e","null","","null","","","","","main_T1_ITI","","","","",""
"","","","","","visual-search-circle","51","875741","0.0-14.0-0.0-1.18","5d9a125f1714540016a40a27","619531dcf66c91622fa1b861","619595f495f7c703c836bf8e","1072.5999999940395","","s","true","[[504,519],[592,232],[387,13],[95,80],[7,367],[212,586]]","false","6","main_T2_Trial","s","img/Fire_Up_Target.gif","[""img/Fire_Down_Distractor.gif"",""img/Fire_Down_Distractor.gif"",""img/Fire_Down_Distractor.gif"",""img/Fire_Down_Distractor.gif"",""img/Fire_Down_Distractor.gif"",""img/Fire_Down_Distractor.gif"",""img/Fire_Down_Distractor.gif"",""img/Fire_Down_Distractor.gif"",""img/Fire_Down_Distractor.gif"",""img/Fire_Down_Distractor.gif"",""img/Fire_Down_Distractor.gif"",""img/Fire_Down_Distractor.gif""]","6","targetUp_distractorsDown"
"","","","","","html-keyboard-response","52","882118","0.0-14.0-0.0-0.19","5d9a125f1714540016a40a27","619531dcf66c91622fa1b861","619595f495f7c703c836bf8e","6376.19999999553","Wow! You've completed 20 out of 160 trials! </p> <p>  </p><p> Take a quick break, then press any key when you're ready to continue.","d","","","","","main_T1_ITI","","","","",""
"","","","","","visual-search-circle","53","884629","0.0-14.0-0.0-1.19","5d9a125f1714540016a40a27","619531dcf66c91622fa1b861","619595f495f7c703c836bf8e","1487.6000000014901","","s","true","[[197,18],[28,173],[18,402],[173,571],[402,581],[571,426],[581,197],[426,28]]","false","8","main_T2_Trial","s","img/Fire_Up_Target.gif","[""img/Fire_Down_Distractor.gif"",""img/Fire_Down_Distractor.gif"",""img/Fire_Down_Distractor.gif"",""img/Fire_Down_Distractor.gif"",""img/Fire_Down_Distractor.gif"",""img/Fire_Down_Distractor.gif"",""img/Fire_Down_Distractor.gif"",""img/Fire_Down_Distractor.gif"",""img/Fire_Down_Distractor.gif"",""img/Fire_Down_Distractor.gif"",""img/Fire_Down_Distractor.gif"",""img/Fire_Down_Distractor.gif""]","8","targetUp_distractorsDown"
"","","","","","html-keyboard-response","54","884638","0.0-14.0-0.0-0.20","5d9a125f1714540016a40a27","619531dcf66c91622fa1b861","619595f495f7c703c836bf8e","null","","null","","","","","main_T1_ITI","","","","",""
"","","","","","visual-search-circle","55","887251","0.0-14.0-0.0-1.20","5d9a125f1714540016a40a27","619531dcf66c91622fa1b861","619595f495f7c703c836bf8e","1592.2000000029802","","s","true","[[402,18],[143,44],[2,262],[85,509],[329,598],[552,462],[584,204]]","false","7","main_T2_Trial","s","img/Fire_Down_Target.gif","[""img/Fire_Up_Distractor.gif"",""img/Fire_Up_Distractor.gif"",""img/Fire_Up_Distractor.gif"",""img/Fire_Up_Distractor.gif"",""img/Fire_Up_Distractor.gif"",""img/Fire_Up_Distractor.gif"",""img/Fire_Up_Distractor.gif"",""img/Fire_Up_Distractor.gif"",""img/Fire_Up_Distractor.gif"",""img/Fire_Up_Distractor.gif"",""img/Fire_Up_Distractor.gif"",""img/Fire_Up_Distractor.gif""]","7","targetDown_distractorsUp"
"","","","","","html-keyboard-response","56","887270","0.0-14.0-0.0-0.21","5d9a125f1714540016a40a27","619531dcf66c91622fa1b861","619595f495f7c703c836bf8e","null","","null","","","","","main_T1_ITI","","","","",""
"","","","","","visual-search-circle","57","890128","0.0-14.0-0.0-1.21","5d9a125f1714540016a40a27","619531dcf66c91622fa1b861","619595f495f7c703c836bf8e","1847.1000000014901","","s","false","[[500,77],[207,14],[6,237],[99,522],[392,585],[593,362]]","true","6","main_T2_Trial","d","img/Fire_Up_Target.gif","[""img/Fire_Down_Distractor.gif"",""img/Fire_Down_Distractor.gif"",""img/Fire_Down_Distractor.gif"",""img/Fire_Down_Distractor.gif"",""img/Fire_Down_Distractor.gif"",""img/Fire_Down_Distractor.gif"",""img/Fire_Down_Distractor.gif"",""img/Fire_Down_Distractor.gif"",""img/Fire_Down_Distractor.gif"",""img/Fire_Down_Distractor.gif"",""img/Fire_Down_Distractor.gif"",""img/Fire_Down_Distractor.gif""]","6","targetUp_distractorsDown"
"","","","","","html-keyboard-response","58","890131","0.0-14.0-0.0-0.22","5d9a125f1714540016a40a27","619531dcf66c91622fa1b861","619595f495f7c703c836bf8e","null","","null","","","","","main_T1_ITI","","","","",""
"","","","","","visual-search-circle","59","892309","0.0-14.0-0.0-1.22","5d9a125f1714540016a40a27","619531dcf66c91622fa1b861","619595f495f7c703c836bf8e","1160","","d","true","[[25,177],[33,438],[242,594],[493,528],[599,291],[479,59],[224,9]]","true","7","main_T2_Trial","d","img/Fire_Down_Target.gif","[""img/Fire_Up_Distractor.gif"",""img/Fire_Up_Distractor.gif"",""img/Fire_Up_Distractor.gif"",""img/Fire_Up_Distractor.gif"",""img/Fire_Up_Distractor.gif"",""img/Fire_Up_Distractor.gif"",""img/Fire_Up_Distractor.gif"",""img/Fire_Up_Distractor.gif"",""img/Fire_Up_Distractor.gif"",""img/Fire_Up_Distractor.gif"",""img/Fire_Up_Distractor.gif"",""img/Fire_Up_Distractor.gif""]","7","targetDown_distractorsUp"
"","","","","","html-keyboard-response","60","892331","0.0-14.0-0.0-0.23","5d9a125f1714540016a40a27","619531dcf66c91622fa1b861","619595f495f7c703c836bf8e","null","","null","","","","","main_T1_ITI","","","","",""
"","","","","","visual-search-circle","61","894585","0.0-14.0-0.0-1.23","5d9a125f1714540016a40a27","619531dcf66c91622fa1b861","619595f495f7c703c836bf8e","1241","","s","true","[[585,207],[207,14],[14,392],[392,585]]","false","4","main_T2_Trial","s","img/Fire_Down_Target.gif","[""img/Fire_Up_Distractor.gif"",""img/Fire_Up_Distractor.gif"",""img/Fire_Up_Distractor.gif"",""img/Fire_Up_Distractor.gif"",""img/Fire_Up_Distractor.gif"",""img/Fire_Up_Distractor.gif"",""img/Fire_Up_Distractor.gif"",""img/Fire_Up_Distractor.gif"",""img/Fire_Up_Distractor.gif"",""img/Fire_Up_Distractor.gif"",""img/Fire_Up_Distractor.gif"",""img/Fire_Up_Distractor.gif""]","4","targetDown_distractorsUp"
"","","","","","html-keyboard-response","62","894587","0.0-14.0-0.0-0.24","5d9a125f1714540016a40a27","619531dcf66c91622fa1b861","619595f495f7c703c836bf8e","null","","null","","","","","main_T1_ITI","","","","",""
"","","","","","visual-search-circle","63","897450","0.0-14.0-0.0-1.24","5d9a125f1714540016a40a27","619531dcf66c91622fa1b861","619595f495f7c703c836bf8e","1837.8999999985099","","s","true","[[336,597],[594,357],[445,37],[95,80],[28,426]]","false","5","main_T2_Trial","s","img/Fire_Down_Target.gif","[""img/Fire_Up_Distractor.gif"",""img/Fire_Up_Distractor.gif"",""img/Fire_Up_Distractor.gif"",""img/Fire_Up_Distractor.gif"",""img/Fire_Up_Distractor.gif"",""img/Fire_Up_Distractor.gif"",""img/Fire_Up_Distractor.gif"",""img/Fire_Up_Distractor.gif"",""img/Fire_Up_Distractor.gif"",""img/Fire_Up_Distractor.gif"",""img/Fire_Up_Distractor.gif"",""img/Fire_Up_Distractor.gif""]","5","targetDown_distractorsUp"
"","","","","","html-keyboard-response","64","897453","0.0-14.0-0.0-0.25","5d9a125f1714540016a40a27","619531dcf66c91622fa1b861","619595f495f7c703c836bf8e","null","","null","","","","","main_T1_ITI","","","","",""
"","","","","","visual-search-circle","65","899603","0.0-14.0-0.0-1.25","5d9a125f1714540016a40a27","619531dcf66c91622fa1b861","619595f495f7c703c836bf8e","1127.7999999970198","","d","true","[[476,542],[596,346],[542,123],[346,3],[123,57],[3,253],[57,476],[253,596]]","true","8","main_T2_Trial","d","img/Fire_Down_Target.gif","[""img/Fire_Up_Distractor.gif"",""img/Fire_Up_Distractor.gif"",""img/Fire_Up_Distractor.gif"",""img/Fire_Up_Distractor.gif"",""img/Fire_Up_Distractor.gif"",""img/Fire_Up_Distractor.gif"",""img/Fire_Up_Distractor.gif"",""img/Fire_Up_Distractor.gif"",""img/Fire_Up_Distractor.gif"",""img/Fire_Up_Distractor.gif"",""img/Fire_Up_Distractor.gif"",""img/Fire_Up_Distractor.gif""]","8","targetDown_distractorsUp"
"","","","","","html-keyboard-response","66","899619","0.0-14.0-0.0-0.26","5d9a125f1714540016a40a27","619531dcf66c91622fa1b861","619595f495f7c703c836bf8e","null","","null","","","","","main_T1_ITI","","","","",""
"","","","","","visual-search-circle","67","901544","0.0-14.0-0.0-1.26","5d9a125f1714540016a40a27","619531dcf66c91622fa1b861","619595f495f7c703c836bf8e","911","","d","true","[[16,202],[202,583],[583,397],[397,16]]","true","4","main_T2_Trial","d","img/Fire_Down_Target.gif","[""img/Fire_Up_Distractor.gif"",""img/Fire_Up_Distractor.gif"",""img/Fire_Up_Distractor.gif"",""img/Fire_Up_Distractor.gif"",""img/Fire_Up_Distractor.gif"",""img/Fire_Up_Distractor.gif"",""img/Fire_Up_Distractor.gif"",""img/Fire_Up_Distractor.gif"",""img/Fire_Up_Distractor.gif"",""img/Fire_Up_Distractor.gif"",""img/Fire_Up_Distractor.gif"",""img/Fire_Up_Distractor.gif""]","4","targetDown_distractorsUp"
"","","","","","html-keyboard-response","68","901561","0.0-14.0-0.0-0.27","5d9a125f1714540016a40a27","619531dcf66c91622fa1b861","619595f495f7c703c836bf8e","null","","null","","","","","main_T1_ITI","","","","",""
"","","","","","visual-search-circle","69","905122","0.0-14.0-0.0-1.27","5d9a125f1714540016a40a27","619531dcf66c91622fa1b861","619595f495f7c703c836bf8e","2538","","d","true","[[533,111],[331,1],[111,66],[1,268],[66,488],[268,598],[488,533],[598,331]]","true","8","main_T2_Trial","d","img/Fire_Up_Target.gif","[""img/Fire_Down_Distractor.gif"",""img/Fire_Down_Distractor.gif"",""img/Fire_Down_Distractor.gif"",""img/Fire_Down_Distractor.gif"",""img/Fire_Down_Distractor.gif"",""img/Fire_Down_Distractor.gif"",""img/Fire_Down_Distractor.gif"",""img/Fire_Down_Distractor.gif"",""img/Fire_Down_Distractor.gif"",""img/Fire_Down_Distractor.gif"",""img/Fire_Down_Distractor.gif"",""img/Fire_Down_Distractor.gif""]","8","targetUp_distractorsDown"
"","","","","","html-keyboard-response","70","905139","0.0-14.0-0.0-0.28","5d9a125f1714540016a40a27","619531dcf66c91622fa1b861","619595f495f7c703c836bf8e","null","","null","","","","","main_T1_ITI","","","","",""
"","","","","","visual-search-circle","71","907822","0.0-14.0-0.0-1.28","5d9a125f1714540016a40a27","619531dcf66c91622fa1b861","619595f495f7c703c836bf8e","1667.6000000014901","","d","true","[[598,326],[417,23],[73,103],[42,454],[367,592]]","true","5","main_T2_Trial","d","img/Fire_Up_Target.gif","[""img/Fire_Down_Distractor.gif"",""img/Fire_Down_Distractor.gif"",""img/Fire_Down_Distractor.gif"",""img/Fire_Down_Distractor.gif"",""img/Fire_Down_Distractor.gif"",""img/Fire_Down_Distractor.gif"",""img/Fire_Down_Distractor.gif"",""img/Fire_Down_Distractor.gif"",""img/Fire_Down_Distractor.gif"",""img/Fire_Down_Distractor.gif"",""img/Fire_Down_Distractor.gif"",""img/Fire_Down_Distractor.gif""]","5","targetUp_distractorsDown"
"","","","","","html-keyboard-response","72","907846","0.0-14.0-0.0-0.29","5d9a125f1714540016a40a27","619531dcf66c91622fa1b861","619595f495f7c703c836bf8e","null","","null","","","","","main_T1_ITI","","","","",""
"","","","","","visual-search-circle","73","911111","0.0-14.0-0.0-1.29","5d9a125f1714540016a40a27","619531dcf66c91622fa1b861","619595f495f7c703c836bf8e","2250.10000000149","","s","true","[[557,145],[145,42],[42,454],[454,557]]","false","4","main_T2_Trial","s","img/Fire_Down_Target.gif","[""img/Fire_Up_Distractor.gif"",""img/Fire_Up_Distractor.gif"",""img/Fire_Up_Distractor.gif"",""img/Fire_Up_Distractor.gif"",""img/Fire_Up_Distractor.gif"",""img/Fire_Up_Distractor.gif"",""img/Fire_Up_Distractor.gif"",""img/Fire_Up_Distractor.gif"",""img/Fire_Up_Distractor.gif"",""img/Fire_Up_Distractor.gif"",""img/Fire_Up_Distractor.gif"",""img/Fire_Up_Distractor.gif""]","4","targetDown_distractorsUp"
"","","","","","html-keyboard-response","74","911123","0.0-14.0-0.0-0.30","5d9a125f1714540016a40a27","619531dcf66c91622fa1b861","619595f495f7c703c836bf8e","null","","null","","","","","main_T1_ITI","","","","",""
"","","","","","visual-search-circle","75","913203","0.0-14.0-0.0-1.30","5d9a125f1714540016a40a27","619531dcf66c91622fa1b861","619595f495f7c703c836bf8e","1060.6000000014901","","s","true","[[504,80],[256,3],[40,149],[20,408],[210,586],[468,548],[599,323]]","false","7","main_T2_Trial","s","img/Fire_Down_Target.gif","[""img/Fire_Up_Distractor.gif"",""img/Fire_Up_Distractor.gif"",""img/Fire_Up_Distractor.gif"",""img/Fire_Up_Distractor.gif"",""img/Fire_Up_Distractor.gif"",""img/Fire_Up_Distractor.gif"",""img/Fire_Up_Distractor.gif"",""img/Fire_Up_Distractor.gif"",""img/Fire_Up_Distractor.gif"",""img/Fire_Up_Distractor.gif"",""img/Fire_Up_Distractor.gif"",""img/Fire_Up_Distractor.gif""]","7","targetDown_distractorsUp"
"","","","","","html-keyboard-response","76","913223","0.0-14.0-0.0-0.31","5d9a125f1714540016a40a27","619531dcf66c91622fa1b861","619595f495f7c703c836bf8e","null","","null","","","","","main_T1_ITI","","","","",""
"","","","","","visual-search-circle","77","915604","0.0-14.0-0.0-1.31","5d9a125f1714540016a40a27","619531dcf66c91622fa1b861","619595f495f7c703c836bf8e","1362.8999999985099","","s","true","[[504,519],[571,173],[263,2],[5,242],[154,562]]","false","5","main_T2_Trial","s","img/Fire_Up_Target.gif","[""img/Fire_Down_Distractor.gif"",""img/Fire_Down_Distractor.gif"",""img/Fire_Down_Distractor.gif"",""img/Fire_Down_Distractor.gif"",""img/Fire_Down_Distractor.gif"",""img/Fire_Down_Distractor.gif"",""img/Fire_Down_Distractor.gif"",""img/Fire_Down_Distractor.gif"",""img/Fire_Down_Distractor.gif"",""img/Fire_Down_Distractor.gif"",""img/Fire_Down_Distractor.gif"",""img/Fire_Down_Distractor.gif""]","5","targetUp_distractorsDown"
"","","","","","html-keyboard-response","78","915606","0.0-14.0-0.0-0.32","5d9a125f1714540016a40a27","619531dcf66c91622fa1b861","619595f495f7c703c836bf8e","null","","null","","","","","main_T1_ITI","","","","",""
"","","","","","visual-search-circle","79","918548","0.0-14.0-0.0-1.32","5d9a125f1714540016a40a27","619531dcf66c91622fa1b861","619595f495f7c703c836bf8e","1922.2999999970198","","s","true","[[467,51],[51,132],[132,548],[548,467]]","false","4","main_T2_Trial","s","img/Fire_Down_Target.gif","[""img/Fire_Up_Distractor.gif"",""img/Fire_Up_Distractor.gif"",""img/Fire_Up_Distractor.gif"",""img/Fire_Up_Distractor.gif"",""img/Fire_Up_Distractor.gif"",""img/Fire_Up_Distractor.gif"",""img/Fire_Up_Distractor.gif"",""img/Fire_Up_Distractor.gif"",""img/Fire_Up_Distractor.gif"",""img/Fire_Up_Distractor.gif"",""img/Fire_Up_Distractor.gif"",""img/Fire_Up_Distractor.gif""]","4","targetDown_distractorsUp"
"","","","","","html-keyboard-response","80","918570","0.0-14.0-0.0-0.33","5d9a125f1714540016a40a27","619531dcf66c91622fa1b861","619595f495f7c703c836bf8e","null","","null","","","","","main_T1_ITI","","","","",""
"","","","","","visual-search-circle","81","921040","0.0-14.0-0.0-1.33","5d9a125f1714540016a40a27","619531dcf66c91622fa1b861","619595f495f7c703c836bf8e","1449.5999999940395","","d","true","[[4,247],[159,564],[508,515],[569,168],[258,2]]","true","5","main_T2_Trial","d","img/Fire_Down_Target.gif","[""img/Fire_Up_Distractor.gif"",""img/Fire_Up_Distractor.gif"",""img/Fire_Up_Distractor.gif"",""img/Fire_Up_Distractor.gif"",""img/Fire_Up_Distractor.gif"",""img/Fire_Up_Distractor.gif"",""img/Fire_Up_Distractor.gif"",""img/Fire_Up_Distractor.gif"",""img/Fire_Up_Distractor.gif"",""img/Fire_Up_Distractor.gif"",""img/Fire_Up_Distractor.gif"",""img/Fire_Up_Distractor.gif""]","5","targetDown_distractorsUp"
"","","","","","html-keyboard-response","82","921051","0.0-14.0-0.0-0.34","5d9a125f1714540016a40a27","619531dcf66c91622fa1b861","619595f495f7c703c836bf8e","null","","null","","","","","main_T1_ITI","","","","",""
"","","","","","visual-search-circle","83","924418","0.0-14.0-0.0-1.34","5d9a125f1714540016a40a27","619531dcf66c91622fa1b861","619595f495f7c703c836bf8e","2352.2999999970198","","s","true","[[402,18],[143,44],[2,262],[85,509],[329,598],[552,462],[584,204]]","false","7","main_T2_Trial","s","img/Fire_Up_Target.gif","[""img/Fire_Down_Distractor.gif"",""img/Fire_Down_Distractor.gif"",""img/Fire_Down_Distractor.gif"",""img/Fire_Down_Distractor.gif"",""img/Fire_Down_Distractor.gif"",""img/Fire_Down_Distractor.gif"",""img/Fire_Down_Distractor.gif"",""img/Fire_Down_Distractor.gif"",""img/Fire_Down_Distractor.gif"",""img/Fire_Down_Distractor.gif"",""img/Fire_Down_Distractor.gif"",""img/Fire_Down_Distractor.gif""]","7","targetUp_distractorsDown"
"","","","","","html-keyboard-response","84","924434","0.0-14.0-0.0-0.35","5d9a125f1714540016a40a27","619531dcf66c91622fa1b861","619595f495f7c703c836bf8e","null","","null","","","","","main_T1_ITI","","","","",""
"","","","","","visual-search-circle","85","926698","0.0-14.0-0.0-1.35","5d9a125f1714540016a40a27","619531dcf66c91622fa1b861","619595f495f7c703c836bf8e","1252","","d","true","[[212,13],[13,387],[387,586],[586,212]]","true","4","main_T2_Trial","d","img/Fire_Down_Target.gif","[""img/Fire_Up_Distractor.gif"",""img/Fire_Up_Distractor.gif"",""img/Fire_Up_Distractor.gif"",""img/Fire_Up_Distractor.gif"",""img/Fire_Up_Distractor.gif"",""img/Fire_Up_Distractor.gif"",""img/Fire_Up_Distractor.gif"",""img/Fire_Up_Distractor.gif"",""img/Fire_Up_Distractor.gif"",""img/Fire_Up_Distractor.gif"",""img/Fire_Up_Distractor.gif"",""img/Fire_Up_Distractor.gif""]","4","targetDown_distractorsUp"
"","","","","","html-keyboard-response","86","926700","0.0-14.0-0.0-0.36","5d9a125f1714540016a40a27","619531dcf66c91622fa1b861","619595f495f7c703c836bf8e","null","","null","","","","","main_T1_ITI","","","","",""
"","","","","","visual-search-circle","87","929035","0.0-14.0-0.0-1.36","5d9a125f1714540016a40a27","619531dcf66c91622fa1b861","619595f495f7c703c836bf8e","1312.5999999940395","","d","true","[[237,593],[490,531],[599,295],[483,62],[228,8],[27,173],[31,434]]","true","7","main_T2_Trial","d","img/Fire_Up_Target.gif","[""img/Fire_Down_Distractor.gif"",""img/Fire_Down_Distractor.gif"",""img/Fire_Down_Distractor.gif"",""img/Fire_Down_Distractor.gif"",""img/Fire_Down_Distractor.gif"",""img/Fire_Down_Distractor.gif"",""img/Fire_Down_Distractor.gif"",""img/Fire_Down_Distractor.gif"",""img/Fire_Down_Distractor.gif"",""img/Fire_Down_Distractor.gif"",""img/Fire_Down_Distractor.gif"",""img/Fire_Down_Distractor.gif""]","7","targetUp_distractorsDown"
"","","","","","html-keyboard-response","88","929041","0.0-14.0-0.0-0.37","5d9a125f1714540016a40a27","619531dcf66c91622fa1b861","619595f495f7c703c836bf8e","null","","null","","","","","main_T1_ITI","","","","",""
"","","","","","visual-search-circle","89","931008","0.0-14.0-0.0-1.37","5d9a125f1714540016a40a27","619531dcf66c91622fa1b861","619595f495f7c703c836bf8e","959.1000000014901","","d","true","[[232,592],[592,367],[367,7],[7,232]]","true","4","main_T2_Trial","d","img/Fire_Up_Target.gif","[""img/Fire_Down_Distractor.gif"",""img/Fire_Down_Distractor.gif"",""img/Fire_Down_Distractor.gif"",""img/Fire_Down_Distractor.gif"",""img/Fire_Down_Distractor.gif"",""img/Fire_Down_Distractor.gif"",""img/Fire_Down_Distractor.gif"",""img/Fire_Down_Distractor.gif"",""img/Fire_Down_Distractor.gif"",""img/Fire_Down_Distractor.gif"",""img/Fire_Down_Distractor.gif"",""img/Fire_Down_Distractor.gif""]","4","targetUp_distractorsDown"
"","","","","","html-keyboard-response","90","931016","0.0-14.0-0.0-0.38","5d9a125f1714540016a40a27","619531dcf66c91622fa1b861","619595f495f7c703c836bf8e","null","","null","","","","","main_T1_ITI","","","","",""
"","","","","","visual-search-circle","91","933457","0.0-14.0-0.0-1.38","5d9a125f1714540016a40a27","619531dcf66c91622fa1b861","619595f495f7c703c836bf8e","1417.2000000029802","","d","true","[[357,5],[105,71],[0,309],[120,540],[376,590],[574,421],[565,161]]","true","7","main_T2_Trial","d","img/Fire_Up_Target.gif","[""img/Fire_Down_Distractor.gif"",""img/Fire_Down_Distractor.gif"",""img/Fire_Down_Distractor.gif"",""img/Fire_Down_Distractor.gif"",""img/Fire_Down_Distractor.gif"",""img/Fire_Down_Distractor.gif"",""img/Fire_Down_Distractor.gif"",""img/Fire_Down_Distractor.gif"",""img/Fire_Down_Distractor.gif"",""img/Fire_Down_Distractor.gif"",""img/Fire_Down_Distractor.gif"",""img/Fire_Down_Distractor.gif""]","7","targetUp_distractorsDown"
"","","","","","html-keyboard-response","92","1006992","0.0-14.0-0.0-0.39","5d9a125f1714540016a40a27","619531dcf66c91622fa1b861","619595f495f7c703c836bf8e","73531.10000000149","Wow! You've completed 40 out of 160 trials! </p> <p>  </p><p> Take a quick break, then press any key when you're ready to continue."," ","","","","","main_T1_ITI","","","","",""
"","","","","","visual-search-circle","93","1009576","0.0-14.0-0.0-1.39","5d9a125f1714540016a40a27","619531dcf66c91622fa1b861","619595f495f7c703c836bf8e","1564.2000000029802","","s","true","[[10,377],[284,599],[580,407],[488,66],[136,48]]","false","5","main_T2_Trial","s","img/Fire_Down_Target.gif","[""img/Fire_Up_Distractor.gif"",""img/Fire_Up_Distractor.gif"",""img/Fire_Up_Distractor.gif"",""img/Fire_Up_Distractor.gif"",""img/Fire_Up_Distractor.gif"",""img/Fire_Up_Distractor.gif"",""img/Fire_Up_Distractor.gif"",""img/Fire_Up_Distractor.gif"",""img/Fire_Up_Distractor.gif"",""img/Fire_Up_Distractor.gif"",""img/Fire_Up_Distractor.gif"",""img/Fire_Up_Distractor.gif""]","5","targetDown_distractorsUp"
"","","","","","html-keyboard-response","94","1009578","0.0-14.0-0.0-0.40","5d9a125f1714540016a40a27","619531dcf66c91622fa1b861","619595f495f7c703c836bf8e","null","","null","","","","","main_T1_ITI","","","","",""
"","","","","","visual-search-circle","95","1012443","0.0-14.0-0.0-1.40","5d9a125f1714540016a40a27","619531dcf66c91622fa1b861","619595f495f7c703c836bf8e","1857.5","","s","true","[[103,73],[23,417],[326,598],[592,367],[454,42]]","false","5","main_T2_Trial","s","img/Fire_Up_Target.gif","[""img/Fire_Down_Distractor.gif"",""img/Fire_Down_Distractor.gif"",""img/Fire_Down_Distractor.gif"",""img/Fire_Down_Distractor.gif"",""img/Fire_Down_Distractor.gif"",""img/Fire_Down_Distractor.gif"",""img/Fire_Down_Distractor.gif"",""img/Fire_Down_Distractor.gif"",""img/Fire_Down_Distractor.gif"",""img/Fire_Down_Distractor.gif"",""img/Fire_Down_Distractor.gif"",""img/Fire_Down_Distractor.gif""]","5","targetUp_distractorsDown"
"","","","","","html-keyboard-response","96","1012445","0.0-14.0-0.0-0.41","5d9a125f1714540016a40a27","619531dcf66c91622fa1b861","619595f495f7c703c836bf8e","null","","null","","","","","main_T1_ITI","","","","",""
"","","","","","visual-search-circle","97","1014164","0.0-14.0-0.0-1.41","5d9a125f1714540016a40a27","619531dcf66c91622fa1b861","619595f495f7c703c836bf8e","709.5","","d","true","[[594,357],[357,5],[5,242],[242,594]]","true","4","main_T2_Trial","d","img/Fire_Up_Target.gif","[""img/Fire_Down_Distractor.gif"",""img/Fire_Down_Distractor.gif"",""img/Fire_Down_Distractor.gif"",""img/Fire_Down_Distractor.gif"",""img/Fire_Down_Distractor.gif"",""img/Fire_Down_Distractor.gif"",""img/Fire_Down_Distractor.gif"",""img/Fire_Down_Distractor.gif"",""img/Fire_Down_Distractor.gif"",""img/Fire_Down_Distractor.gif"",""img/Fire_Down_Distractor.gif"",""img/Fire_Down_Distractor.gif""]","4","targetUp_distractorsDown"
"","","","","","html-keyboard-response","98","1014166","0.0-14.0-0.0-0.42","5d9a125f1714540016a40a27","619531dcf66c91622fa1b861","619595f495f7c703c836bf8e","null","","null","","","","","main_T1_ITI","","","","",""
"","","","","","visual-search-circle","99","1016215","0.0-14.0-0.0-1.42","5d9a125f1714540016a40a27","619531dcf66c91622fa1b861","619595f495f7c703c836bf8e","1033.3999999985099","","d","true","[[57,476],[476,542],[542,123],[123,57]]","true","4","main_T2_Trial","d","img/Fire_Down_Target.gif","[""img/Fire_Up_Distractor.gif"",""img/Fire_Up_Distractor.gif"",""img/Fire_Up_Distractor.gif"",""img/Fire_Up_Distractor.gif"",""img/Fire_Up_Distractor.gif"",""img/Fire_Up_Distractor.gif"",""img/Fire_Up_Distractor.gif"",""img/Fire_Up_Distractor.gif"",""img/Fire_Up_Distractor.gif"",""img/Fire_Up_Distractor.gif"",""img/Fire_Up_Distractor.gif"",""img/Fire_Up_Distractor.gif""]","4","targetDown_distractorsUp"
"","","","","","html-keyboard-response","100","1016240","0.0-14.0-0.0-0.43","5d9a125f1714540016a40a27","619531dcf66c91622fa1b861","619595f495f7c703c836bf8e","null","","null","","","","","main_T1_ITI","","","","",""
"","","","","","visual-search-circle","101","1019447","0.0-14.0-0.0-1.43","5d9a125f1714540016a40a27","619531dcf66c91622fa1b861","619595f495f7c703c836bf8e","2196.39999999851","","d","true","[[37,154],[22,414],[216,588],[473,544],[599,317],[500,76],[250,4]]","true","7","main_T2_Trial","d","img/Fire_Up_Target.gif","[""img/Fire_Down_Distractor.gif"",""img/Fire_Down_Distractor.gif"",""img/Fire_Down_Distractor.gif"",""img/Fire_Down_Distractor.gif"",""img/Fire_Down_Distractor.gif"",""img/Fire_Down_Distractor.gif"",""img/Fire_Down_Distractor.gif"",""img/Fire_Down_Distractor.gif"",""img/Fire_Down_Distractor.gif"",""img/Fire_Down_Distractor.gif"",""img/Fire_Down_Distractor.gif"",""img/Fire_Down_Distractor.gif""]","7","targetUp_distractorsDown"
"","","","","","html-keyboard-response","102","1019483","0.0-14.0-0.0-0.44","5d9a125f1714540016a40a27","619531dcf66c91622fa1b861","619595f495f7c703c836bf8e","null","","null","","","","","main_T1_ITI","","","","",""
"","","","","","visual-search-circle","103","1021424","0.0-14.0-0.0-1.44","5d9a125f1714540016a40a27","619531dcf66c91622fa1b861","619595f495f7c703c836bf8e","929.2000000029802","","d","true","[[591,372],[458,45],[107,70],[21,412],[320,599]]","true","5","main_T2_Trial","d","img/Fire_Down_Target.gif","[""img/Fire_Up_Distractor.gif"",""img/Fire_Up_Distractor.gif"",""img/Fire_Up_Distractor.gif"",""img/Fire_Up_Distractor.gif"",""img/Fire_Up_Distractor.gif"",""img/Fire_Up_Distractor.gif"",""img/Fire_Up_Distractor.gif"",""img/Fire_Up_Distractor.gif"",""img/Fire_Up_Distractor.gif"",""img/Fire_Up_Distractor.gif"",""img/Fire_Up_Distractor.gif"",""img/Fire_Up_Distractor.gif""]","5","targetDown_distractorsUp"
"","","","","","html-keyboard-response","104","1021428","0.0-14.0-0.0-0.45","5d9a125f1714540016a40a27","619531dcf66c91622fa1b861","619595f495f7c703c836bf8e","null","","null","","","","","main_T1_ITI","","","","",""
"","","","","","visual-search-circle","105","1023802","0.0-14.0-0.0-1.45","5d9a125f1714540016a40a27","619531dcf66c91622fa1b861","619595f495f7c703c836bf8e","1358.1000000014901","","s","true","[[217,11],[37,154],[11,382],[154,562],[382,588],[562,445],[588,217],[445,37]]","false","8","main_T2_Trial","s","img/Fire_Down_Target.gif","[""img/Fire_Up_Distractor.gif"",""img/Fire_Up_Distractor.gif"",""img/Fire_Up_Distractor.gif"",""img/Fire_Up_Distractor.gif"",""img/Fire_Up_Distractor.gif"",""img/Fire_Up_Distractor.gif"",""img/Fire_Up_Distractor.gif"",""img/Fire_Up_Distractor.gif"",""img/Fire_Up_Distractor.gif"",""img/Fire_Up_Distractor.gif"",""img/Fire_Up_Distractor.gif"",""img/Fire_Up_Distractor.gif""]","8","targetDown_distractorsUp"
"","","","","","html-keyboard-response","106","1023807","0.0-14.0-0.0-0.46","5d9a125f1714540016a40a27","619531dcf66c91622fa1b861","619595f495f7c703c836bf8e","null","","null","","","","","main_T1_ITI","","","","",""
"","","","","","visual-search-circle","107","1025697","0.0-14.0-0.0-1.46","5d9a125f1714540016a40a27","619531dcf66c91622fa1b861","619595f495f7c703c836bf8e","870.2999999970198","","d","true","[[51,467],[320,599],[569,431],[548,132],[279,0],[30,168]]","true","6","main_T2_Trial","d","img/Fire_Down_Target.gif","[""img/Fire_Up_Distractor.gif"",""img/Fire_Up_Distractor.gif"",""img/Fire_Up_Distractor.gif"",""img/Fire_Up_Distractor.gif"",""img/Fire_Up_Distractor.gif"",""img/Fire_Up_Distractor.gif"",""img/Fire_Up_Distractor.gif"",""img/Fire_Up_Distractor.gif"",""img/Fire_Up_Distractor.gif"",""img/Fire_Up_Distractor.gif"",""img/Fire_Up_Distractor.gif"",""img/Fire_Up_Distractor.gif""]","6","targetDown_distractorsUp"
"","","","","","html-keyboard-response","108","1025714","0.0-14.0-0.0-0.47","5d9a125f1714540016a40a27","619531dcf66c91622fa1b861","619595f495f7c703c836bf8e","null","","null","","","","","main_T1_ITI","","","","",""
"","","","","","visual-search-circle","109","1027580","0.0-14.0-0.0-1.47","5d9a125f1714540016a40a27","619531dcf66c91622fa1b861","619595f495f7c703c836bf8e","859.1999999955297","","d","true","[[315,599],[589,377],[463,48],[111,66],[19,407]]","true","5","main_T2_Trial","d","img/Fire_Down_Target.gif","[""img/Fire_Up_Distractor.gif"",""img/Fire_Up_Distractor.gif"",""img/Fire_Up_Distractor.gif"",""img/Fire_Up_Distractor.gif"",""img/Fire_Up_Distractor.gif"",""img/Fire_Up_Distractor.gif"",""img/Fire_Up_Distractor.gif"",""img/Fire_Up_Distractor.gif"",""img/Fire_Up_Distractor.gif"",""img/Fire_Up_Distractor.gif"",""img/Fire_Up_Distractor.gif"",""img/Fire_Up_Distractor.gif""]","5","targetDown_distractorsUp"
"","","","","","html-keyboard-response","110","1027598","0.0-14.0-0.0-0.48","5d9a125f1714540016a40a27","619531dcf66c91622fa1b861","619595f495f7c703c836bf8e","null","","null","","","","","main_T1_ITI","","","","",""
"","","","","","visual-search-circle","111","1029438","0.0-14.0-0.0-1.48","5d9a125f1714540016a40a27","619531dcf66c91622fa1b861","619595f495f7c703c836bf8e","827.3000000044703","","d","true","[[141,45],[7,232],[45,458],[232,592],[458,554],[592,367],[554,141],[367,7]]","true","8","main_T2_Trial","d","img/Fire_Down_Target.gif","[""img/Fire_Up_Distractor.gif"",""img/Fire_Up_Distractor.gif"",""img/Fire_Up_Distractor.gif"",""img/Fire_Up_Distractor.gif"",""img/Fire_Up_Distractor.gif"",""img/Fire_Up_Distractor.gif"",""img/Fire_Up_Distractor.gif"",""img/Fire_Up_Distractor.gif"",""img/Fire_Up_Distractor.gif"",""img/Fire_Up_Distractor.gif"",""img/Fire_Up_Distractor.gif"",""img/Fire_Up_Distractor.gif""]","8","targetDown_distractorsUp"
"","","","","","html-keyboard-response","112","1029448","0.0-14.0-0.0-0.49","5d9a125f1714540016a40a27","619531dcf66c91622fa1b861","619595f495f7c703c836bf8e","null","","null","","","","","main_T1_ITI","","","","",""
"","","","","","visual-search-circle","113","1031887","0.0-14.0-0.0-1.49","5d9a125f1714540016a40a27","619531dcf66c91622fa1b861","619595f495f7c703c836bf8e","1416.3999999985099","","d","true","[[273,598],[492,529],[598,326],[529,107],[326,1],[107,70],[1,273],[70,492]]","true","8","main_T2_Trial","d","img/Fire_Up_Target.gif","[""img/Fire_Down_Distractor.gif"",""img/Fire_Down_Distractor.gif"",""img/Fire_Down_Distractor.gif"",""img/Fire_Down_Distractor.gif"",""img/Fire_Down_Distractor.gif"",""img/Fire_Down_Distractor.gif"",""img/Fire_Down_Distractor.gif"",""img/Fire_Down_Distractor.gif"",""img/Fire_Down_Distractor.gif"",""img/Fire_Down_Distractor.gif"",""img/Fire_Down_Distractor.gif"",""img/Fire_Down_Distractor.gif""]","8","targetUp_distractorsDown"
"","","","","","html-keyboard-response","114","1031889","0.0-14.0-0.0-0.50","5d9a125f1714540016a40a27","619531dcf66c91622fa1b861","619595f495f7c703c836bf8e","null","","null","","","","","main_T1_ITI","","","","",""
"","","","","","visual-search-circle","115","1034275","0.0-14.0-0.0-1.50","5d9a125f1714540016a40a27","619531dcf66c91622fa1b861","619595f495f7c703c836bf8e","1378.6999999955297","","s","true","[[177,574],[574,422],[422,25],[25,177]]","false","4","main_T2_Trial","s","img/Fire_Up_Target.gif","[""img/Fire_Down_Distractor.gif"",""img/Fire_Down_Distractor.gif"",""img/Fire_Down_Distractor.gif"",""img/Fire_Down_Distractor.gif"",""img/Fire_Down_Distractor.gif"",""img/Fire_Down_Distractor.gif"",""img/Fire_Down_Distractor.gif"",""img/Fire_Down_Distractor.gif"",""img/Fire_Down_Distractor.gif"",""img/Fire_Down_Distractor.gif"",""img/Fire_Down_Distractor.gif"",""img/Fire_Down_Distractor.gif""]","4","targetUp_distractorsDown"
"","","","","","html-keyboard-response","116","1034277","0.0-14.0-0.0-0.51","5d9a125f1714540016a40a27","619531dcf66c91622fa1b861","619595f495f7c703c836bf8e","null","","null","","","","","main_T1_ITI","","","","",""
"","","","","","visual-search-circle","117","1036316","0.0-14.0-0.0-1.51","5d9a125f1714540016a40a27","619531dcf66c91622fa1b861","619595f495f7c703c836bf8e","1018.8999999985099","","d","true","[[593,237],[237,6],[6,362],[362,593]]","true","4","main_T2_Trial","d","img/Fire_Down_Target.gif","[""img/Fire_Up_Distractor.gif"",""img/Fire_Up_Distractor.gif"",""img/Fire_Up_Distractor.gif"",""img/Fire_Up_Distractor.gif"",""img/Fire_Up_Distractor.gif"",""img/Fire_Up_Distractor.gif"",""img/Fire_Up_Distractor.gif"",""img/Fire_Up_Distractor.gif"",""img/Fire_Up_Distractor.gif"",""img/Fire_Up_Distractor.gif"",""img/Fire_Up_Distractor.gif"",""img/Fire_Up_Distractor.gif""]","4","targetDown_distractorsUp"
"","","","","","html-keyboard-response","118","1036318","0.0-14.0-0.0-0.52","5d9a125f1714540016a40a27","619531dcf66c91622fa1b861","619595f495f7c703c836bf8e","null","","null","","","","","main_T1_ITI","","","","",""
"","","","","","visual-search-circle","119","1038459","0.0-14.0-0.0-1.52","5d9a125f1714540016a40a27","619531dcf66c91622fa1b861","619595f495f7c703c836bf8e","1117.8999999985099","","s","true","[[115,63],[18,402],[310,599],[588,382],[467,51]]","false","5","main_T2_Trial","s","img/Fire_Up_Target.gif","[""img/Fire_Down_Distractor.gif"",""img/Fire_Down_Distractor.gif"",""img/Fire_Down_Distractor.gif"",""img/Fire_Down_Distractor.gif"",""img/Fire_Down_Distractor.gif"",""img/Fire_Down_Distractor.gif"",""img/Fire_Down_Distractor.gif"",""img/Fire_Down_Distractor.gif"",""img/Fire_Down_Distractor.gif"",""img/Fire_Down_Distractor.gif"",""img/Fire_Down_Distractor.gif"",""img/Fire_Down_Distractor.gif""]","5","targetUp_distractorsDown"
"","","","","","html-keyboard-response","120","1038461","0.0-14.0-0.0-0.53","5d9a125f1714540016a40a27","619531dcf66c91622fa1b861","619595f495f7c703c836bf8e","null","","null","","","","","main_T1_ITI","","","","",""
"","","","","","visual-search-circle","121","1040324","0.0-14.0-0.0-1.53","5d9a125f1714540016a40a27","619531dcf66c91622fa1b861","619595f495f7c703c836bf8e","839.3999999985099","","d","true","[[95,519],[387,586],[592,367],[504,80],[212,13],[7,232]]","true","6","main_T2_Trial","d","img/Fire_Up_Target.gif","[""img/Fire_Down_Distractor.gif"",""img/Fire_Down_Distractor.gif"",""img/Fire_Down_Distractor.gif"",""img/Fire_Down_Distractor.gif"",""img/Fire_Down_Distractor.gif"",""img/Fire_Down_Distractor.gif"",""img/Fire_Down_Distractor.gif"",""img/Fire_Down_Distractor.gif"",""img/Fire_Down_Distractor.gif"",""img/Fire_Down_Distractor.gif"",""img/Fire_Down_Distractor.gif"",""img/Fire_Down_Distractor.gif""]","6","targetUp_distractorsDown"
"","","","","","html-keyboard-response","122","1040327","0.0-14.0-0.0-0.54","5d9a125f1714540016a40a27","619531dcf66c91622fa1b861","619595f495f7c703c836bf8e","null","","null","","","","","main_T1_ITI","","","","",""
"","","","","","visual-search-circle","123","1042105","0.0-14.0-0.0-1.54","5d9a125f1714540016a40a27","619531dcf66c91622fa1b861","619595f495f7c703c836bf8e","765.5999999940395","","d","true","[[412,578],[576,417],[578,187],[417,23],[187,21],[23,182],[21,412],[182,576]]","true","8","main_T2_Trial","d","img/Fire_Up_Target.gif","[""img/Fire_Down_Distractor.gif"",""img/Fire_Down_Distractor.gif"",""img/Fire_Down_Distractor.gif"",""img/Fire_Down_Distractor.gif"",""img/Fire_Down_Distractor.gif"",""img/Fire_Down_Distractor.gif"",""img/Fire_Down_Distractor.gif"",""img/Fire_Down_Distractor.gif"",""img/Fire_Down_Distractor.gif"",""img/Fire_Down_Distractor.gif"",""img/Fire_Down_Distractor.gif"",""img/Fire_Down_Distractor.gif""]","8","targetUp_distractorsDown"
"","","","","","html-keyboard-response","124","1042110","0.0-14.0-0.0-0.55","5d9a125f1714540016a40a27","619531dcf66c91622fa1b861","619595f495f7c703c836bf8e","null","","null","","","","","main_T1_ITI","","","","",""
"","","","","","visual-search-circle","125","1044427","0.0-14.0-0.0-1.55","5d9a125f1714540016a40a27","619531dcf66c91622fa1b861","619595f495f7c703c836bf8e","1302.1000000014901","","d","true","[[242,5],[51,132],[5,357],[132,548],[357,594],[548,467],[594,242],[467,51]]","true","8","main_T2_Trial","d","img/Fire_Down_Target.gif","[""img/Fire_Up_Distractor.gif"",""img/Fire_Up_Distractor.gif"",""img/Fire_Up_Distractor.gif"",""img/Fire_Up_Distractor.gif"",""img/Fire_Up_Distractor.gif"",""img/Fire_Up_Distractor.gif"",""img/Fire_Up_Distractor.gif"",""img/Fire_Up_Distractor.gif"",""img/Fire_Up_Distractor.gif"",""img/Fire_Up_Distractor.gif"",""img/Fire_Up_Distractor.gif"",""img/Fire_Up_Distractor.gif""]","8","targetDown_distractorsUp"
"","","","","","html-keyboard-response","126","1044429","0.0-14.0-0.0-0.56","5d9a125f1714540016a40a27","619531dcf66c91622fa1b861","619595f495f7c703c836bf8e","null","","null","","","","","main_T1_ITI","","","","",""
"","","","","","visual-search-circle","127","1046252","0.0-14.0-0.0-1.56","5d9a125f1714540016a40a27","619531dcf66c91622fa1b861","619595f495f7c703c836bf8e","812.2999999970198","","d","true","[[48,136],[136,551],[551,463],[463,48]]","true","4","main_T2_Trial","d","img/Fire_Up_Target.gif","[""img/Fire_Down_Distractor.gif"",""img/Fire_Down_Distractor.gif"",""img/Fire_Down_Distractor.gif"",""img/Fire_Down_Distractor.gif"",""img/Fire_Down_Distractor.gif"",""img/Fire_Down_Distractor.gif"",""img/Fire_Down_Distractor.gif"",""img/Fire_Down_Distractor.gif"",""img/Fire_Down_Distractor.gif"",""img/Fire_Down_Distractor.gif"",""img/Fire_Down_Distractor.gif"",""img/Fire_Down_Distractor.gif""]","4","targetUp_distractorsDown"
"","","","","","html-keyboard-response","128","1046256","0.0-14.0-0.0-0.57","5d9a125f1714540016a40a27","619531dcf66c91622fa1b861","619595f495f7c703c836bf8e","null","","null","","","","","main_T1_ITI","","","","",""
"","","","","","visual-search-circle","129","1049723","0.0-14.0-0.0-1.57","5d9a125f1714540016a40a27","619531dcf66c91622fa1b861","619595f495f7c703c836bf8e","2441.39999999851","","d","true","[[484,63],[187,21],[2,258],[115,536],[412,578],[597,341]]","true","6","main_T2_Trial","d","img/Fire_Down_Target.gif","[""img/Fire_Up_Distractor.gif"",""img/Fire_Up_Distractor.gif"",""img/Fire_Up_Distractor.gif"",""img/Fire_Up_Distractor.gif"",""img/Fire_Up_Distractor.gif"",""img/Fire_Up_Distractor.gif"",""img/Fire_Up_Distractor.gif"",""img/Fire_Up_Distractor.gif"",""img/Fire_Up_Distractor.gif"",""img/Fire_Up_Distractor.gif"",""img/Fire_Up_Distractor.gif"",""img/Fire_Up_Distractor.gif""]","6","targetDown_distractorsUp"
"","","","","","html-keyboard-response","130","1049726","0.0-14.0-0.0-0.58","5d9a125f1714540016a40a27","619531dcf66c91622fa1b861","619595f495f7c703c836bf8e","null","","null","","","","","main_T1_ITI","","","","",""
"","","","","","visual-search-circle","131","1052135","0.0-14.0-0.0-1.58","5d9a125f1714540016a40a27","619531dcf66c91622fa1b861","619595f495f7c703c836bf8e","1397.3000000044703","","s","true","[[445,37],[185,22],[11,216],[55,473],[282,599],[523,500],[595,250]]","false","7","main_T2_Trial","s","img/Fire_Up_Target.gif","[""img/Fire_Down_Distractor.gif"",""img/Fire_Down_Distractor.gif"",""img/Fire_Down_Distractor.gif"",""img/Fire_Down_Distractor.gif"",""img/Fire_Down_Distractor.gif"",""img/Fire_Down_Distractor.gif"",""img/Fire_Down_Distractor.gif"",""img/Fire_Down_Distractor.gif"",""img/Fire_Down_Distractor.gif"",""img/Fire_Down_Distractor.gif"",""img/Fire_Down_Distractor.gif"",""img/Fire_Down_Distractor.gif""]","7","targetUp_distractorsDown"
"","","","","","html-keyboard-response","132","1053524","0.0-14.0-0.0-0.59","5d9a125f1714540016a40a27","619531dcf66c91622fa1b861","619595f495f7c703c836bf8e","1387.8000000044703","Wow! You've completed 60 out of 160 trials! </p> <p>  </p><p> Take a quick break, then press any key when you're ready to continue.","d","","","","","main_T1_ITI","","","","",""
"","","","","","visual-search-circle","133","1055892","0.0-14.0-0.0-1.59","5d9a125f1714540016a40a27","619531dcf66c91622fa1b861","619595f495f7c703c836bf8e","1347.1000000014901","","d","true","[[150,40],[6,362],[268,598],[574,422],[500,77]]","true","5","main_T2_Trial","d","img/Fire_Up_Target.gif","[""img/Fire_Down_Distractor.gif"",""img/Fire_Down_Distractor.gif"",""img/Fire_Down_Distractor.gif"",""img/Fire_Down_Distractor.gif"",""img/Fire_Down_Distractor.gif"",""img/Fire_Down_Distractor.gif"",""img/Fire_Down_Distractor.gif"",""img/Fire_Down_Distractor.gif"",""img/Fire_Down_Distractor.gif"",""img/Fire_Down_Distractor.gif"",""img/Fire_Down_Distractor.gif"",""img/Fire_Down_Distractor.gif""]","5","targetUp_distractorsDown"
"","","","","","html-keyboard-response","134","1055907","0.0-14.0-0.0-0.60","5d9a125f1714540016a40a27","619531dcf66c91622fa1b861","619595f495f7c703c836bf8e","null","","null","","","","","main_T1_ITI","","","","",""
"","","","","","visual-search-circle","135","1058427","0.0-14.0-0.0-1.60","5d9a125f1714540016a40a27","619531dcf66c91622fa1b861","619595f495f7c703c836bf8e","1510.8000000044703","","d","true","[[4,247],[75,498],[314,599],[543,475],[588,218],[416,23],[156,36]]","true","7","main_T2_Trial","d","img/Fire_Up_Target.gif","[""img/Fire_Down_Distractor.gif"",""img/Fire_Down_Distractor.gif"",""img/Fire_Down_Distractor.gif"",""img/Fire_Down_Distractor.gif"",""img/Fire_Down_Distractor.gif"",""img/Fire_Down_Distractor.gif"",""img/Fire_Down_Distractor.gif"",""img/Fire_Down_Distractor.gif"",""img/Fire_Down_Distractor.gif"",""img/Fire_Down_Distractor.gif"",""img/Fire_Down_Distractor.gif"",""img/Fire_Down_Distractor.gif""]","7","targetUp_distractorsDown"
"","","","","","html-keyboard-response","136","1058429","0.0-14.0-0.0-0.61","5d9a125f1714540016a40a27","619531dcf66c91622fa1b861","619595f495f7c703c836bf8e","null","","null","","","","","main_T1_ITI","","","","",""
"","","","","","visual-search-circle","137","1062513","0.0-14.0-0.0-1.61","5d9a125f1714540016a40a27","619531dcf66c91622fa1b861","619595f495f7c703c836bf8e","3078.39999999851","","d","true","[[574,422],[500,77],[150,40],[6,362],[268,598]]","true","5","main_T2_Trial","d","img/Fire_Up_Target.gif","[""img/Fire_Down_Distractor.gif"",""img/Fire_Down_Distractor.gif"",""img/Fire_Down_Distractor.gif"",""img/Fire_Down_Distractor.gif"",""img/Fire_Down_Distractor.gif"",""img/Fire_Down_Distractor.gif"",""img/Fire_Down_Distractor.gif"",""img/Fire_Down_Distractor.gif"",""img/Fire_Down_Distractor.gif"",""img/Fire_Down_Distractor.gif"",""img/Fire_Down_Distractor.gif"",""img/Fire_Down_Distractor.gif""]","5","targetUp_distractorsDown"
"","","","","","html-keyboard-response","138","1062515","0.0-14.0-0.0-0.62","5d9a125f1714540016a40a27","619531dcf66c91622fa1b861","619595f495f7c703c836bf8e","null","","null","","","","","main_T1_ITI","","","","",""
"","","","","","visual-search-circle","139","1064857","0.0-14.0-0.0-1.62","5d9a125f1714540016a40a27","619531dcf66c91622fa1b861","619595f495f7c703c836bf8e","1328.9000000059605","","s","true","[[119,539],[539,480],[480,60],[60,119]]","false","4","main_T2_Trial","s","img/Fire_Up_Target.gif","[""img/Fire_Down_Distractor.gif"",""img/Fire_Down_Distractor.gif"",""img/Fire_Down_Distractor.gif"",""img/Fire_Down_Distractor.gif"",""img/Fire_Down_Distractor.gif"",""img/Fire_Down_Distractor.gif"",""img/Fire_Down_Distractor.gif"",""img/Fire_Down_Distractor.gif"",""img/Fire_Down_Distractor.gif"",""img/Fire_Down_Distractor.gif"",""img/Fire_Down_Distractor.gif"",""img/Fire_Down_Distractor.gif""]","4","targetUp_distractorsDown"
"","","","","","html-keyboard-response","140","1064864","0.0-14.0-0.0-0.63","5d9a125f1714540016a40a27","619531dcf66c91622fa1b861","619595f495f7c703c836bf8e","null","","null","","","","","main_T1_ITI","","","","",""
"","","","","","visual-search-circle","141","1066900","0.0-14.0-0.0-1.63","5d9a125f1714540016a40a27","619531dcf66c91622fa1b861","619595f495f7c703c836bf8e","1013.5","","d","true","[[136,551],[394,584],[581,403],[556,144],[338,2],[91,84],[1,329]]","true","7","main_T2_Trial","d","img/Fire_Down_Target.gif","[""img/Fire_Up_Distractor.gif"",""img/Fire_Up_Distractor.gif"",""img/Fire_Up_Distractor.gif"",""img/Fire_Up_Distractor.gif"",""img/Fire_Up_Distractor.gif"",""img/Fire_Up_Distractor.gif"",""img/Fire_Up_Distractor.gif"",""img/Fire_Up_Distractor.gif"",""img/Fire_Up_Distractor.gif"",""img/Fire_Up_Distractor.gif"",""img/Fire_Up_Distractor.gif"",""img/Fire_Up_Distractor.gif""]","7","targetDown_distractorsUp"
"","","","","","html-keyboard-response","142","1066902","0.0-14.0-0.0-0.64","5d9a125f1714540016a40a27","619531dcf66c91622fa1b861","619595f495f7c703c836bf8e","null","","null","","","","","main_T1_ITI","","","","",""
"","","","","","visual-search-circle","143","1068835","0.0-14.0-0.0-1.64","5d9a125f1714540016a40a27","619531dcf66c91622fa1b861","619595f495f7c703c836bf8e","910","","d","true","[[30,168],[91,515],[440,564],[595,247],[341,2]]","true","5","main_T2_Trial","d","img/Fire_Down_Target.gif","[""img/Fire_Up_Distractor.gif"",""img/Fire_Up_Distractor.gif"",""img/Fire_Up_Distractor.gif"",""img/Fire_Up_Distractor.gif"",""img/Fire_Up_Distractor.gif"",""img/Fire_Up_Distractor.gif"",""img/Fire_Up_Distractor.gif"",""img/Fire_Up_Distractor.gif"",""img/Fire_Up_Distractor.gif"",""img/Fire_Up_Distractor.gif"",""img/Fire_Up_Distractor.gif"",""img/Fire_Up_Distractor.gif""]","5","targetDown_distractorsUp"
"","","","","","html-keyboard-response","144","1068842","0.0-14.0-0.0-0.65","5d9a125f1714540016a40a27","619531dcf66c91622fa1b861","619595f495f7c703c836bf8e","null","","null","","","","","main_T1_ITI","","","","",""
"","","","","","visual-search-circle","145","1070995","0.0-14.0-0.0-1.65","5d9a125f1714540016a40a27","619531dcf66c91622fa1b861","619595f495f7c703c836bf8e","1142.5","","s","true","[[362,6],[6,237],[237,593],[593,362]]","false","4","main_T2_Trial","s","img/Fire_Up_Target.gif","[""img/Fire_Down_Distractor.gif"",""img/Fire_Down_Distractor.gif"",""img/Fire_Down_Distractor.gif"",""img/Fire_Down_Distractor.gif"",""img/Fire_Down_Distractor.gif"",""img/Fire_Down_Distractor.gif"",""img/Fire_Down_Distractor.gif"",""img/Fire_Down_Distractor.gif"",""img/Fire_Down_Distractor.gif"",""img/Fire_Down_Distractor.gif"",""img/Fire_Down_Distractor.gif"",""img/Fire_Down_Distractor.gif""]","4","targetUp_distractorsDown"
"","","","","","html-keyboard-response","146","1070999","0.0-14.0-0.0-0.66","5d9a125f1714540016a40a27","619531dcf66c91622fa1b861","619595f495f7c703c836bf8e","null","","null","","","","","main_T1_ITI","","","","",""
"","","","","","visual-search-circle","147","1073298","0.0-14.0-0.0-1.66","5d9a125f1714540016a40a27","619531dcf66c91622fa1b861","619595f495f7c703c836bf8e","1292.3999999985099","","s","true","[[522,99],[177,25],[1,331],[237,593],[559,450]]","false","5","main_T2_Trial","s","img/Fire_Up_Target.gif","[""img/Fire_Down_Distractor.gif"",""img/Fire_Down_Distractor.gif"",""img/Fire_Down_Distractor.gif"",""img/Fire_Down_Distractor.gif"",""img/Fire_Down_Distractor.gif"",""img/Fire_Down_Distractor.gif"",""img/Fire_Down_Distractor.gif"",""img/Fire_Down_Distractor.gif"",""img/Fire_Down_Distractor.gif"",""img/Fire_Down_Distractor.gif"",""img/Fire_Down_Distractor.gif"",""img/Fire_Down_Distractor.gif""]","5","targetUp_distractorsDown"
"","","","","","html-keyboard-response","148","1073307","0.0-14.0-0.0-0.67","5d9a125f1714540016a40a27","619531dcf66c91622fa1b861","619595f495f7c703c836bf8e","null","","null","","","","","main_T1_ITI","","","","",""
"","","","","","visual-search-circle","149","1075162","0.0-14.0-0.0-1.67","5d9a125f1714540016a40a27","619531dcf66c91622fa1b861","619595f495f7c703c836bf8e","832.2999999970198","","d","true","[[237,593],[463,551],[593,362],[551,136],[362,6],[136,48],[6,237],[48,463]]","true","8","main_T2_Trial","d","img/Fire_Up_Target.gif","[""img/Fire_Down_Distractor.gif"",""img/Fire_Down_Distractor.gif"",""img/Fire_Down_Distractor.gif"",""img/Fire_Down_Distractor.gif"",""img/Fire_Down_Distractor.gif"",""img/Fire_Down_Distractor.gif"",""img/Fire_Down_Distractor.gif"",""img/Fire_Down_Distractor.gif"",""img/Fire_Down_Distractor.gif"",""img/Fire_Down_Distractor.gif"",""img/Fire_Down_Distractor.gif"",""img/Fire_Down_Distractor.gif""]","8","targetUp_distractorsDown"
"","","","","","html-keyboard-response","150","1075164","0.0-14.0-0.0-0.68","5d9a125f1714540016a40a27","619531dcf66c91622fa1b861","619595f495f7c703c836bf8e","null","","null","","","","","main_T1_ITI","","","","",""
"","","","","","visual-search-circle","151","1077065","0.0-14.0-0.0-1.68","5d9a125f1714540016a40a27","619531dcf66c91622fa1b861","619595f495f7c703c836bf8e","892.5999999940395","","d","true","[[458,45],[159,35],[0,289],[141,554],[440,564],[599,310]]","true","6","main_T2_Trial","d","img/Fire_Up_Target.gif","[""img/Fire_Down_Distractor.gif"",""img/Fire_Down_Distractor.gif"",""img/Fire_Down_Distractor.gif"",""img/Fire_Down_Distractor.gif"",""img/Fire_Down_Distractor.gif"",""img/Fire_Down_Distractor.gif"",""img/Fire_Down_Distractor.gif"",""img/Fire_Down_Distractor.gif"",""img/Fire_Down_Distractor.gif"",""img/Fire_Down_Distractor.gif"",""img/Fire_Down_Distractor.gif"",""img/Fire_Down_Distractor.gif""]","6","targetUp_distractorsDown"
"","","","","","html-keyboard-response","152","1077083","0.0-14.0-0.0-0.69","5d9a125f1714540016a40a27","619531dcf66c91622fa1b861","619595f495f7c703c836bf8e","null","","null","","","","","main_T1_ITI","","","","",""
"","","","","","visual-search-circle","153","1079176","0.0-14.0-0.0-1.69","5d9a125f1714540016a40a27","619531dcf66c91622fa1b861","619595f495f7c703c836bf8e","1070.5","","s","true","[[431,569],[599,320],[467,51],[168,30],[0,279],[132,548]]","false","6","main_T2_Trial","s","img/Fire_Up_Target.gif","[""img/Fire_Down_Distractor.gif"",""img/Fire_Down_Distractor.gif"",""img/Fire_Down_Distractor.gif"",""img/Fire_Down_Distractor.gif"",""img/Fire_Down_Distractor.gif"",""img/Fire_Down_Distractor.gif"",""img/Fire_Down_Distractor.gif"",""img/Fire_Down_Distractor.gif"",""img/Fire_Down_Distractor.gif"",""img/Fire_Down_Distractor.gif"",""img/Fire_Down_Distractor.gif"",""img/Fire_Down_Distractor.gif""]","6","targetUp_distractorsDown"
"","","","","","html-keyboard-response","154","1079178","0.0-14.0-0.0-0.70","5d9a125f1714540016a40a27","619531dcf66c91622fa1b861","619595f495f7c703c836bf8e","null","","null","","","","","main_T1_ITI","","","","",""
"","","","","","visual-search-circle","155","1082271","0.0-14.0-0.0-1.70","5d9a125f1714540016a40a27","619531dcf66c91622fa1b861","619595f495f7c703c836bf8e","2083.5","","d","true","[[341,597],[595,352],[440,35],[91,84],[30,431]]","true","5","main_T2_Trial","d","img/Fire_Down_Target.gif","[""img/Fire_Up_Distractor.gif"",""img/Fire_Up_Distractor.gif"",""img/Fire_Up_Distractor.gif"",""img/Fire_Up_Distractor.gif"",""img/Fire_Up_Distractor.gif"",""img/Fire_Up_Distractor.gif"",""img/Fire_Up_Distractor.gif"",""img/Fire_Up_Distractor.gif"",""img/Fire_Up_Distractor.gif"",""img/Fire_Up_Distractor.gif"",""img/Fire_Up_Distractor.gif"",""img/Fire_Up_Distractor.gif""]","5","targetDown_distractorsUp"
"","","","","","html-keyboard-response","156","1082287","0.0-14.0-0.0-0.71","5d9a125f1714540016a40a27","619531dcf66c91622fa1b861","619595f495f7c703c836bf8e","null","","null","","","","","main_T1_ITI","","","","",""
"","","","","","visual-search-circle","157","1085834","0.0-14.0-0.0-1.71","5d9a125f1714540016a40a27","619531dcf66c91622fa1b861","619595f495f7c703c836bf8e","2521.8000000044703","","s","true","[[526,496],[599,279],[496,73],[279,0],[73,103],[0,320],[103,526],[320,599]]","false","8","main_T2_Trial","s","img/Fire_Up_Target.gif","[""img/Fire_Down_Distractor.gif"",""img/Fire_Down_Distractor.gif"",""img/Fire_Down_Distractor.gif"",""img/Fire_Down_Distractor.gif"",""img/Fire_Down_Distractor.gif"",""img/Fire_Down_Distractor.gif"",""img/Fire_Down_Distractor.gif"",""img/Fire_Down_Distractor.gif"",""img/Fire_Down_Distractor.gif"",""img/Fire_Down_Distractor.gif"",""img/Fire_Down_Distractor.gif"",""img/Fire_Down_Distractor.gif""]","8","targetUp_distractorsDown"
"","","","","","html-keyboard-response","158","1085836","0.0-14.0-0.0-0.72","5d9a125f1714540016a40a27","619531dcf66c91622fa1b861","619595f495f7c703c836bf8e","null","","null","","","","","main_T1_ITI","","","","",""
"","","","","","visual-search-circle","159","1088513","0.0-14.0-0.0-1.72","5d9a125f1714540016a40a27","619531dcf66c91622fa1b861","619595f495f7c703c836bf8e","1669","","d","true","[[407,19],[19,192],[192,580],[580,407]]","true","4","main_T2_Trial","d","img/Fire_Down_Target.gif","[""img/Fire_Up_Distractor.gif"",""img/Fire_Up_Distractor.gif"",""img/Fire_Up_Distractor.gif"",""img/Fire_Up_Distractor.gif"",""img/Fire_Up_Distractor.gif"",""img/Fire_Up_Distractor.gif"",""img/Fire_Up_Distractor.gif"",""img/Fire_Up_Distractor.gif"",""img/Fire_Up_Distractor.gif"",""img/Fire_Up_Distractor.gif"",""img/Fire_Up_Distractor.gif"",""img/Fire_Up_Distractor.gif""]","4","targetDown_distractorsUp"
"","","","","","html-keyboard-response","160","1088517","0.0-14.0-0.0-0.73","5d9a125f1714540016a40a27","619531dcf66c91622fa1b861","619595f495f7c703c836bf8e","null","","null","","","","","main_T1_ITI","","","","",""
"","","","","","visual-search-circle","161","1091686","0.0-14.0-0.0-1.73","5d9a125f1714540016a40a27","619531dcf66c91622fa1b861","619595f495f7c703c836bf8e","2151.10000000149","","s","true","[[578,412],[576,182],[412,21],[182,23],[21,187],[23,417],[187,578],[417,576]]","false","8","main_T2_Trial","s","img/Fire_Up_Target.gif","[""img/Fire_Down_Distractor.gif"",""img/Fire_Down_Distractor.gif"",""img/Fire_Down_Distractor.gif"",""img/Fire_Down_Distractor.gif"",""img/Fire_Down_Distractor.gif"",""img/Fire_Down_Distractor.gif"",""img/Fire_Down_Distractor.gif"",""img/Fire_Down_Distractor.gif"",""img/Fire_Down_Distractor.gif"",""img/Fire_Down_Distractor.gif"",""img/Fire_Down_Distractor.gif"",""img/Fire_Down_Distractor.gif""]","8","targetUp_distractorsDown"
"","","","","","html-keyboard-response","162","1091688","0.0-14.0-0.0-0.74","5d9a125f1714540016a40a27","619531dcf66c91622fa1b861","619595f495f7c703c836bf8e","null","","null","","","","","main_T1_ITI","","","","",""
"","","","","","visual-search-circle","163","1093984","0.0-14.0-0.0-1.74","5d9a125f1714540016a40a27","619531dcf66c91622fa1b861","619595f495f7c703c836bf8e","1276.2000000029802","","d","true","[[54,472],[247,595],[472,545],[595,352],[545,127],[352,4],[127,54],[4,247]]","true","8","main_T2_Trial","d","img/Fire_Up_Target.gif","[""img/Fire_Down_Distractor.gif"",""img/Fire_Down_Distractor.gif"",""img/Fire_Down_Distractor.gif"",""img/Fire_Down_Distractor.gif"",""img/Fire_Down_Distractor.gif"",""img/Fire_Down_Distractor.gif"",""img/Fire_Down_Distractor.gif"",""img/Fire_Down_Distractor.gif"",""img/Fire_Down_Distractor.gif"",""img/Fire_Down_Distractor.gif"",""img/Fire_Down_Distractor.gif"",""img/Fire_Down_Distractor.gif""]","8","targetUp_distractorsDown"
"","","","","","html-keyboard-response","164","1093999","0.0-14.0-0.0-0.75","5d9a125f1714540016a40a27","619531dcf66c91622fa1b861","619595f495f7c703c836bf8e","null","","null","","","","","main_T1_ITI","","","","",""
"","","","","","visual-search-circle","165","1095988","0.0-14.0-0.0-1.75","5d9a125f1714540016a40a27","619531dcf66c91622fa1b861","619595f495f7c703c836bf8e","966.2000000029802","","s","true","[[84,508],[372,591],[588,382],[515,91],[227,8],[11,217]]","false","6","main_T2_Trial","s","img/Fire_Up_Target.gif","[""img/Fire_Down_Distractor.gif"",""img/Fire_Down_Distractor.gif"",""img/Fire_Down_Distractor.gif"",""img/Fire_Down_Distractor.gif"",""img/Fire_Down_Distractor.gif"",""img/Fire_Down_Distractor.gif"",""img/Fire_Down_Distractor.gif"",""img/Fire_Down_Distractor.gif"",""img/Fire_Down_Distractor.gif"",""img/Fire_Down_Distractor.gif"",""img/Fire_Down_Distractor.gif"",""img/Fire_Down_Distractor.gif""]","6","targetUp_distractorsDown"
"","","","","","html-keyboard-response","166","1095995","0.0-14.0-0.0-0.76","5d9a125f1714540016a40a27","619531dcf66c91622fa1b861","619595f495f7c703c836bf8e","null","","null","","","","","main_T1_ITI","","","","",""
"","","","","","visual-search-circle","167","1097884","0.0-14.0-0.0-1.76","5d9a125f1714540016a40a27","619531dcf66c91622fa1b861","619595f495f7c703c836bf8e","875.3999999985099","","d","true","[[279,0],[0,320],[320,599],[599,279]]","true","4","main_T2_Trial","d","img/Fire_Down_Target.gif","[""img/Fire_Up_Distractor.gif"",""img/Fire_Up_Distractor.gif"",""img/Fire_Up_Distractor.gif"",""img/Fire_Up_Distractor.gif"",""img/Fire_Up_Distractor.gif"",""img/Fire_Up_Distractor.gif"",""img/Fire_Up_Distractor.gif"",""img/Fire_Up_Distractor.gif"",""img/Fire_Up_Distractor.gif"",""img/Fire_Up_Distractor.gif"",""img/Fire_Up_Distractor.gif"",""img/Fire_Up_Distractor.gif""]","4","targetDown_distractorsUp"
"","","","","","html-keyboard-response","168","1097895","0.0-14.0-0.0-0.77","5d9a125f1714540016a40a27","619531dcf66c91622fa1b861","619595f495f7c703c836bf8e","null","","null","","","","","main_T1_ITI","","","","",""
"","","","","","visual-search-circle","169","1099885","0.0-14.0-0.0-1.77","5d9a125f1714540016a40a27","619531dcf66c91622fa1b861","619595f495f7c703c836bf8e","982.7999999970198","","d","true","[[187,21],[21,412],[412,578],[578,187]]","true","4","main_T2_Trial","d","img/Fire_Up_Target.gif","[""img/Fire_Down_Distractor.gif"",""img/Fire_Down_Distractor.gif"",""img/Fire_Down_Distractor.gif"",""img/Fire_Down_Distractor.gif"",""img/Fire_Down_Distractor.gif"",""img/Fire_Down_Distractor.gif"",""img/Fire_Down_Distractor.gif"",""img/Fire_Down_Distractor.gif"",""img/Fire_Down_Distractor.gif"",""img/Fire_Down_Distractor.gif"",""img/Fire_Down_Distractor.gif"",""img/Fire_Down_Distractor.gif""]","4","targetUp_distractorsDown"
"","","","","","html-keyboard-response","170","1100257","0.0-14.0-0.0-0.78","5d9a125f1714540016a40a27","619531dcf66c91622fa1b861","619595f495f7c703c836bf8e","null","","null","","","","","main_T1_ITI","","","","",""
"","","","","","visual-search-circle","171","1102481","0.0-14.0-0.0-1.78","5d9a125f1714540016a40a27","619531dcf66c91622fa1b861","619595f495f7c703c836bf8e","1206.6999999955297","","s","true","[[362,6],[6,237],[237,593],[593,362]]","false","4","main_T2_Trial","s","img/Fire_Up_Target.gif","[""img/Fire_Down_Distractor.gif"",""img/Fire_Down_Distractor.gif"",""img/Fire_Down_Distractor.gif"",""img/Fire_Down_Distractor.gif"",""img/Fire_Down_Distractor.gif"",""img/Fire_Down_Distractor.gif"",""img/Fire_Down_Distractor.gif"",""img/Fire_Down_Distractor.gif"",""img/Fire_Down_Distractor.gif"",""img/Fire_Down_Distractor.gif"",""img/Fire_Down_Distractor.gif"",""img/Fire_Down_Distractor.gif""]","4","targetUp_distractorsDown"
"","","","","","html-keyboard-response","172","1104499","0.0-14.0-0.0-0.79","5d9a125f1714540016a40a27","619531dcf66c91622fa1b861","619595f495f7c703c836bf8e","2016.1000000014901","Wow! You've completed 80 out of 160 trials! </p> <p>  </p><p> Take a quick break, then press any key when you're ready to continue."," ","","","","","main_T1_ITI","","","","",""
"","","","","","visual-search-circle","173","1106560","0.0-14.0-0.0-1.79","5d9a125f1714540016a40a27","619531dcf66c91622fa1b861","619595f495f7c703c836bf8e","1036","","s","true","[[168,569],[428,570],[592,368],[535,114],[301,0],[66,111],[7,365]]","false","7","main_T2_Trial","s","img/Fire_Up_Target.gif","[""img/Fire_Down_Distractor.gif"",""img/Fire_Down_Distractor.gif"",""img/Fire_Down_Distractor.gif"",""img/Fire_Down_Distractor.gif"",""img/Fire_Down_Distractor.gif"",""img/Fire_Down_Distractor.gif"",""img/Fire_Down_Distractor.gif"",""img/Fire_Down_Distractor.gif"",""img/Fire_Down_Distractor.gif"",""img/Fire_Down_Distractor.gif"",""img/Fire_Down_Distractor.gif"",""img/Fire_Down_Distractor.gif""]","7","targetUp_distractorsDown"
"","","","","","html-keyboard-response","174","1106563","0.0-14.0-0.0-0.80","5d9a125f1714540016a40a27","619531dcf66c91622fa1b861","619595f495f7c703c836bf8e","null","","null","","","","","main_T1_ITI","","","","",""
"","","","","","visual-search-circle","175","1108570","0.0-14.0-0.0-1.80","5d9a125f1714540016a40a27","619531dcf66c91622fa1b861","619595f495f7c703c836bf8e","993.2000000029802","","s","true","[[417,23],[73,103],[42,454],[367,592],[598,326]]","false","5","main_T2_Trial","s","img/Fire_Down_Target.gif","[""img/Fire_Up_Distractor.gif"",""img/Fire_Up_Distractor.gif"",""img/Fire_Up_Distractor.gif"",""img/Fire_Up_Distractor.gif"",""img/Fire_Up_Distractor.gif"",""img/Fire_Up_Distractor.gif"",""img/Fire_Up_Distractor.gif"",""img/Fire_Up_Distractor.gif"",""img/Fire_Up_Distractor.gif"",""img/Fire_Up_Distractor.gif"",""img/Fire_Up_Distractor.gif"",""img/Fire_Up_Distractor.gif""]","5","targetDown_distractorsUp"
"","","","","","html-keyboard-response","176","1108571","0.0-14.0-0.0-0.81","5d9a125f1714540016a40a27","619531dcf66c91622fa1b861","619595f495f7c703c836bf8e","null","","null","","","","","main_T1_ITI","","","","",""
"","","","","","visual-search-circle","177","1111487","0.0-14.0-0.0-1.81","5d9a125f1714540016a40a27","619531dcf66c91622fa1b861","619595f495f7c703c836bf8e","1901.6000000014901","","d","true","[[7,232],[145,557],[496,526],[576,182],[273,1]]","true","5","main_T2_Trial","d","img/Fire_Up_Target.gif","[""img/Fire_Down_Distractor.gif"",""img/Fire_Down_Distractor.gif"",""img/Fire_Down_Distractor.gif"",""img/Fire_Down_Distractor.gif"",""img/Fire_Down_Distractor.gif"",""img/Fire_Down_Distractor.gif"",""img/Fire_Down_Distractor.gif"",""img/Fire_Down_Distractor.gif"",""img/Fire_Down_Distractor.gif"",""img/Fire_Down_Distractor.gif"",""img/Fire_Down_Distractor.gif"",""img/Fire_Down_Distractor.gif""]","5","targetUp_distractorsDown"
"","","","","","html-keyboard-response","178","1111502","0.0-14.0-0.0-0.82","5d9a125f1714540016a40a27","619531dcf66c91622fa1b861","619595f495f7c703c836bf8e","null","","null","","","","","main_T1_ITI","","","","",""
"","","","","","visual-search-circle","179","1113441","0.0-14.0-0.0-1.82","5d9a125f1714540016a40a27","619531dcf66c91622fa1b861","619595f495f7c703c836bf8e","927.2999999970198","","d","true","[[227,8],[11,217],[84,508],[372,591],[588,382],[515,91]]","true","6","main_T2_Trial","d","img/Fire_Down_Target.gif","[""img/Fire_Up_Distractor.gif"",""img/Fire_Up_Distractor.gif"",""img/Fire_Up_Distractor.gif"",""img/Fire_Up_Distractor.gif"",""img/Fire_Up_Distractor.gif"",""img/Fire_Up_Distractor.gif"",""img/Fire_Up_Distractor.gif"",""img/Fire_Up_Distractor.gif"",""img/Fire_Up_Distractor.gif"",""img/Fire_Up_Distractor.gif"",""img/Fire_Up_Distractor.gif"",""img/Fire_Up_Distractor.gif""]","6","targetDown_distractorsUp"
"","","","","","html-keyboard-response","180","1113450","0.0-14.0-0.0-0.83","5d9a125f1714540016a40a27","619531dcf66c91622fa1b861","619595f495f7c703c836bf8e","null","","null","","","","","main_T1_ITI","","","","",""
"","","","","","visual-search-circle","181","1115260","0.0-14.0-0.0-1.83","5d9a125f1714540016a40a27","619531dcf66c91622fa1b861","619595f495f7c703c836bf8e","796.2999999970198","","s","true","[[585,392],[567,163],[392,14],[163,32],[14,207],[32,436],[207,585],[436,567]]","false","8","main_T2_Trial","s","img/Fire_Down_Target.gif","[""img/Fire_Up_Distractor.gif"",""img/Fire_Up_Distractor.gif"",""img/Fire_Up_Distractor.gif"",""img/Fire_Up_Distractor.gif"",""img/Fire_Up_Distractor.gif"",""img/Fire_Up_Distractor.gif"",""img/Fire_Up_Distractor.gif"",""img/Fire_Up_Distractor.gif"",""img/Fire_Up_Distractor.gif"",""img/Fire_Up_Distractor.gif"",""img/Fire_Up_Distractor.gif"",""img/Fire_Up_Distractor.gif""]","8","targetDown_distractorsUp"
"","","","","","html-keyboard-response","182","1115263","0.0-14.0-0.0-0.84","5d9a125f1714540016a40a27","619531dcf66c91622fa1b861","619595f495f7c703c836bf8e","null","","null","","","","","main_T1_ITI","","","","",""
"","","","","","visual-search-circle","183","1117695","0.0-14.0-0.0-1.84","5d9a125f1714540016a40a27","619531dcf66c91622fa1b861","619595f495f7c703c836bf8e","1412.4000000059605","","s","true","[[18,197],[70,492],[352,595],[581,402],[529,107],[247,4]]","false","6","main_T2_Trial","s","img/Fire_Down_Target.gif","[""img/Fire_Up_Distractor.gif"",""img/Fire_Up_Distractor.gif"",""img/Fire_Up_Distractor.gif"",""img/Fire_Up_Distractor.gif"",""img/Fire_Up_Distractor.gif"",""img/Fire_Up_Distractor.gif"",""img/Fire_Up_Distractor.gif"",""img/Fire_Up_Distractor.gif"",""img/Fire_Up_Distractor.gif"",""img/Fire_Up_Distractor.gif"",""img/Fire_Up_Distractor.gif"",""img/Fire_Up_Distractor.gif""]","6","targetDown_distractorsUp"
"","","","","","html-keyboard-response","184","1117697","0.0-14.0-0.0-0.85","5d9a125f1714540016a40a27","619531dcf66c91622fa1b861","619595f495f7c703c836bf8e","null","","null","","","","","main_T1_ITI","","","","",""
"","","","","","visual-search-circle","185","1119883","0.0-14.0-0.0-1.85","5d9a125f1714540016a40a27","619531dcf66c91622fa1b861","619595f495f7c703c836bf8e","1168.5999999940395","","d","true","[[0,315],[99,522],[315,599],[522,500],[599,284],[500,77],[284,0],[77,99]]","true","8","main_T2_Trial","d","img/Fire_Down_Target.gif","[""img/Fire_Up_Distractor.gif"",""img/Fire_Up_Distractor.gif"",""img/Fire_Up_Distractor.gif"",""img/Fire_Up_Distractor.gif"",""img/Fire_Up_Distractor.gif"",""img/Fire_Up_Distractor.gif"",""img/Fire_Up_Distractor.gif"",""img/Fire_Up_Distractor.gif"",""img/Fire_Up_Distractor.gif"",""img/Fire_Up_Distractor.gif"",""img/Fire_Up_Distractor.gif"",""img/Fire_Up_Distractor.gif""]","8","targetDown_distractorsUp"
"","","","","","html-keyboard-response","186","1119897","0.0-14.0-0.0-0.86","5d9a125f1714540016a40a27","619531dcf66c91622fa1b861","619595f495f7c703c836bf8e","null","","null","","","","","main_T1_ITI","","","","",""
"","","","","","visual-search-circle","187","1122231","0.0-14.0-0.0-1.86","5d9a125f1714540016a40a27","619531dcf66c91622fa1b861","619595f495f7c703c836bf8e","1325.3999999985099","","s","true","[[35,440],[440,564],[564,159],[159,35]]","false","4","main_T2_Trial","s","img/Fire_Up_Target.gif","[""img/Fire_Down_Distractor.gif"",""img/Fire_Down_Distractor.gif"",""img/Fire_Down_Distractor.gif"",""img/Fire_Down_Distractor.gif"",""img/Fire_Down_Distractor.gif"",""img/Fire_Down_Distractor.gif"",""img/Fire_Down_Distractor.gif"",""img/Fire_Down_Distractor.gif"",""img/Fire_Down_Distractor.gif"",""img/Fire_Down_Distractor.gif"",""img/Fire_Down_Distractor.gif"",""img/Fire_Down_Distractor.gif""]","4","targetUp_distractorsDown"
"","","","","","html-keyboard-response","188","1122233","0.0-14.0-0.0-0.87","5d9a125f1714540016a40a27","619531dcf66c91622fa1b861","619595f495f7c703c836bf8e","null","","null","","","","","main_T1_ITI","","","","",""
"","","","","","visual-search-circle","189","1124324","0.0-14.0-0.0-1.87","5d9a125f1714540016a40a27","619531dcf66c91622fa1b861","619595f495f7c703c836bf8e","1083.6999999955297","","s","true","[[559,450],[522,99],[177,25],[1,331],[237,593]]","false","5","main_T2_Trial","s","img/Fire_Up_Target.gif","[""img/Fire_Down_Distractor.gif"",""img/Fire_Down_Distractor.gif"",""img/Fire_Down_Distractor.gif"",""img/Fire_Down_Distractor.gif"",""img/Fire_Down_Distractor.gif"",""img/Fire_Down_Distractor.gif"",""img/Fire_Down_Distractor.gif"",""img/Fire_Down_Distractor.gif"",""img/Fire_Down_Distractor.gif"",""img/Fire_Down_Distractor.gif"",""img/Fire_Down_Distractor.gif"",""img/Fire_Down_Distractor.gif""]","5","targetUp_distractorsDown"
"","","","","","html-keyboard-response","190","1124331","0.0-14.0-0.0-0.88","5d9a125f1714540016a40a27","619531dcf66c91622fa1b861","619595f495f7c703c836bf8e","null","","null","","","","","main_T1_ITI","","","","",""
"","","","","","visual-search-circle","191","1127642","0.0-14.0-0.0-1.88","5d9a125f1714540016a40a27","619531dcf66c91622fa1b861","619595f495f7c703c836bf8e","2292.10000000149","","d","true","[[284,0],[55,125],[11,381],[184,576],[444,563],[595,351],[524,100]]","true","7","main_T2_Trial","d","img/Fire_Up_Target.gif","[""img/Fire_Down_Distractor.gif"",""img/Fire_Down_Distractor.gif"",""img/Fire_Down_Distractor.gif"",""img/Fire_Down_Distractor.gif"",""img/Fire_Down_Distractor.gif"",""img/Fire_Down_Distractor.gif"",""img/Fire_Down_Distractor.gif"",""img/Fire_Down_Distractor.gif"",""img/Fire_Down_Distractor.gif"",""img/Fire_Down_Distractor.gif"",""img/Fire_Down_Distractor.gif"",""img/Fire_Down_Distractor.gif""]","7","targetUp_distractorsDown"
"","","","","","html-keyboard-response","192","1127644","0.0-14.0-0.0-0.89","5d9a125f1714540016a40a27","619531dcf66c91622fa1b861","619595f495f7c703c836bf8e","null","","null","","","","","main_T1_ITI","","","","",""
"","","","","","visual-search-circle","193","1130930","0.0-14.0-0.0-1.89","5d9a125f1714540016a40a27","619531dcf66c91622fa1b861","619595f495f7c703c836bf8e","2266.10000000149","","d","true","[[591,227],[227,8],[8,372],[372,591]]","true","4","main_T2_Trial","d","img/Fire_Up_Target.gif","[""img/Fire_Down_Distractor.gif"",""img/Fire_Down_Distractor.gif"",""img/Fire_Down_Distractor.gif"",""img/Fire_Down_Distractor.gif"",""img/Fire_Down_Distractor.gif"",""img/Fire_Down_Distractor.gif"",""img/Fire_Down_Distractor.gif"",""img/Fire_Down_Distractor.gif"",""img/Fire_Down_Distractor.gif"",""img/Fire_Down_Distractor.gif"",""img/Fire_Down_Distractor.gif"",""img/Fire_Down_Distractor.gif""]","4","targetUp_distractorsDown"
"","","","","","html-keyboard-response","194","1130932","0.0-14.0-0.0-0.90","5d9a125f1714540016a40a27","619531dcf66c91622fa1b861","619595f495f7c703c836bf8e","null","","null","","","","","main_T1_ITI","","","","",""
"","","","","","visual-search-circle","195","1132956","0.0-14.0-0.0-1.90","5d9a125f1714540016a40a27","619531dcf66c91622fa1b861","619595f495f7c703c836bf8e","1013.3000000044703","","d","true","[[519,504],[586,212],[367,7],[80,95],[13,387],[232,592]]","true","6","main_T2_Trial","d","img/Fire_Up_Target.gif","[""img/Fire_Down_Distractor.gif"",""img/Fire_Down_Distractor.gif"",""img/Fire_Down_Distractor.gif"",""img/Fire_Down_Distractor.gif"",""img/Fire_Down_Distractor.gif"",""img/Fire_Down_Distractor.gif"",""img/Fire_Down_Distractor.gif"",""img/Fire_Down_Distractor.gif"",""img/Fire_Down_Distractor.gif"",""img/Fire_Down_Distractor.gif"",""img/Fire_Down_Distractor.gif"",""img/Fire_Down_Distractor.gif""]","6","targetUp_distractorsDown"
"","","","","","html-keyboard-response","196","1132957","0.0-14.0-0.0-0.91","5d9a125f1714540016a40a27","619531dcf66c91622fa1b861","619595f495f7c703c836bf8e","null","","null","","","","","main_T1_ITI","","","","",""
"","","","","","visual-search-circle","197","1134953","0.0-14.0-0.0-1.91","5d9a125f1714540016a40a27","619531dcf66c91622fa1b861","619595f495f7c703c836bf8e","979.8999999985099","","d","true","[[0,310],[95,519],[310,599],[519,504],[599,289],[504,80],[289,0],[80,95]]","true","8","main_T2_Trial","d","img/Fire_Down_Target.gif","[""img/Fire_Up_Distractor.gif"",""img/Fire_Up_Distractor.gif"",""img/Fire_Up_Distractor.gif"",""img/Fire_Up_Distractor.gif"",""img/Fire_Up_Distractor.gif"",""img/Fire_Up_Distractor.gif"",""img/Fire_Up_Distractor.gif"",""img/Fire_Up_Distractor.gif"",""img/Fire_Up_Distractor.gif"",""img/Fire_Up_Distractor.gif"",""img/Fire_Up_Distractor.gif"",""img/Fire_Up_Distractor.gif""]","8","targetDown_distractorsUp"
"","","","","","html-keyboard-response","198","1134955","0.0-14.0-0.0-0.92","5d9a125f1714540016a40a27","619531dcf66c91622fa1b861","619595f495f7c703c836bf8e","null","","null","","","","","main_T1_ITI","","","","",""
"","","","","","visual-search-circle","199","1137217","0.0-14.0-0.0-1.92","5d9a125f1714540016a40a27","619531dcf66c91622fa1b861","619595f495f7c703c836bf8e","1243","","s","true","[[115,63],[2,341],[187,578],[484,536],[597,258],[412,21]]","false","6","main_T2_Trial","s","img/Fire_Up_Target.gif","[""img/Fire_Down_Distractor.gif"",""img/Fire_Down_Distractor.gif"",""img/Fire_Down_Distractor.gif"",""img/Fire_Down_Distractor.gif"",""img/Fire_Down_Distractor.gif"",""img/Fire_Down_Distractor.gif"",""img/Fire_Down_Distractor.gif"",""img/Fire_Down_Distractor.gif"",""img/Fire_Down_Distractor.gif"",""img/Fire_Down_Distractor.gif"",""img/Fire_Down_Distractor.gif"",""img/Fire_Down_Distractor.gif""]","6","targetUp_distractorsDown"
"","","","","","html-keyboard-response","200","1137222","0.0-14.0-0.0-0.93","5d9a125f1714540016a40a27","619531dcf66c91622fa1b861","619595f495f7c703c836bf8e","null","","null","","","","","main_T1_ITI","","","","",""
"","","","","","visual-search-circle","201","1140019","0.0-14.0-0.0-1.93","5d9a125f1714540016a40a27","619531dcf66c91622fa1b861","619595f495f7c703c836bf8e","1781.8000000044703","","s","true","[[80,504],[289,599],[504,519],[599,310],[519,95],[310,0],[95,80],[0,289]]","false","8","main_T2_Trial","s","img/Fire_Down_Target.gif","[""img/Fire_Up_Distractor.gif"",""img/Fire_Up_Distractor.gif"",""img/Fire_Up_Distractor.gif"",""img/Fire_Up_Distractor.gif"",""img/Fire_Up_Distractor.gif"",""img/Fire_Up_Distractor.gif"",""img/Fire_Up_Distractor.gif"",""img/Fire_Up_Distractor.gif"",""img/Fire_Up_Distractor.gif"",""img/Fire_Up_Distractor.gif"",""img/Fire_Up_Distractor.gif"",""img/Fire_Up_Distractor.gif""]","8","targetDown_distractorsUp"
"","","","","","html-keyboard-response","202","1140022","0.0-14.0-0.0-0.94","5d9a125f1714540016a40a27","619531dcf66c91622fa1b861","619595f495f7c703c836bf8e","null","","null","","","","","main_T1_ITI","","","","",""
"","","","","","visual-search-circle","203","1142658","0.0-14.0-0.0-1.94","5d9a125f1714540016a40a27","619531dcf66c91622fa1b861","619595f495f7c703c836bf8e","1622.1999999955297","","s","true","[[159,35],[35,440],[440,564],[564,159]]","false","4","main_T2_Trial","s","img/Fire_Down_Target.gif","[""img/Fire_Up_Distractor.gif"",""img/Fire_Up_Distractor.gif"",""img/Fire_Up_Distractor.gif"",""img/Fire_Up_Distractor.gif"",""img/Fire_Up_Distractor.gif"",""img/Fire_Up_Distractor.gif"",""img/Fire_Up_Distractor.gif"",""img/Fire_Up_Distractor.gif"",""img/Fire_Up_Distractor.gif"",""img/Fire_Up_Distractor.gif"",""img/Fire_Up_Distractor.gif"",""img/Fire_Up_Distractor.gif""]","4","targetDown_distractorsUp"
"","","","","","html-keyboard-response","204","1142660","0.0-14.0-0.0-0.95","5d9a125f1714540016a40a27","619531dcf66c91622fa1b861","619595f495f7c703c836bf8e","null","","null","","","","","main_T1_ITI","","","","",""
"","","","","","visual-search-circle","205","1145077","0.0-14.0-0.0-1.95","5d9a125f1714540016a40a27","619531dcf66c91622fa1b861","619595f495f7c703c836bf8e","1391.5999999940395","","s","true","[[341,597],[539,480],[597,258],[480,60],[258,2],[60,119],[2,341],[119,539]]","false","8","main_T2_Trial","s","img/Fire_Down_Target.gif","[""img/Fire_Up_Distractor.gif"",""img/Fire_Up_Distractor.gif"",""img/Fire_Up_Distractor.gif"",""img/Fire_Up_Distractor.gif"",""img/Fire_Up_Distractor.gif"",""img/Fire_Up_Distractor.gif"",""img/Fire_Up_Distractor.gif"",""img/Fire_Up_Distractor.gif"",""img/Fire_Up_Distractor.gif"",""img/Fire_Up_Distractor.gif"",""img/Fire_Up_Distractor.gif"",""img/Fire_Up_Distractor.gif""]","8","targetDown_distractorsUp"
"","","","","","html-keyboard-response","206","1145080","0.0-14.0-0.0-0.96","5d9a125f1714540016a40a27","619531dcf66c91622fa1b861","619595f495f7c703c836bf8e","null","","null","","","","","main_T1_ITI","","","","",""
"","","","","","visual-search-circle","207","1147445","0.0-14.0-0.0-1.96","5d9a125f1714540016a40a27","619531dcf66c91622fa1b861","619595f495f7c703c836bf8e","1345.3999999985099","","s","true","[[500,522],[599,315],[522,99],[315,0],[99,77],[0,284],[77,500],[284,599]]","false","8","main_T2_Trial","s","img/Fire_Up_Target.gif","[""img/Fire_Down_Distractor.gif"",""img/Fire_Down_Distractor.gif"",""img/Fire_Down_Distractor.gif"",""img/Fire_Down_Distractor.gif"",""img/Fire_Down_Distractor.gif"",""img/Fire_Down_Distractor.gif"",""img/Fire_Down_Distractor.gif"",""img/Fire_Down_Distractor.gif"",""img/Fire_Down_Distractor.gif"",""img/Fire_Down_Distractor.gif"",""img/Fire_Down_Distractor.gif"",""img/Fire_Down_Distractor.gif""]","8","targetUp_distractorsDown"
"","","","","","html-keyboard-response","208","1147447","0.0-14.0-0.0-0.97","5d9a125f1714540016a40a27","619531dcf66c91622fa1b861","619595f495f7c703c836bf8e","null","","null","","","","","main_T1_ITI","","","","",""
"","","","","","visual-search-circle","209","1149230","0.0-14.0-0.0-1.97","5d9a125f1714540016a40a27","619531dcf66c91622fa1b861","619595f495f7c703c836bf8e","771.6000000014901","","d","true","[[0,320],[168,569],[467,548],[599,279],[431,30],[132,51]]","true","6","main_T2_Trial","d","img/Fire_Up_Target.gif","[""img/Fire_Down_Distractor.gif"",""img/Fire_Down_Distractor.gif"",""img/Fire_Down_Distractor.gif"",""img/Fire_Down_Distractor.gif"",""img/Fire_Down_Distractor.gif"",""img/Fire_Down_Distractor.gif"",""img/Fire_Down_Distractor.gif"",""img/Fire_Down_Distractor.gif"",""img/Fire_Down_Distractor.gif"",""img/Fire_Down_Distractor.gif"",""img/Fire_Down_Distractor.gif"",""img/Fire_Down_Distractor.gif""]","6","targetUp_distractorsDown"
"","","","","","html-keyboard-response","210","1149233","0.0-14.0-0.0-0.98","5d9a125f1714540016a40a27","619531dcf66c91622fa1b861","619595f495f7c703c836bf8e","null","","null","","","","","main_T1_ITI","","","","",""
"","","","","","visual-search-circle","211","1151327","0.0-14.0-0.0-1.98","5d9a125f1714540016a40a27","619531dcf66c91622fa1b861","619595f495f7c703c836bf8e","1078.7000000029802","","s","true","[[23,417],[219,588],[475,543],[599,314],[497,74],[247,4],[36,157]]","false","7","main_T2_Trial","s","img/Fire_Down_Target.gif","[""img/Fire_Up_Distractor.gif"",""img/Fire_Up_Distractor.gif"",""img/Fire_Up_Distractor.gif"",""img/Fire_Up_Distractor.gif"",""img/Fire_Up_Distractor.gif"",""img/Fire_Up_Distractor.gif"",""img/Fire_Up_Distractor.gif"",""img/Fire_Up_Distractor.gif"",""img/Fire_Up_Distractor.gif"",""img/Fire_Up_Distractor.gif"",""img/Fire_Up_Distractor.gif"",""img/Fire_Up_Distractor.gif""]","7","targetDown_distractorsUp"
"","","","","","html-keyboard-response","212","1152494","0.0-14.0-0.0-0.99","5d9a125f1714540016a40a27","619531dcf66c91622fa1b861","619595f495f7c703c836bf8e","1165.8000000044703","Wow! You've completed 100 out of 160 trials! </p> <p>  </p><p> Take a quick break, then press any key when you're ready to continue.","d","","","","","main_T1_ITI","","","","",""
"","","","","","visual-search-circle","213","1155197","0.0-14.0-0.0-1.99","5d9a125f1714540016a40a27","619531dcf66c91622fa1b861","619595f495f7c703c836bf8e","1691.9000000059605","","d","false","[[3,346],[346,596],[596,253],[253,3]]","false","4","main_T2_Trial","s","img/Fire_Down_Target.gif","[""img/Fire_Up_Distractor.gif"",""img/Fire_Up_Distractor.gif"",""img/Fire_Up_Distractor.gif"",""img/Fire_Up_Distractor.gif"",""img/Fire_Up_Distractor.gif"",""img/Fire_Up_Distractor.gif"",""img/Fire_Up_Distractor.gif"",""img/Fire_Up_Distractor.gif"",""img/Fire_Up_Distractor.gif"",""img/Fire_Up_Distractor.gif"",""img/Fire_Up_Distractor.gif"",""img/Fire_Up_Distractor.gif""]","4","targetDown_distractorsUp"
"","","","","","html-keyboard-response","214","1155198","0.0-14.0-0.0-0.100","5d9a125f1714540016a40a27","619531dcf66c91622fa1b861","619595f495f7c703c836bf8e","null","","null","","","","","main_T1_ITI","","","","",""
"","","","","","visual-search-circle","215","1157506","0.0-14.0-0.0-1.100","5d9a125f1714540016a40a27","619531dcf66c91622fa1b861","619595f495f7c703c836bf8e","1287.9000000059605","","s","true","[[594,242],[438,34],[178,25],[9,223],[59,479],[290,599],[528,494]]","false","7","main_T2_Trial","s","img/Fire_Down_Target.gif","[""img/Fire_Up_Distractor.gif"",""img/Fire_Up_Distractor.gif"",""img/Fire_Up_Distractor.gif"",""img/Fire_Up_Distractor.gif"",""img/Fire_Up_Distractor.gif"",""img/Fire_Up_Distractor.gif"",""img/Fire_Up_Distractor.gif"",""img/Fire_Up_Distractor.gif"",""img/Fire_Up_Distractor.gif"",""img/Fire_Up_Distractor.gif"",""img/Fire_Up_Distractor.gif"",""img/Fire_Up_Distractor.gif""]","7","targetDown_distractorsUp"
"","","","","","html-keyboard-response","216","1157508","0.0-14.0-0.0-0.101","5d9a125f1714540016a40a27","619531dcf66c91622fa1b861","619595f495f7c703c836bf8e","null","","null","","","","","main_T1_ITI","","","","",""
