"success","timeout","failed_images","failed_audio","failed_video","trial_type","trial_index","time_elapsed","internal_node_id","subject_id","study_id","session_id","rt","stimulus","response","correct","locations","target_present","set_size","task","correct_response","target","foilCM","setSizeCM","searchCondition"
"true","false","[]","[]","[]","preload","0","255300","0.0-0.0","5dc0353028cfb7479e1f7e8d","619531dcf66c91622fa1b861","619595d31bff77d8d77b04d7","","","","","","","","","","","","",""
"true","","","","","fullscreen","1","896685","0.0-1.0","5dc0353028cfb7479e1f7e8d","619531dcf66c91622fa1b861","619595d31bff77d8d77b04d7","","","","","","","","","","","","",""
"","","","","","html-keyboard-response","2","948693","0.0-2.0","5dc0353028cfb7479e1f7e8d","619531dcf66c91622fa1b861","619595d31bff77d8d77b04d7","52006","What a beautiful Wednesday to do some awesome science! </p> <p>  </p><p> </p>
    By completing this survey or questionnaire, you are consenting to be in this research study. </p>
    Your participation is voluntary and you can stop at any time.
    <p> [Press any key to continue.] </p>
    
    "," ","","","","","","","","","",""
"","","","","","video-keyboard-response","3","1041816","0.0-3.0","5dc0353028cfb7479e1f7e8d","619531dcf66c91622fa1b861","619595d31bff77d8d77b04d7","93115.40000009537","[""video/TaskInstructions.mp4""]","d","","","","","","","","","",""
"","","","","","html-keyboard-response","4","1044387","0.0-4.0","5dc0353028cfb7479e1f7e8d","619531dcf66c91622fa1b861","619595d31bff77d8d77b04d7","2569.5","
    <p>First, we're going to do a few practice trials to make sure you understand the task. You will recieve feedback on each trial. </p>
    <p>[Press any key to begin the familiarization phase.]</p>
    ","d","","","","","","","","","",""
"","","","","","visual-search-circle","5","1048372","0.0-5.0-0.0","5dc0353028cfb7479e1f7e8d","619531dcf66c91622fa1b861","619595d31bff77d8d77b04d7","2920.100000023842","","d","true","[[107,529],[529,492],[492,70],[70,107]]","true","4","training","d","","","",""
"","","","","","html-keyboard-response","6","1051822","0.0-6.0","5dc0353028cfb7479e1f7e8d","619531dcf66c91622fa1b861","619595d31bff77d8d77b04d7","3448.100000023842"," <div style='float: center; '><img src='img/feedbackRight.png'></img> </div> "," ","","","","","","","","","",""
"","","","","","visual-search-circle","7","1054594","0.0-7.0-0.0","5dc0353028cfb7479e1f7e8d","619531dcf66c91622fa1b861","619595d31bff77d8d77b04d7","1756.8000000715256","","s","true","[[554,141],[141,45],[45,458],[458,554]]","false","4","training","s","","","",""
"","","","","","html-keyboard-response","8","1056522","0.0-8.0","5dc0353028cfb7479e1f7e8d","619531dcf66c91622fa1b861","619595d31bff77d8d77b04d7","1925.6000000238419"," <div style='float: center; '><img src='img/feedbackRight.png'></img> </div> "," ","","","","","","","","","",""
"","","","","","visual-search-circle","9","1059590","0.0-9.0-0.0","5dc0353028cfb7479e1f7e8d","619531dcf66c91622fa1b861","619595d31bff77d8d77b04d7","2041.8999999761581","","s","true","[[539,480],[576,182],[336,2],[60,119],[23,417],[263,597]]","false","6","training","s","","","",""
"","","","","","html-keyboard-response","10","1060207","0.0-10.0","5dc0353028cfb7479e1f7e8d","619531dcf66c91622fa1b861","619595d31bff77d8d77b04d7","615.7000000476837"," <div style='float: center; '><img src='img/feedbackRight.png'></img> </div> "," ","","","","","","","","","",""
"","","","","","visual-search-circle","11","1062363","0.0-11.0-0.0","5dc0353028cfb7479e1f7e8d","619531dcf66c91622fa1b861","619595d31bff77d8d77b04d7","1139.8999999761581","","d","true","[[315,599],[522,500],[599,284],[500,77],[284,0],[77,99],[0,315],[99,522]]","true","8","training","d","","","",""
"","","","","","html-keyboard-response","12","1063332","0.0-12.0","5dc0353028cfb7479e1f7e8d","619531dcf66c91622fa1b861","619595d31bff77d8d77b04d7","968"," <div style='float: center; '><img src='img/feedbackRight.png'></img> </div> "," ","","","","","","","","","",""
"","","","","","video-keyboard-response","13","1092692","0.0-13.0","5dc0353028cfb7479e1f7e8d","619531dcf66c91622fa1b861","619595d31bff77d8d77b04d7","29356.399999976158","[""video/endTraining.mp4""]"," ","","","","","","","","","",""
"","","","","","html-keyboard-response","14","1092695","0.0-14.0-0.0-0.0","5dc0353028cfb7479e1f7e8d","619531dcf66c91622fa1b861","619595d31bff77d8d77b04d7","null","","null","","","","","main_T1_ITI","","","","",""
"","","","","","visual-search-circle","15","1095079","0.0-14.0-0.0-1.0","5dc0353028cfb7479e1f7e8d","619531dcf66c91622fa1b861","619595d31bff77d8d77b04d7","1369.6000000238419","","d","true","[[42,454],[260,597],[507,516],[598,272],[464,49],[206,14],[18,195]]","true","7","main_T2_Trial","d","img/Fire_Up_Target.gif","[""img/Fire_Down_Distractor.gif"",""img/Fire_Down_Distractor.gif"",""img/Fire_Down_Distractor.gif"",""img/Fire_Down_Distractor.gif"",""img/Fire_Down_Distractor.gif"",""img/Fire_Down_Distractor.gif"",""img/Fire_Down_Distractor.gif"",""img/Fire_Down_Distractor.gif"",""img/Fire_Down_Distractor.gif"",""img/Fire_Down_Distractor.gif"",""img/Fire_Down_Distractor.gif"",""img/Fire_Down_Distractor.gif""]","7","targetUp_distractorsDown"
"","","","","","html-keyboard-response","16","1095095","0.0-14.0-0.0-0.1","5dc0353028cfb7479e1f7e8d","619531dcf66c91622fa1b861","619595d31bff77d8d77b04d7","null","","null","","","","","main_T1_ITI","","","","",""
"","","","","","visual-search-circle","17","1097075","0.0-14.0-0.0-1.1","5dc0353028cfb7479e1f7e8d","619531dcf66c91622fa1b861","619595d31bff77d8d77b04d7","974.7999999523163","","d","true","[[320,599],[569,431],[548,132],[279,0],[30,168],[51,467]]","true","6","main_T2_Trial","d","img/Fire_Down_Target.gif","[""img/Fire_Up_Distractor.gif"",""img/Fire_Up_Distractor.gif"",""img/Fire_Up_Distractor.gif"",""img/Fire_Up_Distractor.gif"",""img/Fire_Up_Distractor.gif"",""img/Fire_Up_Distractor.gif"",""img/Fire_Up_Distractor.gif"",""img/Fire_Up_Distractor.gif"",""img/Fire_Up_Distractor.gif"",""img/Fire_Up_Distractor.gif"",""img/Fire_Up_Distractor.gif"",""img/Fire_Up_Distractor.gif""]","6","targetDown_distractorsUp"
"","","","","","html-keyboard-response","18","1097085","0.0-14.0-0.0-0.2","5dc0353028cfb7479e1f7e8d","619531dcf66c91622fa1b861","619595d31bff77d8d77b04d7","null","","null","","","","","main_T1_ITI","","","","",""
"","","","","","visual-search-circle","19","1098901","0.0-14.0-0.0-1.2","5dc0353028cfb7479e1f7e8d","619531dcf66c91622fa1b861","619595d31bff77d8d77b04d7","792.2999999523163","","s","true","[[458,554],[554,141],[141,45],[45,458]]","false","4","main_T2_Trial","s","img/Fire_Down_Target.gif","[""img/Fire_Up_Distractor.gif"",""img/Fire_Up_Distractor.gif"",""img/Fire_Up_Distractor.gif"",""img/Fire_Up_Distractor.gif"",""img/Fire_Up_Distractor.gif"",""img/Fire_Up_Distractor.gif"",""img/Fire_Up_Distractor.gif"",""img/Fire_Up_Distractor.gif"",""img/Fire_Up_Distractor.gif"",""img/Fire_Up_Distractor.gif"",""img/Fire_Up_Distractor.gif"",""img/Fire_Up_Distractor.gif""]","4","targetDown_distractorsUp"
"","","","","","html-keyboard-response","20","1098903","0.0-14.0-0.0-0.3","5dc0353028cfb7479e1f7e8d","619531dcf66c91622fa1b861","619595d31bff77d8d77b04d7","null","","null","","","","","main_T1_ITI","","","","",""
"","","","","","visual-search-circle","21","1101029","0.0-14.0-0.0-1.3","5dc0353028cfb7479e1f7e8d","619531dcf66c91622fa1b861","619595d31bff77d8d77b04d7","1109.5999999046326","","d","true","[[13,212],[127,545],[480,539],[583,202],[294,0]]","true","5","main_T2_Trial","d","img/Fire_Down_Target.gif","[""img/Fire_Up_Distractor.gif"",""img/Fire_Up_Distractor.gif"",""img/Fire_Up_Distractor.gif"",""img/Fire_Up_Distractor.gif"",""img/Fire_Up_Distractor.gif"",""img/Fire_Up_Distractor.gif"",""img/Fire_Up_Distractor.gif"",""img/Fire_Up_Distractor.gif"",""img/Fire_Up_Distractor.gif"",""img/Fire_Up_Distractor.gif"",""img/Fire_Up_Distractor.gif"",""img/Fire_Up_Distractor.gif""]","5","targetDown_distractorsUp"
"","","","","","html-keyboard-response","22","1101030","0.0-14.0-0.0-0.4","5dc0353028cfb7479e1f7e8d","619531dcf66c91622fa1b861","619595d31bff77d8d77b04d7","null","","null","","","","","main_T1_ITI","","","","",""
"","","","","","visual-search-circle","23","1102848","0.0-14.0-0.0-1.4","5dc0353028cfb7479e1f7e8d","619531dcf66c91622fa1b861","619595d31bff77d8d77b04d7","808.6000000238419","","d","true","[[387,13],[95,80],[7,367],[212,586],[504,519],[592,232]]","true","6","main_T2_Trial","d","img/Fire_Down_Target.gif","[""img/Fire_Up_Distractor.gif"",""img/Fire_Up_Distractor.gif"",""img/Fire_Up_Distractor.gif"",""img/Fire_Up_Distractor.gif"",""img/Fire_Up_Distractor.gif"",""img/Fire_Up_Distractor.gif"",""img/Fire_Up_Distractor.gif"",""img/Fire_Up_Distractor.gif"",""img/Fire_Up_Distractor.gif"",""img/Fire_Up_Distractor.gif"",""img/Fire_Up_Distractor.gif"",""img/Fire_Up_Distractor.gif""]","6","targetDown_distractorsUp"
"","","","","","html-keyboard-response","24","1102850","0.0-14.0-0.0-0.5","5dc0353028cfb7479e1f7e8d","619531dcf66c91622fa1b861","619595d31bff77d8d77b04d7","null","","null","","","","","main_T1_ITI","","","","",""
"","","","","","visual-search-circle","25","1104536","0.0-14.0-0.0-1.5","5dc0353028cfb7479e1f7e8d","619531dcf66c91622fa1b861","619595d31bff77d8d77b04d7","672.2999999523163","","s","true","[[599,310],[402,18],[63,115],[51,467],[382,588]]","false","5","main_T2_Trial","s","img/Fire_Down_Target.gif","[""img/Fire_Up_Distractor.gif"",""img/Fire_Up_Distractor.gif"",""img/Fire_Up_Distractor.gif"",""img/Fire_Up_Distractor.gif"",""img/Fire_Up_Distractor.gif"",""img/Fire_Up_Distractor.gif"",""img/Fire_Up_Distractor.gif"",""img/Fire_Up_Distractor.gif"",""img/Fire_Up_Distractor.gif"",""img/Fire_Up_Distractor.gif"",""img/Fire_Up_Distractor.gif"",""img/Fire_Up_Distractor.gif""]","5","targetDown_distractorsUp"
"","","","","","html-keyboard-response","26","1104539","0.0-14.0-0.0-0.6","5dc0353028cfb7479e1f7e8d","619531dcf66c91622fa1b861","619595d31bff77d8d77b04d7","null","","null","","","","","main_T1_ITI","","","","",""
"","","","","","visual-search-circle","27","1106380","0.0-14.0-0.0-1.6","5dc0353028cfb7479e1f7e8d","619531dcf66c91622fa1b861","619595d31bff77d8d77b04d7","826.1999999284744","","d","true","[[23,182],[182,576],[576,417],[417,23]]","true","4","main_T2_Trial","d","img/Fire_Down_Target.gif","[""img/Fire_Up_Distractor.gif"",""img/Fire_Up_Distractor.gif"",""img/Fire_Up_Distractor.gif"",""img/Fire_Up_Distractor.gif"",""img/Fire_Up_Distractor.gif"",""img/Fire_Up_Distractor.gif"",""img/Fire_Up_Distractor.gif"",""img/Fire_Up_Distractor.gif"",""img/Fire_Up_Distractor.gif"",""img/Fire_Up_Distractor.gif"",""img/Fire_Up_Distractor.gif"",""img/Fire_Up_Distractor.gif""]","4","targetDown_distractorsUp"
"","","","","","html-keyboard-response","28","1106382","0.0-14.0-0.0-0.7","5dc0353028cfb7479e1f7e8d","619531dcf66c91622fa1b861","619595d31bff77d8d77b04d7","null","","null","","","","","main_T1_ITI","","","","",""
"","","","","","visual-search-circle","29","1108960","0.0-14.0-0.0-1.7","5dc0353028cfb7479e1f7e8d","619531dcf66c91622fa1b861","619595d31bff77d8d77b04d7","1565.2999999523163","","s","true","[[522,500],[599,284],[500,77],[284,0],[77,99],[0,315],[99,522],[315,599]]","false","8","main_T2_Trial","s","img/Fire_Up_Target.gif","[""img/Fire_Down_Distractor.gif"",""img/Fire_Down_Distractor.gif"",""img/Fire_Down_Distractor.gif"",""img/Fire_Down_Distractor.gif"",""img/Fire_Down_Distractor.gif"",""img/Fire_Down_Distractor.gif"",""img/Fire_Down_Distractor.gif"",""img/Fire_Down_Distractor.gif"",""img/Fire_Down_Distractor.gif"",""img/Fire_Down_Distractor.gif"",""img/Fire_Down_Distractor.gif"",""img/Fire_Down_Distractor.gif""]","8","targetUp_distractorsDown"
"","","","","","html-keyboard-response","30","1108962","0.0-14.0-0.0-0.8","5dc0353028cfb7479e1f7e8d","619531dcf66c91622fa1b861","619595d31bff77d8d77b04d7","null","","null","","","","","main_T1_ITI","","","","",""
"","","","","","visual-search-circle","31","1111645","0.0-14.0-0.0-1.8","5dc0353028cfb7479e1f7e8d","619531dcf66c91622fa1b861","619595d31bff77d8d77b04d7","1672.1000000238419","","d","true","[[562,445],[445,37],[37,154],[154,562]]","true","4","main_T2_Trial","d","img/Fire_Down_Target.gif","[""img/Fire_Up_Distractor.gif"",""img/Fire_Up_Distractor.gif"",""img/Fire_Up_Distractor.gif"",""img/Fire_Up_Distractor.gif"",""img/Fire_Up_Distractor.gif"",""img/Fire_Up_Distractor.gif"",""img/Fire_Up_Distractor.gif"",""img/Fire_Up_Distractor.gif"",""img/Fire_Up_Distractor.gif"",""img/Fire_Up_Distractor.gif"",""img/Fire_Up_Distractor.gif"",""img/Fire_Up_Distractor.gif""]","4","targetDown_distractorsUp"
"","","","","","html-keyboard-response","32","1111648","0.0-14.0-0.0-0.9","5dc0353028cfb7479e1f7e8d","619531dcf66c91622fa1b861","619595d31bff77d8d77b04d7","null","","null","","","","","main_T1_ITI","","","","",""
"","","","","","visual-search-circle","33","1113343","0.0-14.0-0.0-1.9","5dc0353028cfb7479e1f7e8d","619531dcf66c91622fa1b861","619595d31bff77d8d77b04d7","674.8999999761581","","s","true","[[18,197],[70,492],[352,595],[581,402],[529,107],[247,4]]","false","6","main_T2_Trial","s","img/Fire_Down_Target.gif","[""img/Fire_Up_Distractor.gif"",""img/Fire_Up_Distractor.gif"",""img/Fire_Up_Distractor.gif"",""img/Fire_Up_Distractor.gif"",""img/Fire_Up_Distractor.gif"",""img/Fire_Up_Distractor.gif"",""img/Fire_Up_Distractor.gif"",""img/Fire_Up_Distractor.gif"",""img/Fire_Up_Distractor.gif"",""img/Fire_Up_Distractor.gif"",""img/Fire_Up_Distractor.gif"",""img/Fire_Up_Distractor.gif""]","6","targetDown_distractorsUp"
"","","","","","html-keyboard-response","34","1113345","0.0-14.0-0.0-0.10","5dc0353028cfb7479e1f7e8d","619531dcf66c91622fa1b861","619595d31bff77d8d77b04d7","null","","null","","","","","main_T1_ITI","","","","",""
"","","","","","visual-search-circle","35","1115164","0.0-14.0-0.0-1.10","5dc0353028cfb7479e1f7e8d","619531dcf66c91622fa1b861","619595d31bff77d8d77b04d7","811.8999999761581","","s","true","[[16,397],[242,594],[526,496],[583,202],[357,5],[73,103]]","false","6","main_T2_Trial","s","img/Fire_Down_Target.gif","[""img/Fire_Up_Distractor.gif"",""img/Fire_Up_Distractor.gif"",""img/Fire_Up_Distractor.gif"",""img/Fire_Up_Distractor.gif"",""img/Fire_Up_Distractor.gif"",""img/Fire_Up_Distractor.gif"",""img/Fire_Up_Distractor.gif"",""img/Fire_Up_Distractor.gif"",""img/Fire_Up_Distractor.gif"",""img/Fire_Up_Distractor.gif"",""img/Fire_Up_Distractor.gif"",""img/Fire_Up_Distractor.gif""]","6","targetDown_distractorsUp"
"","","","","","html-keyboard-response","36","1115166","0.0-14.0-0.0-0.11","5dc0353028cfb7479e1f7e8d","619531dcf66c91622fa1b861","619595d31bff77d8d77b04d7","null","","null","","","","","main_T1_ITI","","","","",""
"","","","","","visual-search-circle","37","1117780","0.0-14.0-0.0-1.11","5dc0353028cfb7479e1f7e8d","619531dcf66c91622fa1b861","619595d31bff77d8d77b04d7","1597.5","","s","true","[[45,141],[7,367],[141,554],[367,592],[554,458],[592,232],[458,45],[232,7]]","false","8","main_T2_Trial","s","img/Fire_Up_Target.gif","[""img/Fire_Down_Distractor.gif"",""img/Fire_Down_Distractor.gif"",""img/Fire_Down_Distractor.gif"",""img/Fire_Down_Distractor.gif"",""img/Fire_Down_Distractor.gif"",""img/Fire_Down_Distractor.gif"",""img/Fire_Down_Distractor.gif"",""img/Fire_Down_Distractor.gif"",""img/Fire_Down_Distractor.gif"",""img/Fire_Down_Distractor.gif"",""img/Fire_Down_Distractor.gif"",""img/Fire_Down_Distractor.gif""]","8","targetUp_distractorsDown"
"","","","","","html-keyboard-response","38","1117782","0.0-14.0-0.0-0.12","5dc0353028cfb7479e1f7e8d","619531dcf66c91622fa1b861","619595d31bff77d8d77b04d7","null","","null","","","","","main_T1_ITI","","","","",""
"","","","","","visual-search-circle","39","1119803","0.0-14.0-0.0-1.12","5dc0353028cfb7479e1f7e8d","619531dcf66c91622fa1b861","619595d31bff77d8d77b04d7","996.2999999523163","","d","true","[[192,580],[533,488],[551,136],[222,10],[0,284]]","true","5","main_T2_Trial","d","img/Fire_Down_Target.gif","[""img/Fire_Up_Distractor.gif"",""img/Fire_Up_Distractor.gif"",""img/Fire_Up_Distractor.gif"",""img/Fire_Up_Distractor.gif"",""img/Fire_Up_Distractor.gif"",""img/Fire_Up_Distractor.gif"",""img/Fire_Up_Distractor.gif"",""img/Fire_Up_Distractor.gif"",""img/Fire_Up_Distractor.gif"",""img/Fire_Up_Distractor.gif"",""img/Fire_Up_Distractor.gif"",""img/Fire_Up_Distractor.gif""]","5","targetDown_distractorsUp"
"","","","","","html-keyboard-response","40","1119805","0.0-14.0-0.0-0.13","5dc0353028cfb7479e1f7e8d","619531dcf66c91622fa1b861","619595d31bff77d8d77b04d7","null","","null","","","","","main_T1_ITI","","","","",""
"","","","","","visual-search-circle","41","1121465","0.0-14.0-0.0-1.13","5dc0353028cfb7479e1f7e8d","619531dcf66c91622fa1b861","619595d31bff77d8d77b04d7","652.8999999761581","","d","true","[[111,533],[533,488],[488,66],[66,111]]","true","4","main_T2_Trial","d","img/Fire_Down_Target.gif","[""img/Fire_Up_Distractor.gif"",""img/Fire_Up_Distractor.gif"",""img/Fire_Up_Distractor.gif"",""img/Fire_Up_Distractor.gif"",""img/Fire_Up_Distractor.gif"",""img/Fire_Up_Distractor.gif"",""img/Fire_Up_Distractor.gif"",""img/Fire_Up_Distractor.gif"",""img/Fire_Up_Distractor.gif"",""img/Fire_Up_Distractor.gif"",""img/Fire_Up_Distractor.gif"",""img/Fire_Up_Distractor.gif""]","4","targetDown_distractorsUp"
"","","","","","html-keyboard-response","42","1121467","0.0-14.0-0.0-0.14","5dc0353028cfb7479e1f7e8d","619531dcf66c91622fa1b861","619595d31bff77d8d77b04d7","null","","null","","","","","main_T1_ITI","","","","",""
"","","","","","visual-search-circle","43","1123399","0.0-14.0-0.0-1.14","5dc0353028cfb7479e1f7e8d","619531dcf66c91622fa1b861","619595d31bff77d8d77b04d7","917.8999999761581","","d","true","[[173,571],[433,568],[593,363],[532,110],[296,0],[63,115],[8,370]]","true","7","main_T2_Trial","d","img/Fire_Down_Target.gif","[""img/Fire_Up_Distractor.gif"",""img/Fire_Up_Distractor.gif"",""img/Fire_Up_Distractor.gif"",""img/Fire_Up_Distractor.gif"",""img/Fire_Up_Distractor.gif"",""img/Fire_Up_Distractor.gif"",""img/Fire_Up_Distractor.gif"",""img/Fire_Up_Distractor.gif"",""img/Fire_Up_Distractor.gif"",""img/Fire_Up_Distractor.gif"",""img/Fire_Up_Distractor.gif"",""img/Fire_Up_Distractor.gif""]","7","targetDown_distractorsUp"
"","","","","","html-keyboard-response","44","1123402","0.0-14.0-0.0-0.15","5dc0353028cfb7479e1f7e8d","619531dcf66c91622fa1b861","619595d31bff77d8d77b04d7","null","","null","","","","","main_T1_ITI","","","","",""
"","","","","","visual-search-circle","45","1125845","0.0-14.0-0.0-1.15","5dc0353028cfb7479e1f7e8d","619531dcf66c91622fa1b861","619595d31bff77d8d77b04d7","1420.8999999761581","","d","true","[[192,580],[533,488],[551,136],[222,10],[0,284]]","true","5","main_T2_Trial","d","img/Fire_Up_Target.gif","[""img/Fire_Down_Distractor.gif"",""img/Fire_Down_Distractor.gif"",""img/Fire_Down_Distractor.gif"",""img/Fire_Down_Distractor.gif"",""img/Fire_Down_Distractor.gif"",""img/Fire_Down_Distractor.gif"",""img/Fire_Down_Distractor.gif"",""img/Fire_Down_Distractor.gif"",""img/Fire_Down_Distractor.gif"",""img/Fire_Down_Distractor.gif"",""img/Fire_Down_Distractor.gif"",""img/Fire_Down_Distractor.gif""]","5","targetUp_distractorsDown"
"","","","","","html-keyboard-response","46","1125852","0.0-14.0-0.0-0.16","5dc0353028cfb7479e1f7e8d","619531dcf66c91622fa1b861","619595d31bff77d8d77b04d7","null","","null","","","","","main_T1_ITI","","","","",""
"","","","","","visual-search-circle","47","1127636","0.0-14.0-0.0-1.16","5dc0353028cfb7479e1f7e8d","619531dcf66c91622fa1b861","619595d31bff77d8d77b04d7","774.8000000715256","","s","true","[[149,559],[559,450],[449,40],[40,150]]","false","4","main_T2_Trial","s","img/Fire_Down_Target.gif","[""img/Fire_Up_Distractor.gif"",""img/Fire_Up_Distractor.gif"",""img/Fire_Up_Distractor.gif"",""img/Fire_Up_Distractor.gif"",""img/Fire_Up_Distractor.gif"",""img/Fire_Up_Distractor.gif"",""img/Fire_Up_Distractor.gif"",""img/Fire_Up_Distractor.gif"",""img/Fire_Up_Distractor.gif"",""img/Fire_Up_Distractor.gif"",""img/Fire_Up_Distractor.gif"",""img/Fire_Up_Distractor.gif""]","4","targetDown_distractorsUp"
"","","","","","html-keyboard-response","48","1127638","0.0-14.0-0.0-0.17","5dc0353028cfb7479e1f7e8d","619531dcf66c91622fa1b861","619595d31bff77d8d77b04d7","null","","null","","","","","main_T1_ITI","","","","",""
"","","","","","visual-search-circle","49","1129315","0.0-14.0-0.0-1.17","5dc0353028cfb7479e1f7e8d","619531dcf66c91622fa1b861","619595d31bff77d8d77b04d7","661.6999999284744","","s","true","[[30,431],[202,583],[431,569],[583,397],[569,168],[397,16],[168,30],[16,202]]","false","8","main_T2_Trial","s","img/Fire_Up_Target.gif","[""img/Fire_Down_Distractor.gif"",""img/Fire_Down_Distractor.gif"",""img/Fire_Down_Distractor.gif"",""img/Fire_Down_Distractor.gif"",""img/Fire_Down_Distractor.gif"",""img/Fire_Down_Distractor.gif"",""img/Fire_Down_Distractor.gif"",""img/Fire_Down_Distractor.gif"",""img/Fire_Down_Distractor.gif"",""img/Fire_Down_Distractor.gif"",""img/Fire_Down_Distractor.gif"",""img/Fire_Down_Distractor.gif""]","8","targetUp_distractorsDown"
"","","","","","html-keyboard-response","50","1129317","0.0-14.0-0.0-0.18","5dc0353028cfb7479e1f7e8d","619531dcf66c91622fa1b861","619595d31bff77d8d77b04d7","null","","null","","","","","main_T1_ITI","","","","",""
"","","","","","visual-search-circle","51","1131020","0.0-14.0-0.0-1.18","5dc0353028cfb7479e1f7e8d","619531dcf66c91622fa1b861","619595d31bff77d8d77b04d7","679.1000000238419","","d","true","[[202,16],[17,199],[45,458],[264,597],[511,513],[598,267],[460,46]]","true","7","main_T2_Trial","d","img/Fire_Down_Target.gif","[""img/Fire_Up_Distractor.gif"",""img/Fire_Up_Distractor.gif"",""img/Fire_Up_Distractor.gif"",""img/Fire_Up_Distractor.gif"",""img/Fire_Up_Distractor.gif"",""img/Fire_Up_Distractor.gif"",""img/Fire_Up_Distractor.gif"",""img/Fire_Up_Distractor.gif"",""img/Fire_Up_Distractor.gif"",""img/Fire_Up_Distractor.gif"",""img/Fire_Up_Distractor.gif"",""img/Fire_Up_Distractor.gif""]","7","targetDown_distractorsUp"
"","","","","","html-keyboard-response","52","1133552","0.0-14.0-0.0-0.19","5dc0353028cfb7479e1f7e8d","619531dcf66c91622fa1b861","619595d31bff77d8d77b04d7","2531.7999999523163","Wow! You've completed 20 out of 160 trials! </p> <p>  </p><p> Take a quick break, then press any key when you're ready to continue."," ","","","","","main_T1_ITI","","","","",""
"","","","","","visual-search-circle","53","1135876","0.0-14.0-0.0-1.19","5dc0353028cfb7479e1f7e8d","619531dcf66c91622fa1b861","619595d31bff77d8d77b04d7","1304.7000000476837","","s","true","[[66,488],[302,599],[535,485],[591,231],[428,28],[167,30],[7,235]]","false","7","main_T2_Trial","s","img/Fire_Up_Target.gif","[""img/Fire_Down_Distractor.gif"",""img/Fire_Down_Distractor.gif"",""img/Fire_Down_Distractor.gif"",""img/Fire_Down_Distractor.gif"",""img/Fire_Down_Distractor.gif"",""img/Fire_Down_Distractor.gif"",""img/Fire_Down_Distractor.gif"",""img/Fire_Down_Distractor.gif"",""img/Fire_Down_Distractor.gif"",""img/Fire_Down_Distractor.gif"",""img/Fire_Down_Distractor.gif"",""img/Fire_Down_Distractor.gif""]","7","targetUp_distractorsDown"
"","","","","","html-keyboard-response","54","1135878","0.0-14.0-0.0-0.20","5dc0353028cfb7479e1f7e8d","619531dcf66c91622fa1b861","619595d31bff77d8d77b04d7","null","","null","","","","","main_T1_ITI","","","","",""
"","","","","","visual-search-circle","55","1137629","0.0-14.0-0.0-1.20","5dc0353028cfb7479e1f7e8d","619531dcf66c91622fa1b861","619595d31bff77d8d77b04d7","736.0999999046326","","s","true","[[232,7],[7,367],[367,592],[592,232]]","false","4","main_T2_Trial","s","img/Fire_Up_Target.gif","[""img/Fire_Down_Distractor.gif"",""img/Fire_Down_Distractor.gif"",""img/Fire_Down_Distractor.gif"",""img/Fire_Down_Distractor.gif"",""img/Fire_Down_Distractor.gif"",""img/Fire_Down_Distractor.gif"",""img/Fire_Down_Distractor.gif"",""img/Fire_Down_Distractor.gif"",""img/Fire_Down_Distractor.gif"",""img/Fire_Down_Distractor.gif"",""img/Fire_Down_Distractor.gif"",""img/Fire_Down_Distractor.gif""]","4","targetUp_distractorsDown"
"","","","","","html-keyboard-response","56","1137632","0.0-14.0-0.0-0.21","5dc0353028cfb7479e1f7e8d","619531dcf66c91622fa1b861","619595d31bff77d8d77b04d7","null","","null","","","","","main_T1_ITI","","","","",""
"","","","","","visual-search-circle","57","1139414","0.0-14.0-0.0-1.21","5dc0353028cfb7479e1f7e8d","619531dcf66c91622fa1b861","619595d31bff77d8d77b04d7","769.8999999761581","","s","true","[[458,45],[45,141],[141,554],[554,458]]","false","4","main_T2_Trial","s","img/Fire_Up_Target.gif","[""img/Fire_Down_Distractor.gif"",""img/Fire_Down_Distractor.gif"",""img/Fire_Down_Distractor.gif"",""img/Fire_Down_Distractor.gif"",""img/Fire_Down_Distractor.gif"",""img/Fire_Down_Distractor.gif"",""img/Fire_Down_Distractor.gif"",""img/Fire_Down_Distractor.gif"",""img/Fire_Down_Distractor.gif"",""img/Fire_Down_Distractor.gif"",""img/Fire_Down_Distractor.gif"",""img/Fire_Down_Distractor.gif""]","4","targetUp_distractorsDown"
"","","","","","html-keyboard-response","58","1139416","0.0-14.0-0.0-0.22","5dc0353028cfb7479e1f7e8d","619531dcf66c91622fa1b861","619595d31bff77d8d77b04d7","null","","null","","","","","main_T1_ITI","","","","",""
"","","","","","visual-search-circle","59","1141210","0.0-14.0-0.0-1.22","5dc0353028cfb7479e1f7e8d","619531dcf66c91622fa1b861","619595d31bff77d8d77b04d7","775.7000000476837","","s","true","[[87,512],[377,589],[589,377],[512,87],[222,10],[10,222]]","false","6","main_T2_Trial","s","img/Fire_Down_Target.gif","[""img/Fire_Up_Distractor.gif"",""img/Fire_Up_Distractor.gif"",""img/Fire_Up_Distractor.gif"",""img/Fire_Up_Distractor.gif"",""img/Fire_Up_Distractor.gif"",""img/Fire_Up_Distractor.gif"",""img/Fire_Up_Distractor.gif"",""img/Fire_Up_Distractor.gif"",""img/Fire_Up_Distractor.gif"",""img/Fire_Up_Distractor.gif"",""img/Fire_Up_Distractor.gif"",""img/Fire_Up_Distractor.gif""]","6","targetDown_distractorsUp"
"","","","","","html-keyboard-response","60","1141212","0.0-14.0-0.0-0.23","5dc0353028cfb7479e1f7e8d","619531dcf66c91622fa1b861","619595d31bff77d8d77b04d7","null","","null","","","","","main_T1_ITI","","","","",""
"","","","","","visual-search-circle","61","1142700","0.0-14.0-0.0-1.23","5dc0353028cfb7479e1f7e8d","619531dcf66c91622fa1b861","619595d31bff77d8d77b04d7","480","","s","true","[[13,387],[294,599],[583,397],[480,60],[127,54]]","false","5","main_T2_Trial","s","img/Fire_Down_Target.gif","[""img/Fire_Up_Distractor.gif"",""img/Fire_Up_Distractor.gif"",""img/Fire_Up_Distractor.gif"",""img/Fire_Up_Distractor.gif"",""img/Fire_Up_Distractor.gif"",""img/Fire_Up_Distractor.gif"",""img/Fire_Up_Distractor.gif"",""img/Fire_Up_Distractor.gif"",""img/Fire_Up_Distractor.gif"",""img/Fire_Up_Distractor.gif"",""img/Fire_Up_Distractor.gif"",""img/Fire_Up_Distractor.gif""]","5","targetDown_distractorsUp"
"","","","","","html-keyboard-response","62","1142702","0.0-14.0-0.0-0.24","5dc0353028cfb7479e1f7e8d","619531dcf66c91622fa1b861","619595d31bff77d8d77b04d7","null","","null","","","","","main_T1_ITI","","","","",""
"","","","","","visual-search-circle","63","1144324","0.0-14.0-0.0-1.24","5dc0353028cfb7479e1f7e8d","619531dcf66c91622fa1b861","619595d31bff77d8d77b04d7","606.7999999523163","","d","true","[[222,10],[10,222],[87,512],[377,589],[589,377],[512,87]]","true","6","main_T2_Trial","d","img/Fire_Down_Target.gif","[""img/Fire_Up_Distractor.gif"",""img/Fire_Up_Distractor.gif"",""img/Fire_Up_Distractor.gif"",""img/Fire_Up_Distractor.gif"",""img/Fire_Up_Distractor.gif"",""img/Fire_Up_Distractor.gif"",""img/Fire_Up_Distractor.gif"",""img/Fire_Up_Distractor.gif"",""img/Fire_Up_Distractor.gif"",""img/Fire_Up_Distractor.gif"",""img/Fire_Up_Distractor.gif"",""img/Fire_Up_Distractor.gif""]","6","targetDown_distractorsUp"
"","","","","","html-keyboard-response","64","1144326","0.0-14.0-0.0-0.25","5dc0353028cfb7479e1f7e8d","619531dcf66c91622fa1b861","619595d31bff77d8d77b04d7","null","","null","","","","","main_T1_ITI","","","","",""
"","","","","","visual-search-circle","65","1146387","0.0-14.0-0.0-1.25","5dc0353028cfb7479e1f7e8d","619531dcf66c91622fa1b861","619595d31bff77d8d77b04d7","1043.3000000715256","","d","true","[[593,237],[237,6],[6,362],[362,593]]","true","4","main_T2_Trial","d","img/Fire_Up_Target.gif","[""img/Fire_Down_Distractor.gif"",""img/Fire_Down_Distractor.gif"",""img/Fire_Down_Distractor.gif"",""img/Fire_Down_Distractor.gif"",""img/Fire_Down_Distractor.gif"",""img/Fire_Down_Distractor.gif"",""img/Fire_Down_Distractor.gif"",""img/Fire_Down_Distractor.gif"",""img/Fire_Down_Distractor.gif"",""img/Fire_Down_Distractor.gif"",""img/Fire_Down_Distractor.gif"",""img/Fire_Down_Distractor.gif""]","4","targetUp_distractorsDown"
"","","","","","html-keyboard-response","66","1146398","0.0-14.0-0.0-0.26","5dc0353028cfb7479e1f7e8d","619531dcf66c91622fa1b861","619595d31bff77d8d77b04d7","null","","null","","","","","main_T1_ITI","","","","",""
"","","","","","visual-search-circle","67","1148286","0.0-14.0-0.0-1.26","5dc0353028cfb7479e1f7e8d","619531dcf66c91622fa1b861","619595d31bff77d8d77b04d7","871.8999999761581","","d","true","[[557,145],[294,0],[37,154],[42,454],[305,599],[562,445]]","true","6","main_T2_Trial","d","img/Fire_Down_Target.gif","[""img/Fire_Up_Distractor.gif"",""img/Fire_Up_Distractor.gif"",""img/Fire_Up_Distractor.gif"",""img/Fire_Up_Distractor.gif"",""img/Fire_Up_Distractor.gif"",""img/Fire_Up_Distractor.gif"",""img/Fire_Up_Distractor.gif"",""img/Fire_Up_Distractor.gif"",""img/Fire_Up_Distractor.gif"",""img/Fire_Up_Distractor.gif"",""img/Fire_Up_Distractor.gif"",""img/Fire_Up_Distractor.gif""]","6","targetDown_distractorsUp"
"","","","","","html-keyboard-response","68","1148314","0.0-14.0-0.0-0.27","5dc0353028cfb7479e1f7e8d","619531dcf66c91622fa1b861","619595d31bff77d8d77b04d7","null","","null","","","","","main_T1_ITI","","","","",""
"","","","","","visual-search-circle","69","1150183","0.0-14.0-0.0-1.27","5dc0353028cfb7479e1f7e8d","619531dcf66c91622fa1b861","619595d31bff77d8d77b04d7","853.2999999523163","","s","true","[[458,45],[200,17],[16,201],[46,460],[267,598],[512,511],[598,265]]","false","7","main_T2_Trial","s","img/Fire_Up_Target.gif","[""img/Fire_Down_Distractor.gif"",""img/Fire_Down_Distractor.gif"",""img/Fire_Down_Distractor.gif"",""img/Fire_Down_Distractor.gif"",""img/Fire_Down_Distractor.gif"",""img/Fire_Down_Distractor.gif"",""img/Fire_Down_Distractor.gif"",""img/Fire_Down_Distractor.gif"",""img/Fire_Down_Distractor.gif"",""img/Fire_Down_Distractor.gif"",""img/Fire_Down_Distractor.gif"",""img/Fire_Down_Distractor.gif""]","7","targetUp_distractorsDown"
"","","","","","html-keyboard-response","70","1150186","0.0-14.0-0.0-0.28","5dc0353028cfb7479e1f7e8d","619531dcf66c91622fa1b861","619595d31bff77d8d77b04d7","null","","null","","","","","main_T1_ITI","","","","",""
"","","","","","visual-search-circle","71","1151852","0.0-14.0-0.0-1.28","5dc0353028cfb7479e1f7e8d","619531dcf66c91622fa1b861","619595d31bff77d8d77b04d7","659","","s","true","[[54,127],[28,426],[273,598],[545,472],[571,173],[326,1]]","false","6","main_T2_Trial","s","img/Fire_Up_Target.gif","[""img/Fire_Down_Distractor.gif"",""img/Fire_Down_Distractor.gif"",""img/Fire_Down_Distractor.gif"",""img/Fire_Down_Distractor.gif"",""img/Fire_Down_Distractor.gif"",""img/Fire_Down_Distractor.gif"",""img/Fire_Down_Distractor.gif"",""img/Fire_Down_Distractor.gif"",""img/Fire_Down_Distractor.gif"",""img/Fire_Down_Distractor.gif"",""img/Fire_Down_Distractor.gif"",""img/Fire_Down_Distractor.gif""]","6","targetUp_distractorsDown"
"","","","","","html-keyboard-response","72","1151854","0.0-14.0-0.0-0.29","5dc0353028cfb7479e1f7e8d","619531dcf66c91622fa1b861","619595d31bff77d8d77b04d7","null","","null","","","","","main_T1_ITI","","","","",""
"","","","","","visual-search-circle","73","1153579","0.0-14.0-0.0-1.29","5dc0353028cfb7479e1f7e8d","619531dcf66c91622fa1b861","619595d31bff77d8d77b04d7","717","","d","true","[[504,80],[212,13],[7,232],[95,519],[387,586],[592,367]]","true","6","main_T2_Trial","d","img/Fire_Down_Target.gif","[""img/Fire_Up_Distractor.gif"",""img/Fire_Up_Distractor.gif"",""img/Fire_Up_Distractor.gif"",""img/Fire_Up_Distractor.gif"",""img/Fire_Up_Distractor.gif"",""img/Fire_Up_Distractor.gif"",""img/Fire_Up_Distractor.gif"",""img/Fire_Up_Distractor.gif"",""img/Fire_Up_Distractor.gif"",""img/Fire_Up_Distractor.gif"",""img/Fire_Up_Distractor.gif"",""img/Fire_Up_Distractor.gif""]","6","targetDown_distractorsUp"
"","","","","","html-keyboard-response","74","1153580","0.0-14.0-0.0-0.30","5dc0353028cfb7479e1f7e8d","619531dcf66c91622fa1b861","619595d31bff77d8d77b04d7","null","","null","","","","","main_T1_ITI","","","","",""
"","","","","","visual-search-circle","75","1155681","0.0-14.0-0.0-1.30","5dc0353028cfb7479e1f7e8d","619531dcf66c91622fa1b861","619595d31bff77d8d77b04d7","1076.7000000476837","","d","true","[[467,548],[599,323],[505,81],[256,3],[40,148],[20,408],[210,586]]","true","7","main_T2_Trial","d","img/Fire_Up_Target.gif","[""img/Fire_Down_Distractor.gif"",""img/Fire_Down_Distractor.gif"",""img/Fire_Down_Distractor.gif"",""img/Fire_Down_Distractor.gif"",""img/Fire_Down_Distractor.gif"",""img/Fire_Down_Distractor.gif"",""img/Fire_Down_Distractor.gif"",""img/Fire_Down_Distractor.gif"",""img/Fire_Down_Distractor.gif"",""img/Fire_Down_Distractor.gif"",""img/Fire_Down_Distractor.gif"",""img/Fire_Down_Distractor.gif""]","7","targetUp_distractorsDown"
"","","","","","html-keyboard-response","76","1155686","0.0-14.0-0.0-0.31","5dc0353028cfb7479e1f7e8d","619531dcf66c91622fa1b861","619595d31bff77d8d77b04d7","null","","null","","","","","main_T1_ITI","","","","",""
"","","","","","visual-search-circle","77","1157376","0.0-14.0-0.0-1.31","5dc0353028cfb7479e1f7e8d","619531dcf66c91622fa1b861","619595d31bff77d8d77b04d7","662.5","","s","false","[[599,320],[526,103],[320,0],[103,73],[0,279],[73,496],[279,599],[496,526]]","true","8","main_T2_Trial","d","img/Fire_Down_Target.gif","[""img/Fire_Up_Distractor.gif"",""img/Fire_Up_Distractor.gif"",""img/Fire_Up_Distractor.gif"",""img/Fire_Up_Distractor.gif"",""img/Fire_Up_Distractor.gif"",""img/Fire_Up_Distractor.gif"",""img/Fire_Up_Distractor.gif"",""img/Fire_Up_Distractor.gif"",""img/Fire_Up_Distractor.gif"",""img/Fire_Up_Distractor.gif"",""img/Fire_Up_Distractor.gif"",""img/Fire_Up_Distractor.gif""]","8","targetDown_distractorsUp"
"","","","","","html-keyboard-response","78","1157378","0.0-14.0-0.0-0.32","5dc0353028cfb7479e1f7e8d","619531dcf66c91622fa1b861","619595d31bff77d8d77b04d7","null","","null","","","","","main_T1_ITI","","","","",""
"","","","","","visual-search-circle","79","1159090","0.0-14.0-0.0-1.32","5dc0353028cfb7479e1f7e8d","619531dcf66c91622fa1b861","619595d31bff77d8d77b04d7","697.0999999046326","","s","true","[[557,145],[294,0],[37,154],[42,454],[305,599],[562,445]]","false","6","main_T2_Trial","s","img/Fire_Up_Target.gif","[""img/Fire_Down_Distractor.gif"",""img/Fire_Down_Distractor.gif"",""img/Fire_Down_Distractor.gif"",""img/Fire_Down_Distractor.gif"",""img/Fire_Down_Distractor.gif"",""img/Fire_Down_Distractor.gif"",""img/Fire_Down_Distractor.gif"",""img/Fire_Down_Distractor.gif"",""img/Fire_Down_Distractor.gif"",""img/Fire_Down_Distractor.gif"",""img/Fire_Down_Distractor.gif"",""img/Fire_Down_Distractor.gif""]","6","targetUp_distractorsDown"
"","","","","","html-keyboard-response","80","1159091","0.0-14.0-0.0-0.33","5dc0353028cfb7479e1f7e8d","619531dcf66c91622fa1b861","619595d31bff77d8d77b04d7","null","","null","","","","","main_T1_ITI","","","","",""
"","","","","","visual-search-circle","81","1160874","0.0-14.0-0.0-1.33","5dc0353028cfb7479e1f7e8d","619531dcf66c91622fa1b861","619595d31bff77d8d77b04d7","770.7000000476837","","s","true","[[40,450],[362,593],[598,331],[422,25],[77,99]]","false","5","main_T2_Trial","s","img/Fire_Up_Target.gif","[""img/Fire_Down_Distractor.gif"",""img/Fire_Down_Distractor.gif"",""img/Fire_Down_Distractor.gif"",""img/Fire_Down_Distractor.gif"",""img/Fire_Down_Distractor.gif"",""img/Fire_Down_Distractor.gif"",""img/Fire_Down_Distractor.gif"",""img/Fire_Down_Distractor.gif"",""img/Fire_Down_Distractor.gif"",""img/Fire_Down_Distractor.gif"",""img/Fire_Down_Distractor.gif"",""img/Fire_Down_Distractor.gif""]","5","targetUp_distractorsDown"
"","","","","","html-keyboard-response","82","1160875","0.0-14.0-0.0-0.34","5dc0353028cfb7479e1f7e8d","619531dcf66c91622fa1b861","619595d31bff77d8d77b04d7","null","","null","","","","","main_T1_ITI","","","","",""
"","","","","","visual-search-circle","83","1162433","0.0-14.0-0.0-1.34","5dc0353028cfb7479e1f7e8d","619531dcf66c91622fa1b861","619595d31bff77d8d77b04d7","555.1999999284744","","s","true","[[207,585],[542,476],[542,123],[207,14],[0,299]]","false","5","main_T2_Trial","s","img/Fire_Up_Target.gif","[""img/Fire_Down_Distractor.gif"",""img/Fire_Down_Distractor.gif"",""img/Fire_Down_Distractor.gif"",""img/Fire_Down_Distractor.gif"",""img/Fire_Down_Distractor.gif"",""img/Fire_Down_Distractor.gif"",""img/Fire_Down_Distractor.gif"",""img/Fire_Down_Distractor.gif"",""img/Fire_Down_Distractor.gif"",""img/Fire_Down_Distractor.gif"",""img/Fire_Down_Distractor.gif"",""img/Fire_Down_Distractor.gif""]","5","targetUp_distractorsDown"
"","","","","","html-keyboard-response","84","1162435","0.0-14.0-0.0-0.35","5dc0353028cfb7479e1f7e8d","619531dcf66c91622fa1b861","619595d31bff77d8d77b04d7","null","","null","","","","","main_T1_ITI","","","","",""
"","","","","","visual-search-circle","85","1164361","0.0-14.0-0.0-1.35","5dc0353028cfb7479e1f7e8d","619531dcf66c91622fa1b861","619595d31bff77d8d77b04d7","907.3999999761581","","s","false","[[515,91],[271,1],[48,135],[15,394],[195,581],[455,556],[597,338]]","true","7","main_T2_Trial","d","img/Fire_Up_Target.gif","[""img/Fire_Down_Distractor.gif"",""img/Fire_Down_Distractor.gif"",""img/Fire_Down_Distractor.gif"",""img/Fire_Down_Distractor.gif"",""img/Fire_Down_Distractor.gif"",""img/Fire_Down_Distractor.gif"",""img/Fire_Down_Distractor.gif"",""img/Fire_Down_Distractor.gif"",""img/Fire_Down_Distractor.gif"",""img/Fire_Down_Distractor.gif"",""img/Fire_Down_Distractor.gif"",""img/Fire_Down_Distractor.gif""]","7","targetUp_distractorsDown"
"","","","","","html-keyboard-response","86","1164364","0.0-14.0-0.0-0.36","5dc0353028cfb7479e1f7e8d","619531dcf66c91622fa1b861","619595d31bff77d8d77b04d7","null","","null","","","","","main_T1_ITI","","","","",""
"","","","","","visual-search-circle","87","1166117","0.0-14.0-0.0-1.36","5dc0353028cfb7479e1f7e8d","619531dcf66c91622fa1b861","619595d31bff77d8d77b04d7","741.3999999761581","","d","true","[[484,536],[599,302],[489,67],[236,6],[31,167],[28,427],[230,591]]","true","7","main_T2_Trial","d","img/Fire_Up_Target.gif","[""img/Fire_Down_Distractor.gif"",""img/Fire_Down_Distractor.gif"",""img/Fire_Down_Distractor.gif"",""img/Fire_Down_Distractor.gif"",""img/Fire_Down_Distractor.gif"",""img/Fire_Down_Distractor.gif"",""img/Fire_Down_Distractor.gif"",""img/Fire_Down_Distractor.gif"",""img/Fire_Down_Distractor.gif"",""img/Fire_Down_Distractor.gif"",""img/Fire_Down_Distractor.gif"",""img/Fire_Down_Distractor.gif""]","7","targetUp_distractorsDown"
"","","","","","html-keyboard-response","88","1166126","0.0-14.0-0.0-0.37","5dc0353028cfb7479e1f7e8d","619531dcf66c91622fa1b861","619595d31bff77d8d77b04d7","null","","null","","","","","main_T1_ITI","","","","",""
"","","","","","visual-search-circle","89","1167924","0.0-14.0-0.0-1.37","5dc0353028cfb7479e1f7e8d","619531dcf66c91622fa1b861","619595d31bff77d8d77b04d7","779.8999999761581","","d","true","[[599,315],[522,99],[315,0],[99,77],[0,284],[77,500],[284,599],[500,522]]","true","8","main_T2_Trial","d","img/Fire_Up_Target.gif","[""img/Fire_Down_Distractor.gif"",""img/Fire_Down_Distractor.gif"",""img/Fire_Down_Distractor.gif"",""img/Fire_Down_Distractor.gif"",""img/Fire_Down_Distractor.gif"",""img/Fire_Down_Distractor.gif"",""img/Fire_Down_Distractor.gif"",""img/Fire_Down_Distractor.gif"",""img/Fire_Down_Distractor.gif"",""img/Fire_Down_Distractor.gif"",""img/Fire_Down_Distractor.gif"",""img/Fire_Down_Distractor.gif""]","8","targetUp_distractorsDown"
"","","","","","html-keyboard-response","90","1167926","0.0-14.0-0.0-0.38","5dc0353028cfb7479e1f7e8d","619531dcf66c91622fa1b861","619595d31bff77d8d77b04d7","null","","null","","","","","main_T1_ITI","","","","",""
"","","","","","visual-search-circle","91","1169644","0.0-14.0-0.0-1.38","5dc0353028cfb7479e1f7e8d","619531dcf66c91622fa1b861","619595d31bff77d8d77b04d7","710.5","","s","true","[[294,0],[62,117],[8,371],[174,572],[434,567],[593,361],[531,108]]","false","7","main_T2_Trial","s","img/Fire_Up_Target.gif","[""img/Fire_Down_Distractor.gif"",""img/Fire_Down_Distractor.gif"",""img/Fire_Down_Distractor.gif"",""img/Fire_Down_Distractor.gif"",""img/Fire_Down_Distractor.gif"",""img/Fire_Down_Distractor.gif"",""img/Fire_Down_Distractor.gif"",""img/Fire_Down_Distractor.gif"",""img/Fire_Down_Distractor.gif"",""img/Fire_Down_Distractor.gif"",""img/Fire_Down_Distractor.gif"",""img/Fire_Down_Distractor.gif""]","7","targetUp_distractorsDown"
"","","","","","html-keyboard-response","92","1170881","0.0-14.0-0.0-0.39","5dc0353028cfb7479e1f7e8d","619531dcf66c91622fa1b861","619595d31bff77d8d77b04d7","1236.8999999761581","Wow! You've completed 40 out of 160 trials! </p> <p>  </p><p> Take a quick break, then press any key when you're ready to continue."," ","","","","","main_T1_ITI","","","","",""
"","","","","","visual-search-circle","93","1173210","0.0-14.0-0.0-1.39","5dc0353028cfb7479e1f7e8d","619531dcf66c91622fa1b861","619595d31bff77d8d77b04d7","1315.3999999761581","","d","true","[[596,346],[346,3],[3,253],[253,596]]","true","4","main_T2_Trial","d","img/Fire_Down_Target.gif","[""img/Fire_Up_Distractor.gif"",""img/Fire_Up_Distractor.gif"",""img/Fire_Up_Distractor.gif"",""img/Fire_Up_Distractor.gif"",""img/Fire_Up_Distractor.gif"",""img/Fire_Up_Distractor.gif"",""img/Fire_Up_Distractor.gif"",""img/Fire_Up_Distractor.gif"",""img/Fire_Up_Distractor.gif"",""img/Fire_Up_Distractor.gif"",""img/Fire_Up_Distractor.gif"",""img/Fire_Up_Distractor.gif""]","4","targetDown_distractorsUp"
"","","","","","html-keyboard-response","94","1173215","0.0-14.0-0.0-0.40","5dc0353028cfb7479e1f7e8d","619531dcf66c91622fa1b861","619595d31bff77d8d77b04d7","null","","null","","","","","main_T1_ITI","","","","",""
"","","","","","visual-search-circle","95","1175154","0.0-14.0-0.0-1.40","5dc0353028cfb7479e1f7e8d","619531dcf66c91622fa1b861","619595d31bff77d8d77b04d7","924.7000000476837","","d","true","[[70,107],[45,458],[372,591],[599,320],[412,21]]","true","5","main_T2_Trial","d","img/Fire_Up_Target.gif","[""img/Fire_Down_Distractor.gif"",""img/Fire_Down_Distractor.gif"",""img/Fire_Down_Distractor.gif"",""img/Fire_Down_Distractor.gif"",""img/Fire_Down_Distractor.gif"",""img/Fire_Down_Distractor.gif"",""img/Fire_Down_Distractor.gif"",""img/Fire_Down_Distractor.gif"",""img/Fire_Down_Distractor.gif"",""img/Fire_Down_Distractor.gif"",""img/Fire_Down_Distractor.gif"",""img/Fire_Down_Distractor.gif""]","5","targetUp_distractorsDown"
"","","","","","html-keyboard-response","96","1175156","0.0-14.0-0.0-0.41","5dc0353028cfb7479e1f7e8d","619531dcf66c91622fa1b861","619595d31bff77d8d77b04d7","null","","null","","","","","main_T1_ITI","","","","",""
"","","","","","visual-search-circle","97","1176957","0.0-14.0-0.0-1.41","5dc0353028cfb7479e1f7e8d","619531dcf66c91622fa1b861","619595d31bff77d8d77b04d7","795.3999999761581","","d","true","[[1,268],[89,513],[335,597],[555,457],[582,198],[396,16],[138,47]]","true","7","main_T2_Trial","d","img/Fire_Down_Target.gif","[""img/Fire_Up_Distractor.gif"",""img/Fire_Up_Distractor.gif"",""img/Fire_Up_Distractor.gif"",""img/Fire_Up_Distractor.gif"",""img/Fire_Up_Distractor.gif"",""img/Fire_Up_Distractor.gif"",""img/Fire_Up_Distractor.gif"",""img/Fire_Up_Distractor.gif"",""img/Fire_Up_Distractor.gif"",""img/Fire_Up_Distractor.gif"",""img/Fire_Up_Distractor.gif"",""img/Fire_Up_Distractor.gif""]","7","targetDown_distractorsUp"
"","","","","","html-keyboard-response","98","1176959","0.0-14.0-0.0-0.42","5dc0353028cfb7479e1f7e8d","619531dcf66c91622fa1b861","619595d31bff77d8d77b04d7","null","","null","","","","","main_T1_ITI","","","","",""
"","","","","","visual-search-circle","99","1178829","0.0-14.0-0.0-1.42","5dc0353028cfb7479e1f7e8d","619531dcf66c91622fa1b861","619595d31bff77d8d77b04d7","841.2999999523163","","s","true","[[123,57],[0,286],[102,525],[353,595],[564,442],[575,182],[379,10]]","false","7","main_T2_Trial","s","img/Fire_Up_Target.gif","[""img/Fire_Down_Distractor.gif"",""img/Fire_Down_Distractor.gif"",""img/Fire_Down_Distractor.gif"",""img/Fire_Down_Distractor.gif"",""img/Fire_Down_Distractor.gif"",""img/Fire_Down_Distractor.gif"",""img/Fire_Down_Distractor.gif"",""img/Fire_Down_Distractor.gif"",""img/Fire_Down_Distractor.gif"",""img/Fire_Down_Distractor.gif"",""img/Fire_Down_Distractor.gif"",""img/Fire_Down_Distractor.gif""]","7","targetUp_distractorsDown"
"","","","","","html-keyboard-response","100","1178831","0.0-14.0-0.0-0.43","5dc0353028cfb7479e1f7e8d","619531dcf66c91622fa1b861","619595d31bff77d8d77b04d7","null","","null","","","","","main_T1_ITI","","","","",""
"","","","","","visual-search-circle","101","1180446","0.0-14.0-0.0-1.43","5dc0353028cfb7479e1f7e8d","619531dcf66c91622fa1b861","619595d31bff77d8d77b04d7","607.3999999761581","","s","true","[[99,522],[392,585],[593,362],[500,77],[207,14],[6,237]]","false","6","main_T2_Trial","s","img/Fire_Up_Target.gif","[""img/Fire_Down_Distractor.gif"",""img/Fire_Down_Distractor.gif"",""img/Fire_Down_Distractor.gif"",""img/Fire_Down_Distractor.gif"",""img/Fire_Down_Distractor.gif"",""img/Fire_Down_Distractor.gif"",""img/Fire_Down_Distractor.gif"",""img/Fire_Down_Distractor.gif"",""img/Fire_Down_Distractor.gif"",""img/Fire_Down_Distractor.gif"",""img/Fire_Down_Distractor.gif"",""img/Fire_Down_Distractor.gif""]","6","targetUp_distractorsDown"
"","","","","","html-keyboard-response","102","1180448","0.0-14.0-0.0-0.44","5dc0353028cfb7479e1f7e8d","619531dcf66c91622fa1b861","619595d31bff77d8d77b04d7","null","","null","","","","","main_T1_ITI","","","","",""
"","","","","","visual-search-circle","103","1182316","0.0-14.0-0.0-1.44","5dc0353028cfb7479e1f7e8d","619531dcf66c91622fa1b861","619595d31bff77d8d77b04d7","856","","s","true","[[145,557],[404,581],[585,393],[550,135],[327,1],[83,92],[2,339]]","false","7","main_T2_Trial","s","img/Fire_Up_Target.gif","[""img/Fire_Down_Distractor.gif"",""img/Fire_Down_Distractor.gif"",""img/Fire_Down_Distractor.gif"",""img/Fire_Down_Distractor.gif"",""img/Fire_Down_Distractor.gif"",""img/Fire_Down_Distractor.gif"",""img/Fire_Down_Distractor.gif"",""img/Fire_Down_Distractor.gif"",""img/Fire_Down_Distractor.gif"",""img/Fire_Down_Distractor.gif"",""img/Fire_Down_Distractor.gif"",""img/Fire_Down_Distractor.gif""]","7","targetUp_distractorsDown"
"","","","","","html-keyboard-response","104","1182318","0.0-14.0-0.0-0.45","5dc0353028cfb7479e1f7e8d","619531dcf66c91622fa1b861","619595d31bff77d8d77b04d7","null","","null","","","","","main_T1_ITI","","","","",""
"","","","","","visual-search-circle","105","1183953","0.0-14.0-0.0-1.45","5dc0353028cfb7479e1f7e8d","619531dcf66c91622fa1b861","619595d31bff77d8d77b04d7","620.3000000715256","","d","true","[[519,95],[310,0],[95,80],[0,289],[80,504],[289,599],[504,519],[599,310]]","true","8","main_T2_Trial","d","img/Fire_Up_Target.gif","[""img/Fire_Down_Distractor.gif"",""img/Fire_Down_Distractor.gif"",""img/Fire_Down_Distractor.gif"",""img/Fire_Down_Distractor.gif"",""img/Fire_Down_Distractor.gif"",""img/Fire_Down_Distractor.gif"",""img/Fire_Down_Distractor.gif"",""img/Fire_Down_Distractor.gif"",""img/Fire_Down_Distractor.gif"",""img/Fire_Down_Distractor.gif"",""img/Fire_Down_Distractor.gif"",""img/Fire_Down_Distractor.gif""]","8","targetUp_distractorsDown"
"","","","","","html-keyboard-response","106","1183956","0.0-14.0-0.0-0.46","5dc0353028cfb7479e1f7e8d","619531dcf66c91622fa1b861","619595d31bff77d8d77b04d7","null","","null","","","","","main_T1_ITI","","","","",""
"","","","","","visual-search-circle","107","1185828","0.0-14.0-0.0-1.46","5dc0353028cfb7479e1f7e8d","619531dcf66c91622fa1b861","619595d31bff77d8d77b04d7","854.1999999284744","","d","true","[[548,467],[594,242],[467,51],[242,5],[51,132],[5,357],[132,548],[357,594]]","true","8","main_T2_Trial","d","img/Fire_Down_Target.gif","[""img/Fire_Up_Distractor.gif"",""img/Fire_Up_Distractor.gif"",""img/Fire_Up_Distractor.gif"",""img/Fire_Up_Distractor.gif"",""img/Fire_Up_Distractor.gif"",""img/Fire_Up_Distractor.gif"",""img/Fire_Up_Distractor.gif"",""img/Fire_Up_Distractor.gif"",""img/Fire_Up_Distractor.gif"",""img/Fire_Up_Distractor.gif"",""img/Fire_Up_Distractor.gif"",""img/Fire_Up_Distractor.gif""]","8","targetDown_distractorsUp"
"","","","","","html-keyboard-response","108","1185831","0.0-14.0-0.0-0.47","5dc0353028cfb7479e1f7e8d","619531dcf66c91622fa1b861","619595d31bff77d8d77b04d7","null","","null","","","","","main_T1_ITI","","","","",""
"","","","","","visual-search-circle","109","1187766","0.0-14.0-0.0-1.47","5dc0353028cfb7479e1f7e8d","619531dcf66c91622fa1b861","619595d31bff77d8d77b04d7","925","","s","true","[[545,472],[539,119],[202,16],[0,305],[212,586]]","false","5","main_T2_Trial","s","img/Fire_Down_Target.gif","[""img/Fire_Up_Distractor.gif"",""img/Fire_Up_Distractor.gif"",""img/Fire_Up_Distractor.gif"",""img/Fire_Up_Distractor.gif"",""img/Fire_Up_Distractor.gif"",""img/Fire_Up_Distractor.gif"",""img/Fire_Up_Distractor.gif"",""img/Fire_Up_Distractor.gif"",""img/Fire_Up_Distractor.gif"",""img/Fire_Up_Distractor.gif"",""img/Fire_Up_Distractor.gif"",""img/Fire_Up_Distractor.gif""]","5","targetDown_distractorsUp"
"","","","","","html-keyboard-response","110","1187768","0.0-14.0-0.0-0.48","5dc0353028cfb7479e1f7e8d","619531dcf66c91622fa1b861","619595d31bff77d8d77b04d7","null","","null","","","","","main_T1_ITI","","","","",""
"","","","","","visual-search-circle","111","1189755","0.0-14.0-0.0-1.48","5dc0353028cfb7479e1f7e8d","619531dcf66c91622fa1b861","619595d31bff77d8d77b04d7","969.7999999523163","","d","true","[[30,431],[341,597],[595,352],[440,35],[91,84]]","true","5","main_T2_Trial","d","img/Fire_Up_Target.gif","[""img/Fire_Down_Distractor.gif"",""img/Fire_Down_Distractor.gif"",""img/Fire_Down_Distractor.gif"",""img/Fire_Down_Distractor.gif"",""img/Fire_Down_Distractor.gif"",""img/Fire_Down_Distractor.gif"",""img/Fire_Down_Distractor.gif"",""img/Fire_Down_Distractor.gif"",""img/Fire_Down_Distractor.gif"",""img/Fire_Down_Distractor.gif"",""img/Fire_Down_Distractor.gif"",""img/Fire_Down_Distractor.gif""]","5","targetUp_distractorsDown"
"","","","","","html-keyboard-response","112","1189757","0.0-14.0-0.0-0.49","5dc0353028cfb7479e1f7e8d","619531dcf66c91622fa1b861","619595d31bff77d8d77b04d7","null","","null","","","","","main_T1_ITI","","","","",""
"","","","","","visual-search-circle","113","1191666","0.0-14.0-0.0-1.49","5dc0353028cfb7479e1f7e8d","619531dcf66c91622fa1b861","619595d31bff77d8d77b04d7","890.6000000238419","","d","true","[[253,596],[476,542],[596,346],[542,123],[346,3],[123,57],[3,253],[57,476]]","true","8","main_T2_Trial","d","img/Fire_Down_Target.gif","[""img/Fire_Up_Distractor.gif"",""img/Fire_Up_Distractor.gif"",""img/Fire_Up_Distractor.gif"",""img/Fire_Up_Distractor.gif"",""img/Fire_Up_Distractor.gif"",""img/Fire_Up_Distractor.gif"",""img/Fire_Up_Distractor.gif"",""img/Fire_Up_Distractor.gif"",""img/Fire_Up_Distractor.gif"",""img/Fire_Up_Distractor.gif"",""img/Fire_Up_Distractor.gif"",""img/Fire_Up_Distractor.gif""]","8","targetDown_distractorsUp"
"","","","","","html-keyboard-response","114","1191669","0.0-14.0-0.0-0.50","5dc0353028cfb7479e1f7e8d","619531dcf66c91622fa1b861","619595d31bff77d8d77b04d7","null","","null","","","","","main_T1_ITI","","","","",""
"","","","","","visual-search-circle","115","1193427","0.0-14.0-0.0-1.50","5dc0353028cfb7479e1f7e8d","619531dcf66c91622fa1b861","619595d31bff77d8d77b04d7","743.2999999523163","","d","true","[[536,115],[336,2],[115,63],[2,263],[63,484],[263,597],[484,536],[597,336]]","true","8","main_T2_Trial","d","img/Fire_Down_Target.gif","[""img/Fire_Up_Distractor.gif"",""img/Fire_Up_Distractor.gif"",""img/Fire_Up_Distractor.gif"",""img/Fire_Up_Distractor.gif"",""img/Fire_Up_Distractor.gif"",""img/Fire_Up_Distractor.gif"",""img/Fire_Up_Distractor.gif"",""img/Fire_Up_Distractor.gif"",""img/Fire_Up_Distractor.gif"",""img/Fire_Up_Distractor.gif"",""img/Fire_Up_Distractor.gif"",""img/Fire_Up_Distractor.gif""]","8","targetDown_distractorsUp"
"","","","","","html-keyboard-response","116","1193429","0.0-14.0-0.0-0.51","5dc0353028cfb7479e1f7e8d","619531dcf66c91622fa1b861","619595d31bff77d8d77b04d7","null","","null","","","","","main_T1_ITI","","","","",""
"","","","","","visual-search-circle","117","1195452","0.0-14.0-0.0-1.51","5dc0353028cfb7479e1f7e8d","619531dcf66c91622fa1b861","619595d31bff77d8d77b04d7","1010.3999999761581","","s","true","[[294,599],[557,454],[562,154],[305,0],[42,145],[37,445]]","false","6","main_T2_Trial","s","img/Fire_Up_Target.gif","[""img/Fire_Down_Distractor.gif"",""img/Fire_Down_Distractor.gif"",""img/Fire_Down_Distractor.gif"",""img/Fire_Down_Distractor.gif"",""img/Fire_Down_Distractor.gif"",""img/Fire_Down_Distractor.gif"",""img/Fire_Down_Distractor.gif"",""img/Fire_Down_Distractor.gif"",""img/Fire_Down_Distractor.gif"",""img/Fire_Down_Distractor.gif"",""img/Fire_Down_Distractor.gif"",""img/Fire_Down_Distractor.gif""]","6","targetUp_distractorsDown"
"","","","","","html-keyboard-response","118","1195453","0.0-14.0-0.0-0.52","5dc0353028cfb7479e1f7e8d","619531dcf66c91622fa1b861","619595d31bff77d8d77b04d7","null","","null","","","","","main_T1_ITI","","","","",""
"","","","","","visual-search-circle","119","1197159","0.0-14.0-0.0-1.52","5dc0353028cfb7479e1f7e8d","619531dcf66c91622fa1b861","619595d31bff77d8d77b04d7","695.8999999761581","","s","true","[[136,48],[1,270],[91,515],[338,597],[556,455],[581,196],[394,15]]","false","7","main_T2_Trial","s","img/Fire_Up_Target.gif","[""img/Fire_Down_Distractor.gif"",""img/Fire_Down_Distractor.gif"",""img/Fire_Down_Distractor.gif"",""img/Fire_Down_Distractor.gif"",""img/Fire_Down_Distractor.gif"",""img/Fire_Down_Distractor.gif"",""img/Fire_Down_Distractor.gif"",""img/Fire_Down_Distractor.gif"",""img/Fire_Down_Distractor.gif"",""img/Fire_Down_Distractor.gif"",""img/Fire_Down_Distractor.gif"",""img/Fire_Down_Distractor.gif""]","7","targetUp_distractorsDown"
"","","","","","html-keyboard-response","120","1197161","0.0-14.0-0.0-0.53","5dc0353028cfb7479e1f7e8d","619531dcf66c91622fa1b861","619595d31bff77d8d77b04d7","null","","null","","","","","main_T1_ITI","","","","",""
"","","","","","visual-search-circle","121","1198976","0.0-14.0-0.0-1.53","5dc0353028cfb7479e1f7e8d","619531dcf66c91622fa1b861","619595d31bff77d8d77b04d7","809.1000000238419","","s","true","[[504,519],[519,95],[95,80],[80,504]]","false","4","main_T2_Trial","s","img/Fire_Down_Target.gif","[""img/Fire_Up_Distractor.gif"",""img/Fire_Up_Distractor.gif"",""img/Fire_Up_Distractor.gif"",""img/Fire_Up_Distractor.gif"",""img/Fire_Up_Distractor.gif"",""img/Fire_Up_Distractor.gif"",""img/Fire_Up_Distractor.gif"",""img/Fire_Up_Distractor.gif"",""img/Fire_Up_Distractor.gif"",""img/Fire_Up_Distractor.gif"",""img/Fire_Up_Distractor.gif"",""img/Fire_Up_Distractor.gif""]","4","targetDown_distractorsUp"
"","","","","","html-keyboard-response","122","1198978","0.0-14.0-0.0-0.54","5dc0353028cfb7479e1f7e8d","619531dcf66c91622fa1b861","619595d31bff77d8d77b04d7","null","","null","","","","","main_T1_ITI","","","","",""
"","","","","","visual-search-circle","123","1200832","0.0-14.0-0.0-1.54","5dc0353028cfb7479e1f7e8d","619531dcf66c91622fa1b861","619595d31bff77d8d77b04d7","842","","d","true","[[596,253],[407,19],[111,66],[3,346],[192,580],[488,533]]","true","6","main_T2_Trial","d","img/Fire_Up_Target.gif","[""img/Fire_Down_Distractor.gif"",""img/Fire_Down_Distractor.gif"",""img/Fire_Down_Distractor.gif"",""img/Fire_Down_Distractor.gif"",""img/Fire_Down_Distractor.gif"",""img/Fire_Down_Distractor.gif"",""img/Fire_Down_Distractor.gif"",""img/Fire_Down_Distractor.gif"",""img/Fire_Down_Distractor.gif"",""img/Fire_Down_Distractor.gif"",""img/Fire_Down_Distractor.gif"",""img/Fire_Down_Distractor.gif""]","6","targetUp_distractorsDown"
"","","","","","html-keyboard-response","124","1200834","0.0-14.0-0.0-0.55","5dc0353028cfb7479e1f7e8d","619531dcf66c91622fa1b861","619595d31bff77d8d77b04d7","null","","null","","","","","main_T1_ITI","","","","",""
"","","","","","visual-search-circle","125","1202783","0.0-14.0-0.0-1.55","5dc0353028cfb7479e1f7e8d","619531dcf66c91622fa1b861","619595d31bff77d8d77b04d7","934.2000000476837","","s","true","[[0,289],[289,599],[599,310],[310,0]]","false","4","main_T2_Trial","s","img/Fire_Down_Target.gif","[""img/Fire_Up_Distractor.gif"",""img/Fire_Up_Distractor.gif"",""img/Fire_Up_Distractor.gif"",""img/Fire_Up_Distractor.gif"",""img/Fire_Up_Distractor.gif"",""img/Fire_Up_Distractor.gif"",""img/Fire_Up_Distractor.gif"",""img/Fire_Up_Distractor.gif"",""img/Fire_Up_Distractor.gif"",""img/Fire_Up_Distractor.gif"",""img/Fire_Up_Distractor.gif"",""img/Fire_Up_Distractor.gif""]","4","targetDown_distractorsUp"
"","","","","","html-keyboard-response","126","1202785","0.0-14.0-0.0-0.56","5dc0353028cfb7479e1f7e8d","619531dcf66c91622fa1b861","619595d31bff77d8d77b04d7","null","","null","","","","","main_T1_ITI","","","","",""
"","","","","","visual-search-circle","127","1204365","0.0-14.0-0.0-1.56","5dc0353028cfb7479e1f7e8d","619531dcf66c91622fa1b861","619595d31bff77d8d77b04d7","563.8999999761581","","d","true","[[163,567],[463,551],[599,284],[436,32],[136,48],[0,315]]","true","6","main_T2_Trial","d","img/Fire_Down_Target.gif","[""img/Fire_Up_Distractor.gif"",""img/Fire_Up_Distractor.gif"",""img/Fire_Up_Distractor.gif"",""img/Fire_Up_Distractor.gif"",""img/Fire_Up_Distractor.gif"",""img/Fire_Up_Distractor.gif"",""img/Fire_Up_Distractor.gif"",""img/Fire_Up_Distractor.gif"",""img/Fire_Up_Distractor.gif"",""img/Fire_Up_Distractor.gif"",""img/Fire_Up_Distractor.gif"",""img/Fire_Up_Distractor.gif""]","6","targetDown_distractorsUp"
"","","","","","html-keyboard-response","128","1204367","0.0-14.0-0.0-0.57","5dc0353028cfb7479e1f7e8d","619531dcf66c91622fa1b861","619595d31bff77d8d77b04d7","null","","null","","","","","main_T1_ITI","","","","",""
"","","","","","visual-search-circle","129","1206063","0.0-14.0-0.0-1.57","5dc0353028cfb7479e1f7e8d","619531dcf66c91622fa1b861","619595d31bff77d8d77b04d7","688.5","","d","true","[[30,431],[341,597],[595,352],[440,35],[91,84]]","true","5","main_T2_Trial","d","img/Fire_Down_Target.gif","[""img/Fire_Up_Distractor.gif"",""img/Fire_Up_Distractor.gif"",""img/Fire_Up_Distractor.gif"",""img/Fire_Up_Distractor.gif"",""img/Fire_Up_Distractor.gif"",""img/Fire_Up_Distractor.gif"",""img/Fire_Up_Distractor.gif"",""img/Fire_Up_Distractor.gif"",""img/Fire_Up_Distractor.gif"",""img/Fire_Up_Distractor.gif"",""img/Fire_Up_Distractor.gif"",""img/Fire_Up_Distractor.gif""]","5","targetDown_distractorsUp"
"","","","","","html-keyboard-response","130","1206065","0.0-14.0-0.0-0.58","5dc0353028cfb7479e1f7e8d","619531dcf66c91622fa1b861","619595d31bff77d8d77b04d7","null","","null","","","","","main_T1_ITI","","","","",""
"","","","","","visual-search-circle","131","1207690","0.0-14.0-0.0-1.58","5dc0353028cfb7479e1f7e8d","619531dcf66c91622fa1b861","619595d31bff77d8d77b04d7","616.5","","s","true","[[4,247],[107,529],[402,581],[595,352],[492,70],[197,18]]","false","6","main_T2_Trial","s","img/Fire_Down_Target.gif","[""img/Fire_Up_Distractor.gif"",""img/Fire_Up_Distractor.gif"",""img/Fire_Up_Distractor.gif"",""img/Fire_Up_Distractor.gif"",""img/Fire_Up_Distractor.gif"",""img/Fire_Up_Distractor.gif"",""img/Fire_Up_Distractor.gif"",""img/Fire_Up_Distractor.gif"",""img/Fire_Up_Distractor.gif"",""img/Fire_Up_Distractor.gif"",""img/Fire_Up_Distractor.gif"",""img/Fire_Up_Distractor.gif""]","6","targetDown_distractorsUp"
"","","","","","html-keyboard-response","132","1209121","0.0-14.0-0.0-0.59","5dc0353028cfb7479e1f7e8d","619531dcf66c91622fa1b861","619595d31bff77d8d77b04d7","1430.8999999761581","Wow! You've completed 60 out of 160 trials! </p> <p>  </p><p> Take a quick break, then press any key when you're ready to continue."," ","","","","","main_T1_ITI","","","","",""
"","","","","","visual-search-circle","133","1210805","0.0-14.0-0.0-1.59","5dc0353028cfb7479e1f7e8d","619531dcf66c91622fa1b861","619595d31bff77d8d77b04d7","673.7999999523163","","d","true","[[392,585],[593,362],[500,77],[207,14],[6,237],[99,522]]","true","6","main_T2_Trial","d","img/Fire_Down_Target.gif","[""img/Fire_Up_Distractor.gif"",""img/Fire_Up_Distractor.gif"",""img/Fire_Up_Distractor.gif"",""img/Fire_Up_Distractor.gif"",""img/Fire_Up_Distractor.gif"",""img/Fire_Up_Distractor.gif"",""img/Fire_Up_Distractor.gif"",""img/Fire_Up_Distractor.gif"",""img/Fire_Up_Distractor.gif"",""img/Fire_Up_Distractor.gif"",""img/Fire_Up_Distractor.gif"",""img/Fire_Up_Distractor.gif""]","6","targetDown_distractorsUp"
"","","","","","html-keyboard-response","134","1210807","0.0-14.0-0.0-0.60","5dc0353028cfb7479e1f7e8d","619531dcf66c91622fa1b861","619595d31bff77d8d77b04d7","null","","null","","","","","main_T1_ITI","","","","",""
"","","","","","visual-search-circle","135","1212701","0.0-14.0-0.0-1.60","5dc0353028cfb7479e1f7e8d","619531dcf66c91622fa1b861","619595d31bff77d8d77b04d7","878.3999999761581","","s","true","[[598,331],[510,86],[264,2],[44,142],[17,401],[203,583],[461,552]]","false","7","main_T2_Trial","s","img/Fire_Down_Target.gif","[""img/Fire_Up_Distractor.gif"",""img/Fire_Up_Distractor.gif"",""img/Fire_Up_Distractor.gif"",""img/Fire_Up_Distractor.gif"",""img/Fire_Up_Distractor.gif"",""img/Fire_Up_Distractor.gif"",""img/Fire_Up_Distractor.gif"",""img/Fire_Up_Distractor.gif"",""img/Fire_Up_Distractor.gif"",""img/Fire_Up_Distractor.gif"",""img/Fire_Up_Distractor.gif"",""img/Fire_Up_Distractor.gif""]","7","targetDown_distractorsUp"
"","","","","","html-keyboard-response","136","1212702","0.0-14.0-0.0-0.61","5dc0353028cfb7479e1f7e8d","619531dcf66c91622fa1b861","619595d31bff77d8d77b04d7","null","","null","","","","","main_T1_ITI","","","","",""
"","","","","","visual-search-circle","137","1214377","0.0-14.0-0.0-1.61","5dc0353028cfb7479e1f7e8d","619531dcf66c91622fa1b861","619595d31bff77d8d77b04d7","664.3999999761581","","s","true","[[362,6],[136,48],[6,237],[48,463],[237,593],[463,551],[593,362],[551,136]]","false","8","main_T2_Trial","s","img/Fire_Down_Target.gif","[""img/Fire_Up_Distractor.gif"",""img/Fire_Up_Distractor.gif"",""img/Fire_Up_Distractor.gif"",""img/Fire_Up_Distractor.gif"",""img/Fire_Up_Distractor.gif"",""img/Fire_Up_Distractor.gif"",""img/Fire_Up_Distractor.gif"",""img/Fire_Up_Distractor.gif"",""img/Fire_Up_Distractor.gif"",""img/Fire_Up_Distractor.gif"",""img/Fire_Up_Distractor.gif"",""img/Fire_Up_Distractor.gif""]","8","targetDown_distractorsUp"
"","","","","","html-keyboard-response","138","1214379","0.0-14.0-0.0-0.62","5dc0353028cfb7479e1f7e8d","619531dcf66c91622fa1b861","619595d31bff77d8d77b04d7","null","","null","","","","","main_T1_ITI","","","","",""
"","","","","","visual-search-circle","139","1216463","0.0-14.0-0.0-1.62","5dc0353028cfb7479e1f7e8d","619531dcf66c91622fa1b861","619595d31bff77d8d77b04d7","1062","","s","true","[[284,599],[580,407],[488,66],[136,48],[10,377]]","false","5","main_T2_Trial","s","img/Fire_Up_Target.gif","[""img/Fire_Down_Distractor.gif"",""img/Fire_Down_Distractor.gif"",""img/Fire_Down_Distractor.gif"",""img/Fire_Down_Distractor.gif"",""img/Fire_Down_Distractor.gif"",""img/Fire_Down_Distractor.gif"",""img/Fire_Down_Distractor.gif"",""img/Fire_Down_Distractor.gif"",""img/Fire_Down_Distractor.gif"",""img/Fire_Down_Distractor.gif"",""img/Fire_Down_Distractor.gif"",""img/Fire_Down_Distractor.gif""]","5","targetUp_distractorsDown"
"","","","","","html-keyboard-response","140","1216465","0.0-14.0-0.0-0.63","5dc0353028cfb7479e1f7e8d","619531dcf66c91622fa1b861","619595d31bff77d8d77b04d7","null","","null","","","","","main_T1_ITI","","","","",""
"","","","","","visual-search-circle","141","1218186","0.0-14.0-0.0-1.63","5dc0353028cfb7479e1f7e8d","619531dcf66c91622fa1b861","619595d31bff77d8d77b04d7","715.8999999761581","","s","true","[[392,585],[585,207],[207,14],[14,392]]","false","4","main_T2_Trial","s","img/Fire_Up_Target.gif","[""img/Fire_Down_Distractor.gif"",""img/Fire_Down_Distractor.gif"",""img/Fire_Down_Distractor.gif"",""img/Fire_Down_Distractor.gif"",""img/Fire_Down_Distractor.gif"",""img/Fire_Down_Distractor.gif"",""img/Fire_Down_Distractor.gif"",""img/Fire_Down_Distractor.gif"",""img/Fire_Down_Distractor.gif"",""img/Fire_Down_Distractor.gif"",""img/Fire_Down_Distractor.gif"",""img/Fire_Down_Distractor.gif""]","4","targetUp_distractorsDown"
"","","","","","html-keyboard-response","142","1218191","0.0-14.0-0.0-0.64","5dc0353028cfb7479e1f7e8d","619531dcf66c91622fa1b861","619595d31bff77d8d77b04d7","null","","null","","","","","main_T1_ITI","","","","",""
"","","","","","visual-search-circle","143","1219862","0.0-14.0-0.0-1.64","5dc0353028cfb7479e1f7e8d","619531dcf66c91622fa1b861","619595d31bff77d8d77b04d7","660.1000000238419","","d","true","[[402,581],[595,352],[492,70],[197,18],[4,247],[107,529]]","true","6","main_T2_Trial","d","img/Fire_Up_Target.gif","[""img/Fire_Down_Distractor.gif"",""img/Fire_Down_Distractor.gif"",""img/Fire_Down_Distractor.gif"",""img/Fire_Down_Distractor.gif"",""img/Fire_Down_Distractor.gif"",""img/Fire_Down_Distractor.gif"",""img/Fire_Down_Distractor.gif"",""img/Fire_Down_Distractor.gif"",""img/Fire_Down_Distractor.gif"",""img/Fire_Down_Distractor.gif"",""img/Fire_Down_Distractor.gif"",""img/Fire_Down_Distractor.gif""]","6","targetUp_distractorsDown"
"","","","","","html-keyboard-response","144","1219863","0.0-14.0-0.0-0.65","5dc0353028cfb7479e1f7e8d","619531dcf66c91622fa1b861","619595d31bff77d8d77b04d7","null","","null","","","","","main_T1_ITI","","","","",""
"","","","","","visual-search-circle","145","1221494","0.0-14.0-0.0-1.65","5dc0353028cfb7479e1f7e8d","619531dcf66c91622fa1b861","619595d31bff77d8d77b04d7","618.1000000238419","","s","true","[[488,66],[235,7],[30,167],[28,428],[231,591],[485,535],[599,302]]","false","7","main_T2_Trial","s","img/Fire_Down_Target.gif","[""img/Fire_Up_Distractor.gif"",""img/Fire_Up_Distractor.gif"",""img/Fire_Up_Distractor.gif"",""img/Fire_Up_Distractor.gif"",""img/Fire_Up_Distractor.gif"",""img/Fire_Up_Distractor.gif"",""img/Fire_Up_Distractor.gif"",""img/Fire_Up_Distractor.gif"",""img/Fire_Up_Distractor.gif"",""img/Fire_Up_Distractor.gif"",""img/Fire_Up_Distractor.gif"",""img/Fire_Up_Distractor.gif""]","7","targetDown_distractorsUp"
"","","","","","html-keyboard-response","146","1221496","0.0-14.0-0.0-0.66","5dc0353028cfb7479e1f7e8d","619531dcf66c91622fa1b861","619595d31bff77d8d77b04d7","null","","null","","","","","main_T1_ITI","","","","",""
"","","","","","visual-search-circle","147","1223367","0.0-14.0-0.0-1.66","5dc0353028cfb7479e1f7e8d","619531dcf66c91622fa1b861","619595d31bff77d8d77b04d7","856.1000000238419","","d","true","[[496,73],[279,0],[73,103],[0,320],[103,526],[320,599],[526,496],[599,279]]","true","8","main_T2_Trial","d","img/Fire_Up_Target.gif","[""img/Fire_Down_Distractor.gif"",""img/Fire_Down_Distractor.gif"",""img/Fire_Down_Distractor.gif"",""img/Fire_Down_Distractor.gif"",""img/Fire_Down_Distractor.gif"",""img/Fire_Down_Distractor.gif"",""img/Fire_Down_Distractor.gif"",""img/Fire_Down_Distractor.gif"",""img/Fire_Down_Distractor.gif"",""img/Fire_Down_Distractor.gif"",""img/Fire_Down_Distractor.gif"",""img/Fire_Down_Distractor.gif""]","8","targetUp_distractorsDown"
"","","","","","html-keyboard-response","148","1223369","0.0-14.0-0.0-0.67","5dc0353028cfb7479e1f7e8d","619531dcf66c91622fa1b861","619595d31bff77d8d77b04d7","null","","null","","","","","main_T1_ITI","","","","",""
"","","","","","visual-search-circle","149","1225113","0.0-14.0-0.0-1.67","5dc0353028cfb7479e1f7e8d","619531dcf66c91622fa1b861","619595d31bff77d8d77b04d7","728.8999999761581","","s","true","[[207,585],[585,392],[392,14],[14,207]]","false","4","main_T2_Trial","s","img/Fire_Down_Target.gif","[""img/Fire_Up_Distractor.gif"",""img/Fire_Up_Distractor.gif"",""img/Fire_Up_Distractor.gif"",""img/Fire_Up_Distractor.gif"",""img/Fire_Up_Distractor.gif"",""img/Fire_Up_Distractor.gif"",""img/Fire_Up_Distractor.gif"",""img/Fire_Up_Distractor.gif"",""img/Fire_Up_Distractor.gif"",""img/Fire_Up_Distractor.gif"",""img/Fire_Up_Distractor.gif"",""img/Fire_Up_Distractor.gif""]","4","targetDown_distractorsUp"
"","","","","","html-keyboard-response","150","1225115","0.0-14.0-0.0-0.68","5dc0353028cfb7479e1f7e8d","619531dcf66c91622fa1b861","619595d31bff77d8d77b04d7","null","","null","","","","","main_T1_ITI","","","","",""
"","","","","","visual-search-circle","151","1226651","0.0-14.0-0.0-1.68","5dc0353028cfb7479e1f7e8d","619531dcf66c91622fa1b861","619595d31bff77d8d77b04d7","531","","d","true","[[392,585],[585,207],[207,14],[14,392]]","true","4","main_T2_Trial","d","img/Fire_Up_Target.gif","[""img/Fire_Down_Distractor.gif"",""img/Fire_Down_Distractor.gif"",""img/Fire_Down_Distractor.gif"",""img/Fire_Down_Distractor.gif"",""img/Fire_Down_Distractor.gif"",""img/Fire_Down_Distractor.gif"",""img/Fire_Down_Distractor.gif"",""img/Fire_Down_Distractor.gif"",""img/Fire_Down_Distractor.gif"",""img/Fire_Down_Distractor.gif"",""img/Fire_Down_Distractor.gif"",""img/Fire_Down_Distractor.gif""]","4","targetUp_distractorsDown"
"","","","","","html-keyboard-response","152","1226654","0.0-14.0-0.0-0.69","5dc0353028cfb7479e1f7e8d","619531dcf66c91622fa1b861","619595d31bff77d8d77b04d7","null","","null","","","","","main_T1_ITI","","","","",""
"","","","","","visual-search-circle","153","1228193","0.0-14.0-0.0-1.69","5dc0353028cfb7479e1f7e8d","619531dcf66c91622fa1b861","619595d31bff77d8d77b04d7","528.7999999523163","","s","true","[[273,598],[492,529],[598,326],[529,107],[326,1],[107,70],[1,273],[70,492]]","false","8","main_T2_Trial","s","img/Fire_Up_Target.gif","[""img/Fire_Down_Distractor.gif"",""img/Fire_Down_Distractor.gif"",""img/Fire_Down_Distractor.gif"",""img/Fire_Down_Distractor.gif"",""img/Fire_Down_Distractor.gif"",""img/Fire_Down_Distractor.gif"",""img/Fire_Down_Distractor.gif"",""img/Fire_Down_Distractor.gif"",""img/Fire_Down_Distractor.gif"",""img/Fire_Down_Distractor.gif"",""img/Fire_Down_Distractor.gif"",""img/Fire_Down_Distractor.gif""]","8","targetUp_distractorsDown"
"","","","","","html-keyboard-response","154","1228195","0.0-14.0-0.0-0.70","5dc0353028cfb7479e1f7e8d","619531dcf66c91622fa1b861","619595d31bff77d8d77b04d7","null","","null","","","","","main_T1_ITI","","","","",""
"","","","","","visual-search-circle","155","1229922","0.0-14.0-0.0-1.70","5dc0353028cfb7479e1f7e8d","619531dcf66c91622fa1b861","619595d31bff77d8d77b04d7","715.3999999761581","","d","true","[[40,450],[255,596],[504,519],[599,277],[468,52],[211,13],[20,190]]","true","7","main_T2_Trial","d","img/Fire_Up_Target.gif","[""img/Fire_Down_Distractor.gif"",""img/Fire_Down_Distractor.gif"",""img/Fire_Down_Distractor.gif"",""img/Fire_Down_Distractor.gif"",""img/Fire_Down_Distractor.gif"",""img/Fire_Down_Distractor.gif"",""img/Fire_Down_Distractor.gif"",""img/Fire_Down_Distractor.gif"",""img/Fire_Down_Distractor.gif"",""img/Fire_Down_Distractor.gif"",""img/Fire_Down_Distractor.gif"",""img/Fire_Down_Distractor.gif""]","7","targetUp_distractorsDown"
"","","","","","html-keyboard-response","156","1229923","0.0-14.0-0.0-0.71","5dc0353028cfb7479e1f7e8d","619531dcf66c91622fa1b861","619595d31bff77d8d77b04d7","null","","null","","","","","main_T1_ITI","","","","",""
"","","","","","visual-search-circle","157","1231562","0.0-14.0-0.0-1.71","5dc0353028cfb7479e1f7e8d","619531dcf66c91622fa1b861","619595d31bff77d8d77b04d7","619.5","","d","true","[[588,217],[445,37],[217,11],[37,154],[11,382],[154,562],[382,588],[562,445]]","true","8","main_T2_Trial","d","img/Fire_Up_Target.gif","[""img/Fire_Down_Distractor.gif"",""img/Fire_Down_Distractor.gif"",""img/Fire_Down_Distractor.gif"",""img/Fire_Down_Distractor.gif"",""img/Fire_Down_Distractor.gif"",""img/Fire_Down_Distractor.gif"",""img/Fire_Down_Distractor.gif"",""img/Fire_Down_Distractor.gif"",""img/Fire_Down_Distractor.gif"",""img/Fire_Down_Distractor.gif"",""img/Fire_Down_Distractor.gif"",""img/Fire_Down_Distractor.gif""]","8","targetUp_distractorsDown"
"","","","","","html-keyboard-response","158","1231572","0.0-14.0-0.0-0.72","5dc0353028cfb7479e1f7e8d","619531dcf66c91622fa1b861","619595d31bff77d8d77b04d7","null","","null","","","","","main_T1_ITI","","","","",""
"","","","","","visual-search-circle","159","1233525","0.0-14.0-0.0-1.72","5dc0353028cfb7479e1f7e8d","619531dcf66c91622fa1b861","619595d31bff77d8d77b04d7","941.6999999284744","","d","true","[[346,596],[596,346],[436,32],[87,87],[32,436]]","true","5","main_T2_Trial","d","img/Fire_Up_Target.gif","[""img/Fire_Down_Distractor.gif"",""img/Fire_Down_Distractor.gif"",""img/Fire_Down_Distractor.gif"",""img/Fire_Down_Distractor.gif"",""img/Fire_Down_Distractor.gif"",""img/Fire_Down_Distractor.gif"",""img/Fire_Down_Distractor.gif"",""img/Fire_Down_Distractor.gif"",""img/Fire_Down_Distractor.gif"",""img/Fire_Down_Distractor.gif"",""img/Fire_Down_Distractor.gif"",""img/Fire_Down_Distractor.gif""]","5","targetUp_distractorsDown"
"","","","","","html-keyboard-response","160","1233527","0.0-14.0-0.0-0.73","5dc0353028cfb7479e1f7e8d","619531dcf66c91622fa1b861","619595d31bff77d8d77b04d7","null","","null","","","","","main_T1_ITI","","","","",""
"","","","","","visual-search-circle","161","1235253","0.0-14.0-0.0-1.73","5dc0353028cfb7479e1f7e8d","619531dcf66c91622fa1b861","619595d31bff77d8d77b04d7","714.3000000715256","","d","true","[[557,454],[562,154],[305,0],[42,145],[37,445],[294,599]]","true","6","main_T2_Trial","d","img/Fire_Up_Target.gif","[""img/Fire_Down_Distractor.gif"",""img/Fire_Down_Distractor.gif"",""img/Fire_Down_Distractor.gif"",""img/Fire_Down_Distractor.gif"",""img/Fire_Down_Distractor.gif"",""img/Fire_Down_Distractor.gif"",""img/Fire_Down_Distractor.gif"",""img/Fire_Down_Distractor.gif"",""img/Fire_Down_Distractor.gif"",""img/Fire_Down_Distractor.gif"",""img/Fire_Down_Distractor.gif"",""img/Fire_Down_Distractor.gif""]","6","targetUp_distractorsDown"
"","","","","","html-keyboard-response","162","1235255","0.0-14.0-0.0-0.74","5dc0353028cfb7479e1f7e8d","619531dcf66c91622fa1b861","619595d31bff77d8d77b04d7","null","","null","","","","","main_T1_ITI","","","","",""
"","","","","","visual-search-circle","163","1236899","0.0-14.0-0.0-1.74","5dc0353028cfb7479e1f7e8d","619531dcf66c91622fa1b861","619595d31bff77d8d77b04d7","634.6000000238419","","s","true","[[258,597],[569,431],[508,84],[159,35],[4,352]]","false","5","main_T2_Trial","s","img/Fire_Up_Target.gif","[""img/Fire_Down_Distractor.gif"",""img/Fire_Down_Distractor.gif"",""img/Fire_Down_Distractor.gif"",""img/Fire_Down_Distractor.gif"",""img/Fire_Down_Distractor.gif"",""img/Fire_Down_Distractor.gif"",""img/Fire_Down_Distractor.gif"",""img/Fire_Down_Distractor.gif"",""img/Fire_Down_Distractor.gif"",""img/Fire_Down_Distractor.gif"",""img/Fire_Down_Distractor.gif"",""img/Fire_Down_Distractor.gif""]","5","targetUp_distractorsDown"
"","","","","","html-keyboard-response","164","1236902","0.0-14.0-0.0-0.75","5dc0353028cfb7479e1f7e8d","619531dcf66c91622fa1b861","619595d31bff77d8d77b04d7","null","","null","","","","","main_T1_ITI","","","","",""
"","","","","","visual-search-circle","165","1238966","0.0-14.0-0.0-1.75","5dc0353028cfb7479e1f7e8d","619531dcf66c91622fa1b861","619595d31bff77d8d77b04d7","1060.8999999761581","","d","true","[[159,35],[0,289],[141,554],[440,564],[599,310],[458,45]]","true","6","main_T2_Trial","d","img/Fire_Up_Target.gif","[""img/Fire_Down_Distractor.gif"",""img/Fire_Down_Distractor.gif"",""img/Fire_Down_Distractor.gif"",""img/Fire_Down_Distractor.gif"",""img/Fire_Down_Distractor.gif"",""img/Fire_Down_Distractor.gif"",""img/Fire_Down_Distractor.gif"",""img/Fire_Down_Distractor.gif"",""img/Fire_Down_Distractor.gif"",""img/Fire_Down_Distractor.gif"",""img/Fire_Down_Distractor.gif"",""img/Fire_Down_Distractor.gif""]","6","targetUp_distractorsDown"
"","","","","","html-keyboard-response","166","1238968","0.0-14.0-0.0-0.76","5dc0353028cfb7479e1f7e8d","619531dcf66c91622fa1b861","619595d31bff77d8d77b04d7","null","","null","","","","","main_T1_ITI","","","","",""
"","","","","","visual-search-circle","167","1240670","0.0-14.0-0.0-1.76","5dc0353028cfb7479e1f7e8d","619531dcf66c91622fa1b861","619595d31bff77d8d77b04d7","683.6000000238419","","d","true","[[492,529],[598,326],[529,107],[326,1],[107,70],[1,273],[70,492],[273,598]]","true","8","main_T2_Trial","d","img/Fire_Down_Target.gif","[""img/Fire_Up_Distractor.gif"",""img/Fire_Up_Distractor.gif"",""img/Fire_Up_Distractor.gif"",""img/Fire_Up_Distractor.gif"",""img/Fire_Up_Distractor.gif"",""img/Fire_Up_Distractor.gif"",""img/Fire_Up_Distractor.gif"",""img/Fire_Up_Distractor.gif"",""img/Fire_Up_Distractor.gif"",""img/Fire_Up_Distractor.gif"",""img/Fire_Up_Distractor.gif"",""img/Fire_Up_Distractor.gif""]","8","targetDown_distractorsUp"
"","","","","","html-keyboard-response","168","1240672","0.0-14.0-0.0-0.77","5dc0353028cfb7479e1f7e8d","619531dcf66c91622fa1b861","619595d31bff77d8d77b04d7","null","","null","","","","","main_T1_ITI","","","","",""
"","","","","","visual-search-circle","169","1242717","0.0-14.0-0.0-1.77","5dc0353028cfb7479e1f7e8d","619531dcf66c91622fa1b861","619595d31bff77d8d77b04d7","1028.6000000238419","","s","true","[[315,599],[589,377],[463,48],[111,66],[19,407]]","false","5","main_T2_Trial","s","img/Fire_Up_Target.gif","[""img/Fire_Down_Distractor.gif"",""img/Fire_Down_Distractor.gif"",""img/Fire_Down_Distractor.gif"",""img/Fire_Down_Distractor.gif"",""img/Fire_Down_Distractor.gif"",""img/Fire_Down_Distractor.gif"",""img/Fire_Down_Distractor.gif"",""img/Fire_Down_Distractor.gif"",""img/Fire_Down_Distractor.gif"",""img/Fire_Down_Distractor.gif"",""img/Fire_Down_Distractor.gif"",""img/Fire_Down_Distractor.gif""]","5","targetUp_distractorsDown"
"","","","","","html-keyboard-response","170","1242719","0.0-14.0-0.0-0.78","5dc0353028cfb7479e1f7e8d","619531dcf66c91622fa1b861","619595d31bff77d8d77b04d7","null","","null","","","","","main_T1_ITI","","","","",""
"","","","","","visual-search-circle","171","1244655","0.0-14.0-0.0-1.78","5dc0353028cfb7479e1f7e8d","619531dcf66c91622fa1b861","619595d31bff77d8d77b04d7","919.1999999284744","","d","true","[[28,426],[229,591],[484,536],[599,303],[489,67],[236,6],[31,166]]","true","7","main_T2_Trial","d","img/Fire_Up_Target.gif","[""img/Fire_Down_Distractor.gif"",""img/Fire_Down_Distractor.gif"",""img/Fire_Down_Distractor.gif"",""img/Fire_Down_Distractor.gif"",""img/Fire_Down_Distractor.gif"",""img/Fire_Down_Distractor.gif"",""img/Fire_Down_Distractor.gif"",""img/Fire_Down_Distractor.gif"",""img/Fire_Down_Distractor.gif"",""img/Fire_Down_Distractor.gif"",""img/Fire_Down_Distractor.gif"",""img/Fire_Down_Distractor.gif""]","7","targetUp_distractorsDown"
"","","","","","html-keyboard-response","172","1246198","0.0-14.0-0.0-0.79","5dc0353028cfb7479e1f7e8d","619531dcf66c91622fa1b861","619595d31bff77d8d77b04d7","1542.1999999284744","Wow! You've completed 80 out of 160 trials! </p> <p>  </p><p> Take a quick break, then press any key when you're ready to continue."," ","","","","","main_T1_ITI","","","","",""
"","","","","","visual-search-circle","173","1248148","0.0-14.0-0.0-1.79","5dc0353028cfb7479e1f7e8d","619531dcf66c91622fa1b861","619595d31bff77d8d77b04d7","943.1000000238419","","d","true","[[387,586],[564,440],[586,212],[440,35],[212,13],[35,159],[13,387],[159,564]]","true","8","main_T2_Trial","d","img/Fire_Down_Target.gif","[""img/Fire_Up_Distractor.gif"",""img/Fire_Up_Distractor.gif"",""img/Fire_Up_Distractor.gif"",""img/Fire_Up_Distractor.gif"",""img/Fire_Up_Distractor.gif"",""img/Fire_Up_Distractor.gif"",""img/Fire_Up_Distractor.gif"",""img/Fire_Up_Distractor.gif"",""img/Fire_Up_Distractor.gif"",""img/Fire_Up_Distractor.gif"",""img/Fire_Up_Distractor.gif"",""img/Fire_Up_Distractor.gif""]","8","targetDown_distractorsUp"
"","","","","","html-keyboard-response","174","1248150","0.0-14.0-0.0-0.80","5dc0353028cfb7479e1f7e8d","619531dcf66c91622fa1b861","619595d31bff77d8d77b04d7","null","","null","","","","","main_T1_ITI","","","","",""
"","","","","","visual-search-circle","175","1249925","0.0-14.0-0.0-1.80","5dc0353028cfb7479e1f7e8d","619531dcf66c91622fa1b861","619595d31bff77d8d77b04d7","768.3000000715256","","s","true","[[2,341],[247,595],[564,440],[515,91],[168,30]]","false","5","main_T2_Trial","s","img/Fire_Up_Target.gif","[""img/Fire_Down_Distractor.gif"",""img/Fire_Down_Distractor.gif"",""img/Fire_Down_Distractor.gif"",""img/Fire_Down_Distractor.gif"",""img/Fire_Down_Distractor.gif"",""img/Fire_Down_Distractor.gif"",""img/Fire_Down_Distractor.gif"",""img/Fire_Down_Distractor.gif"",""img/Fire_Down_Distractor.gif"",""img/Fire_Down_Distractor.gif"",""img/Fire_Down_Distractor.gif"",""img/Fire_Down_Distractor.gif""]","5","targetUp_distractorsDown"
"","","","","","html-keyboard-response","176","1249927","0.0-14.0-0.0-0.81","5dc0353028cfb7479e1f7e8d","619531dcf66c91622fa1b861","619595d31bff77d8d77b04d7","null","","null","","","","","main_T1_ITI","","","","",""
"","","","","","visual-search-circle","177","1251654","0.0-14.0-0.0-1.81","5dc0353028cfb7479e1f7e8d","619531dcf66c91622fa1b861","619595d31bff77d8d77b04d7","713.3000000715256","","s","true","[[392,14],[134,49],[1,273],[92,516],[340,597],[557,453],[580,194]]","false","7","main_T2_Trial","s","img/Fire_Down_Target.gif","[""img/Fire_Up_Distractor.gif"",""img/Fire_Up_Distractor.gif"",""img/Fire_Up_Distractor.gif"",""img/Fire_Up_Distractor.gif"",""img/Fire_Up_Distractor.gif"",""img/Fire_Up_Distractor.gif"",""img/Fire_Up_Distractor.gif"",""img/Fire_Up_Distractor.gif"",""img/Fire_Up_Distractor.gif"",""img/Fire_Up_Distractor.gif"",""img/Fire_Up_Distractor.gif"",""img/Fire_Up_Distractor.gif""]","7","targetDown_distractorsUp"
"","","","","","html-keyboard-response","178","1251656","0.0-14.0-0.0-0.82","5dc0353028cfb7479e1f7e8d","619531dcf66c91622fa1b861","619595d31bff77d8d77b04d7","null","","null","","","","","main_T1_ITI","","","","",""
"","","","","","visual-search-circle","179","1253334","0.0-14.0-0.0-1.82","5dc0353028cfb7479e1f7e8d","619531dcf66c91622fa1b861","619595d31bff77d8d77b04d7","673.6000000238419","","s","true","[[445,37],[95,80],[28,426],[336,597],[594,357]]","false","5","main_T2_Trial","s","img/Fire_Up_Target.gif","[""img/Fire_Down_Distractor.gif"",""img/Fire_Down_Distractor.gif"",""img/Fire_Down_Distractor.gif"",""img/Fire_Down_Distractor.gif"",""img/Fire_Down_Distractor.gif"",""img/Fire_Down_Distractor.gif"",""img/Fire_Down_Distractor.gif"",""img/Fire_Down_Distractor.gif"",""img/Fire_Down_Distractor.gif"",""img/Fire_Down_Distractor.gif"",""img/Fire_Down_Distractor.gif"",""img/Fire_Down_Distractor.gif""]","5","targetUp_distractorsDown"
"","","","","","html-keyboard-response","180","1253335","0.0-14.0-0.0-0.83","5dc0353028cfb7479e1f7e8d","619531dcf66c91622fa1b861","619595d31bff77d8d77b04d7","null","","null","","","","","main_T1_ITI","","","","",""
"","","","","","visual-search-circle","181","1255289","0.0-14.0-0.0-1.83","5dc0353028cfb7479e1f7e8d","619531dcf66c91622fa1b861","619595d31bff77d8d77b04d7","940.2000000476837","","d","true","[[154,37],[37,445],[445,562],[562,154]]","true","4","main_T2_Trial","d","img/Fire_Up_Target.gif","[""img/Fire_Down_Distractor.gif"",""img/Fire_Down_Distractor.gif"",""img/Fire_Down_Distractor.gif"",""img/Fire_Down_Distractor.gif"",""img/Fire_Down_Distractor.gif"",""img/Fire_Down_Distractor.gif"",""img/Fire_Down_Distractor.gif"",""img/Fire_Down_Distractor.gif"",""img/Fire_Down_Distractor.gif"",""img/Fire_Down_Distractor.gif"",""img/Fire_Down_Distractor.gif"",""img/Fire_Down_Distractor.gif""]","4","targetUp_distractorsDown"
"","","","","","html-keyboard-response","182","1255290","0.0-14.0-0.0-0.84","5dc0353028cfb7479e1f7e8d","619531dcf66c91622fa1b861","619595d31bff77d8d77b04d7","null","","null","","","","","main_T1_ITI","","","","",""
"","","","","","visual-search-circle","183","1257102","0.0-14.0-0.0-1.84","5dc0353028cfb7479e1f7e8d","619531dcf66c91622fa1b861","619595d31bff77d8d77b04d7","805.1000000238419","","d","true","[[289,599],[581,402],[484,63],[132,51],[11,382]]","true","5","main_T2_Trial","d","img/Fire_Down_Target.gif","[""img/Fire_Up_Distractor.gif"",""img/Fire_Up_Distractor.gif"",""img/Fire_Up_Distractor.gif"",""img/Fire_Up_Distractor.gif"",""img/Fire_Up_Distractor.gif"",""img/Fire_Up_Distractor.gif"",""img/Fire_Up_Distractor.gif"",""img/Fire_Up_Distractor.gif"",""img/Fire_Up_Distractor.gif"",""img/Fire_Up_Distractor.gif"",""img/Fire_Up_Distractor.gif"",""img/Fire_Up_Distractor.gif""]","5","targetDown_distractorsUp"
"","","","","","html-keyboard-response","184","1257104","0.0-14.0-0.0-0.85","5dc0353028cfb7479e1f7e8d","619531dcf66c91622fa1b861","619595d31bff77d8d77b04d7","null","","null","","","","","main_T1_ITI","","","","",""
"","","","","","visual-search-circle","185","1259041","0.0-14.0-0.0-1.85","5dc0353028cfb7479e1f7e8d","619531dcf66c91622fa1b861","619595d31bff77d8d77b04d7","923.2000000476837","","d","true","[[99,522],[522,500],[500,77],[77,99]]","true","4","main_T2_Trial","d","img/Fire_Down_Target.gif","[""img/Fire_Up_Distractor.gif"",""img/Fire_Up_Distractor.gif"",""img/Fire_Up_Distractor.gif"",""img/Fire_Up_Distractor.gif"",""img/Fire_Up_Distractor.gif"",""img/Fire_Up_Distractor.gif"",""img/Fire_Up_Distractor.gif"",""img/Fire_Up_Distractor.gif"",""img/Fire_Up_Distractor.gif"",""img/Fire_Up_Distractor.gif"",""img/Fire_Up_Distractor.gif"",""img/Fire_Up_Distractor.gif""]","4","targetDown_distractorsUp"
"","","","","","html-keyboard-response","186","1259045","0.0-14.0-0.0-0.86","5dc0353028cfb7479e1f7e8d","619531dcf66c91622fa1b861","619595d31bff77d8d77b04d7","null","","null","","","","","main_T1_ITI","","","","",""
"","","","","","visual-search-circle","187","1260778","0.0-14.0-0.0-1.86","5dc0353028cfb7479e1f7e8d","619531dcf66c91622fa1b861","619595d31bff77d8d77b04d7","718.1000000238419","","s","true","[[268,598],[598,331],[331,1],[1,268]]","false","4","main_T2_Trial","s","img/Fire_Down_Target.gif","[""img/Fire_Up_Distractor.gif"",""img/Fire_Up_Distractor.gif"",""img/Fire_Up_Distractor.gif"",""img/Fire_Up_Distractor.gif"",""img/Fire_Up_Distractor.gif"",""img/Fire_Up_Distractor.gif"",""img/Fire_Up_Distractor.gif"",""img/Fire_Up_Distractor.gif"",""img/Fire_Up_Distractor.gif"",""img/Fire_Up_Distractor.gif"",""img/Fire_Up_Distractor.gif"",""img/Fire_Up_Distractor.gif""]","4","targetDown_distractorsUp"
"","","","","","html-keyboard-response","188","1260780","0.0-14.0-0.0-0.87","5dc0353028cfb7479e1f7e8d","619531dcf66c91622fa1b861","619595d31bff77d8d77b04d7","null","","null","","","","","main_T1_ITI","","","","",""
"","","","","","visual-search-circle","189","1262837","0.0-14.0-0.0-1.87","5dc0353028cfb7479e1f7e8d","619531dcf66c91622fa1b861","619595d31bff77d8d77b04d7","1053","","s","true","[[522,99],[315,0],[99,77],[0,284],[77,500],[284,599],[500,522],[599,315]]","false","8","main_T2_Trial","s","img/Fire_Up_Target.gif","[""img/Fire_Down_Distractor.gif"",""img/Fire_Down_Distractor.gif"",""img/Fire_Down_Distractor.gif"",""img/Fire_Down_Distractor.gif"",""img/Fire_Down_Distractor.gif"",""img/Fire_Down_Distractor.gif"",""img/Fire_Down_Distractor.gif"",""img/Fire_Down_Distractor.gif"",""img/Fire_Down_Distractor.gif"",""img/Fire_Down_Distractor.gif"",""img/Fire_Down_Distractor.gif"",""img/Fire_Down_Distractor.gif""]","8","targetUp_distractorsDown"
"","","","","","html-keyboard-response","190","1262839","0.0-14.0-0.0-0.88","5dc0353028cfb7479e1f7e8d","619531dcf66c91622fa1b861","619595d31bff77d8d77b04d7","null","","null","","","","","main_T1_ITI","","","","",""
"","","","","","visual-search-circle","191","1264450","0.0-14.0-0.0-1.88","5dc0353028cfb7479e1f7e8d","619531dcf66c91622fa1b861","619595d31bff77d8d77b04d7","597.3999999761581","","s","true","[[87,512],[377,589],[589,377],[512,87],[222,10],[10,222]]","false","6","main_T2_Trial","s","img/Fire_Up_Target.gif","[""img/Fire_Down_Distractor.gif"",""img/Fire_Down_Distractor.gif"",""img/Fire_Down_Distractor.gif"",""img/Fire_Down_Distractor.gif"",""img/Fire_Down_Distractor.gif"",""img/Fire_Down_Distractor.gif"",""img/Fire_Down_Distractor.gif"",""img/Fire_Down_Distractor.gif"",""img/Fire_Down_Distractor.gif"",""img/Fire_Down_Distractor.gif"",""img/Fire_Down_Distractor.gif"",""img/Fire_Down_Distractor.gif""]","6","targetUp_distractorsDown"
"","","","","","html-keyboard-response","192","1264451","0.0-14.0-0.0-0.89","5dc0353028cfb7479e1f7e8d","619531dcf66c91622fa1b861","619595d31bff77d8d77b04d7","null","","null","","","","","main_T1_ITI","","","","",""
"","","","","","visual-search-circle","193","1266367","0.0-14.0-0.0-1.89","5dc0353028cfb7479e1f7e8d","619531dcf66c91622fa1b861","619595d31bff77d8d77b04d7","910.2999999523163","","d","true","[[19,407],[407,580],[580,192],[192,19]]","true","4","main_T2_Trial","d","img/Fire_Down_Target.gif","[""img/Fire_Up_Distractor.gif"",""img/Fire_Up_Distractor.gif"",""img/Fire_Up_Distractor.gif"",""img/Fire_Up_Distractor.gif"",""img/Fire_Up_Distractor.gif"",""img/Fire_Up_Distractor.gif"",""img/Fire_Up_Distractor.gif"",""img/Fire_Up_Distractor.gif"",""img/Fire_Up_Distractor.gif"",""img/Fire_Up_Distractor.gif"",""img/Fire_Up_Distractor.gif"",""img/Fire_Up_Distractor.gif""]","4","targetDown_distractorsUp"
"","","","","","html-keyboard-response","194","1266369","0.0-14.0-0.0-0.90","5dc0353028cfb7479e1f7e8d","619531dcf66c91622fa1b861","619595d31bff77d8d77b04d7","null","","null","","","","","main_T1_ITI","","","","",""
"","","","","","visual-search-circle","195","1268459","0.0-14.0-0.0-1.90","5dc0353028cfb7479e1f7e8d","619531dcf66c91622fa1b861","619595d31bff77d8d77b04d7","1074.5","","d","true","[[207,14],[32,163],[14,392],[163,567],[392,585],[567,436],[585,207],[436,32]]","true","8","main_T2_Trial","d","img/Fire_Up_Target.gif","[""img/Fire_Down_Distractor.gif"",""img/Fire_Down_Distractor.gif"",""img/Fire_Down_Distractor.gif"",""img/Fire_Down_Distractor.gif"",""img/Fire_Down_Distractor.gif"",""img/Fire_Down_Distractor.gif"",""img/Fire_Down_Distractor.gif"",""img/Fire_Down_Distractor.gif"",""img/Fire_Down_Distractor.gif"",""img/Fire_Down_Distractor.gif"",""img/Fire_Down_Distractor.gif"",""img/Fire_Down_Distractor.gif""]","8","targetUp_distractorsDown"
"","","","","","html-keyboard-response","196","1268463","0.0-14.0-0.0-0.91","5dc0353028cfb7479e1f7e8d","619531dcf66c91622fa1b861","619595d31bff77d8d77b04d7","null","","null","","","","","main_T1_ITI","","","","",""
"","","","","","visual-search-circle","197","1270266","0.0-14.0-0.0-1.91","5dc0353028cfb7479e1f7e8d","619531dcf66c91622fa1b861","619595d31bff77d8d77b04d7","795.3000000715256","","d","true","[[294,599],[557,454],[562,154],[305,0],[42,145],[37,445]]","true","6","main_T2_Trial","d","img/Fire_Down_Target.gif","[""img/Fire_Up_Distractor.gif"",""img/Fire_Up_Distractor.gif"",""img/Fire_Up_Distractor.gif"",""img/Fire_Up_Distractor.gif"",""img/Fire_Up_Distractor.gif"",""img/Fire_Up_Distractor.gif"",""img/Fire_Up_Distractor.gif"",""img/Fire_Up_Distractor.gif"",""img/Fire_Up_Distractor.gif"",""img/Fire_Up_Distractor.gif"",""img/Fire_Up_Distractor.gif"",""img/Fire_Up_Distractor.gif""]","6","targetDown_distractorsUp"
"","","","","","html-keyboard-response","198","1270269","0.0-14.0-0.0-0.92","5dc0353028cfb7479e1f7e8d","619531dcf66c91622fa1b861","619595d31bff77d8d77b04d7","null","","null","","","","","main_T1_ITI","","","","",""
"","","","","","visual-search-circle","199","1272051","0.0-14.0-0.0-1.92","5dc0353028cfb7479e1f7e8d","619531dcf66c91622fa1b861","619595d31bff77d8d77b04d7","765.2999999523163","","s","true","[[599,294],[482,62],[228,8],[27,174],[32,434],[238,593],[491,531]]","false","7","main_T2_Trial","s","img/Fire_Down_Target.gif","[""img/Fire_Up_Distractor.gif"",""img/Fire_Up_Distractor.gif"",""img/Fire_Up_Distractor.gif"",""img/Fire_Up_Distractor.gif"",""img/Fire_Up_Distractor.gif"",""img/Fire_Up_Distractor.gif"",""img/Fire_Up_Distractor.gif"",""img/Fire_Up_Distractor.gif"",""img/Fire_Up_Distractor.gif"",""img/Fire_Up_Distractor.gif"",""img/Fire_Up_Distractor.gif"",""img/Fire_Up_Distractor.gif""]","7","targetDown_distractorsUp"
"","","","","","html-keyboard-response","200","1272053","0.0-14.0-0.0-0.93","5dc0353028cfb7479e1f7e8d","619531dcf66c91622fa1b861","619595d31bff77d8d77b04d7","null","","null","","","","","main_T1_ITI","","","","",""
"","","","","","visual-search-circle","201","1273786","0.0-14.0-0.0-1.93","5dc0353028cfb7479e1f7e8d","619531dcf66c91622fa1b861","619595d31bff77d8d77b04d7","726.2999999523163","","s","true","[[45,141],[35,440],[289,599],[554,458],[564,159],[310,0]]","false","6","main_T2_Trial","s","img/Fire_Up_Target.gif","[""img/Fire_Down_Distractor.gif"",""img/Fire_Down_Distractor.gif"",""img/Fire_Down_Distractor.gif"",""img/Fire_Down_Distractor.gif"",""img/Fire_Down_Distractor.gif"",""img/Fire_Down_Distractor.gif"",""img/Fire_Down_Distractor.gif"",""img/Fire_Down_Distractor.gif"",""img/Fire_Down_Distractor.gif"",""img/Fire_Down_Distractor.gif"",""img/Fire_Down_Distractor.gif"",""img/Fire_Down_Distractor.gif""]","6","targetUp_distractorsDown"
"","","","","","html-keyboard-response","202","1273788","0.0-14.0-0.0-0.94","5dc0353028cfb7479e1f7e8d","619531dcf66c91622fa1b861","619595d31bff77d8d77b04d7","null","","null","","","","","main_T1_ITI","","","","",""
"","","","","","visual-search-circle","203","1275403","0.0-14.0-0.0-1.94","5dc0353028cfb7479e1f7e8d","619531dcf66c91622fa1b861","619595d31bff77d8d77b04d7","606.5","","d","true","[[450,40],[190,20],[13,211],[52,468],[277,599],[519,504],[596,255]]","true","7","main_T2_Trial","d","img/Fire_Down_Target.gif","[""img/Fire_Up_Distractor.gif"",""img/Fire_Up_Distractor.gif"",""img/Fire_Up_Distractor.gif"",""img/Fire_Up_Distractor.gif"",""img/Fire_Up_Distractor.gif"",""img/Fire_Up_Distractor.gif"",""img/Fire_Up_Distractor.gif"",""img/Fire_Up_Distractor.gif"",""img/Fire_Up_Distractor.gif"",""img/Fire_Up_Distractor.gif"",""img/Fire_Up_Distractor.gif"",""img/Fire_Up_Distractor.gif""]","7","targetDown_distractorsUp"
"","","","","","html-keyboard-response","204","1275406","0.0-14.0-0.0-0.95","5dc0353028cfb7479e1f7e8d","619531dcf66c91622fa1b861","619595d31bff77d8d77b04d7","null","","null","","","","","main_T1_ITI","","","","",""
"","","","","","visual-search-circle","205","1277235","0.0-14.0-0.0-1.95","5dc0353028cfb7479e1f7e8d","619531dcf66c91622fa1b861","619595d31bff77d8d77b04d7","824.7000000476837","","s","true","[[557,145],[145,42],[42,454],[454,557]]","false","4","main_T2_Trial","s","img/Fire_Down_Target.gif","[""img/Fire_Up_Distractor.gif"",""img/Fire_Up_Distractor.gif"",""img/Fire_Up_Distractor.gif"",""img/Fire_Up_Distractor.gif"",""img/Fire_Up_Distractor.gif"",""img/Fire_Up_Distractor.gif"",""img/Fire_Up_Distractor.gif"",""img/Fire_Up_Distractor.gif"",""img/Fire_Up_Distractor.gif"",""img/Fire_Up_Distractor.gif"",""img/Fire_Up_Distractor.gif"",""img/Fire_Up_Distractor.gif""]","4","targetDown_distractorsUp"
"","","","","","html-keyboard-response","206","1277238","0.0-14.0-0.0-0.96","5dc0353028cfb7479e1f7e8d","619531dcf66c91622fa1b861","619595d31bff77d8d77b04d7","null","","null","","","","","main_T1_ITI","","","","",""
"","","","","","visual-search-circle","207","1278947","0.0-14.0-0.0-1.96","5dc0353028cfb7479e1f7e8d","619531dcf66c91622fa1b861","619595d31bff77d8d77b04d7","692","","d","true","[[392,585],[567,436],[585,207],[436,32],[207,14],[32,163],[14,392],[163,567]]","true","8","main_T2_Trial","d","img/Fire_Up_Target.gif","[""img/Fire_Down_Distractor.gif"",""img/Fire_Down_Distractor.gif"",""img/Fire_Down_Distractor.gif"",""img/Fire_Down_Distractor.gif"",""img/Fire_Down_Distractor.gif"",""img/Fire_Down_Distractor.gif"",""img/Fire_Down_Distractor.gif"",""img/Fire_Down_Distractor.gif"",""img/Fire_Down_Distractor.gif"",""img/Fire_Down_Distractor.gif"",""img/Fire_Down_Distractor.gif"",""img/Fire_Down_Distractor.gif""]","8","targetUp_distractorsDown"
"","","","","","html-keyboard-response","208","1278949","0.0-14.0-0.0-0.97","5dc0353028cfb7479e1f7e8d","619531dcf66c91622fa1b861","619595d31bff77d8d77b04d7","null","","null","","","","","main_T1_ITI","","","","",""
"","","","","","visual-search-circle","209","1280569","0.0-14.0-0.0-1.97","5dc0353028cfb7479e1f7e8d","619531dcf66c91622fa1b861","619595d31bff77d8d77b04d7","615.6999999284744","","s","true","[[596,346],[436,32],[87,87],[32,436],[346,596]]","false","5","main_T2_Trial","s","img/Fire_Down_Target.gif","[""img/Fire_Up_Distractor.gif"",""img/Fire_Up_Distractor.gif"",""img/Fire_Up_Distractor.gif"",""img/Fire_Up_Distractor.gif"",""img/Fire_Up_Distractor.gif"",""img/Fire_Up_Distractor.gif"",""img/Fire_Up_Distractor.gif"",""img/Fire_Up_Distractor.gif"",""img/Fire_Up_Distractor.gif"",""img/Fire_Up_Distractor.gif"",""img/Fire_Up_Distractor.gif"",""img/Fire_Up_Distractor.gif""]","5","targetDown_distractorsUp"
"","","","","","html-keyboard-response","210","1280571","0.0-14.0-0.0-0.98","5dc0353028cfb7479e1f7e8d","619531dcf66c91622fa1b861","619595d31bff77d8d77b04d7","null","","null","","","","","main_T1_ITI","","","","",""
"","","","","","visual-search-circle","211","1282509","0.0-14.0-0.0-1.98","5dc0353028cfb7479e1f7e8d","619531dcf66c91622fa1b861","619595d31bff77d8d77b04d7","919","","s","false","[[207,585],[585,392],[392,14],[14,207]]","true","4","main_T2_Trial","d","img/Fire_Up_Target.gif","[""img/Fire_Down_Distractor.gif"",""img/Fire_Down_Distractor.gif"",""img/Fire_Down_Distractor.gif"",""img/Fire_Down_Distractor.gif"",""img/Fire_Down_Distractor.gif"",""img/Fire_Down_Distractor.gif"",""img/Fire_Down_Distractor.gif"",""img/Fire_Down_Distractor.gif"",""img/Fire_Down_Distractor.gif"",""img/Fire_Down_Distractor.gif"",""img/Fire_Down_Distractor.gif"",""img/Fire_Down_Distractor.gif""]","4","targetUp_distractorsDown"
"","","","","","html-keyboard-response","212","1283693","0.0-14.0-0.0-0.99","5dc0353028cfb7479e1f7e8d","619531dcf66c91622fa1b861","619595d31bff77d8d77b04d7","1183.3999999761581","Wow! You've completed 100 out of 160 trials! </p> <p>  </p><p> Take a quick break, then press any key when you're ready to continue."," ","","","","","main_T1_ITI","","","","",""
"","","","","","visual-search-circle","213","1285452","0.0-14.0-0.0-1.99","5dc0353028cfb7479e1f7e8d","619531dcf66c91622fa1b861","619595d31bff77d8d77b04d7","749.6000000238419","","d","true","[[222,589],[478,541],[599,311],[495,72],[244,5],[34,159],[25,419]]","true","7","main_T2_Trial","d","img/Fire_Down_Target.gif","[""img/Fire_Up_Distractor.gif"",""img/Fire_Up_Distractor.gif"",""img/Fire_Up_Distractor.gif"",""img/Fire_Up_Distractor.gif"",""img/Fire_Up_Distractor.gif"",""img/Fire_Up_Distractor.gif"",""img/Fire_Up_Distractor.gif"",""img/Fire_Up_Distractor.gif"",""img/Fire_Up_Distractor.gif"",""img/Fire_Up_Distractor.gif"",""img/Fire_Up_Distractor.gif"",""img/Fire_Up_Distractor.gif""]","7","targetDown_distractorsUp"
"","","","","","html-keyboard-response","214","1285459","0.0-14.0-0.0-0.100","5dc0353028cfb7479e1f7e8d","619531dcf66c91622fa1b861","619595d31bff77d8d77b04d7","null","","null","","","","","main_T1_ITI","","","","",""
"","","","","","visual-search-circle","215","1287191","0.0-14.0-0.0-1.100","5dc0353028cfb7479e1f7e8d","619531dcf66c91622fa1b861","619595d31bff77d8d77b04d7","716","","d","true","[[150,40],[40,450],[450,559],[559,150]]","true","4","main_T2_Trial","d","img/Fire_Up_Target.gif","[""img/Fire_Down_Distractor.gif"",""img/Fire_Down_Distractor.gif"",""img/Fire_Down_Distractor.gif"",""img/Fire_Down_Distractor.gif"",""img/Fire_Down_Distractor.gif"",""img/Fire_Down_Distractor.gif"",""img/Fire_Down_Distractor.gif"",""img/Fire_Down_Distractor.gif"",""img/Fire_Down_Distractor.gif"",""img/Fire_Down_Distractor.gif"",""img/Fire_Down_Distractor.gif"",""img/Fire_Down_Distractor.gif""]","4","targetUp_distractorsDown"
"","","","","","html-keyboard-response","216","1287194","0.0-14.0-0.0-0.101","5dc0353028cfb7479e1f7e8d","619531dcf66c91622fa1b861","619595d31bff77d8d77b04d7","null","","null","","","","","main_T1_ITI","","","","",""
