"success","timeout","failed_images","failed_audio","failed_video","trial_type","trial_index","time_elapsed","internal_node_id","subject_id","study_id","session_id","rt","stimulus","response","correct","locations","target_present","set_size","task","correct_response","target","foilCM","setSizeCM","searchCondition"
"true","false","[]","[]","[]","preload","0","19570","0.0-0.0","5dece7c319398a3a97c00c8f","619531dcf66c91622fa1b861","61959592db940ea05a18ad29","","","","","","","","","","","","",""
"true","","","","","fullscreen","1","25839","0.0-1.0","5dece7c319398a3a97c00c8f","619531dcf66c91622fa1b861","61959592db940ea05a18ad29","","","","","","","","","","","","",""
"","","","","","html-keyboard-response","2","37033","0.0-2.0","5dece7c319398a3a97c00c8f","619531dcf66c91622fa1b861","61959592db940ea05a18ad29","11193.199999928474","What a beautiful Thursday to do some awesome science! </p> <p>  </p><p> </p>
    By completing this survey or questionnaire, you are consenting to be in this research study. </p>
    Your participation is voluntary and you can stop at any time.
    <p> [Press any key to continue.] </p>
    
    ","enter","","","","","","","","","",""
"","","","","","video-keyboard-response","3","45325","0.0-3.0","5dece7c319398a3a97c00c8f","619531dcf66c91622fa1b861","61959592db940ea05a18ad29","8288.399999976158","[""video/TaskInstructions.mp4""]","control","","","","","","","","","",""
"","","","","","html-keyboard-response","4","50911","0.0-4.0","5dece7c319398a3a97c00c8f","619531dcf66c91622fa1b861","61959592db940ea05a18ad29","5585.799999952316","
    <p>First, we're going to do a few practice trials to make sure you understand the task. You will recieve feedback on each trial. </p>
    <p>[Press any key to begin the familiarization phase.]</p>
    ","enter","","","","","","","","","",""
"","","","","","visual-search-circle","5","66272","0.0-5.0-0.0","5dece7c319398a3a97c00c8f","619531dcf66c91622fa1b861","61959592db940ea05a18ad29","14296.600000023842","","d","true","[[508,84],[84,91],[91,515],[515,508]]","true","4","training","d","","","",""
"","","","","","html-keyboard-response","6","70678","0.0-6.0","5dece7c319398a3a97c00c8f","619531dcf66c91622fa1b861","61959592db940ea05a18ad29","4404.799999952316"," <div style='float: center; '><img src='img/feedbackRight.png'></img> </div> "," ","","","","","","","","","",""
"","","","","","visual-search-circle","7","76000","0.0-7.0-0.0","5dece7c319398a3a97c00c8f","619531dcf66c91622fa1b861","61959592db940ea05a18ad29","4304.5","","s","true","[[232,592],[592,367],[367,7],[7,232]]","false","4","training","s","","","",""
"","","","","","html-keyboard-response","8","79189","0.0-8.0","5dece7c319398a3a97c00c8f","619531dcf66c91622fa1b861","61959592db940ea05a18ad29","3187.6999999284744"," <div style='float: center; '><img src='img/feedbackRight.png'></img> </div> "," ","","","","","","","","","",""
"","","","","","visual-search-circle","9","82424","0.0-9.0-0.0","5dece7c319398a3a97c00c8f","619531dcf66c91622fa1b861","61959592db940ea05a18ad29","2229.100000023842","","d","false","[[533,488],[580,192],[346,3],[66,111],[19,407],[253,596]]","false","6","training","s","","","",""
"","","","","","html-keyboard-response","10","92461","0.0-10.0","5dece7c319398a3a97c00c8f","619531dcf66c91622fa1b861","61959592db940ea05a18ad29","10035.800000071526"," <div style='float: center;'><img src='img/feedbackWrong.png'></img> </div> "," ","","","","","","","","","",""
"","","","","","visual-search-circle","11","96107","0.0-11.0-0.0","5dece7c319398a3a97c00c8f","619531dcf66c91622fa1b861","61959592db940ea05a18ad29","2625.2999999523163","","d","true","[[1,273],[70,492],[273,598],[492,529],[598,326],[529,107],[326,1],[107,70]]","true","8","training","d","","","",""
"","","","","","html-keyboard-response","12","97476","0.0-12.0","5dece7c319398a3a97c00c8f","619531dcf66c91622fa1b861","61959592db940ea05a18ad29","1368.2000000476837"," <div style='float: center; '><img src='img/feedbackRight.png'></img> </div> "," ","","","","","","","","","",""
"","","","","","video-keyboard-response","13","112547","0.0-13.0","5dece7c319398a3a97c00c8f","619531dcf66c91622fa1b861","61959592db940ea05a18ad29","15069.100000023842","[""video/endTraining.mp4""]"," ","","","","","","","","","",""
"","","","","","html-keyboard-response","14","112552","0.0-14.0-0.0-0.0","5dece7c319398a3a97c00c8f","619531dcf66c91622fa1b861","61959592db940ea05a18ad29","null","","null","","","","","main_T1_ITI","","","","",""
"","","","","","visual-search-circle","15","115043","0.0-14.0-0.0-1.0","5dece7c319398a3a97c00c8f","619531dcf66c91622fa1b861","61959592db940ea05a18ad29","1466.3000000715256","","d","false","[[551,136],[329,1],[84,91],[2,338],[144,556],[403,581],[584,394]]","false","7","main_T2_Trial","s","img/Fire_Down_Target.gif","[""img/Fire_Up_Distractor.gif"",""img/Fire_Up_Distractor.gif"",""img/Fire_Up_Distractor.gif"",""img/Fire_Up_Distractor.gif"",""img/Fire_Up_Distractor.gif"",""img/Fire_Up_Distractor.gif"",""img/Fire_Up_Distractor.gif"",""img/Fire_Up_Distractor.gif"",""img/Fire_Up_Distractor.gif"",""img/Fire_Up_Distractor.gif"",""img/Fire_Up_Distractor.gif"",""img/Fire_Up_Distractor.gif""]","7","targetDown_distractorsUp"
"","","","","","html-keyboard-response","16","115045","0.0-14.0-0.0-0.1","5dece7c319398a3a97c00c8f","619531dcf66c91622fa1b861","61959592db940ea05a18ad29","null","","null","","","","","main_T1_ITI","","","","",""
"","","","","","visual-search-circle","17","118205","0.0-14.0-0.0-1.1","5dece7c319398a3a97c00c8f","619531dcf66c91622fa1b861","61959592db940ea05a18ad29","2144.5","","s","false","[[571,173],[402,18],[173,28],[18,197],[28,426],[197,581],[426,571],[581,402]]","true","8","main_T2_Trial","d","img/Fire_Down_Target.gif","[""img/Fire_Up_Distractor.gif"",""img/Fire_Up_Distractor.gif"",""img/Fire_Up_Distractor.gif"",""img/Fire_Up_Distractor.gif"",""img/Fire_Up_Distractor.gif"",""img/Fire_Up_Distractor.gif"",""img/Fire_Up_Distractor.gif"",""img/Fire_Up_Distractor.gif"",""img/Fire_Up_Distractor.gif"",""img/Fire_Up_Distractor.gif"",""img/Fire_Up_Distractor.gif"",""img/Fire_Up_Distractor.gif""]","8","targetDown_distractorsUp"
"","","","","","html-keyboard-response","18","118206","0.0-14.0-0.0-0.2","5dece7c319398a3a97c00c8f","619531dcf66c91622fa1b861","61959592db940ea05a18ad29","null","","null","","","","","main_T1_ITI","","","","",""
"","","","","","visual-search-circle","19","120696","0.0-14.0-0.0-1.2","5dece7c319398a3a97c00c8f","619531dcf66c91622fa1b861","61959592db940ea05a18ad29","1483.6999999284744","","d","true","[[336,2],[28,173],[95,519],[445,562],[594,242]]","true","5","main_T2_Trial","d","img/Fire_Up_Target.gif","[""img/Fire_Down_Distractor.gif"",""img/Fire_Down_Distractor.gif"",""img/Fire_Down_Distractor.gif"",""img/Fire_Down_Distractor.gif"",""img/Fire_Down_Distractor.gif"",""img/Fire_Down_Distractor.gif"",""img/Fire_Down_Distractor.gif"",""img/Fire_Down_Distractor.gif"",""img/Fire_Down_Distractor.gif"",""img/Fire_Down_Distractor.gif"",""img/Fire_Down_Distractor.gif"",""img/Fire_Down_Distractor.gif""]","5","targetUp_distractorsDown"
"","","","","","html-keyboard-response","20","120702","0.0-14.0-0.0-0.3","5dece7c319398a3a97c00c8f","619531dcf66c91622fa1b861","61959592db940ea05a18ad29","null","","null","","","","","main_T1_ITI","","","","",""
"","","","","","visual-search-circle","21","123595","0.0-14.0-0.0-1.3","5dece7c319398a3a97c00c8f","619531dcf66c91622fa1b861","61959592db940ea05a18ad29","1879.2000000476837","","s","true","[[222,589],[589,377],[377,10],[10,222]]","false","4","main_T2_Trial","s","img/Fire_Up_Target.gif","[""img/Fire_Down_Distractor.gif"",""img/Fire_Down_Distractor.gif"",""img/Fire_Down_Distractor.gif"",""img/Fire_Down_Distractor.gif"",""img/Fire_Down_Distractor.gif"",""img/Fire_Down_Distractor.gif"",""img/Fire_Down_Distractor.gif"",""img/Fire_Down_Distractor.gif"",""img/Fire_Down_Distractor.gif"",""img/Fire_Down_Distractor.gif"",""img/Fire_Down_Distractor.gif"",""img/Fire_Down_Distractor.gif""]","4","targetUp_distractorsDown"
"","","","","","html-keyboard-response","22","123597","0.0-14.0-0.0-0.4","5dece7c319398a3a97c00c8f","619531dcf66c91622fa1b861","61959592db940ea05a18ad29","null","","null","","","","","main_T1_ITI","","","","",""
"","","","","","visual-search-circle","23","128038","0.0-14.0-0.0-1.4","5dece7c319398a3a97c00c8f","619531dcf66c91622fa1b861","61959592db940ea05a18ad29","3434.1999999284744","","s","true","[[294,0],[0,305],[305,599],[599,294]]","false","4","main_T2_Trial","s","img/Fire_Down_Target.gif","[""img/Fire_Up_Distractor.gif"",""img/Fire_Up_Distractor.gif"",""img/Fire_Up_Distractor.gif"",""img/Fire_Up_Distractor.gif"",""img/Fire_Up_Distractor.gif"",""img/Fire_Up_Distractor.gif"",""img/Fire_Up_Distractor.gif"",""img/Fire_Up_Distractor.gif"",""img/Fire_Up_Distractor.gif"",""img/Fire_Up_Distractor.gif"",""img/Fire_Up_Distractor.gif"",""img/Fire_Up_Distractor.gif""]","4","targetDown_distractorsUp"
"","","","","","html-keyboard-response","24","128048","0.0-14.0-0.0-0.5","5dece7c319398a3a97c00c8f","619531dcf66c91622fa1b861","61959592db940ea05a18ad29","null","","null","","","","","main_T1_ITI","","","","",""
"","","","","","visual-search-circle","25","130815","0.0-14.0-0.0-1.5","5dece7c319398a3a97c00c8f","619531dcf66c91622fa1b861","61959592db940ea05a18ad29","1752.5","","s","false","[[207,585],[585,392],[392,14],[14,207]]","true","4","main_T2_Trial","d","img/Fire_Up_Target.gif","[""img/Fire_Down_Distractor.gif"",""img/Fire_Down_Distractor.gif"",""img/Fire_Down_Distractor.gif"",""img/Fire_Down_Distractor.gif"",""img/Fire_Down_Distractor.gif"",""img/Fire_Down_Distractor.gif"",""img/Fire_Down_Distractor.gif"",""img/Fire_Down_Distractor.gif"",""img/Fire_Down_Distractor.gif"",""img/Fire_Down_Distractor.gif"",""img/Fire_Down_Distractor.gif"",""img/Fire_Down_Distractor.gif""]","4","targetUp_distractorsDown"
"","","","","","html-keyboard-response","26","130817","0.0-14.0-0.0-0.6","5dece7c319398a3a97c00c8f","619531dcf66c91622fa1b861","61959592db940ea05a18ad29","null","","null","","","","","main_T1_ITI","","","","",""
"","","","","","visual-search-circle","27","133294","0.0-14.0-0.0-1.6","5dece7c319398a3a97c00c8f","619531dcf66c91622fa1b861","61959592db940ea05a18ad29","1452","","d","true","[[536,115],[336,2],[115,63],[2,263],[63,484],[263,597],[484,536],[597,336]]","true","8","main_T2_Trial","d","img/Fire_Up_Target.gif","[""img/Fire_Down_Distractor.gif"",""img/Fire_Down_Distractor.gif"",""img/Fire_Down_Distractor.gif"",""img/Fire_Down_Distractor.gif"",""img/Fire_Down_Distractor.gif"",""img/Fire_Down_Distractor.gif"",""img/Fire_Down_Distractor.gif"",""img/Fire_Down_Distractor.gif"",""img/Fire_Down_Distractor.gif"",""img/Fire_Down_Distractor.gif"",""img/Fire_Down_Distractor.gif"",""img/Fire_Down_Distractor.gif""]","8","targetUp_distractorsDown"
"","","","","","html-keyboard-response","28","133302","0.0-14.0-0.0-0.7","5dece7c319398a3a97c00c8f","619531dcf66c91622fa1b861","61959592db940ea05a18ad29","null","","null","","","","","main_T1_ITI","","","","",""
"","","","","","visual-search-circle","29","135111","0.0-14.0-0.0-1.7","5dece7c319398a3a97c00c8f","619531dcf66c91622fa1b861","61959592db940ea05a18ad29","789.8999999761581","","d","false","[[596,346],[436,32],[87,87],[32,436],[346,596]]","false","5","main_T2_Trial","s","img/Fire_Up_Target.gif","[""img/Fire_Down_Distractor.gif"",""img/Fire_Down_Distractor.gif"",""img/Fire_Down_Distractor.gif"",""img/Fire_Down_Distractor.gif"",""img/Fire_Down_Distractor.gif"",""img/Fire_Down_Distractor.gif"",""img/Fire_Down_Distractor.gif"",""img/Fire_Down_Distractor.gif"",""img/Fire_Down_Distractor.gif"",""img/Fire_Down_Distractor.gif"",""img/Fire_Down_Distractor.gif"",""img/Fire_Down_Distractor.gif""]","5","targetUp_distractorsDown"
"","","","","","html-keyboard-response","30","135113","0.0-14.0-0.0-0.8","5dece7c319398a3a97c00c8f","619531dcf66c91622fa1b861","61959592db940ea05a18ad29","null","","null","","","","","main_T1_ITI","","","","",""
"","","","","","visual-search-circle","31","137712","0.0-14.0-0.0-1.8","5dece7c319398a3a97c00c8f","619531dcf66c91622fa1b861","61959592db940ea05a18ad29","1592.9000000953674","","s","false","[[557,145],[294,0],[37,154],[42,454],[305,599],[562,445]]","true","6","main_T2_Trial","d","img/Fire_Down_Target.gif","[""img/Fire_Up_Distractor.gif"",""img/Fire_Up_Distractor.gif"",""img/Fire_Up_Distractor.gif"",""img/Fire_Up_Distractor.gif"",""img/Fire_Up_Distractor.gif"",""img/Fire_Up_Distractor.gif"",""img/Fire_Up_Distractor.gif"",""img/Fire_Up_Distractor.gif"",""img/Fire_Up_Distractor.gif"",""img/Fire_Up_Distractor.gif"",""img/Fire_Up_Distractor.gif"",""img/Fire_Up_Distractor.gif""]","6","targetDown_distractorsUp"
"","","","","","html-keyboard-response","32","137721","0.0-14.0-0.0-0.9","5dece7c319398a3a97c00c8f","619531dcf66c91622fa1b861","61959592db940ea05a18ad29","null","","null","","","","","main_T1_ITI","","","","",""
"","","","","","visual-search-circle","33","139936","0.0-14.0-0.0-1.9","5dece7c319398a3a97c00c8f","619531dcf66c91622fa1b861","61959592db940ea05a18ad29","1200.2999999523163","","d","false","[[35,440],[352,595],[597,341],[431,30],[84,91]]","false","5","main_T2_Trial","s","img/Fire_Up_Target.gif","[""img/Fire_Down_Distractor.gif"",""img/Fire_Down_Distractor.gif"",""img/Fire_Down_Distractor.gif"",""img/Fire_Down_Distractor.gif"",""img/Fire_Down_Distractor.gif"",""img/Fire_Down_Distractor.gif"",""img/Fire_Down_Distractor.gif"",""img/Fire_Down_Distractor.gif"",""img/Fire_Down_Distractor.gif"",""img/Fire_Down_Distractor.gif"",""img/Fire_Down_Distractor.gif"",""img/Fire_Down_Distractor.gif""]","5","targetUp_distractorsDown"
"","","","","","html-keyboard-response","34","139939","0.0-14.0-0.0-0.10","5dece7c319398a3a97c00c8f","619531dcf66c91622fa1b861","61959592db940ea05a18ad29","null","","null","","","","","main_T1_ITI","","","","",""
"","","","","","visual-search-circle","35","142478","0.0-14.0-0.0-1.10","5dece7c319398a3a97c00c8f","619531dcf66c91622fa1b861","61959592db940ea05a18ad29","1530.1999999284744","","s","true","[[542,476],[542,123],[207,14],[0,299],[207,585]]","false","5","main_T2_Trial","s","img/Fire_Down_Target.gif","[""img/Fire_Up_Distractor.gif"",""img/Fire_Up_Distractor.gif"",""img/Fire_Up_Distractor.gif"",""img/Fire_Up_Distractor.gif"",""img/Fire_Up_Distractor.gif"",""img/Fire_Up_Distractor.gif"",""img/Fire_Up_Distractor.gif"",""img/Fire_Up_Distractor.gif"",""img/Fire_Up_Distractor.gif"",""img/Fire_Up_Distractor.gif"",""img/Fire_Up_Distractor.gif"",""img/Fire_Up_Distractor.gif""]","5","targetDown_distractorsUp"
"","","","","","html-keyboard-response","36","142483","0.0-14.0-0.0-0.11","5dece7c319398a3a97c00c8f","619531dcf66c91622fa1b861","61959592db940ea05a18ad29","null","","null","","","","","main_T1_ITI","","","","",""
"","","","","","visual-search-circle","37","145021","0.0-14.0-0.0-1.11","5dece7c319398a3a97c00c8f","619531dcf66c91622fa1b861","61959592db940ea05a18ad29","1526.5","","d","false","[[488,533],[598,331],[533,111],[331,1],[111,66],[1,268],[66,488],[268,598]]","false","8","main_T2_Trial","s","img/Fire_Down_Target.gif","[""img/Fire_Up_Distractor.gif"",""img/Fire_Up_Distractor.gif"",""img/Fire_Up_Distractor.gif"",""img/Fire_Up_Distractor.gif"",""img/Fire_Up_Distractor.gif"",""img/Fire_Up_Distractor.gif"",""img/Fire_Up_Distractor.gif"",""img/Fire_Up_Distractor.gif"",""img/Fire_Up_Distractor.gif"",""img/Fire_Up_Distractor.gif"",""img/Fire_Up_Distractor.gif"",""img/Fire_Up_Distractor.gif""]","8","targetDown_distractorsUp"
"","","","","","html-keyboard-response","38","145023","0.0-14.0-0.0-0.12","5dece7c319398a3a97c00c8f","619531dcf66c91622fa1b861","61959592db940ea05a18ad29","null","","null","","","","","main_T1_ITI","","","","",""
"","","","","","visual-search-circle","39","146821","0.0-14.0-0.0-1.12","5dece7c319398a3a97c00c8f","619531dcf66c91622fa1b861","61959592db940ea05a18ad29","780.8999999761581","","d","false","[[182,576],[412,578],[576,417],[578,187],[417,23],[187,21],[23,182],[21,412]]","false","8","main_T2_Trial","s","img/Fire_Up_Target.gif","[""img/Fire_Down_Distractor.gif"",""img/Fire_Down_Distractor.gif"",""img/Fire_Down_Distractor.gif"",""img/Fire_Down_Distractor.gif"",""img/Fire_Down_Distractor.gif"",""img/Fire_Down_Distractor.gif"",""img/Fire_Down_Distractor.gif"",""img/Fire_Down_Distractor.gif"",""img/Fire_Down_Distractor.gif"",""img/Fire_Down_Distractor.gif"",""img/Fire_Down_Distractor.gif"",""img/Fire_Down_Distractor.gif""]","8","targetUp_distractorsDown"
"","","","","","html-keyboard-response","40","146830","0.0-14.0-0.0-0.13","5dece7c319398a3a97c00c8f","619531dcf66c91622fa1b861","61959592db940ea05a18ad29","null","","null","","","","","main_T1_ITI","","","","",""
"","","","","","visual-search-circle","41","148773","0.0-14.0-0.0-1.13","5dece7c319398a3a97c00c8f","619531dcf66c91622fa1b861","61959592db940ea05a18ad29","924.1999999284744","","d","false","[[99,522],[349,595],[562,446],[577,186],[384,12],[127,54],[0,282]]","false","7","main_T2_Trial","s","img/Fire_Down_Target.gif","[""img/Fire_Up_Distractor.gif"",""img/Fire_Up_Distractor.gif"",""img/Fire_Up_Distractor.gif"",""img/Fire_Up_Distractor.gif"",""img/Fire_Up_Distractor.gif"",""img/Fire_Up_Distractor.gif"",""img/Fire_Up_Distractor.gif"",""img/Fire_Up_Distractor.gif"",""img/Fire_Up_Distractor.gif"",""img/Fire_Up_Distractor.gif"",""img/Fire_Up_Distractor.gif"",""img/Fire_Up_Distractor.gif""]","7","targetDown_distractorsUp"
"","","","","","html-keyboard-response","42","148783","0.0-14.0-0.0-0.14","5dece7c319398a3a97c00c8f","619531dcf66c91622fa1b861","61959592db940ea05a18ad29","null","","null","","","","","main_T1_ITI","","","","",""
"","","","","","visual-search-circle","43","150615","0.0-14.0-0.0-1.14","5dece7c319398a3a97c00c8f","619531dcf66c91622fa1b861","61959592db940ea05a18ad29","821.8999999761581","","d","true","[[123,542],[346,596],[542,476],[596,253],[476,57],[253,3],[57,123],[3,346]]","true","8","main_T2_Trial","d","img/Fire_Down_Target.gif","[""img/Fire_Up_Distractor.gif"",""img/Fire_Up_Distractor.gif"",""img/Fire_Up_Distractor.gif"",""img/Fire_Up_Distractor.gif"",""img/Fire_Up_Distractor.gif"",""img/Fire_Up_Distractor.gif"",""img/Fire_Up_Distractor.gif"",""img/Fire_Up_Distractor.gif"",""img/Fire_Up_Distractor.gif"",""img/Fire_Up_Distractor.gif"",""img/Fire_Up_Distractor.gif"",""img/Fire_Up_Distractor.gif""]","8","targetDown_distractorsUp"
"","","","","","html-keyboard-response","44","150617","0.0-14.0-0.0-0.15","5dece7c319398a3a97c00c8f","619531dcf66c91622fa1b861","61959592db940ea05a18ad29","null","","null","","","","","main_T1_ITI","","","","",""
"","","","","","visual-search-circle","45","152585","0.0-14.0-0.0-1.15","5dece7c319398a3a97c00c8f","619531dcf66c91622fa1b861","61959592db940ea05a18ad29","954.8999999761581","","s","true","[[115,536],[369,591],[571,427],[568,167],[363,6],[110,67],[0,302]]","false","7","main_T2_Trial","s","img/Fire_Up_Target.gif","[""img/Fire_Down_Distractor.gif"",""img/Fire_Down_Distractor.gif"",""img/Fire_Down_Distractor.gif"",""img/Fire_Down_Distractor.gif"",""img/Fire_Down_Distractor.gif"",""img/Fire_Down_Distractor.gif"",""img/Fire_Down_Distractor.gif"",""img/Fire_Down_Distractor.gif"",""img/Fire_Down_Distractor.gif"",""img/Fire_Down_Distractor.gif"",""img/Fire_Down_Distractor.gif"",""img/Fire_Down_Distractor.gif""]","7","targetUp_distractorsDown"
"","","","","","html-keyboard-response","46","152587","0.0-14.0-0.0-0.16","5dece7c319398a3a97c00c8f","619531dcf66c91622fa1b861","61959592db940ea05a18ad29","null","","null","","","","","main_T1_ITI","","","","",""
"","","","","","visual-search-circle","47","154502","0.0-14.0-0.0-1.16","5dece7c319398a3a97c00c8f","619531dcf66c91622fa1b861","61959592db940ea05a18ad29","913.0999999046326","","s","true","[[48,136],[136,551],[551,463],[463,48]]","false","4","main_T2_Trial","s","img/Fire_Up_Target.gif","[""img/Fire_Down_Distractor.gif"",""img/Fire_Down_Distractor.gif"",""img/Fire_Down_Distractor.gif"",""img/Fire_Down_Distractor.gif"",""img/Fire_Down_Distractor.gif"",""img/Fire_Down_Distractor.gif"",""img/Fire_Down_Distractor.gif"",""img/Fire_Down_Distractor.gif"",""img/Fire_Down_Distractor.gif"",""img/Fire_Down_Distractor.gif"",""img/Fire_Down_Distractor.gif"",""img/Fire_Down_Distractor.gif""]","4","targetUp_distractorsDown"
"","","","","","html-keyboard-response","48","154505","0.0-14.0-0.0-0.17","5dece7c319398a3a97c00c8f","619531dcf66c91622fa1b861","61959592db940ea05a18ad29","null","","null","","","","","main_T1_ITI","","","","",""
"","","","","","visual-search-circle","49","156986","0.0-14.0-0.0-1.17","5dece7c319398a3a97c00c8f","619531dcf66c91622fa1b861","61959592db940ea05a18ad29","1461.8999999761581","","d","true","[[123,542],[476,542],[585,207],[300,0],[14,207]]","true","5","main_T2_Trial","d","img/Fire_Down_Target.gif","[""img/Fire_Up_Distractor.gif"",""img/Fire_Up_Distractor.gif"",""img/Fire_Up_Distractor.gif"",""img/Fire_Up_Distractor.gif"",""img/Fire_Up_Distractor.gif"",""img/Fire_Up_Distractor.gif"",""img/Fire_Up_Distractor.gif"",""img/Fire_Up_Distractor.gif"",""img/Fire_Up_Distractor.gif"",""img/Fire_Up_Distractor.gif"",""img/Fire_Up_Distractor.gif"",""img/Fire_Up_Distractor.gif""]","5","targetDown_distractorsUp"
"","","","","","html-keyboard-response","50","156988","0.0-14.0-0.0-0.18","5dece7c319398a3a97c00c8f","619531dcf66c91622fa1b861","61959592db940ea05a18ad29","null","","null","","","","","main_T1_ITI","","","","",""
"","","","","","visual-search-circle","51","159574","0.0-14.0-0.0-1.18","5dece7c319398a3a97c00c8f","619531dcf66c91622fa1b861","61959592db940ea05a18ad29","1579.7000000476837","","d","true","[[422,574],[598,331],[476,57],[177,25],[1,268],[123,542]]","true","6","main_T2_Trial","d","img/Fire_Down_Target.gif","[""img/Fire_Up_Distractor.gif"",""img/Fire_Up_Distractor.gif"",""img/Fire_Up_Distractor.gif"",""img/Fire_Up_Distractor.gif"",""img/Fire_Up_Distractor.gif"",""img/Fire_Up_Distractor.gif"",""img/Fire_Up_Distractor.gif"",""img/Fire_Up_Distractor.gif"",""img/Fire_Up_Distractor.gif"",""img/Fire_Up_Distractor.gif"",""img/Fire_Up_Distractor.gif"",""img/Fire_Up_Distractor.gif""]","6","targetDown_distractorsUp"
"","","","","","html-keyboard-response","52","163487","0.0-14.0-0.0-0.19","5dece7c319398a3a97c00c8f","619531dcf66c91622fa1b861","61959592db940ea05a18ad29","3912.899999976158","Wow! You've completed 20 out of 160 trials! </p> <p>  </p><p> Take a quick break, then press any key when you're ready to continue."," ","","","","","main_T1_ITI","","","","",""
"","","","","","visual-search-circle","53","165456","0.0-14.0-0.0-1.19","5dece7c319398a3a97c00c8f","619531dcf66c91622fa1b861","61959592db940ea05a18ad29","954.1999999284744","","d","false","[[32,436],[436,567],[567,163],[163,32]]","false","4","main_T2_Trial","s","img/Fire_Up_Target.gif","[""img/Fire_Down_Distractor.gif"",""img/Fire_Down_Distractor.gif"",""img/Fire_Down_Distractor.gif"",""img/Fire_Down_Distractor.gif"",""img/Fire_Down_Distractor.gif"",""img/Fire_Down_Distractor.gif"",""img/Fire_Down_Distractor.gif"",""img/Fire_Down_Distractor.gif"",""img/Fire_Down_Distractor.gif"",""img/Fire_Down_Distractor.gif"",""img/Fire_Down_Distractor.gif"",""img/Fire_Down_Distractor.gif""]","4","targetUp_distractorsDown"
"","","","","","html-keyboard-response","54","165458","0.0-14.0-0.0-0.20","5dece7c319398a3a97c00c8f","619531dcf66c91622fa1b861","61959592db940ea05a18ad29","null","","null","","","","","main_T1_ITI","","","","",""
"","","","","","visual-search-circle","55","168345","0.0-14.0-0.0-1.20","5dece7c319398a3a97c00c8f","619531dcf66c91622fa1b861","61959592db940ea05a18ad29","1869","","d","true","[[504,80],[80,95],[95,519],[519,504]]","true","4","main_T2_Trial","d","img/Fire_Up_Target.gif","[""img/Fire_Down_Distractor.gif"",""img/Fire_Down_Distractor.gif"",""img/Fire_Down_Distractor.gif"",""img/Fire_Down_Distractor.gif"",""img/Fire_Down_Distractor.gif"",""img/Fire_Down_Distractor.gif"",""img/Fire_Down_Distractor.gif"",""img/Fire_Down_Distractor.gif"",""img/Fire_Down_Distractor.gif"",""img/Fire_Down_Distractor.gif"",""img/Fire_Down_Distractor.gif"",""img/Fire_Down_Distractor.gif""]","4","targetUp_distractorsDown"
"","","","","","html-keyboard-response","56","168346","0.0-14.0-0.0-0.21","5dece7c319398a3a97c00c8f","619531dcf66c91622fa1b861","61959592db940ea05a18ad29","null","","null","","","","","main_T1_ITI","","","","",""
"","","","","","visual-search-circle","57","170285","0.0-14.0-0.0-1.21","5dece7c319398a3a97c00c8f","619531dcf66c91622fa1b861","61959592db940ea05a18ad29","920.5","","s","false","[[268,598],[542,476],[574,177],[331,1],[57,123],[25,422]]","true","6","main_T2_Trial","d","img/Fire_Down_Target.gif","[""img/Fire_Up_Distractor.gif"",""img/Fire_Up_Distractor.gif"",""img/Fire_Up_Distractor.gif"",""img/Fire_Up_Distractor.gif"",""img/Fire_Up_Distractor.gif"",""img/Fire_Up_Distractor.gif"",""img/Fire_Up_Distractor.gif"",""img/Fire_Up_Distractor.gif"",""img/Fire_Up_Distractor.gif"",""img/Fire_Up_Distractor.gif"",""img/Fire_Up_Distractor.gif"",""img/Fire_Up_Distractor.gif""]","6","targetDown_distractorsUp"
"","","","","","html-keyboard-response","58","170287","0.0-14.0-0.0-0.22","5dece7c319398a3a97c00c8f","619531dcf66c91622fa1b861","61959592db940ea05a18ad29","null","","null","","","","","main_T1_ITI","","","","",""
"","","","","","visual-search-circle","59","173462","0.0-14.0-0.0-1.22","5dece7c319398a3a97c00c8f","619531dcf66c91622fa1b861","61959592db940ea05a18ad29","2163.7000000476837","","s","true","[[63,115],[115,536],[536,484],[484,63]]","false","4","main_T2_Trial","s","img/Fire_Down_Target.gif","[""img/Fire_Up_Distractor.gif"",""img/Fire_Up_Distractor.gif"",""img/Fire_Up_Distractor.gif"",""img/Fire_Up_Distractor.gif"",""img/Fire_Up_Distractor.gif"",""img/Fire_Up_Distractor.gif"",""img/Fire_Up_Distractor.gif"",""img/Fire_Up_Distractor.gif"",""img/Fire_Up_Distractor.gif"",""img/Fire_Up_Distractor.gif"",""img/Fire_Up_Distractor.gif"",""img/Fire_Up_Distractor.gif""]","4","targetDown_distractorsUp"
"","","","","","html-keyboard-response","60","173466","0.0-14.0-0.0-0.23","5dece7c319398a3a97c00c8f","619531dcf66c91622fa1b861","61959592db940ea05a18ad29","null","","null","","","","","main_T1_ITI","","","","",""
"","","","","","visual-search-circle","61","175794","0.0-14.0-0.0-1.23","5dece7c319398a3a97c00c8f","619531dcf66c91622fa1b861","61959592db940ea05a18ad29","1314.3999999761581","","d","false","[[326,598],[529,492],[598,273],[492,70],[273,1],[70,107],[1,326],[107,529]]","false","8","main_T2_Trial","s","img/Fire_Down_Target.gif","[""img/Fire_Up_Distractor.gif"",""img/Fire_Up_Distractor.gif"",""img/Fire_Up_Distractor.gif"",""img/Fire_Up_Distractor.gif"",""img/Fire_Up_Distractor.gif"",""img/Fire_Up_Distractor.gif"",""img/Fire_Up_Distractor.gif"",""img/Fire_Up_Distractor.gif"",""img/Fire_Up_Distractor.gif"",""img/Fire_Up_Distractor.gif"",""img/Fire_Up_Distractor.gif"",""img/Fire_Up_Distractor.gif""]","8","targetDown_distractorsUp"
"","","","","","html-keyboard-response","62","175795","0.0-14.0-0.0-0.24","5dece7c319398a3a97c00c8f","619531dcf66c91622fa1b861","61959592db940ea05a18ad29","null","","null","","","","","main_T1_ITI","","","","",""
"","","","","","visual-search-circle","63","178682","0.0-14.0-0.0-1.24","5dece7c319398a3a97c00c8f","619531dcf66c91622fa1b861","61959592db940ea05a18ad29","1877.9000000953674","","d","true","[[80,504],[426,571],[597,263],[357,5],[37,154]]","true","5","main_T2_Trial","d","img/Fire_Up_Target.gif","[""img/Fire_Down_Distractor.gif"",""img/Fire_Down_Distractor.gif"",""img/Fire_Down_Distractor.gif"",""img/Fire_Down_Distractor.gif"",""img/Fire_Down_Distractor.gif"",""img/Fire_Down_Distractor.gif"",""img/Fire_Down_Distractor.gif"",""img/Fire_Down_Distractor.gif"",""img/Fire_Down_Distractor.gif"",""img/Fire_Down_Distractor.gif"",""img/Fire_Down_Distractor.gif"",""img/Fire_Down_Distractor.gif""]","5","targetUp_distractorsDown"
"","","","","","html-keyboard-response","64","178683","0.0-14.0-0.0-0.25","5dece7c319398a3a97c00c8f","619531dcf66c91622fa1b861","61959592db940ea05a18ad29","null","","null","","","","","main_T1_ITI","","","","",""
"","","","","","visual-search-circle","65","181613","0.0-14.0-0.0-1.25","5dece7c319398a3a97c00c8f","619531dcf66c91622fa1b861","61959592db940ea05a18ad29","1920","","d","true","[[177,25],[25,422],[422,574],[574,177]]","true","4","main_T2_Trial","d","img/Fire_Up_Target.gif","[""img/Fire_Down_Distractor.gif"",""img/Fire_Down_Distractor.gif"",""img/Fire_Down_Distractor.gif"",""img/Fire_Down_Distractor.gif"",""img/Fire_Down_Distractor.gif"",""img/Fire_Down_Distractor.gif"",""img/Fire_Down_Distractor.gif"",""img/Fire_Down_Distractor.gif"",""img/Fire_Down_Distractor.gif"",""img/Fire_Down_Distractor.gif"",""img/Fire_Down_Distractor.gif"",""img/Fire_Down_Distractor.gif""]","4","targetUp_distractorsDown"
"","","","","","html-keyboard-response","66","181621","0.0-14.0-0.0-0.26","5dece7c319398a3a97c00c8f","619531dcf66c91622fa1b861","61959592db940ea05a18ad29","null","","null","","","","","main_T1_ITI","","","","",""
"","","","","","visual-search-circle","67","184066","0.0-14.0-0.0-1.26","5dece7c319398a3a97c00c8f","619531dcf66c91622fa1b861","61959592db940ea05a18ad29","1433.3000000715256","","s","true","[[402,18],[143,44],[2,262],[85,509],[329,598],[552,462],[584,204]]","false","7","main_T2_Trial","s","img/Fire_Up_Target.gif","[""img/Fire_Down_Distractor.gif"",""img/Fire_Down_Distractor.gif"",""img/Fire_Down_Distractor.gif"",""img/Fire_Down_Distractor.gif"",""img/Fire_Down_Distractor.gif"",""img/Fire_Down_Distractor.gif"",""img/Fire_Down_Distractor.gif"",""img/Fire_Down_Distractor.gif"",""img/Fire_Down_Distractor.gif"",""img/Fire_Down_Distractor.gif"",""img/Fire_Down_Distractor.gif"",""img/Fire_Down_Distractor.gif""]","7","targetUp_distractorsDown"
"","","","","","html-keyboard-response","68","184069","0.0-14.0-0.0-0.27","5dece7c319398a3a97c00c8f","619531dcf66c91622fa1b861","61959592db940ea05a18ad29","null","","null","","","","","main_T1_ITI","","","","",""
"","","","","","visual-search-circle","69","187217","0.0-14.0-0.0-1.27","5dece7c319398a3a97c00c8f","619531dcf66c91622fa1b861","61959592db940ea05a18ad29","2130.7000000476837","","s","false","[[242,5],[51,132],[5,357],[132,548],[357,594],[548,467],[594,242],[467,51]]","true","8","main_T2_Trial","d","img/Fire_Down_Target.gif","[""img/Fire_Up_Distractor.gif"",""img/Fire_Up_Distractor.gif"",""img/Fire_Up_Distractor.gif"",""img/Fire_Up_Distractor.gif"",""img/Fire_Up_Distractor.gif"",""img/Fire_Up_Distractor.gif"",""img/Fire_Up_Distractor.gif"",""img/Fire_Up_Distractor.gif"",""img/Fire_Up_Distractor.gif"",""img/Fire_Up_Distractor.gif"",""img/Fire_Up_Distractor.gif"",""img/Fire_Up_Distractor.gif""]","8","targetDown_distractorsUp"
"","","","","","html-keyboard-response","70","187223","0.0-14.0-0.0-0.28","5dece7c319398a3a97c00c8f","619531dcf66c91622fa1b861","61959592db940ea05a18ad29","null","","null","","","","","main_T1_ITI","","","","",""
"","","","","","visual-search-circle","71","189606","0.0-14.0-0.0-1.28","5dece7c319398a3a97c00c8f","619531dcf66c91622fa1b861","61959592db940ea05a18ad29","1376.8999999761581","","s","false","[[331,1],[25,177],[99,522],[450,559],[593,237]]","true","5","main_T2_Trial","d","img/Fire_Down_Target.gif","[""img/Fire_Up_Distractor.gif"",""img/Fire_Up_Distractor.gif"",""img/Fire_Up_Distractor.gif"",""img/Fire_Up_Distractor.gif"",""img/Fire_Up_Distractor.gif"",""img/Fire_Up_Distractor.gif"",""img/Fire_Up_Distractor.gif"",""img/Fire_Up_Distractor.gif"",""img/Fire_Up_Distractor.gif"",""img/Fire_Up_Distractor.gif"",""img/Fire_Up_Distractor.gif"",""img/Fire_Up_Distractor.gif""]","5","targetDown_distractorsUp"
"","","","","","html-keyboard-response","72","189607","0.0-14.0-0.0-0.29","5dece7c319398a3a97c00c8f","619531dcf66c91622fa1b861","61959592db940ea05a18ad29","null","","null","","","","","main_T1_ITI","","","","",""
"","","","","","visual-search-circle","73","192339","0.0-14.0-0.0-1.29","5dece7c319398a3a97c00c8f","619531dcf66c91622fa1b861","61959592db940ea05a18ad29","1721.7000000476837","","d","true","[[522,99],[99,77],[77,500],[500,522]]","true","4","main_T2_Trial","d","img/Fire_Up_Target.gif","[""img/Fire_Down_Distractor.gif"",""img/Fire_Down_Distractor.gif"",""img/Fire_Down_Distractor.gif"",""img/Fire_Down_Distractor.gif"",""img/Fire_Down_Distractor.gif"",""img/Fire_Down_Distractor.gif"",""img/Fire_Down_Distractor.gif"",""img/Fire_Down_Distractor.gif"",""img/Fire_Down_Distractor.gif"",""img/Fire_Down_Distractor.gif"",""img/Fire_Down_Distractor.gif"",""img/Fire_Down_Distractor.gif""]","4","targetUp_distractorsDown"
"","","","","","html-keyboard-response","74","192342","0.0-14.0-0.0-0.30","5dece7c319398a3a97c00c8f","619531dcf66c91622fa1b861","61959592db940ea05a18ad29","null","","null","","","","","main_T1_ITI","","","","",""
"","","","","","visual-search-circle","75","195875","0.0-14.0-0.0-1.30","5dece7c319398a3a97c00c8f","619531dcf66c91622fa1b861","61959592db940ea05a18ad29","2514.7000000476837","","d","true","[[247,4],[2,258],[168,569],[515,508],[564,159]]","true","5","main_T2_Trial","d","img/Fire_Down_Target.gif","[""img/Fire_Up_Distractor.gif"",""img/Fire_Up_Distractor.gif"",""img/Fire_Up_Distractor.gif"",""img/Fire_Up_Distractor.gif"",""img/Fire_Up_Distractor.gif"",""img/Fire_Up_Distractor.gif"",""img/Fire_Up_Distractor.gif"",""img/Fire_Up_Distractor.gif"",""img/Fire_Up_Distractor.gif"",""img/Fire_Up_Distractor.gif"",""img/Fire_Up_Distractor.gif"",""img/Fire_Up_Distractor.gif""]","5","targetDown_distractorsUp"
"","","","","","html-keyboard-response","76","195877","0.0-14.0-0.0-0.31","5dece7c319398a3a97c00c8f","619531dcf66c91622fa1b861","61959592db940ea05a18ad29","null","","null","","","","","main_T1_ITI","","","","",""
"","","","","","visual-search-circle","77","199191","0.0-14.0-0.0-1.31","5dece7c319398a3a97c00c8f","619531dcf66c91622fa1b861","61959592db940ea05a18ad29","2302.7000000476837","","d","true","[[192,19],[13,209],[50,467],[275,598],[518,505],[596,257],[451,41]]","true","7","main_T2_Trial","d","img/Fire_Down_Target.gif","[""img/Fire_Up_Distractor.gif"",""img/Fire_Up_Distractor.gif"",""img/Fire_Up_Distractor.gif"",""img/Fire_Up_Distractor.gif"",""img/Fire_Up_Distractor.gif"",""img/Fire_Up_Distractor.gif"",""img/Fire_Up_Distractor.gif"",""img/Fire_Up_Distractor.gif"",""img/Fire_Up_Distractor.gif"",""img/Fire_Up_Distractor.gif"",""img/Fire_Up_Distractor.gif"",""img/Fire_Up_Distractor.gif""]","7","targetDown_distractorsUp"
"","","","","","html-keyboard-response","78","199194","0.0-14.0-0.0-0.32","5dece7c319398a3a97c00c8f","619531dcf66c91622fa1b861","61959592db940ea05a18ad29","null","","null","","","","","main_T1_ITI","","","","",""
"","","","","","visual-search-circle","79","201200","0.0-14.0-0.0-1.32","5dece7c319398a3a97c00c8f","619531dcf66c91622fa1b861","61959592db940ea05a18ad29","992.2999999523163","","s","false","[[13,387],[387,586],[586,212],[212,13]]","true","4","main_T2_Trial","d","img/Fire_Up_Target.gif","[""img/Fire_Down_Distractor.gif"",""img/Fire_Down_Distractor.gif"",""img/Fire_Down_Distractor.gif"",""img/Fire_Down_Distractor.gif"",""img/Fire_Down_Distractor.gif"",""img/Fire_Down_Distractor.gif"",""img/Fire_Down_Distractor.gif"",""img/Fire_Down_Distractor.gif"",""img/Fire_Down_Distractor.gif"",""img/Fire_Down_Distractor.gif"",""img/Fire_Down_Distractor.gif"",""img/Fire_Down_Distractor.gif""]","4","targetUp_distractorsDown"
"","","","","","html-keyboard-response","80","201205","0.0-14.0-0.0-0.33","5dece7c319398a3a97c00c8f","619531dcf66c91622fa1b861","61959592db940ea05a18ad29","null","","null","","","","","main_T1_ITI","","","","",""
"","","","","","visual-search-circle","81","203222","0.0-14.0-0.0-1.33","5dece7c319398a3a97c00c8f","619531dcf66c91622fa1b861","61959592db940ea05a18ad29","1009.5","","d","false","[[445,562],[588,382],[562,154],[382,11],[154,37],[11,217],[37,445],[217,588]]","false","8","main_T2_Trial","s","img/Fire_Down_Target.gif","[""img/Fire_Up_Distractor.gif"",""img/Fire_Up_Distractor.gif"",""img/Fire_Up_Distractor.gif"",""img/Fire_Up_Distractor.gif"",""img/Fire_Up_Distractor.gif"",""img/Fire_Up_Distractor.gif"",""img/Fire_Up_Distractor.gif"",""img/Fire_Up_Distractor.gif"",""img/Fire_Up_Distractor.gif"",""img/Fire_Up_Distractor.gif"",""img/Fire_Up_Distractor.gif"",""img/Fire_Up_Distractor.gif""]","8","targetDown_distractorsUp"
"","","","","","html-keyboard-response","82","203224","0.0-14.0-0.0-0.34","5dece7c319398a3a97c00c8f","619531dcf66c91622fa1b861","61959592db940ea05a18ad29","null","","null","","","","","main_T1_ITI","","","","",""
"","","","","","visual-search-circle","83","205162","0.0-14.0-0.0-1.34","5dece7c319398a3a97c00c8f","619531dcf66c91622fa1b861","61959592db940ea05a18ad29","927.4000000953674","","d","false","[[440,35],[91,84],[30,431],[341,597],[595,352]]","false","5","main_T2_Trial","s","img/Fire_Down_Target.gif","[""img/Fire_Up_Distractor.gif"",""img/Fire_Up_Distractor.gif"",""img/Fire_Up_Distractor.gif"",""img/Fire_Up_Distractor.gif"",""img/Fire_Up_Distractor.gif"",""img/Fire_Up_Distractor.gif"",""img/Fire_Up_Distractor.gif"",""img/Fire_Up_Distractor.gif"",""img/Fire_Up_Distractor.gif"",""img/Fire_Up_Distractor.gif"",""img/Fire_Up_Distractor.gif"",""img/Fire_Up_Distractor.gif""]","5","targetDown_distractorsUp"
"","","","","","html-keyboard-response","84","205174","0.0-14.0-0.0-0.35","5dece7c319398a3a97c00c8f","619531dcf66c91622fa1b861","61959592db940ea05a18ad29","null","","null","","","","","main_T1_ITI","","","","",""
"","","","","","visual-search-circle","85","207422","0.0-14.0-0.0-1.35","5dece7c319398a3a97c00c8f","619531dcf66c91622fa1b861","61959592db940ea05a18ad29","1242.7999999523163","","d","true","[[488,533],[533,111],[111,66],[66,488]]","true","4","main_T2_Trial","d","img/Fire_Down_Target.gif","[""img/Fire_Up_Distractor.gif"",""img/Fire_Up_Distractor.gif"",""img/Fire_Up_Distractor.gif"",""img/Fire_Up_Distractor.gif"",""img/Fire_Up_Distractor.gif"",""img/Fire_Up_Distractor.gif"",""img/Fire_Up_Distractor.gif"",""img/Fire_Up_Distractor.gif"",""img/Fire_Up_Distractor.gif"",""img/Fire_Up_Distractor.gif"",""img/Fire_Up_Distractor.gif"",""img/Fire_Up_Distractor.gif""]","4","targetDown_distractorsUp"
"","","","","","html-keyboard-response","86","207424","0.0-14.0-0.0-0.36","5dece7c319398a3a97c00c8f","619531dcf66c91622fa1b861","61959592db940ea05a18ad29","null","","null","","","","","main_T1_ITI","","","","",""
"","","","","","visual-search-circle","87","209426","0.0-14.0-0.0-1.36","5dece7c319398a3a97c00c8f","619531dcf66c91622fa1b861","61959592db940ea05a18ad29","986.6000000238419","","s","true","[[440,564],[594,355],[526,103],[288,0],[58,122],[10,378],[180,575]]","false","7","main_T2_Trial","s","img/Fire_Down_Target.gif","[""img/Fire_Up_Distractor.gif"",""img/Fire_Up_Distractor.gif"",""img/Fire_Up_Distractor.gif"",""img/Fire_Up_Distractor.gif"",""img/Fire_Up_Distractor.gif"",""img/Fire_Up_Distractor.gif"",""img/Fire_Up_Distractor.gif"",""img/Fire_Up_Distractor.gif"",""img/Fire_Up_Distractor.gif"",""img/Fire_Up_Distractor.gif"",""img/Fire_Up_Distractor.gif"",""img/Fire_Up_Distractor.gif""]","7","targetDown_distractorsUp"
"","","","","","html-keyboard-response","88","209429","0.0-14.0-0.0-0.37","5dece7c319398a3a97c00c8f","619531dcf66c91622fa1b861","61959592db940ea05a18ad29","null","","null","","","","","main_T1_ITI","","","","",""
"","","","","","visual-search-circle","89","211777","0.0-14.0-0.0-1.37","5dece7c319398a3a97c00c8f","619531dcf66c91622fa1b861","61959592db940ea05a18ad29","1335.0999999046326","","s","true","[[177,574],[407,580],[574,422],[580,192],[422,25],[192,19],[25,177],[19,407]]","false","8","main_T2_Trial","s","img/Fire_Up_Target.gif","[""img/Fire_Down_Distractor.gif"",""img/Fire_Down_Distractor.gif"",""img/Fire_Down_Distractor.gif"",""img/Fire_Down_Distractor.gif"",""img/Fire_Down_Distractor.gif"",""img/Fire_Down_Distractor.gif"",""img/Fire_Down_Distractor.gif"",""img/Fire_Down_Distractor.gif"",""img/Fire_Down_Distractor.gif"",""img/Fire_Down_Distractor.gif"",""img/Fire_Down_Distractor.gif"",""img/Fire_Down_Distractor.gif""]","8","targetUp_distractorsDown"
"","","","","","html-keyboard-response","90","211778","0.0-14.0-0.0-0.38","5dece7c319398a3a97c00c8f","619531dcf66c91622fa1b861","61959592db940ea05a18ad29","null","","null","","","","","main_T1_ITI","","","","",""
"","","","","","visual-search-circle","91","215162","0.0-14.0-0.0-1.38","5dece7c319398a3a97c00c8f","619531dcf66c91622fa1b861","61959592db940ea05a18ad29","2372.600000023842","","d","false","[[45,141],[141,554],[554,458],[458,45]]","false","4","main_T2_Trial","s","img/Fire_Down_Target.gif","[""img/Fire_Up_Distractor.gif"",""img/Fire_Up_Distractor.gif"",""img/Fire_Up_Distractor.gif"",""img/Fire_Up_Distractor.gif"",""img/Fire_Up_Distractor.gif"",""img/Fire_Up_Distractor.gif"",""img/Fire_Up_Distractor.gif"",""img/Fire_Up_Distractor.gif"",""img/Fire_Up_Distractor.gif"",""img/Fire_Up_Distractor.gif"",""img/Fire_Up_Distractor.gif"",""img/Fire_Up_Distractor.gif""]","4","targetDown_distractorsUp"
"","","","","","html-keyboard-response","92","217103","0.0-14.0-0.0-0.39","5dece7c319398a3a97c00c8f","619531dcf66c91622fa1b861","61959592db940ea05a18ad29","1939.5","Wow! You've completed 40 out of 160 trials! </p> <p>  </p><p> Take a quick break, then press any key when you're ready to continue.","d","","","","","main_T1_ITI","","","","",""
"","","","","","visual-search-circle","93","219000","0.0-14.0-0.0-1.39","5dece7c319398a3a97c00c8f","619531dcf66c91622fa1b861","61959592db940ea05a18ad29","890.1000000238419","","d","false","[[80,95],[13,387],[232,592],[519,504],[586,212],[367,7]]","false","6","main_T2_Trial","s","img/Fire_Up_Target.gif","[""img/Fire_Down_Distractor.gif"",""img/Fire_Down_Distractor.gif"",""img/Fire_Down_Distractor.gif"",""img/Fire_Down_Distractor.gif"",""img/Fire_Down_Distractor.gif"",""img/Fire_Down_Distractor.gif"",""img/Fire_Down_Distractor.gif"",""img/Fire_Down_Distractor.gif"",""img/Fire_Down_Distractor.gif"",""img/Fire_Down_Distractor.gif"",""img/Fire_Down_Distractor.gif"",""img/Fire_Down_Distractor.gif""]","6","targetUp_distractorsDown"
"","","","","","html-keyboard-response","94","219003","0.0-14.0-0.0-0.40","5dece7c319398a3a97c00c8f","619531dcf66c91622fa1b861","61959592db940ea05a18ad29","null","","null","","","","","main_T1_ITI","","","","",""
"","","","","","visual-search-circle","95","220988","0.0-14.0-0.0-1.40","5dece7c319398a3a97c00c8f","619531dcf66c91622fa1b861","61959592db940ea05a18ad29","965.8999999761581","","d","false","[[581,197],[395,15],[137,47],[1,270],[90,514],[337,597],[555,456]]","false","7","main_T2_Trial","s","img/Fire_Down_Target.gif","[""img/Fire_Up_Distractor.gif"",""img/Fire_Up_Distractor.gif"",""img/Fire_Up_Distractor.gif"",""img/Fire_Up_Distractor.gif"",""img/Fire_Up_Distractor.gif"",""img/Fire_Up_Distractor.gif"",""img/Fire_Up_Distractor.gif"",""img/Fire_Up_Distractor.gif"",""img/Fire_Up_Distractor.gif"",""img/Fire_Up_Distractor.gif"",""img/Fire_Up_Distractor.gif"",""img/Fire_Up_Distractor.gif""]","7","targetDown_distractorsUp"
"","","","","","html-keyboard-response","96","220990","0.0-14.0-0.0-0.41","5dece7c319398a3a97c00c8f","619531dcf66c91622fa1b861","61959592db940ea05a18ad29","null","","null","","","","","main_T1_ITI","","","","",""
"","","","","","visual-search-circle","97","222770","0.0-14.0-0.0-1.41","5dece7c319398a3a97c00c8f","619531dcf66c91622fa1b861","61959592db940ea05a18ad29","760.1999999284744","","d","true","[[141,554],[440,564],[599,310],[458,45],[159,35],[0,289]]","true","6","main_T2_Trial","d","img/Fire_Down_Target.gif","[""img/Fire_Up_Distractor.gif"",""img/Fire_Up_Distractor.gif"",""img/Fire_Up_Distractor.gif"",""img/Fire_Up_Distractor.gif"",""img/Fire_Up_Distractor.gif"",""img/Fire_Up_Distractor.gif"",""img/Fire_Up_Distractor.gif"",""img/Fire_Up_Distractor.gif"",""img/Fire_Up_Distractor.gif"",""img/Fire_Up_Distractor.gif"",""img/Fire_Up_Distractor.gif"",""img/Fire_Up_Distractor.gif""]","6","targetDown_distractorsUp"
"","","","","","html-keyboard-response","98","222778","0.0-14.0-0.0-0.42","5dece7c319398a3a97c00c8f","619531dcf66c91622fa1b861","61959592db940ea05a18ad29","null","","null","","","","","main_T1_ITI","","","","",""
"","","","","","visual-search-circle","99","224514","0.0-14.0-0.0-1.42","5dece7c319398a3a97c00c8f","619531dcf66c91622fa1b861","61959592db940ea05a18ad29","722.9000000953674","","s","false","[[2,336],[336,597],[597,263],[263,2]]","true","4","main_T2_Trial","d","img/Fire_Down_Target.gif","[""img/Fire_Up_Distractor.gif"",""img/Fire_Up_Distractor.gif"",""img/Fire_Up_Distractor.gif"",""img/Fire_Up_Distractor.gif"",""img/Fire_Up_Distractor.gif"",""img/Fire_Up_Distractor.gif"",""img/Fire_Up_Distractor.gif"",""img/Fire_Up_Distractor.gif"",""img/Fire_Up_Distractor.gif"",""img/Fire_Up_Distractor.gif"",""img/Fire_Up_Distractor.gif"",""img/Fire_Up_Distractor.gif""]","4","targetDown_distractorsUp"
"","","","","","html-keyboard-response","100","224517","0.0-14.0-0.0-0.43","5dece7c319398a3a97c00c8f","619531dcf66c91622fa1b861","61959592db940ea05a18ad29","null","","null","","","","","main_T1_ITI","","","","",""
"","","","","","visual-search-circle","101","226690","0.0-14.0-0.0-1.43","5dece7c319398a3a97c00c8f","619531dcf66c91622fa1b861","61959592db940ea05a18ad29","1151.5","","d","true","[[91,84],[0,294],[84,508],[294,599],[508,515],[599,305],[515,91],[305,0]]","true","8","main_T2_Trial","d","img/Fire_Down_Target.gif","[""img/Fire_Up_Distractor.gif"",""img/Fire_Up_Distractor.gif"",""img/Fire_Up_Distractor.gif"",""img/Fire_Up_Distractor.gif"",""img/Fire_Up_Distractor.gif"",""img/Fire_Up_Distractor.gif"",""img/Fire_Up_Distractor.gif"",""img/Fire_Up_Distractor.gif"",""img/Fire_Up_Distractor.gif"",""img/Fire_Up_Distractor.gif"",""img/Fire_Up_Distractor.gif"",""img/Fire_Up_Distractor.gif""]","8","targetDown_distractorsUp"
"","","","","","html-keyboard-response","102","226691","0.0-14.0-0.0-0.44","5dece7c319398a3a97c00c8f","619531dcf66c91622fa1b861","61959592db940ea05a18ad29","null","","null","","","","","main_T1_ITI","","","","",""
"","","","","","visual-search-circle","103","228100","0.0-14.0-0.0-1.44","5dece7c319398a3a97c00c8f","619531dcf66c91622fa1b861","61959592db940ea05a18ad29","400","","d","false","[[581,402],[555,143],[337,2],[90,85],[1,329],[137,552],[395,584]]","false","7","main_T2_Trial","s","img/Fire_Up_Target.gif","[""img/Fire_Down_Distractor.gif"",""img/Fire_Down_Distractor.gif"",""img/Fire_Down_Distractor.gif"",""img/Fire_Down_Distractor.gif"",""img/Fire_Down_Distractor.gif"",""img/Fire_Down_Distractor.gif"",""img/Fire_Down_Distractor.gif"",""img/Fire_Down_Distractor.gif"",""img/Fire_Down_Distractor.gif"",""img/Fire_Down_Distractor.gif"",""img/Fire_Down_Distractor.gif"",""img/Fire_Down_Distractor.gif""]","7","targetUp_distractorsDown"
"","","","","","html-keyboard-response","104","228103","0.0-14.0-0.0-0.45","5dece7c319398a3a97c00c8f","619531dcf66c91622fa1b861","61959592db940ea05a18ad29","null","","null","","","","","main_T1_ITI","","","","",""
"","","","","","visual-search-circle","105","229943","0.0-14.0-0.0-1.45","5dece7c319398a3a97c00c8f","619531dcf66c91622fa1b861","61959592db940ea05a18ad29","826.3000000715256","","s","false","[[207,585],[500,522],[593,237],[392,14],[99,77],[6,362]]","true","6","main_T2_Trial","d","img/Fire_Up_Target.gif","[""img/Fire_Down_Distractor.gif"",""img/Fire_Down_Distractor.gif"",""img/Fire_Down_Distractor.gif"",""img/Fire_Down_Distractor.gif"",""img/Fire_Down_Distractor.gif"",""img/Fire_Down_Distractor.gif"",""img/Fire_Down_Distractor.gif"",""img/Fire_Down_Distractor.gif"",""img/Fire_Down_Distractor.gif"",""img/Fire_Down_Distractor.gif"",""img/Fire_Down_Distractor.gif"",""img/Fire_Down_Distractor.gif""]","6","targetUp_distractorsDown"
"","","","","","html-keyboard-response","106","229945","0.0-14.0-0.0-0.46","5dece7c319398a3a97c00c8f","619531dcf66c91622fa1b861","61959592db940ea05a18ad29","null","","null","","","","","main_T1_ITI","","","","",""
"","","","","","visual-search-circle","107","232085","0.0-14.0-0.0-1.46","5dece7c319398a3a97c00c8f","619531dcf66c91622fa1b861","61959592db940ea05a18ad29","1128.7000000476837","","d","true","[[599,294],[508,84],[294,0],[84,91],[0,305],[91,515],[305,599],[515,508]]","true","8","main_T2_Trial","d","img/Fire_Down_Target.gif","[""img/Fire_Up_Distractor.gif"",""img/Fire_Up_Distractor.gif"",""img/Fire_Up_Distractor.gif"",""img/Fire_Up_Distractor.gif"",""img/Fire_Up_Distractor.gif"",""img/Fire_Up_Distractor.gif"",""img/Fire_Up_Distractor.gif"",""img/Fire_Up_Distractor.gif"",""img/Fire_Up_Distractor.gif"",""img/Fire_Up_Distractor.gif"",""img/Fire_Up_Distractor.gif"",""img/Fire_Up_Distractor.gif""]","8","targetDown_distractorsUp"
"","","","","","html-keyboard-response","108","232086","0.0-14.0-0.0-0.47","5dece7c319398a3a97c00c8f","619531dcf66c91622fa1b861","61959592db940ea05a18ad29","null","","null","","","","","main_T1_ITI","","","","",""
"","","","","","visual-search-circle","109","233796","0.0-14.0-0.0-1.47","5dece7c319398a3a97c00c8f","619531dcf66c91622fa1b861","61959592db940ea05a18ad29","698","","d","false","[[554,141],[289,0],[35,159],[45,458],[310,599],[564,440]]","false","6","main_T2_Trial","s","img/Fire_Down_Target.gif","[""img/Fire_Up_Distractor.gif"",""img/Fire_Up_Distractor.gif"",""img/Fire_Up_Distractor.gif"",""img/Fire_Up_Distractor.gif"",""img/Fire_Up_Distractor.gif"",""img/Fire_Up_Distractor.gif"",""img/Fire_Up_Distractor.gif"",""img/Fire_Up_Distractor.gif"",""img/Fire_Up_Distractor.gif"",""img/Fire_Up_Distractor.gif"",""img/Fire_Up_Distractor.gif"",""img/Fire_Up_Distractor.gif""]","6","targetDown_distractorsUp"
"","","","","","html-keyboard-response","110","233798","0.0-14.0-0.0-0.48","5dece7c319398a3a97c00c8f","619531dcf66c91622fa1b861","61959592db940ea05a18ad29","null","","null","","","","","main_T1_ITI","","","","",""
"","","","","","visual-search-circle","111","235598","0.0-14.0-0.0-1.48","5dece7c319398a3a97c00c8f","619531dcf66c91622fa1b861","61959592db940ea05a18ad29","777.3000000715256","","s","true","[[1,268],[123,542],[422,574],[598,331],[476,57],[177,25]]","false","6","main_T2_Trial","s","img/Fire_Up_Target.gif","[""img/Fire_Down_Distractor.gif"",""img/Fire_Down_Distractor.gif"",""img/Fire_Down_Distractor.gif"",""img/Fire_Down_Distractor.gif"",""img/Fire_Down_Distractor.gif"",""img/Fire_Down_Distractor.gif"",""img/Fire_Down_Distractor.gif"",""img/Fire_Down_Distractor.gif"",""img/Fire_Down_Distractor.gif"",""img/Fire_Down_Distractor.gif"",""img/Fire_Down_Distractor.gif"",""img/Fire_Down_Distractor.gif""]","6","targetUp_distractorsDown"
"","","","","","html-keyboard-response","112","235606","0.0-14.0-0.0-0.49","5dece7c319398a3a97c00c8f","619531dcf66c91622fa1b861","61959592db940ea05a18ad29","null","","null","","","","","main_T1_ITI","","","","",""
"","","","","","visual-search-circle","113","237436","0.0-14.0-0.0-1.49","5dece7c319398a3a97c00c8f","619531dcf66c91622fa1b861","61959592db940ea05a18ad29","814.6999999284744","","d","false","[[539,119],[308,0],[70,106],[5,358],[162,566],[422,573],[590,374]]","false","7","main_T2_Trial","s","img/Fire_Down_Target.gif","[""img/Fire_Up_Distractor.gif"",""img/Fire_Up_Distractor.gif"",""img/Fire_Up_Distractor.gif"",""img/Fire_Up_Distractor.gif"",""img/Fire_Up_Distractor.gif"",""img/Fire_Up_Distractor.gif"",""img/Fire_Up_Distractor.gif"",""img/Fire_Up_Distractor.gif"",""img/Fire_Up_Distractor.gif"",""img/Fire_Up_Distractor.gif"",""img/Fire_Up_Distractor.gif"",""img/Fire_Up_Distractor.gif""]","7","targetDown_distractorsUp"
"","","","","","html-keyboard-response","114","237449","0.0-14.0-0.0-0.50","5dece7c319398a3a97c00c8f","619531dcf66c91622fa1b861","61959592db940ea05a18ad29","null","","null","","","","","main_T1_ITI","","","","",""
"","","","","","visual-search-circle","115","239235","0.0-14.0-0.0-1.50","5dece7c319398a3a97c00c8f","619531dcf66c91622fa1b861","61959592db940ea05a18ad29","770.5999999046326","","d","true","[[519,504],[599,289],[504,80],[289,0],[80,95],[0,310],[95,519],[310,599]]","true","8","main_T2_Trial","d","img/Fire_Up_Target.gif","[""img/Fire_Down_Distractor.gif"",""img/Fire_Down_Distractor.gif"",""img/Fire_Down_Distractor.gif"",""img/Fire_Down_Distractor.gif"",""img/Fire_Down_Distractor.gif"",""img/Fire_Down_Distractor.gif"",""img/Fire_Down_Distractor.gif"",""img/Fire_Down_Distractor.gif"",""img/Fire_Down_Distractor.gif"",""img/Fire_Down_Distractor.gif"",""img/Fire_Down_Distractor.gif"",""img/Fire_Down_Distractor.gif""]","8","targetUp_distractorsDown"
"","","","","","html-keyboard-response","116","239239","0.0-14.0-0.0-0.51","5dece7c319398a3a97c00c8f","619531dcf66c91622fa1b861","61959592db940ea05a18ad29","null","","null","","","","","main_T1_ITI","","","","",""
"","","","","","visual-search-circle","117","240985","0.0-14.0-0.0-1.51","5dece7c319398a3a97c00c8f","619531dcf66c91622fa1b861","61959592db940ea05a18ad29","730","","d","true","[[0,299],[112,534],[366,592],[570,430],[570,169],[366,7],[112,65]]","true","7","main_T2_Trial","d","img/Fire_Down_Target.gif","[""img/Fire_Up_Distractor.gif"",""img/Fire_Up_Distractor.gif"",""img/Fire_Up_Distractor.gif"",""img/Fire_Up_Distractor.gif"",""img/Fire_Up_Distractor.gif"",""img/Fire_Up_Distractor.gif"",""img/Fire_Up_Distractor.gif"",""img/Fire_Up_Distractor.gif"",""img/Fire_Up_Distractor.gif"",""img/Fire_Up_Distractor.gif"",""img/Fire_Up_Distractor.gif"",""img/Fire_Up_Distractor.gif""]","7","targetDown_distractorsUp"
"","","","","","html-keyboard-response","118","240986","0.0-14.0-0.0-0.52","5dece7c319398a3a97c00c8f","619531dcf66c91622fa1b861","61959592db940ea05a18ad29","null","","null","","","","","main_T1_ITI","","","","",""
"","","","","","visual-search-circle","119","242421","0.0-14.0-0.0-1.52","5dece7c319398a3a97c00c8f","619531dcf66c91622fa1b861","61959592db940ea05a18ad29","420.2999999523163","","s","true","[[377,10],[150,40],[10,222],[40,450],[222,589],[450,559],[589,377],[559,150]]","false","8","main_T2_Trial","s","img/Fire_Up_Target.gif","[""img/Fire_Down_Distractor.gif"",""img/Fire_Down_Distractor.gif"",""img/Fire_Down_Distractor.gif"",""img/Fire_Down_Distractor.gif"",""img/Fire_Down_Distractor.gif"",""img/Fire_Down_Distractor.gif"",""img/Fire_Down_Distractor.gif"",""img/Fire_Down_Distractor.gif"",""img/Fire_Down_Distractor.gif"",""img/Fire_Down_Distractor.gif"",""img/Fire_Down_Distractor.gif"",""img/Fire_Down_Distractor.gif""]","8","targetUp_distractorsDown"
"","","","","","html-keyboard-response","120","242428","0.0-14.0-0.0-0.53","5dece7c319398a3a97c00c8f","619531dcf66c91622fa1b861","61959592db940ea05a18ad29","null","","null","","","","","main_T1_ITI","","","","",""
"","","","","","visual-search-circle","121","243817","0.0-14.0-0.0-1.53","5dece7c319398a3a97c00c8f","619531dcf66c91622fa1b861","61959592db940ea05a18ad29","374.2000000476837","","d","false","[[402,18],[18,197],[197,581],[581,402]]","false","4","main_T2_Trial","s","img/Fire_Up_Target.gif","[""img/Fire_Down_Distractor.gif"",""img/Fire_Down_Distractor.gif"",""img/Fire_Down_Distractor.gif"",""img/Fire_Down_Distractor.gif"",""img/Fire_Down_Distractor.gif"",""img/Fire_Down_Distractor.gif"",""img/Fire_Down_Distractor.gif"",""img/Fire_Down_Distractor.gif"",""img/Fire_Down_Distractor.gif"",""img/Fire_Down_Distractor.gif"",""img/Fire_Down_Distractor.gif"",""img/Fire_Down_Distractor.gif""]","4","targetUp_distractorsDown"
"","","","","","html-keyboard-response","122","243829","0.0-14.0-0.0-0.54","5dece7c319398a3a97c00c8f","619531dcf66c91622fa1b861","61959592db940ea05a18ad29","null","","null","","","","","main_T1_ITI","","","","",""
"","","","","","visual-search-circle","123","245333","0.0-14.0-0.0-1.54","5dece7c319398a3a97c00c8f","619531dcf66c91622fa1b861","61959592db940ea05a18ad29","492.6999999284744","","d","false","[[599,315],[407,19],[66,111],[48,463],[377,589]]","false","5","main_T2_Trial","s","img/Fire_Up_Target.gif","[""img/Fire_Down_Distractor.gif"",""img/Fire_Down_Distractor.gif"",""img/Fire_Down_Distractor.gif"",""img/Fire_Down_Distractor.gif"",""img/Fire_Down_Distractor.gif"",""img/Fire_Down_Distractor.gif"",""img/Fire_Down_Distractor.gif"",""img/Fire_Down_Distractor.gif"",""img/Fire_Down_Distractor.gif"",""img/Fire_Down_Distractor.gif"",""img/Fire_Down_Distractor.gif"",""img/Fire_Down_Distractor.gif""]","5","targetUp_distractorsDown"
"","","","","","html-keyboard-response","124","245337","0.0-14.0-0.0-0.55","5dece7c319398a3a97c00c8f","619531dcf66c91622fa1b861","61959592db940ea05a18ad29","null","","null","","","","","main_T1_ITI","","","","",""
"","","","","","visual-search-circle","125","246804","0.0-14.0-0.0-1.55","5dece7c319398a3a97c00c8f","619531dcf66c91622fa1b861","61959592db940ea05a18ad29","456.89999997615814","","s","true","[[77,99],[99,522],[522,500],[500,77]]","false","4","main_T2_Trial","s","img/Fire_Up_Target.gif","[""img/Fire_Down_Distractor.gif"",""img/Fire_Down_Distractor.gif"",""img/Fire_Down_Distractor.gif"",""img/Fire_Down_Distractor.gif"",""img/Fire_Down_Distractor.gif"",""img/Fire_Down_Distractor.gif"",""img/Fire_Down_Distractor.gif"",""img/Fire_Down_Distractor.gif"",""img/Fire_Down_Distractor.gif"",""img/Fire_Down_Distractor.gif"",""img/Fire_Down_Distractor.gif"",""img/Fire_Down_Distractor.gif""]","4","targetUp_distractorsDown"
"","","","","","html-keyboard-response","126","246807","0.0-14.0-0.0-0.56","5dece7c319398a3a97c00c8f","619531dcf66c91622fa1b861","61959592db940ea05a18ad29","null","","null","","","","","main_T1_ITI","","","","",""
"","","","","","visual-search-circle","127","248467","0.0-14.0-0.0-1.56","5dece7c319398a3a97c00c8f","619531dcf66c91622fa1b861","61959592db940ea05a18ad29","652","","d","true","[[87,512],[377,589],[589,377],[512,87],[222,10],[10,222]]","true","6","main_T2_Trial","d","img/Fire_Down_Target.gif","[""img/Fire_Up_Distractor.gif"",""img/Fire_Up_Distractor.gif"",""img/Fire_Up_Distractor.gif"",""img/Fire_Up_Distractor.gif"",""img/Fire_Up_Distractor.gif"",""img/Fire_Up_Distractor.gif"",""img/Fire_Up_Distractor.gif"",""img/Fire_Up_Distractor.gif"",""img/Fire_Up_Distractor.gif"",""img/Fire_Up_Distractor.gif"",""img/Fire_Up_Distractor.gif"",""img/Fire_Up_Distractor.gif""]","6","targetDown_distractorsUp"
"","","","","","html-keyboard-response","128","248469","0.0-14.0-0.0-0.57","5dece7c319398a3a97c00c8f","619531dcf66c91622fa1b861","61959592db940ea05a18ad29","null","","null","","","","","main_T1_ITI","","","","",""
"","","","","","visual-search-circle","129","250136","0.0-14.0-0.0-1.57","5dece7c319398a3a97c00c8f","619531dcf66c91622fa1b861","61959592db940ea05a18ad29","658.8999999761581","","d","false","[[407,580],[596,346],[488,66],[192,19],[3,253],[111,533]]","false","6","main_T2_Trial","s","img/Fire_Down_Target.gif","[""img/Fire_Up_Distractor.gif"",""img/Fire_Up_Distractor.gif"",""img/Fire_Up_Distractor.gif"",""img/Fire_Up_Distractor.gif"",""img/Fire_Up_Distractor.gif"",""img/Fire_Up_Distractor.gif"",""img/Fire_Up_Distractor.gif"",""img/Fire_Up_Distractor.gif"",""img/Fire_Up_Distractor.gif"",""img/Fire_Up_Distractor.gif"",""img/Fire_Up_Distractor.gif"",""img/Fire_Up_Distractor.gif""]","6","targetDown_distractorsUp"
"","","","","","html-keyboard-response","130","250139","0.0-14.0-0.0-0.58","5dece7c319398a3a97c00c8f","619531dcf66c91622fa1b861","61959592db940ea05a18ad29","null","","null","","","","","main_T1_ITI","","","","",""
"","","","","","visual-search-circle","131","251958","0.0-14.0-0.0-1.58","5dece7c319398a3a97c00c8f","619531dcf66c91622fa1b861","61959592db940ea05a18ad29","806.1999999284744","","d","true","[[522,500],[585,207],[362,6],[77,99],[14,392],[237,593]]","true","6","main_T2_Trial","d","img/Fire_Up_Target.gif","[""img/Fire_Down_Distractor.gif"",""img/Fire_Down_Distractor.gif"",""img/Fire_Down_Distractor.gif"",""img/Fire_Down_Distractor.gif"",""img/Fire_Down_Distractor.gif"",""img/Fire_Down_Distractor.gif"",""img/Fire_Down_Distractor.gif"",""img/Fire_Down_Distractor.gif"",""img/Fire_Down_Distractor.gif"",""img/Fire_Down_Distractor.gif"",""img/Fire_Down_Distractor.gif"",""img/Fire_Down_Distractor.gif""]","6","targetUp_distractorsDown"
"","","","","","html-keyboard-response","132","255489","0.0-14.0-0.0-0.59","5dece7c319398a3a97c00c8f","619531dcf66c91622fa1b861","61959592db940ea05a18ad29","3530.2999999523163","Wow! You've completed 60 out of 160 trials! </p> <p>  </p><p> Take a quick break, then press any key when you're ready to continue.","d","","","","","main_T1_ITI","","","","",""
"","","","","","visual-search-circle","133","257248","0.0-14.0-0.0-1.59","5dece7c319398a3a97c00c8f","619531dcf66c91622fa1b861","61959592db940ea05a18ad29","745.5999999046326","","d","false","[[99,522],[392,585],[593,362],[500,77],[207,14],[6,237]]","false","6","main_T2_Trial","s","img/Fire_Up_Target.gif","[""img/Fire_Down_Distractor.gif"",""img/Fire_Down_Distractor.gif"",""img/Fire_Down_Distractor.gif"",""img/Fire_Down_Distractor.gif"",""img/Fire_Down_Distractor.gif"",""img/Fire_Down_Distractor.gif"",""img/Fire_Down_Distractor.gif"",""img/Fire_Down_Distractor.gif"",""img/Fire_Down_Distractor.gif"",""img/Fire_Down_Distractor.gif"",""img/Fire_Down_Distractor.gif"",""img/Fire_Down_Distractor.gif""]","6","targetUp_distractorsDown"
"","","","","","html-keyboard-response","134","257254","0.0-14.0-0.0-0.60","5dece7c319398a3a97c00c8f","619531dcf66c91622fa1b861","61959592db940ea05a18ad29","null","","null","","","","","main_T1_ITI","","","","",""
"","","","","","visual-search-circle","135","259000","0.0-14.0-0.0-1.60","5dece7c319398a3a97c00c8f","619531dcf66c91622fa1b861","61959592db940ea05a18ad29","723","","s","false","[[28,426],[197,581],[426,571],[581,402],[571,173],[402,18],[173,28],[18,197]]","true","8","main_T2_Trial","d","img/Fire_Up_Target.gif","[""img/Fire_Down_Distractor.gif"",""img/Fire_Down_Distractor.gif"",""img/Fire_Down_Distractor.gif"",""img/Fire_Down_Distractor.gif"",""img/Fire_Down_Distractor.gif"",""img/Fire_Down_Distractor.gif"",""img/Fire_Down_Distractor.gif"",""img/Fire_Down_Distractor.gif"",""img/Fire_Down_Distractor.gif"",""img/Fire_Down_Distractor.gif"",""img/Fire_Down_Distractor.gif"",""img/Fire_Down_Distractor.gif""]","8","targetUp_distractorsDown"
"","","","","","html-keyboard-response","136","259012","0.0-14.0-0.0-0.61","5dece7c319398a3a97c00c8f","619531dcf66c91622fa1b861","61959592db940ea05a18ad29","null","","null","","","","","main_T1_ITI","","","","",""
"","","","","","visual-search-circle","137","260457","0.0-14.0-0.0-1.61","5dece7c319398a3a97c00c8f","619531dcf66c91622fa1b861","61959592db940ea05a18ad29","438","","d","true","[[253,3],[3,253],[163,567],[512,512],[567,163]]","true","5","main_T2_Trial","d","img/Fire_Up_Target.gif","[""img/Fire_Down_Distractor.gif"",""img/Fire_Down_Distractor.gif"",""img/Fire_Down_Distractor.gif"",""img/Fire_Down_Distractor.gif"",""img/Fire_Down_Distractor.gif"",""img/Fire_Down_Distractor.gif"",""img/Fire_Down_Distractor.gif"",""img/Fire_Down_Distractor.gif"",""img/Fire_Down_Distractor.gif"",""img/Fire_Down_Distractor.gif"",""img/Fire_Down_Distractor.gif"",""img/Fire_Down_Distractor.gif""]","5","targetUp_distractorsDown"
"","","","","","html-keyboard-response","138","260460","0.0-14.0-0.0-0.62","5dece7c319398a3a97c00c8f","619531dcf66c91622fa1b861","61959592db940ea05a18ad29","null","","null","","","","","main_T1_ITI","","","","",""
"","","","","","visual-search-circle","139","262065","0.0-14.0-0.0-1.62","5dece7c319398a3a97c00c8f","619531dcf66c91622fa1b861","61959592db940ea05a18ad29","587.6000000238419","","d","false","[[315,599],[589,377],[463,48],[111,66],[19,407]]","false","5","main_T2_Trial","s","img/Fire_Down_Target.gif","[""img/Fire_Up_Distractor.gif"",""img/Fire_Up_Distractor.gif"",""img/Fire_Up_Distractor.gif"",""img/Fire_Up_Distractor.gif"",""img/Fire_Up_Distractor.gif"",""img/Fire_Up_Distractor.gif"",""img/Fire_Up_Distractor.gif"",""img/Fire_Up_Distractor.gif"",""img/Fire_Up_Distractor.gif"",""img/Fire_Up_Distractor.gif"",""img/Fire_Up_Distractor.gif"",""img/Fire_Up_Distractor.gif""]","5","targetDown_distractorsUp"
"","","","","","html-keyboard-response","140","262077","0.0-14.0-0.0-0.63","5dece7c319398a3a97c00c8f","619531dcf66c91622fa1b861","61959592db940ea05a18ad29","null","","null","","","","","main_T1_ITI","","","","",""
"","","","","","visual-search-circle","141","263629","0.0-14.0-0.0-1.63","5dece7c319398a3a97c00c8f","619531dcf66c91622fa1b861","61959592db940ea05a18ad29","531.8000000715256","","s","true","[[519,504],[599,289],[504,80],[289,0],[80,95],[0,310],[95,519],[310,599]]","false","8","main_T2_Trial","s","img/Fire_Up_Target.gif","[""img/Fire_Down_Distractor.gif"",""img/Fire_Down_Distractor.gif"",""img/Fire_Down_Distractor.gif"",""img/Fire_Down_Distractor.gif"",""img/Fire_Down_Distractor.gif"",""img/Fire_Down_Distractor.gif"",""img/Fire_Down_Distractor.gif"",""img/Fire_Down_Distractor.gif"",""img/Fire_Down_Distractor.gif"",""img/Fire_Down_Distractor.gif"",""img/Fire_Down_Distractor.gif"",""img/Fire_Down_Distractor.gif""]","8","targetUp_distractorsDown"
"","","","","","html-keyboard-response","142","263632","0.0-14.0-0.0-0.64","5dece7c319398a3a97c00c8f","619531dcf66c91622fa1b861","61959592db940ea05a18ad29","null","","null","","","","","main_T1_ITI","","","","",""
"","","","","","visual-search-circle","143","265943","0.0-14.0-0.0-1.64","5dece7c319398a3a97c00c8f","619531dcf66c91622fa1b861","61959592db940ea05a18ad29","1294.3999999761581","","d","true","[[0,284],[284,599],[599,315],[315,0]]","true","4","main_T2_Trial","d","img/Fire_Down_Target.gif","[""img/Fire_Up_Distractor.gif"",""img/Fire_Up_Distractor.gif"",""img/Fire_Up_Distractor.gif"",""img/Fire_Up_Distractor.gif"",""img/Fire_Up_Distractor.gif"",""img/Fire_Up_Distractor.gif"",""img/Fire_Up_Distractor.gif"",""img/Fire_Up_Distractor.gif"",""img/Fire_Up_Distractor.gif"",""img/Fire_Up_Distractor.gif"",""img/Fire_Up_Distractor.gif"",""img/Fire_Up_Distractor.gif""]","4","targetDown_distractorsUp"
"","","","","","html-keyboard-response","144","265945","0.0-14.0-0.0-0.65","5dece7c319398a3a97c00c8f","619531dcf66c91622fa1b861","61959592db940ea05a18ad29","null","","null","","","","","main_T1_ITI","","","","",""
"","","","","","visual-search-circle","145","267629","0.0-14.0-0.0-1.65","5dece7c319398a3a97c00c8f","619531dcf66c91622fa1b861","61959592db940ea05a18ad29","665","","d","true","[[66,111],[19,407],[253,596],[533,488],[580,192],[346,3]]","true","6","main_T2_Trial","d","img/Fire_Down_Target.gif","[""img/Fire_Up_Distractor.gif"",""img/Fire_Up_Distractor.gif"",""img/Fire_Up_Distractor.gif"",""img/Fire_Up_Distractor.gif"",""img/Fire_Up_Distractor.gif"",""img/Fire_Up_Distractor.gif"",""img/Fire_Up_Distractor.gif"",""img/Fire_Up_Distractor.gif"",""img/Fire_Up_Distractor.gif"",""img/Fire_Up_Distractor.gif"",""img/Fire_Up_Distractor.gif"",""img/Fire_Up_Distractor.gif""]","6","targetDown_distractorsUp"
"","","","","","html-keyboard-response","146","267631","0.0-14.0-0.0-0.66","5dece7c319398a3a97c00c8f","619531dcf66c91622fa1b861","61959592db940ea05a18ad29","null","","null","","","","","main_T1_ITI","","","","",""
"","","","","","visual-search-circle","147","269253","0.0-14.0-0.0-1.66","5dece7c319398a3a97c00c8f","619531dcf66c91622fa1b861","61959592db940ea05a18ad29","606.3999999761581","","d","true","[[417,576],[597,336],[480,60],[182,23],[2,263],[119,539]]","true","6","main_T2_Trial","d","img/Fire_Up_Target.gif","[""img/Fire_Down_Distractor.gif"",""img/Fire_Down_Distractor.gif"",""img/Fire_Down_Distractor.gif"",""img/Fire_Down_Distractor.gif"",""img/Fire_Down_Distractor.gif"",""img/Fire_Down_Distractor.gif"",""img/Fire_Down_Distractor.gif"",""img/Fire_Down_Distractor.gif"",""img/Fire_Down_Distractor.gif"",""img/Fire_Down_Distractor.gif"",""img/Fire_Down_Distractor.gif"",""img/Fire_Down_Distractor.gif""]","6","targetUp_distractorsDown"
"","","","","","html-keyboard-response","148","269257","0.0-14.0-0.0-0.67","5dece7c319398a3a97c00c8f","619531dcf66c91622fa1b861","61959592db940ea05a18ad29","null","","null","","","","","main_T1_ITI","","","","",""
"","","","","","visual-search-circle","149","271252","0.0-14.0-0.0-1.67","5dece7c319398a3a97c00c8f","619531dcf66c91622fa1b861","61959592db940ea05a18ad29","982.1000000238419","","s","false","[[0,284],[284,599],[599,315],[315,0]]","true","4","main_T2_Trial","d","img/Fire_Down_Target.gif","[""img/Fire_Up_Distractor.gif"",""img/Fire_Up_Distractor.gif"",""img/Fire_Up_Distractor.gif"",""img/Fire_Up_Distractor.gif"",""img/Fire_Up_Distractor.gif"",""img/Fire_Up_Distractor.gif"",""img/Fire_Up_Distractor.gif"",""img/Fire_Up_Distractor.gif"",""img/Fire_Up_Distractor.gif"",""img/Fire_Up_Distractor.gif"",""img/Fire_Up_Distractor.gif"",""img/Fire_Up_Distractor.gif""]","4","targetDown_distractorsUp"
"","","","","","html-keyboard-response","150","271258","0.0-14.0-0.0-0.68","5dece7c319398a3a97c00c8f","619531dcf66c91622fa1b861","61959592db940ea05a18ad29","null","","null","","","","","main_T1_ITI","","","","",""
"","","","","","visual-search-circle","151","273345","0.0-14.0-0.0-1.68","5dece7c319398a3a97c00c8f","619531dcf66c91622fa1b861","61959592db940ea05a18ad29","1059.5","","d","false","[[48,136],[15,394],[196,581],[455,556],[597,338],[515,91],[270,1]]","false","7","main_T2_Trial","s","img/Fire_Up_Target.gif","[""img/Fire_Down_Distractor.gif"",""img/Fire_Down_Distractor.gif"",""img/Fire_Down_Distractor.gif"",""img/Fire_Down_Distractor.gif"",""img/Fire_Down_Distractor.gif"",""img/Fire_Down_Distractor.gif"",""img/Fire_Down_Distractor.gif"",""img/Fire_Down_Distractor.gif"",""img/Fire_Down_Distractor.gif"",""img/Fire_Down_Distractor.gif"",""img/Fire_Down_Distractor.gif"",""img/Fire_Down_Distractor.gif""]","7","targetUp_distractorsDown"
"","","","","","html-keyboard-response","152","273347","0.0-14.0-0.0-0.69","5dece7c319398a3a97c00c8f","619531dcf66c91622fa1b861","61959592db940ea05a18ad29","null","","null","","","","","main_T1_ITI","","","","",""
"","","","","","visual-search-circle","153","275072","0.0-14.0-0.0-1.69","5dece7c319398a3a97c00c8f","619531dcf66c91622fa1b861","61959592db940ea05a18ad29","704.2999999523163","","s","true","[[0,289],[289,599],[599,310],[310,0]]","false","4","main_T2_Trial","s","img/Fire_Up_Target.gif","[""img/Fire_Down_Distractor.gif"",""img/Fire_Down_Distractor.gif"",""img/Fire_Down_Distractor.gif"",""img/Fire_Down_Distractor.gif"",""img/Fire_Down_Distractor.gif"",""img/Fire_Down_Distractor.gif"",""img/Fire_Down_Distractor.gif"",""img/Fire_Down_Distractor.gif"",""img/Fire_Down_Distractor.gif"",""img/Fire_Down_Distractor.gif"",""img/Fire_Down_Distractor.gif"",""img/Fire_Down_Distractor.gif""]","4","targetUp_distractorsDown"
"","","","","","html-keyboard-response","154","275074","0.0-14.0-0.0-0.70","5dece7c319398a3a97c00c8f","619531dcf66c91622fa1b861","61959592db940ea05a18ad29","null","","null","","","","","main_T1_ITI","","","","",""
"","","","","","visual-search-circle","155","277329","0.0-14.0-0.0-1.70","5dece7c319398a3a97c00c8f","619531dcf66c91622fa1b861","61959592db940ea05a18ad29","1244.3999999761581","","d","true","[[529,107],[292,0],[60,118],[9,374],[176,573],[436,566],[594,359]]","true","7","main_T2_Trial","d","img/Fire_Up_Target.gif","[""img/Fire_Down_Distractor.gif"",""img/Fire_Down_Distractor.gif"",""img/Fire_Down_Distractor.gif"",""img/Fire_Down_Distractor.gif"",""img/Fire_Down_Distractor.gif"",""img/Fire_Down_Distractor.gif"",""img/Fire_Down_Distractor.gif"",""img/Fire_Down_Distractor.gif"",""img/Fire_Down_Distractor.gif"",""img/Fire_Down_Distractor.gif"",""img/Fire_Down_Distractor.gif"",""img/Fire_Down_Distractor.gif""]","7","targetUp_distractorsDown"
"","","","","","html-keyboard-response","156","277331","0.0-14.0-0.0-0.71","5dece7c319398a3a97c00c8f","619531dcf66c91622fa1b861","61959592db940ea05a18ad29","null","","null","","","","","main_T1_ITI","","","","",""
"","","","","","visual-search-circle","157","279181","0.0-14.0-0.0-1.71","5dece7c319398a3a97c00c8f","619531dcf66c91622fa1b861","61959592db940ea05a18ad29","842.2999999523163","","d","false","[[346,3],[66,111],[19,407],[253,596],[533,488],[580,192]]","false","6","main_T2_Trial","s","img/Fire_Up_Target.gif","[""img/Fire_Down_Distractor.gif"",""img/Fire_Down_Distractor.gif"",""img/Fire_Down_Distractor.gif"",""img/Fire_Down_Distractor.gif"",""img/Fire_Down_Distractor.gif"",""img/Fire_Down_Distractor.gif"",""img/Fire_Down_Distractor.gif"",""img/Fire_Down_Distractor.gif"",""img/Fire_Down_Distractor.gif"",""img/Fire_Down_Distractor.gif"",""img/Fire_Down_Distractor.gif"",""img/Fire_Down_Distractor.gif""]","6","targetUp_distractorsDown"
"","","","","","html-keyboard-response","158","279184","0.0-14.0-0.0-0.72","5dece7c319398a3a97c00c8f","619531dcf66c91622fa1b861","61959592db940ea05a18ad29","null","","null","","","","","main_T1_ITI","","","","",""
"","","","","","visual-search-circle","159","281109","0.0-14.0-0.0-1.72","5dece7c319398a3a97c00c8f","619531dcf66c91622fa1b861","61959592db940ea05a18ad29","911.6999999284744","","d","true","[[8,372],[175,572],[435,567],[593,360],[530,108],[294,0],[61,117]]","true","7","main_T2_Trial","d","img/Fire_Down_Target.gif","[""img/Fire_Up_Distractor.gif"",""img/Fire_Up_Distractor.gif"",""img/Fire_Up_Distractor.gif"",""img/Fire_Up_Distractor.gif"",""img/Fire_Up_Distractor.gif"",""img/Fire_Up_Distractor.gif"",""img/Fire_Up_Distractor.gif"",""img/Fire_Up_Distractor.gif"",""img/Fire_Up_Distractor.gif"",""img/Fire_Up_Distractor.gif"",""img/Fire_Up_Distractor.gif"",""img/Fire_Up_Distractor.gif""]","7","targetDown_distractorsUp"
"","","","","","html-keyboard-response","160","281110","0.0-14.0-0.0-0.73","5dece7c319398a3a97c00c8f","619531dcf66c91622fa1b861","61959592db940ea05a18ad29","null","","null","","","","","main_T1_ITI","","","","",""
"","","","","","visual-search-circle","161","283131","0.0-14.0-0.0-1.73","5dece7c319398a3a97c00c8f","619531dcf66c91622fa1b861","61959592db940ea05a18ad29","1009.6000000238419","","d","false","[[595,352],[492,70],[197,18],[4,247],[107,529],[402,581]]","false","6","main_T2_Trial","s","img/Fire_Down_Target.gif","[""img/Fire_Up_Distractor.gif"",""img/Fire_Up_Distractor.gif"",""img/Fire_Up_Distractor.gif"",""img/Fire_Up_Distractor.gif"",""img/Fire_Up_Distractor.gif"",""img/Fire_Up_Distractor.gif"",""img/Fire_Up_Distractor.gif"",""img/Fire_Up_Distractor.gif"",""img/Fire_Up_Distractor.gif"",""img/Fire_Up_Distractor.gif"",""img/Fire_Up_Distractor.gif"",""img/Fire_Up_Distractor.gif""]","6","targetDown_distractorsUp"
"","","","","","html-keyboard-response","162","283145","0.0-14.0-0.0-0.74","5dece7c319398a3a97c00c8f","619531dcf66c91622fa1b861","61959592db940ea05a18ad29","null","","null","","","","","main_T1_ITI","","","","",""
"","","","","","visual-search-circle","163","284784","0.0-14.0-0.0-1.74","5dece7c319398a3a97c00c8f","619531dcf66c91622fa1b861","61959592db940ea05a18ad29","633.4000000953674","","s","true","[[99,77],[25,422],[331,598],[593,362],[449,40]]","false","5","main_T2_Trial","s","img/Fire_Down_Target.gif","[""img/Fire_Up_Distractor.gif"",""img/Fire_Up_Distractor.gif"",""img/Fire_Up_Distractor.gif"",""img/Fire_Up_Distractor.gif"",""img/Fire_Up_Distractor.gif"",""img/Fire_Up_Distractor.gif"",""img/Fire_Up_Distractor.gif"",""img/Fire_Up_Distractor.gif"",""img/Fire_Up_Distractor.gif"",""img/Fire_Up_Distractor.gif"",""img/Fire_Up_Distractor.gif"",""img/Fire_Up_Distractor.gif""]","5","targetDown_distractorsUp"
"","","","","","html-keyboard-response","164","284786","0.0-14.0-0.0-0.75","5dece7c319398a3a97c00c8f","619531dcf66c91622fa1b861","61959592db940ea05a18ad29","null","","null","","","","","main_T1_ITI","","","","",""
"","","","","","visual-search-circle","165","286643","0.0-14.0-0.0-1.75","5dece7c319398a3a97c00c8f","619531dcf66c91622fa1b861","61959592db940ea05a18ad29","839.5","","s","false","[[168,569],[467,548],[599,279],[431,30],[132,51],[0,320]]","true","6","main_T2_Trial","d","img/Fire_Up_Target.gif","[""img/Fire_Down_Distractor.gif"",""img/Fire_Down_Distractor.gif"",""img/Fire_Down_Distractor.gif"",""img/Fire_Down_Distractor.gif"",""img/Fire_Down_Distractor.gif"",""img/Fire_Down_Distractor.gif"",""img/Fire_Down_Distractor.gif"",""img/Fire_Down_Distractor.gif"",""img/Fire_Down_Distractor.gif"",""img/Fire_Down_Distractor.gif"",""img/Fire_Down_Distractor.gif"",""img/Fire_Down_Distractor.gif""]","6","targetUp_distractorsDown"
"","","","","","html-keyboard-response","166","286646","0.0-14.0-0.0-0.76","5dece7c319398a3a97c00c8f","619531dcf66c91622fa1b861","61959592db940ea05a18ad29","null","","null","","","","","main_T1_ITI","","","","",""
"","","","","","visual-search-circle","167","288449","0.0-14.0-0.0-1.76","5dece7c319398a3a97c00c8f","619531dcf66c91622fa1b861","61959592db940ea05a18ad29","788.8000000715256","","d","true","[[382,588],[577,415],[562,155],[350,4],[100,76],[0,316],[126,544]]","true","7","main_T2_Trial","d","img/Fire_Down_Target.gif","[""img/Fire_Up_Distractor.gif"",""img/Fire_Up_Distractor.gif"",""img/Fire_Up_Distractor.gif"",""img/Fire_Up_Distractor.gif"",""img/Fire_Up_Distractor.gif"",""img/Fire_Up_Distractor.gif"",""img/Fire_Up_Distractor.gif"",""img/Fire_Up_Distractor.gif"",""img/Fire_Up_Distractor.gif"",""img/Fire_Up_Distractor.gif"",""img/Fire_Up_Distractor.gif"",""img/Fire_Up_Distractor.gif""]","7","targetDown_distractorsUp"
"","","","","","html-keyboard-response","168","288451","0.0-14.0-0.0-0.77","5dece7c319398a3a97c00c8f","619531dcf66c91622fa1b861","61959592db940ea05a18ad29","null","","null","","","","","main_T1_ITI","","","","",""
"","","","","","visual-search-circle","169","290206","0.0-14.0-0.0-1.77","5dece7c319398a3a97c00c8f","619531dcf66c91622fa1b861","61959592db940ea05a18ad29","743.5","","d","false","[[299,600],[534,487],[592,233],[430,29],[169,29],[7,233],[65,487]]","false","7","main_T2_Trial","s","img/Fire_Up_Target.gif","[""img/Fire_Down_Distractor.gif"",""img/Fire_Down_Distractor.gif"",""img/Fire_Down_Distractor.gif"",""img/Fire_Down_Distractor.gif"",""img/Fire_Down_Distractor.gif"",""img/Fire_Down_Distractor.gif"",""img/Fire_Down_Distractor.gif"",""img/Fire_Down_Distractor.gif"",""img/Fire_Down_Distractor.gif"",""img/Fire_Down_Distractor.gif"",""img/Fire_Down_Distractor.gif"",""img/Fire_Down_Distractor.gif""]","7","targetUp_distractorsDown"
"","","","","","html-keyboard-response","170","290213","0.0-14.0-0.0-0.78","5dece7c319398a3a97c00c8f","619531dcf66c91622fa1b861","61959592db940ea05a18ad29","null","","null","","","","","main_T1_ITI","","","","",""
"","","","","","visual-search-circle","171","291836","0.0-14.0-0.0-1.78","5dece7c319398a3a97c00c8f","619531dcf66c91622fa1b861","61959592db940ea05a18ad29","599.2999999523163","","s","true","[[32,436],[346,596],[596,346],[436,32],[87,87]]","false","5","main_T2_Trial","s","img/Fire_Up_Target.gif","[""img/Fire_Down_Distractor.gif"",""img/Fire_Down_Distractor.gif"",""img/Fire_Down_Distractor.gif"",""img/Fire_Down_Distractor.gif"",""img/Fire_Down_Distractor.gif"",""img/Fire_Down_Distractor.gif"",""img/Fire_Down_Distractor.gif"",""img/Fire_Down_Distractor.gif"",""img/Fire_Down_Distractor.gif"",""img/Fire_Down_Distractor.gif"",""img/Fire_Down_Distractor.gif"",""img/Fire_Down_Distractor.gif""]","5","targetUp_distractorsDown"
"","","","","","html-keyboard-response","172","294868","0.0-14.0-0.0-0.79","5dece7c319398a3a97c00c8f","619531dcf66c91622fa1b861","61959592db940ea05a18ad29","3032.100000023842","Wow! You've completed 80 out of 160 trials! </p> <p>  </p><p> Take a quick break, then press any key when you're ready to continue.","d","","","","","main_T1_ITI","","","","",""
"","","","","","visual-search-circle","173","296555","0.0-14.0-0.0-1.79","5dece7c319398a3a97c00c8f","619531dcf66c91622fa1b861","61959592db940ea05a18ad29","669.1000000238419","","d","false","[[599,305],[515,91],[305,0],[91,84],[0,294],[84,508],[294,599],[508,515]]","false","8","main_T2_Trial","s","img/Fire_Up_Target.gif","[""img/Fire_Down_Distractor.gif"",""img/Fire_Down_Distractor.gif"",""img/Fire_Down_Distractor.gif"",""img/Fire_Down_Distractor.gif"",""img/Fire_Down_Distractor.gif"",""img/Fire_Down_Distractor.gif"",""img/Fire_Down_Distractor.gif"",""img/Fire_Down_Distractor.gif"",""img/Fire_Down_Distractor.gif"",""img/Fire_Down_Distractor.gif"",""img/Fire_Down_Distractor.gif"",""img/Fire_Down_Distractor.gif""]","8","targetUp_distractorsDown"
"","","","","","html-keyboard-response","174","296558","0.0-14.0-0.0-0.80","5dece7c319398a3a97c00c8f","619531dcf66c91622fa1b861","61959592db940ea05a18ad29","null","","null","","","","","main_T1_ITI","","","","",""
"","","","","","visual-search-circle","175","297968","0.0-14.0-0.0-1.80","5dece7c319398a3a97c00c8f","619531dcf66c91622fa1b861","61959592db940ea05a18ad29","398.39999997615814","","d","false","[[559,450],[579,190],[388,13],[131,52],[0,277],[95,519],[344,596]]","false","7","main_T2_Trial","s","img/Fire_Up_Target.gif","[""img/Fire_Down_Distractor.gif"",""img/Fire_Down_Distractor.gif"",""img/Fire_Down_Distractor.gif"",""img/Fire_Down_Distractor.gif"",""img/Fire_Down_Distractor.gif"",""img/Fire_Down_Distractor.gif"",""img/Fire_Down_Distractor.gif"",""img/Fire_Down_Distractor.gif"",""img/Fire_Down_Distractor.gif"",""img/Fire_Down_Distractor.gif"",""img/Fire_Down_Distractor.gif"",""img/Fire_Down_Distractor.gif""]","7","targetUp_distractorsDown"
"","","","","","html-keyboard-response","176","297976","0.0-14.0-0.0-0.81","5dece7c319398a3a97c00c8f","619531dcf66c91622fa1b861","61959592db940ea05a18ad29","null","","null","","","","","main_T1_ITI","","","","",""
"","","","","","visual-search-circle","177","299644","0.0-14.0-0.0-1.81","5dece7c319398a3a97c00c8f","619531dcf66c91622fa1b861","61959592db940ea05a18ad29","657.4000000953674","","s","false","[[99,522],[349,595],[562,446],[577,186],[384,12],[127,54],[0,282]]","true","7","main_T2_Trial","d","img/Fire_Down_Target.gif","[""img/Fire_Up_Distractor.gif"",""img/Fire_Up_Distractor.gif"",""img/Fire_Up_Distractor.gif"",""img/Fire_Up_Distractor.gif"",""img/Fire_Up_Distractor.gif"",""img/Fire_Up_Distractor.gif"",""img/Fire_Up_Distractor.gif"",""img/Fire_Up_Distractor.gif"",""img/Fire_Up_Distractor.gif"",""img/Fire_Up_Distractor.gif"",""img/Fire_Up_Distractor.gif"",""img/Fire_Up_Distractor.gif""]","7","targetDown_distractorsUp"
"","","","","","html-keyboard-response","178","299645","0.0-14.0-0.0-0.82","5dece7c319398a3a97c00c8f","619531dcf66c91622fa1b861","61959592db940ea05a18ad29","null","","null","","","","","main_T1_ITI","","","","",""
"","","","","","visual-search-circle","179","301361","0.0-14.0-0.0-1.82","5dece7c319398a3a97c00c8f","619531dcf66c91622fa1b861","61959592db940ea05a18ad29","698.2999999523163","","d","false","[[504,519],[592,232],[387,13],[95,80],[7,367],[212,586]]","false","6","main_T2_Trial","s","img/Fire_Down_Target.gif","[""img/Fire_Up_Distractor.gif"",""img/Fire_Up_Distractor.gif"",""img/Fire_Up_Distractor.gif"",""img/Fire_Up_Distractor.gif"",""img/Fire_Up_Distractor.gif"",""img/Fire_Up_Distractor.gif"",""img/Fire_Up_Distractor.gif"",""img/Fire_Up_Distractor.gif"",""img/Fire_Up_Distractor.gif"",""img/Fire_Up_Distractor.gif"",""img/Fire_Up_Distractor.gif"",""img/Fire_Up_Distractor.gif""]","6","targetDown_distractorsUp"
"","","","","","html-keyboard-response","180","301366","0.0-14.0-0.0-0.83","5dece7c319398a3a97c00c8f","619531dcf66c91622fa1b861","61959592db940ea05a18ad29","null","","null","","","","","main_T1_ITI","","","","",""
"","","","","","visual-search-circle","181","303599","0.0-14.0-0.0-1.83","5dece7c319398a3a97c00c8f","619531dcf66c91622fa1b861","61959592db940ea05a18ad29","1211","","d","true","[[417,576],[588,380],[543,124],[314,0],[74,102],[4,352],[157,563]]","true","7","main_T2_Trial","d","img/Fire_Up_Target.gif","[""img/Fire_Down_Distractor.gif"",""img/Fire_Down_Distractor.gif"",""img/Fire_Down_Distractor.gif"",""img/Fire_Down_Distractor.gif"",""img/Fire_Down_Distractor.gif"",""img/Fire_Down_Distractor.gif"",""img/Fire_Down_Distractor.gif"",""img/Fire_Down_Distractor.gif"",""img/Fire_Down_Distractor.gif"",""img/Fire_Down_Distractor.gif"",""img/Fire_Down_Distractor.gif"",""img/Fire_Down_Distractor.gif""]","7","targetUp_distractorsDown"
"","","","","","html-keyboard-response","182","303616","0.0-14.0-0.0-0.84","5dece7c319398a3a97c00c8f","619531dcf66c91622fa1b861","61959592db940ea05a18ad29","null","","null","","","","","main_T1_ITI","","","","",""
"","","","","","visual-search-circle","183","305538","0.0-14.0-0.0-1.84","5dece7c319398a3a97c00c8f","619531dcf66c91622fa1b861","61959592db940ea05a18ad29","907.8999999761581","","s","false","[[187,578],[578,412],[412,21],[21,187]]","true","4","main_T2_Trial","d","img/Fire_Up_Target.gif","[""img/Fire_Down_Distractor.gif"",""img/Fire_Down_Distractor.gif"",""img/Fire_Down_Distractor.gif"",""img/Fire_Down_Distractor.gif"",""img/Fire_Down_Distractor.gif"",""img/Fire_Down_Distractor.gif"",""img/Fire_Down_Distractor.gif"",""img/Fire_Down_Distractor.gif"",""img/Fire_Down_Distractor.gif"",""img/Fire_Down_Distractor.gif"",""img/Fire_Down_Distractor.gif"",""img/Fire_Down_Distractor.gif""]","4","targetUp_distractorsDown"
"","","","","","html-keyboard-response","184","305542","0.0-14.0-0.0-0.85","5dece7c319398a3a97c00c8f","619531dcf66c91622fa1b861","61959592db940ea05a18ad29","null","","null","","","","","main_T1_ITI","","","","",""
"","","","","","visual-search-circle","185","307308","0.0-14.0-0.0-1.85","5dece7c319398a3a97c00c8f","619531dcf66c91622fa1b861","61959592db940ea05a18ad29","748","","d","false","[[111,533],[407,580],[596,346],[488,66],[192,19],[3,253]]","false","6","main_T2_Trial","s","img/Fire_Up_Target.gif","[""img/Fire_Down_Distractor.gif"",""img/Fire_Down_Distractor.gif"",""img/Fire_Down_Distractor.gif"",""img/Fire_Down_Distractor.gif"",""img/Fire_Down_Distractor.gif"",""img/Fire_Down_Distractor.gif"",""img/Fire_Down_Distractor.gif"",""img/Fire_Down_Distractor.gif"",""img/Fire_Down_Distractor.gif"",""img/Fire_Down_Distractor.gif"",""img/Fire_Down_Distractor.gif"",""img/Fire_Down_Distractor.gif""]","6","targetUp_distractorsDown"
"","","","","","html-keyboard-response","186","307311","0.0-14.0-0.0-0.86","5dece7c319398a3a97c00c8f","619531dcf66c91622fa1b861","61959592db940ea05a18ad29","null","","null","","","","","main_T1_ITI","","","","",""
"","","","","","visual-search-circle","187","308897","0.0-14.0-0.0-1.86","5dece7c319398a3a97c00c8f","619531dcf66c91622fa1b861","61959592db940ea05a18ad29","578.7999999523163","","s","false","[[154,562],[454,557],[599,294],[445,37],[145,42],[0,305]]","true","6","main_T2_Trial","d","img/Fire_Up_Target.gif","[""img/Fire_Down_Distractor.gif"",""img/Fire_Down_Distractor.gif"",""img/Fire_Down_Distractor.gif"",""img/Fire_Down_Distractor.gif"",""img/Fire_Down_Distractor.gif"",""img/Fire_Down_Distractor.gif"",""img/Fire_Down_Distractor.gif"",""img/Fire_Down_Distractor.gif"",""img/Fire_Down_Distractor.gif"",""img/Fire_Down_Distractor.gif"",""img/Fire_Down_Distractor.gif"",""img/Fire_Down_Distractor.gif""]","6","targetUp_distractorsDown"
"","","","","","html-keyboard-response","188","308899","0.0-14.0-0.0-0.87","5dece7c319398a3a97c00c8f","619531dcf66c91622fa1b861","61959592db940ea05a18ad29","null","","null","","","","","main_T1_ITI","","","","",""
"","","","","","visual-search-circle","189","310594","0.0-14.0-0.0-1.87","5dece7c319398a3a97c00c8f","619531dcf66c91622fa1b861","61959592db940ea05a18ad29","690.5","","d","false","[[70,492],[412,578],[599,279],[372,8],[45,141]]","false","5","main_T2_Trial","s","img/Fire_Up_Target.gif","[""img/Fire_Down_Distractor.gif"",""img/Fire_Down_Distractor.gif"",""img/Fire_Down_Distractor.gif"",""img/Fire_Down_Distractor.gif"",""img/Fire_Down_Distractor.gif"",""img/Fire_Down_Distractor.gif"",""img/Fire_Down_Distractor.gif"",""img/Fire_Down_Distractor.gif"",""img/Fire_Down_Distractor.gif"",""img/Fire_Down_Distractor.gif"",""img/Fire_Down_Distractor.gif"",""img/Fire_Down_Distractor.gif""]","5","targetUp_distractorsDown"
"","","","","","html-keyboard-response","190","310597","0.0-14.0-0.0-0.88","5dece7c319398a3a97c00c8f","619531dcf66c91622fa1b861","61959592db940ea05a18ad29","null","","null","","","","","main_T1_ITI","","","","",""
"","","","","","visual-search-circle","191","312358","0.0-14.0-0.0-1.88","5dece7c319398a3a97c00c8f","619531dcf66c91622fa1b861","61959592db940ea05a18ad29","739.7000000476837","","d","true","[[3,346],[123,542],[346,596],[542,476],[596,253],[476,57],[253,3],[57,123]]","true","8","main_T2_Trial","d","img/Fire_Up_Target.gif","[""img/Fire_Down_Distractor.gif"",""img/Fire_Down_Distractor.gif"",""img/Fire_Down_Distractor.gif"",""img/Fire_Down_Distractor.gif"",""img/Fire_Down_Distractor.gif"",""img/Fire_Down_Distractor.gif"",""img/Fire_Down_Distractor.gif"",""img/Fire_Down_Distractor.gif"",""img/Fire_Down_Distractor.gif"",""img/Fire_Down_Distractor.gif"",""img/Fire_Down_Distractor.gif"",""img/Fire_Down_Distractor.gif""]","8","targetUp_distractorsDown"
"","","","","","html-keyboard-response","192","312363","0.0-14.0-0.0-0.89","5dece7c319398a3a97c00c8f","619531dcf66c91622fa1b861","61959592db940ea05a18ad29","null","","null","","","","","main_T1_ITI","","","","",""
"","","","","","visual-search-circle","193","314063","0.0-14.0-0.0-1.89","5dece7c319398a3a97c00c8f","619531dcf66c91622fa1b861","61959592db940ea05a18ad29","694.5","","d","false","[[500,77],[207,14],[6,237],[99,522],[392,585],[593,362]]","false","6","main_T2_Trial","s","img/Fire_Down_Target.gif","[""img/Fire_Up_Distractor.gif"",""img/Fire_Up_Distractor.gif"",""img/Fire_Up_Distractor.gif"",""img/Fire_Up_Distractor.gif"",""img/Fire_Up_Distractor.gif"",""img/Fire_Up_Distractor.gif"",""img/Fire_Up_Distractor.gif"",""img/Fire_Up_Distractor.gif"",""img/Fire_Up_Distractor.gif"",""img/Fire_Up_Distractor.gif"",""img/Fire_Up_Distractor.gif"",""img/Fire_Up_Distractor.gif""]","6","targetDown_distractorsUp"
"","","","","","html-keyboard-response","194","314065","0.0-14.0-0.0-0.90","5dece7c319398a3a97c00c8f","619531dcf66c91622fa1b861","61959592db940ea05a18ad29","null","","null","","","","","main_T1_ITI","","","","",""
"","","","","","visual-search-circle","195","315575","0.0-14.0-0.0-1.90","5dece7c319398a3a97c00c8f","619531dcf66c91622fa1b861","61959592db940ea05a18ad29","504.2999999523163","","s","true","[[145,42],[42,454],[454,557],[557,145]]","false","4","main_T2_Trial","s","img/Fire_Down_Target.gif","[""img/Fire_Up_Distractor.gif"",""img/Fire_Up_Distractor.gif"",""img/Fire_Up_Distractor.gif"",""img/Fire_Up_Distractor.gif"",""img/Fire_Up_Distractor.gif"",""img/Fire_Up_Distractor.gif"",""img/Fire_Up_Distractor.gif"",""img/Fire_Up_Distractor.gif"",""img/Fire_Up_Distractor.gif"",""img/Fire_Up_Distractor.gif"",""img/Fire_Up_Distractor.gif"",""img/Fire_Up_Distractor.gif""]","4","targetDown_distractorsUp"
"","","","","","html-keyboard-response","196","315578","0.0-14.0-0.0-0.91","5dece7c319398a3a97c00c8f","619531dcf66c91622fa1b861","61959592db940ea05a18ad29","null","","null","","","","","main_T1_ITI","","","","",""
"","","","","","visual-search-circle","197","317240","0.0-14.0-0.0-1.91","5dece7c319398a3a97c00c8f","619531dcf66c91622fa1b861","61959592db940ea05a18ad29","657.5","","d","false","[[57,476],[392,585],[600,300],[392,14],[57,123]]","false","5","main_T2_Trial","s","img/Fire_Down_Target.gif","[""img/Fire_Up_Distractor.gif"",""img/Fire_Up_Distractor.gif"",""img/Fire_Up_Distractor.gif"",""img/Fire_Up_Distractor.gif"",""img/Fire_Up_Distractor.gif"",""img/Fire_Up_Distractor.gif"",""img/Fire_Up_Distractor.gif"",""img/Fire_Up_Distractor.gif"",""img/Fire_Up_Distractor.gif"",""img/Fire_Up_Distractor.gif"",""img/Fire_Up_Distractor.gif"",""img/Fire_Up_Distractor.gif""]","5","targetDown_distractorsUp"
"","","","","","html-keyboard-response","198","317244","0.0-14.0-0.0-0.92","5dece7c319398a3a97c00c8f","619531dcf66c91622fa1b861","61959592db940ea05a18ad29","null","","null","","","","","main_T1_ITI","","","","",""
"","","","","","visual-search-circle","199","318890","0.0-14.0-0.0-1.92","5dece7c319398a3a97c00c8f","619531dcf66c91622fa1b861","61959592db940ea05a18ad29","631.2999999523163","","d","false","[[533,111],[111,66],[66,488],[488,533]]","false","4","main_T2_Trial","s","img/Fire_Up_Target.gif","[""img/Fire_Down_Distractor.gif"",""img/Fire_Down_Distractor.gif"",""img/Fire_Down_Distractor.gif"",""img/Fire_Down_Distractor.gif"",""img/Fire_Down_Distractor.gif"",""img/Fire_Down_Distractor.gif"",""img/Fire_Down_Distractor.gif"",""img/Fire_Down_Distractor.gif"",""img/Fire_Down_Distractor.gif"",""img/Fire_Down_Distractor.gif"",""img/Fire_Down_Distractor.gif"",""img/Fire_Down_Distractor.gif""]","4","targetUp_distractorsDown"
"","","","","","html-keyboard-response","200","318903","0.0-14.0-0.0-0.93","5dece7c319398a3a97c00c8f","619531dcf66c91622fa1b861","61959592db940ea05a18ad29","null","","null","","","","","main_T1_ITI","","","","",""
"","","","","","visual-search-circle","201","320693","0.0-14.0-0.0-1.93","5dece7c319398a3a97c00c8f","619531dcf66c91622fa1b861","61959592db940ea05a18ad29","783.1000000238419","","d","false","[[431,30],[202,16],[30,168],[16,397],[168,569],[397,583],[569,431],[583,202]]","false","8","main_T2_Trial","s","img/Fire_Up_Target.gif","[""img/Fire_Down_Distractor.gif"",""img/Fire_Down_Distractor.gif"",""img/Fire_Down_Distractor.gif"",""img/Fire_Down_Distractor.gif"",""img/Fire_Down_Distractor.gif"",""img/Fire_Down_Distractor.gif"",""img/Fire_Down_Distractor.gif"",""img/Fire_Down_Distractor.gif"",""img/Fire_Down_Distractor.gif"",""img/Fire_Down_Distractor.gif"",""img/Fire_Down_Distractor.gif"",""img/Fire_Down_Distractor.gif""]","8","targetUp_distractorsDown"
"","","","","","html-keyboard-response","202","320695","0.0-14.0-0.0-0.94","5dece7c319398a3a97c00c8f","619531dcf66c91622fa1b861","61959592db940ea05a18ad29","null","","null","","","","","main_T1_ITI","","","","",""
"","","","","","visual-search-circle","203","322329","0.0-14.0-0.0-1.94","5dece7c319398a3a97c00c8f","619531dcf66c91622fa1b861","61959592db940ea05a18ad29","625.1000000238419","","d","false","[[5,242],[71,494],[309,599],[540,479],[590,223],[421,25],[161,34]]","false","7","main_T2_Trial","s","img/Fire_Down_Target.gif","[""img/Fire_Up_Distractor.gif"",""img/Fire_Up_Distractor.gif"",""img/Fire_Up_Distractor.gif"",""img/Fire_Up_Distractor.gif"",""img/Fire_Up_Distractor.gif"",""img/Fire_Up_Distractor.gif"",""img/Fire_Up_Distractor.gif"",""img/Fire_Up_Distractor.gif"",""img/Fire_Up_Distractor.gif"",""img/Fire_Up_Distractor.gif"",""img/Fire_Up_Distractor.gif"",""img/Fire_Up_Distractor.gif""]","7","targetDown_distractorsUp"
"","","","","","html-keyboard-response","204","322333","0.0-14.0-0.0-0.95","5dece7c319398a3a97c00c8f","619531dcf66c91622fa1b861","61959592db940ea05a18ad29","null","","null","","","","","main_T1_ITI","","","","",""
"","","","","","visual-search-circle","205","323945","0.0-14.0-0.0-1.95","5dece7c319398a3a97c00c8f","619531dcf66c91622fa1b861","61959592db940ea05a18ad29","585.6000000238419","","d","true","[[362,6],[109,68],[0,304],[116,537],[371,591],[572,426],[568,165]]","true","7","main_T2_Trial","d","img/Fire_Down_Target.gif","[""img/Fire_Up_Distractor.gif"",""img/Fire_Up_Distractor.gif"",""img/Fire_Up_Distractor.gif"",""img/Fire_Up_Distractor.gif"",""img/Fire_Up_Distractor.gif"",""img/Fire_Up_Distractor.gif"",""img/Fire_Up_Distractor.gif"",""img/Fire_Up_Distractor.gif"",""img/Fire_Up_Distractor.gif"",""img/Fire_Up_Distractor.gif"",""img/Fire_Up_Distractor.gif"",""img/Fire_Up_Distractor.gif""]","7","targetDown_distractorsUp"
"","","","","","html-keyboard-response","206","323947","0.0-14.0-0.0-0.96","5dece7c319398a3a97c00c8f","619531dcf66c91622fa1b861","61959592db940ea05a18ad29","null","","null","","","","","main_T1_ITI","","","","",""
"","","","","","visual-search-circle","207","325658","0.0-14.0-0.0-1.96","5dece7c319398a3a97c00c8f","619531dcf66c91622fa1b861","61959592db940ea05a18ad29","698.1000000238419","","s","true","[[0,310],[159,564],[458,554],[599,289],[440,35],[141,45]]","false","6","main_T2_Trial","s","img/Fire_Up_Target.gif","[""img/Fire_Down_Distractor.gif"",""img/Fire_Down_Distractor.gif"",""img/Fire_Down_Distractor.gif"",""img/Fire_Down_Distractor.gif"",""img/Fire_Down_Distractor.gif"",""img/Fire_Down_Distractor.gif"",""img/Fire_Down_Distractor.gif"",""img/Fire_Down_Distractor.gif"",""img/Fire_Down_Distractor.gif"",""img/Fire_Down_Distractor.gif"",""img/Fire_Down_Distractor.gif"",""img/Fire_Down_Distractor.gif""]","6","targetUp_distractorsDown"
"","","","","","html-keyboard-response","208","325664","0.0-14.0-0.0-0.97","5dece7c319398a3a97c00c8f","619531dcf66c91622fa1b861","61959592db940ea05a18ad29","null","","null","","","","","main_T1_ITI","","","","",""
"","","","","","visual-search-circle","209","328546","0.0-14.0-0.0-1.97","5dece7c319398a3a97c00c8f","619531dcf66c91622fa1b861","61959592db940ea05a18ad29","1863.7999999523163","","d","true","[[173,28],[2,336],[242,594],[562,445],[519,95]]","true","5","main_T2_Trial","d","img/Fire_Up_Target.gif","[""img/Fire_Down_Distractor.gif"",""img/Fire_Down_Distractor.gif"",""img/Fire_Down_Distractor.gif"",""img/Fire_Down_Distractor.gif"",""img/Fire_Down_Distractor.gif"",""img/Fire_Down_Distractor.gif"",""img/Fire_Down_Distractor.gif"",""img/Fire_Down_Distractor.gif"",""img/Fire_Down_Distractor.gif"",""img/Fire_Down_Distractor.gif"",""img/Fire_Down_Distractor.gif"",""img/Fire_Down_Distractor.gif""]","5","targetUp_distractorsDown"
"","","","","","html-keyboard-response","210","328548","0.0-14.0-0.0-0.98","5dece7c319398a3a97c00c8f","619531dcf66c91622fa1b861","61959592db940ea05a18ad29","null","","null","","","","","main_T1_ITI","","","","",""
"","","","","","visual-search-circle","211","331355","0.0-14.0-0.0-1.98","5dece7c319398a3a97c00c8f","619531dcf66c91622fa1b861","61959592db940ea05a18ad29","1797.1000000238419","","s","true","[[21,412],[214,587],[471,546],[599,319],[501,78],[252,3],[38,152]]","false","7","main_T2_Trial","s","img/Fire_Down_Target.gif","[""img/Fire_Up_Distractor.gif"",""img/Fire_Up_Distractor.gif"",""img/Fire_Up_Distractor.gif"",""img/Fire_Up_Distractor.gif"",""img/Fire_Up_Distractor.gif"",""img/Fire_Up_Distractor.gif"",""img/Fire_Up_Distractor.gif"",""img/Fire_Up_Distractor.gif"",""img/Fire_Up_Distractor.gif"",""img/Fire_Up_Distractor.gif"",""img/Fire_Up_Distractor.gif"",""img/Fire_Up_Distractor.gif""]","7","targetDown_distractorsUp"
"","","","","","html-keyboard-response","212","333032","0.0-14.0-0.0-0.99","5dece7c319398a3a97c00c8f","619531dcf66c91622fa1b861","61959592db940ea05a18ad29","1676.3999999761581","Wow! You've completed 100 out of 160 trials! </p> <p>  </p><p> Take a quick break, then press any key when you're ready to continue.","d","","","","","main_T1_ITI","","","","",""
"","","","","","visual-search-circle","213","334849","0.0-14.0-0.0-1.99","5dece7c319398a3a97c00c8f","619531dcf66c91622fa1b861","61959592db940ea05a18ad29","788.1999999284744","","d","true","[[77,99],[99,522],[522,500],[500,77]]","true","4","main_T2_Trial","d","img/Fire_Down_Target.gif","[""img/Fire_Up_Distractor.gif"",""img/Fire_Up_Distractor.gif"",""img/Fire_Up_Distractor.gif"",""img/Fire_Up_Distractor.gif"",""img/Fire_Up_Distractor.gif"",""img/Fire_Up_Distractor.gif"",""img/Fire_Up_Distractor.gif"",""img/Fire_Up_Distractor.gif"",""img/Fire_Up_Distractor.gif"",""img/Fire_Up_Distractor.gif"",""img/Fire_Up_Distractor.gif"",""img/Fire_Up_Distractor.gif""]","4","targetDown_distractorsUp"
"","","","","","html-keyboard-response","214","334852","0.0-14.0-0.0-0.100","5dece7c319398a3a97c00c8f","619531dcf66c91622fa1b861","61959592db940ea05a18ad29","null","","null","","","","","main_T1_ITI","","","","",""
"","","","","","visual-search-circle","215","336471","0.0-14.0-0.0-1.100","5dece7c319398a3a97c00c8f","619531dcf66c91622fa1b861","61959592db940ea05a18ad29","605","","d","false","[[11,382],[154,562],[382,588],[562,445],[588,217],[445,37],[217,11],[37,154]]","false","8","main_T2_Trial","s","img/Fire_Down_Target.gif","[""img/Fire_Up_Distractor.gif"",""img/Fire_Up_Distractor.gif"",""img/Fire_Up_Distractor.gif"",""img/Fire_Up_Distractor.gif"",""img/Fire_Up_Distractor.gif"",""img/Fire_Up_Distractor.gif"",""img/Fire_Up_Distractor.gif"",""img/Fire_Up_Distractor.gif"",""img/Fire_Up_Distractor.gif"",""img/Fire_Up_Distractor.gif"",""img/Fire_Up_Distractor.gif"",""img/Fire_Up_Distractor.gif""]","8","targetDown_distractorsUp"
"","","","","","html-keyboard-response","216","336473","0.0-14.0-0.0-0.101","5dece7c319398a3a97c00c8f","619531dcf66c91622fa1b861","61959592db940ea05a18ad29","null","","null","","","","","main_T1_ITI","","","","",""
