"success","timeout","failed_images","failed_audio","failed_video","trial_type","trial_index","time_elapsed","internal_node_id","subject_id","study_id","session_id","rt","stimulus","response","correct","locations","target_present","set_size","task","correct_response","target","foilCM","setSizeCM","searchCondition"
"true","false","[]","[]","[]","preload","0","23164","0.0-0.0","5e29cbd2a5ae4b012aa989f6","619531dcf66c91622fa1b861","619595558add4bfb3c87fb87","","","","","","","","","","","","",""
"true","","","","","fullscreen","1","50544","0.0-1.0","5e29cbd2a5ae4b012aa989f6","619531dcf66c91622fa1b861","619595558add4bfb3c87fb87","","","","","","","","","","","","",""
"","","","","","html-keyboard-response","2","55769","0.0-2.0","5e29cbd2a5ae4b012aa989f6","619531dcf66c91622fa1b861","619595558add4bfb3c87fb87","5224.5","What a beautiful Thursday to do some awesome science! </p> <p>  </p><p> </p>
    By completing this survey or questionnaire, you are consenting to be in this research study. </p>
    Your participation is voluntary and you can stop at any time.
    <p> [Press any key to continue.] </p>
    
    "," ","","","","","","","","","",""
"","","","","","video-keyboard-response","3","88717","0.0-3.0","5e29cbd2a5ae4b012aa989f6","619531dcf66c91622fa1b861","619595558add4bfb3c87fb87","32945.40000009537","[""video/TaskInstructions.mp4""]"," ","","","","","","","","","",""
"","","","","","html-keyboard-response","4","92621","0.0-4.0","5e29cbd2a5ae4b012aa989f6","619531dcf66c91622fa1b861","619595558add4bfb3c87fb87","3903.9000000953674","
    <p>First, we're going to do a few practice trials to make sure you understand the task. You will recieve feedback on each trial. </p>
    <p>[Press any key to begin the familiarization phase.]</p>
    "," ","","","","","","","","","",""
"","","","","","visual-search-circle","5","96909","0.0-5.0-0.0","5e29cbd2a5ae4b012aa989f6","619531dcf66c91622fa1b861","619595558add4bfb3c87fb87","3222.2999997138977","","d","true","[[103,526],[526,496],[496,73],[73,103]]","true","4","training","d","","","",""
"","","","","","html-keyboard-response","6","100096","0.0-6.0","5e29cbd2a5ae4b012aa989f6","619531dcf66c91622fa1b861","619595558add4bfb3c87fb87","3186.5"," <div style='float: center; '><img src='img/feedbackRight.png'></img> </div> "," ","","","","","","","","","",""
"","","","","","visual-search-circle","7","102878","0.0-7.0-0.0","5e29cbd2a5ae4b012aa989f6","619531dcf66c91622fa1b861","619595558add4bfb3c87fb87","1762.4000000953674","","s","true","[[30,431],[431,569],[569,168],[168,30]]","false","4","training","s","","","",""
"","","","","","html-keyboard-response","8","103541","0.0-8.0","5e29cbd2a5ae4b012aa989f6","619531dcf66c91622fa1b861","619595558add4bfb3c87fb87","661.8000001907349"," <div style='float: center; '><img src='img/feedbackRight.png'></img> </div> "," ","","","","","","","","","",""
"","","","","","visual-search-circle","9","108669","0.0-9.0-0.0","5e29cbd2a5ae4b012aa989f6","619531dcf66c91622fa1b861","619595558add4bfb3c87fb87","4115.799999713898","","s","true","[[580,407],[533,111],[253,3],[19,192],[66,488],[346,596]]","false","6","training","s","","","",""
"","","","","","html-keyboard-response","10","109577","0.0-10.0","5e29cbd2a5ae4b012aa989f6","619531dcf66c91622fa1b861","619595558add4bfb3c87fb87","907.4000000953674"," <div style='float: center; '><img src='img/feedbackRight.png'></img> </div> "," ","","","","","","","","","",""
"","","","","","visual-search-circle","11","113917","0.0-11.0-0.0","5e29cbd2a5ae4b012aa989f6","619531dcf66c91622fa1b861","619595558add4bfb3c87fb87","3325.300000190735","","d","true","[[463,48],[237,6],[48,136],[6,362],[136,551],[362,593],[551,463],[593,237]]","true","8","training","d","","","",""
"","","","","","html-keyboard-response","12","116112","0.0-12.0","5e29cbd2a5ae4b012aa989f6","619531dcf66c91622fa1b861","619595558add4bfb3c87fb87","2194.5"," <div style='float: center; '><img src='img/feedbackRight.png'></img> </div> "," ","","","","","","","","","",""
"","","","","","video-keyboard-response","13","120678","0.0-13.0","5e29cbd2a5ae4b012aa989f6","619531dcf66c91622fa1b861","619595558add4bfb3c87fb87","4564.400000095367","[""video/endTraining.mp4""]"," ","","","","","","","","","",""
"","","","","","html-keyboard-response","14","120679","0.0-14.0-0.0-0.0","5e29cbd2a5ae4b012aa989f6","619531dcf66c91622fa1b861","619595558add4bfb3c87fb87","null","","null","","","","","main_T1_ITI","","","","",""
"","","","","","visual-search-circle","15","125157","0.0-14.0-0.0-1.0","5e29cbd2a5ae4b012aa989f6","619531dcf66c91622fa1b861","619595558add4bfb3c87fb87","3461.800000190735","","s","true","[[19,192],[192,580],[580,407],[407,19]]","false","4","main_T2_Trial","s","img/Fire_Up_Target.gif","[""img/Fire_Down_Distractor.gif"",""img/Fire_Down_Distractor.gif"",""img/Fire_Down_Distractor.gif"",""img/Fire_Down_Distractor.gif"",""img/Fire_Down_Distractor.gif"",""img/Fire_Down_Distractor.gif"",""img/Fire_Down_Distractor.gif"",""img/Fire_Down_Distractor.gif"",""img/Fire_Down_Distractor.gif"",""img/Fire_Down_Distractor.gif"",""img/Fire_Down_Distractor.gif"",""img/Fire_Down_Distractor.gif""]","4","targetUp_distractorsDown"
"","","","","","html-keyboard-response","16","125159","0.0-14.0-0.0-0.1","5e29cbd2a5ae4b012aa989f6","619531dcf66c91622fa1b861","619595558add4bfb3c87fb87","null","","null","","","","","main_T1_ITI","","","","",""
"","","","","","visual-search-circle","17","131444","0.0-14.0-0.0-1.1","5e29cbd2a5ae4b012aa989f6","619531dcf66c91622fa1b861","619595558add4bfb3c87fb87","5279.800000190735","","s","true","[[596,346],[542,123],[346,3],[123,57],[3,253],[57,476],[253,596],[476,542]]","false","8","main_T2_Trial","s","img/Fire_Down_Target.gif","[""img/Fire_Up_Distractor.gif"",""img/Fire_Up_Distractor.gif"",""img/Fire_Up_Distractor.gif"",""img/Fire_Up_Distractor.gif"",""img/Fire_Up_Distractor.gif"",""img/Fire_Up_Distractor.gif"",""img/Fire_Up_Distractor.gif"",""img/Fire_Up_Distractor.gif"",""img/Fire_Up_Distractor.gif"",""img/Fire_Up_Distractor.gif"",""img/Fire_Up_Distractor.gif"",""img/Fire_Up_Distractor.gif""]","8","targetDown_distractorsUp"
"","","","","","html-keyboard-response","18","131447","0.0-14.0-0.0-0.2","5e29cbd2a5ae4b012aa989f6","619531dcf66c91622fa1b861","619595558add4bfb3c87fb87","null","","null","","","","","main_T1_ITI","","","","",""
"","","","","","visual-search-circle","19","135466","0.0-14.0-0.0-1.2","5e29cbd2a5ae4b012aa989f6","619531dcf66c91622fa1b861","619595558add4bfb3c87fb87","3005.300000190735","","s","true","[[326,1],[23,182],[103,526],[454,557],[592,232]]","false","5","main_T2_Trial","s","img/Fire_Down_Target.gif","[""img/Fire_Up_Distractor.gif"",""img/Fire_Up_Distractor.gif"",""img/Fire_Up_Distractor.gif"",""img/Fire_Up_Distractor.gif"",""img/Fire_Up_Distractor.gif"",""img/Fire_Up_Distractor.gif"",""img/Fire_Up_Distractor.gif"",""img/Fire_Up_Distractor.gif"",""img/Fire_Up_Distractor.gif"",""img/Fire_Up_Distractor.gif"",""img/Fire_Up_Distractor.gif"",""img/Fire_Up_Distractor.gif""]","5","targetDown_distractorsUp"
"","","","","","html-keyboard-response","20","135468","0.0-14.0-0.0-0.3","5e29cbd2a5ae4b012aa989f6","619531dcf66c91622fa1b861","619595558add4bfb3c87fb87","null","","null","","","","","main_T1_ITI","","","","",""
"","","","","","visual-search-circle","21","137793","0.0-14.0-0.0-1.3","5e29cbd2a5ae4b012aa989f6","619531dcf66c91622fa1b861","619595558add4bfb3c87fb87","1311.8999996185303","","d","true","[[127,545],[480,539],[583,202],[294,0],[13,212]]","true","5","main_T2_Trial","d","img/Fire_Down_Target.gif","[""img/Fire_Up_Distractor.gif"",""img/Fire_Up_Distractor.gif"",""img/Fire_Up_Distractor.gif"",""img/Fire_Up_Distractor.gif"",""img/Fire_Up_Distractor.gif"",""img/Fire_Up_Distractor.gif"",""img/Fire_Up_Distractor.gif"",""img/Fire_Up_Distractor.gif"",""img/Fire_Up_Distractor.gif"",""img/Fire_Up_Distractor.gif"",""img/Fire_Up_Distractor.gif"",""img/Fire_Up_Distractor.gif""]","5","targetDown_distractorsUp"
"","","","","","html-keyboard-response","22","137794","0.0-14.0-0.0-0.4","5e29cbd2a5ae4b012aa989f6","619531dcf66c91622fa1b861","619595558add4bfb3c87fb87","null","","null","","","","","main_T1_ITI","","","","",""
"","","","","","visual-search-circle","23","141189","0.0-14.0-0.0-1.4","5e29cbd2a5ae4b012aa989f6","619531dcf66c91622fa1b861","619595558add4bfb3c87fb87","2379.699999809265","","s","true","[[212,13],[21,189],[39,449],[254,596],[503,520],[599,278],[469,52]]","false","7","main_T2_Trial","s","img/Fire_Up_Target.gif","[""img/Fire_Down_Distractor.gif"",""img/Fire_Down_Distractor.gif"",""img/Fire_Down_Distractor.gif"",""img/Fire_Down_Distractor.gif"",""img/Fire_Down_Distractor.gif"",""img/Fire_Down_Distractor.gif"",""img/Fire_Down_Distractor.gif"",""img/Fire_Down_Distractor.gif"",""img/Fire_Down_Distractor.gif"",""img/Fire_Down_Distractor.gif"",""img/Fire_Down_Distractor.gif"",""img/Fire_Down_Distractor.gif""]","7","targetUp_distractorsDown"
"","","","","","html-keyboard-response","24","141192","0.0-14.0-0.0-0.5","5e29cbd2a5ae4b012aa989f6","619531dcf66c91622fa1b861","619595558add4bfb3c87fb87","null","","null","","","","","main_T1_ITI","","","","",""
"","","","","","visual-search-circle","25","145838","0.0-14.0-0.0-1.5","5e29cbd2a5ae4b012aa989f6","619531dcf66c91622fa1b861","619595558add4bfb3c87fb87","3633.9000000953674","","d","true","[[0,299],[207,585],[542,476],[542,123],[207,14]]","true","5","main_T2_Trial","d","img/Fire_Down_Target.gif","[""img/Fire_Up_Distractor.gif"",""img/Fire_Up_Distractor.gif"",""img/Fire_Up_Distractor.gif"",""img/Fire_Up_Distractor.gif"",""img/Fire_Up_Distractor.gif"",""img/Fire_Up_Distractor.gif"",""img/Fire_Up_Distractor.gif"",""img/Fire_Up_Distractor.gif"",""img/Fire_Up_Distractor.gif"",""img/Fire_Up_Distractor.gif"",""img/Fire_Up_Distractor.gif"",""img/Fire_Up_Distractor.gif""]","5","targetDown_distractorsUp"
"","","","","","html-keyboard-response","26","145840","0.0-14.0-0.0-0.6","5e29cbd2a5ae4b012aa989f6","619531dcf66c91622fa1b861","619595558add4bfb3c87fb87","null","","null","","","","","main_T1_ITI","","","","",""
"","","","","","visual-search-circle","27","149269","0.0-14.0-0.0-1.6","5e29cbd2a5ae4b012aa989f6","619531dcf66c91622fa1b861","619595558add4bfb3c87fb87","2413.7000002861023","","s","true","[[1,326],[173,571],[472,545],[598,273],[426,28],[127,54]]","false","6","main_T2_Trial","s","img/Fire_Up_Target.gif","[""img/Fire_Down_Distractor.gif"",""img/Fire_Down_Distractor.gif"",""img/Fire_Down_Distractor.gif"",""img/Fire_Down_Distractor.gif"",""img/Fire_Down_Distractor.gif"",""img/Fire_Down_Distractor.gif"",""img/Fire_Down_Distractor.gif"",""img/Fire_Down_Distractor.gif"",""img/Fire_Down_Distractor.gif"",""img/Fire_Down_Distractor.gif"",""img/Fire_Down_Distractor.gif"",""img/Fire_Down_Distractor.gif""]","6","targetUp_distractorsDown"
"","","","","","html-keyboard-response","28","149271","0.0-14.0-0.0-0.7","5e29cbd2a5ae4b012aa989f6","619531dcf66c91622fa1b861","619595558add4bfb3c87fb87","null","","null","","","","","main_T1_ITI","","","","",""
"","","","","","visual-search-circle","29","152917","0.0-14.0-0.0-1.7","5e29cbd2a5ae4b012aa989f6","619531dcf66c91622fa1b861","619595558add4bfb3c87fb87","2635.4000000953674","","s","true","[[320,599],[599,279],[279,0],[0,320]]","false","4","main_T2_Trial","s","img/Fire_Down_Target.gif","[""img/Fire_Up_Distractor.gif"",""img/Fire_Up_Distractor.gif"",""img/Fire_Up_Distractor.gif"",""img/Fire_Up_Distractor.gif"",""img/Fire_Up_Distractor.gif"",""img/Fire_Up_Distractor.gif"",""img/Fire_Up_Distractor.gif"",""img/Fire_Up_Distractor.gif"",""img/Fire_Up_Distractor.gif"",""img/Fire_Up_Distractor.gif"",""img/Fire_Up_Distractor.gif"",""img/Fire_Up_Distractor.gif""]","4","targetDown_distractorsUp"
"","","","","","html-keyboard-response","30","152920","0.0-14.0-0.0-0.8","5e29cbd2a5ae4b012aa989f6","619531dcf66c91622fa1b861","619595558add4bfb3c87fb87","null","","null","","","","","main_T1_ITI","","","","",""
"","","","","","visual-search-circle","31","156337","0.0-14.0-0.0-1.8","5e29cbd2a5ae4b012aa989f6","619531dcf66c91622fa1b861","619595558add4bfb3c87fb87","2403.7000002861023","","s","true","[[66,111],[19,407],[253,596],[533,488],[580,192],[346,3]]","false","6","main_T2_Trial","s","img/Fire_Up_Target.gif","[""img/Fire_Down_Distractor.gif"",""img/Fire_Down_Distractor.gif"",""img/Fire_Down_Distractor.gif"",""img/Fire_Down_Distractor.gif"",""img/Fire_Down_Distractor.gif"",""img/Fire_Down_Distractor.gif"",""img/Fire_Down_Distractor.gif"",""img/Fire_Down_Distractor.gif"",""img/Fire_Down_Distractor.gif"",""img/Fire_Down_Distractor.gif"",""img/Fire_Down_Distractor.gif"",""img/Fire_Down_Distractor.gif""]","6","targetUp_distractorsDown"
"","","","","","html-keyboard-response","32","156339","0.0-14.0-0.0-0.9","5e29cbd2a5ae4b012aa989f6","619531dcf66c91622fa1b861","619595558add4bfb3c87fb87","null","","null","","","","","main_T1_ITI","","","","",""
"","","","","","visual-search-circle","33","158532","0.0-14.0-0.0-1.9","5e29cbd2a5ae4b012aa989f6","619531dcf66c91622fa1b861","619595558add4bfb3c87fb87","1183.7000002861023","","d","true","[[91,84],[84,508],[508,515],[515,91]]","true","4","main_T2_Trial","d","img/Fire_Down_Target.gif","[""img/Fire_Up_Distractor.gif"",""img/Fire_Up_Distractor.gif"",""img/Fire_Up_Distractor.gif"",""img/Fire_Up_Distractor.gif"",""img/Fire_Up_Distractor.gif"",""img/Fire_Up_Distractor.gif"",""img/Fire_Up_Distractor.gif"",""img/Fire_Up_Distractor.gif"",""img/Fire_Up_Distractor.gif"",""img/Fire_Up_Distractor.gif"",""img/Fire_Up_Distractor.gif"",""img/Fire_Up_Distractor.gif""]","4","targetDown_distractorsUp"
"","","","","","html-keyboard-response","34","158536","0.0-14.0-0.0-0.10","5e29cbd2a5ae4b012aa989f6","619531dcf66c91622fa1b861","619595558add4bfb3c87fb87","null","","null","","","","","main_T1_ITI","","","","",""
"","","","","","visual-search-circle","35","161685","0.0-14.0-0.0-1.10","5e29cbd2a5ae4b012aa989f6","619531dcf66c91622fa1b861","619595558add4bfb3c87fb87","2140.5","","s","true","[[310,599],[540,478],[589,223],[420,25],[160,34],[5,243],[72,495]]","false","7","main_T2_Trial","s","img/Fire_Down_Target.gif","[""img/Fire_Up_Distractor.gif"",""img/Fire_Up_Distractor.gif"",""img/Fire_Up_Distractor.gif"",""img/Fire_Up_Distractor.gif"",""img/Fire_Up_Distractor.gif"",""img/Fire_Up_Distractor.gif"",""img/Fire_Up_Distractor.gif"",""img/Fire_Up_Distractor.gif"",""img/Fire_Up_Distractor.gif"",""img/Fire_Up_Distractor.gif"",""img/Fire_Up_Distractor.gif"",""img/Fire_Up_Distractor.gif""]","7","targetDown_distractorsUp"
"","","","","","html-keyboard-response","36","161687","0.0-14.0-0.0-0.11","5e29cbd2a5ae4b012aa989f6","619531dcf66c91622fa1b861","619595558add4bfb3c87fb87","null","","null","","","","","main_T1_ITI","","","","",""
"","","","","","visual-search-circle","37","164065","0.0-14.0-0.0-1.11","5e29cbd2a5ae4b012aa989f6","619531dcf66c91622fa1b861","619595558add4bfb3c87fb87","1361.7999997138977","","s","true","[[580,192],[284,0],[10,222],[136,551],[488,533]]","false","5","main_T2_Trial","s","img/Fire_Up_Target.gif","[""img/Fire_Down_Distractor.gif"",""img/Fire_Down_Distractor.gif"",""img/Fire_Down_Distractor.gif"",""img/Fire_Down_Distractor.gif"",""img/Fire_Down_Distractor.gif"",""img/Fire_Down_Distractor.gif"",""img/Fire_Down_Distractor.gif"",""img/Fire_Down_Distractor.gif"",""img/Fire_Down_Distractor.gif"",""img/Fire_Down_Distractor.gif"",""img/Fire_Down_Distractor.gif"",""img/Fire_Down_Distractor.gif""]","5","targetUp_distractorsDown"
"","","","","","html-keyboard-response","38","164066","0.0-14.0-0.0-0.12","5e29cbd2a5ae4b012aa989f6","619531dcf66c91622fa1b861","619595558add4bfb3c87fb87","null","","null","","","","","main_T1_ITI","","","","",""
"","","","","","visual-search-circle","39","166324","0.0-14.0-0.0-1.12","5e29cbd2a5ae4b012aa989f6","619531dcf66c91622fa1b861","619595558add4bfb3c87fb87","1246.2000002861023","","d","true","[[77,500],[500,522],[522,99],[99,77]]","true","4","main_T2_Trial","d","img/Fire_Up_Target.gif","[""img/Fire_Down_Distractor.gif"",""img/Fire_Down_Distractor.gif"",""img/Fire_Down_Distractor.gif"",""img/Fire_Down_Distractor.gif"",""img/Fire_Down_Distractor.gif"",""img/Fire_Down_Distractor.gif"",""img/Fire_Down_Distractor.gif"",""img/Fire_Down_Distractor.gif"",""img/Fire_Down_Distractor.gif"",""img/Fire_Down_Distractor.gif"",""img/Fire_Down_Distractor.gif"",""img/Fire_Down_Distractor.gif""]","4","targetUp_distractorsDown"
"","","","","","html-keyboard-response","40","166329","0.0-14.0-0.0-0.13","5e29cbd2a5ae4b012aa989f6","619531dcf66c91622fa1b861","619595558add4bfb3c87fb87","null","","null","","","","","main_T1_ITI","","","","",""
"","","","","","visual-search-circle","41","169997","0.0-14.0-0.0-1.13","5e29cbd2a5ae4b012aa989f6","619531dcf66c91622fa1b861","619595558add4bfb3c87fb87","2658.2000002861023","","s","true","[[599,315],[315,0],[0,284],[284,599]]","false","4","main_T2_Trial","s","img/Fire_Down_Target.gif","[""img/Fire_Up_Distractor.gif"",""img/Fire_Up_Distractor.gif"",""img/Fire_Up_Distractor.gif"",""img/Fire_Up_Distractor.gif"",""img/Fire_Up_Distractor.gif"",""img/Fire_Up_Distractor.gif"",""img/Fire_Up_Distractor.gif"",""img/Fire_Up_Distractor.gif"",""img/Fire_Up_Distractor.gif"",""img/Fire_Up_Distractor.gif"",""img/Fire_Up_Distractor.gif"",""img/Fire_Up_Distractor.gif""]","4","targetDown_distractorsUp"
"","","","","","html-keyboard-response","42","170000","0.0-14.0-0.0-0.14","5e29cbd2a5ae4b012aa989f6","619531dcf66c91622fa1b861","619595558add4bfb3c87fb87","null","","null","","","","","main_T1_ITI","","","","",""
"","","","","","visual-search-circle","43","172292","0.0-14.0-0.0-1.14","5e29cbd2a5ae4b012aa989f6","619531dcf66c91622fa1b861","619595558add4bfb3c87fb87","1283.7000002861023","","s","true","[[346,3],[123,57],[3,253],[57,476],[253,596],[476,542],[596,346],[542,123]]","false","8","main_T2_Trial","s","img/Fire_Up_Target.gif","[""img/Fire_Down_Distractor.gif"",""img/Fire_Down_Distractor.gif"",""img/Fire_Down_Distractor.gif"",""img/Fire_Down_Distractor.gif"",""img/Fire_Down_Distractor.gif"",""img/Fire_Down_Distractor.gif"",""img/Fire_Down_Distractor.gif"",""img/Fire_Down_Distractor.gif"",""img/Fire_Down_Distractor.gif"",""img/Fire_Down_Distractor.gif"",""img/Fire_Down_Distractor.gif"",""img/Fire_Down_Distractor.gif""]","8","targetUp_distractorsDown"
"","","","","","html-keyboard-response","44","172294","0.0-14.0-0.0-0.15","5e29cbd2a5ae4b012aa989f6","619531dcf66c91622fa1b861","619595558add4bfb3c87fb87","null","","null","","","","","main_T1_ITI","","","","",""
"","","","","","visual-search-circle","45","174156","0.0-14.0-0.0-1.15","5e29cbd2a5ae4b012aa989f6","619531dcf66c91622fa1b861","619595558add4bfb3c87fb87","853.5","","d","true","[[227,591],[482,538],[599,305],[491,69],[239,6],[32,164],[27,424]]","true","7","main_T2_Trial","d","img/Fire_Down_Target.gif","[""img/Fire_Up_Distractor.gif"",""img/Fire_Up_Distractor.gif"",""img/Fire_Up_Distractor.gif"",""img/Fire_Up_Distractor.gif"",""img/Fire_Up_Distractor.gif"",""img/Fire_Up_Distractor.gif"",""img/Fire_Up_Distractor.gif"",""img/Fire_Up_Distractor.gif"",""img/Fire_Up_Distractor.gif"",""img/Fire_Up_Distractor.gif"",""img/Fire_Up_Distractor.gif"",""img/Fire_Up_Distractor.gif""]","7","targetDown_distractorsUp"
"","","","","","html-keyboard-response","46","174159","0.0-14.0-0.0-0.16","5e29cbd2a5ae4b012aa989f6","619531dcf66c91622fa1b861","619595558add4bfb3c87fb87","null","","null","","","","","main_T1_ITI","","","","",""
"","","","","","visual-search-circle","47","176036","0.0-14.0-0.0-1.16","5e29cbd2a5ae4b012aa989f6","619531dcf66c91622fa1b861","619595558add4bfb3c87fb87","857.4000000953674","","d","true","[[168,569],[397,583],[569,431],[583,202],[431,30],[202,16],[30,168],[16,397]]","true","8","main_T2_Trial","d","img/Fire_Down_Target.gif","[""img/Fire_Up_Distractor.gif"",""img/Fire_Up_Distractor.gif"",""img/Fire_Up_Distractor.gif"",""img/Fire_Up_Distractor.gif"",""img/Fire_Up_Distractor.gif"",""img/Fire_Up_Distractor.gif"",""img/Fire_Up_Distractor.gif"",""img/Fire_Up_Distractor.gif"",""img/Fire_Up_Distractor.gif"",""img/Fire_Up_Distractor.gif"",""img/Fire_Up_Distractor.gif"",""img/Fire_Up_Distractor.gif""]","8","targetDown_distractorsUp"
"","","","","","html-keyboard-response","48","176042","0.0-14.0-0.0-0.17","5e29cbd2a5ae4b012aa989f6","619531dcf66c91622fa1b861","619595558add4bfb3c87fb87","null","","null","","","","","main_T1_ITI","","","","",""
"","","","","","visual-search-circle","49","177980","0.0-14.0-0.0-1.17","5e29cbd2a5ae4b012aa989f6","619531dcf66c91622fa1b861","619595558add4bfb3c87fb87","927","","d","true","[[111,533],[364,592],[569,432],[571,171],[368,8],[114,64],[0,297]]","true","7","main_T2_Trial","d","img/Fire_Down_Target.gif","[""img/Fire_Up_Distractor.gif"",""img/Fire_Up_Distractor.gif"",""img/Fire_Up_Distractor.gif"",""img/Fire_Up_Distractor.gif"",""img/Fire_Up_Distractor.gif"",""img/Fire_Up_Distractor.gif"",""img/Fire_Up_Distractor.gif"",""img/Fire_Up_Distractor.gif"",""img/Fire_Up_Distractor.gif"",""img/Fire_Up_Distractor.gif"",""img/Fire_Up_Distractor.gif"",""img/Fire_Up_Distractor.gif""]","7","targetDown_distractorsUp"
"","","","","","html-keyboard-response","50","177983","0.0-14.0-0.0-0.18","5e29cbd2a5ae4b012aa989f6","619531dcf66c91622fa1b861","619595558add4bfb3c87fb87","null","","null","","","","","main_T1_ITI","","","","",""
"","","","","","visual-search-circle","51","180304","0.0-14.0-0.0-1.18","5e29cbd2a5ae4b012aa989f6","619531dcf66c91622fa1b861","619595558add4bfb3c87fb87","1312","","s","true","[[25,177],[33,438],[242,594],[493,528],[599,291],[479,59],[224,9]]","false","7","main_T2_Trial","s","img/Fire_Down_Target.gif","[""img/Fire_Up_Distractor.gif"",""img/Fire_Up_Distractor.gif"",""img/Fire_Up_Distractor.gif"",""img/Fire_Up_Distractor.gif"",""img/Fire_Up_Distractor.gif"",""img/Fire_Up_Distractor.gif"",""img/Fire_Up_Distractor.gif"",""img/Fire_Up_Distractor.gif"",""img/Fire_Up_Distractor.gif"",""img/Fire_Up_Distractor.gif"",""img/Fire_Up_Distractor.gif"",""img/Fire_Up_Distractor.gif""]","7","targetDown_distractorsUp"
"","","","","","html-keyboard-response","52","183676","0.0-14.0-0.0-0.19","5e29cbd2a5ae4b012aa989f6","619531dcf66c91622fa1b861","619595558add4bfb3c87fb87","3371.699999809265","Wow! You've completed 20 out of 160 trials! </p> <p>  </p><p> Take a quick break, then press any key when you're ready to continue."," ","","","","","main_T1_ITI","","","","",""
"","","","","","visual-search-circle","53","185656","0.0-14.0-0.0-1.19","5e29cbd2a5ae4b012aa989f6","619531dcf66c91622fa1b861","619595558add4bfb3c87fb87","967.3999996185303","","d","true","[[28,173],[31,433],[236,593],[489,532],[599,296],[484,63],[229,8]]","true","7","main_T2_Trial","d","img/Fire_Down_Target.gif","[""img/Fire_Up_Distractor.gif"",""img/Fire_Up_Distractor.gif"",""img/Fire_Up_Distractor.gif"",""img/Fire_Up_Distractor.gif"",""img/Fire_Up_Distractor.gif"",""img/Fire_Up_Distractor.gif"",""img/Fire_Up_Distractor.gif"",""img/Fire_Up_Distractor.gif"",""img/Fire_Up_Distractor.gif"",""img/Fire_Up_Distractor.gif"",""img/Fire_Up_Distractor.gif"",""img/Fire_Up_Distractor.gif""]","7","targetDown_distractorsUp"
"","","","","","html-keyboard-response","54","185657","0.0-14.0-0.0-0.20","5e29cbd2a5ae4b012aa989f6","619531dcf66c91622fa1b861","619595558add4bfb3c87fb87","null","","null","","","","","main_T1_ITI","","","","",""
"","","","","","visual-search-circle","55","188061","0.0-14.0-0.0-1.20","5e29cbd2a5ae4b012aa989f6","619531dcf66c91622fa1b861","619595558add4bfb3c87fb87","1386.3000001907349","","s","false","[[387,13],[54,127],[60,480],[397,583],[599,294]]","true","5","main_T2_Trial","d","img/Fire_Up_Target.gif","[""img/Fire_Down_Distractor.gif"",""img/Fire_Down_Distractor.gif"",""img/Fire_Down_Distractor.gif"",""img/Fire_Down_Distractor.gif"",""img/Fire_Down_Distractor.gif"",""img/Fire_Down_Distractor.gif"",""img/Fire_Down_Distractor.gif"",""img/Fire_Down_Distractor.gif"",""img/Fire_Down_Distractor.gif"",""img/Fire_Down_Distractor.gif"",""img/Fire_Down_Distractor.gif"",""img/Fire_Down_Distractor.gif""]","5","targetUp_distractorsDown"
"","","","","","html-keyboard-response","56","188063","0.0-14.0-0.0-0.21","5e29cbd2a5ae4b012aa989f6","619531dcf66c91622fa1b861","619595558add4bfb3c87fb87","null","","null","","","","","main_T1_ITI","","","","",""
"","","","","","visual-search-circle","57","190308","0.0-14.0-0.0-1.21","5e29cbd2a5ae4b012aa989f6","619531dcf66c91622fa1b861","619595558add4bfb3c87fb87","1234.7999997138977","","d","true","[[127,54],[4,247],[54,472],[247,595],[472,545],[595,352],[545,127],[352,4]]","true","8","main_T2_Trial","d","img/Fire_Up_Target.gif","[""img/Fire_Down_Distractor.gif"",""img/Fire_Down_Distractor.gif"",""img/Fire_Down_Distractor.gif"",""img/Fire_Down_Distractor.gif"",""img/Fire_Down_Distractor.gif"",""img/Fire_Down_Distractor.gif"",""img/Fire_Down_Distractor.gif"",""img/Fire_Down_Distractor.gif"",""img/Fire_Down_Distractor.gif"",""img/Fire_Down_Distractor.gif"",""img/Fire_Down_Distractor.gif"",""img/Fire_Down_Distractor.gif""]","8","targetUp_distractorsDown"
"","","","","","html-keyboard-response","58","190310","0.0-14.0-0.0-0.22","5e29cbd2a5ae4b012aa989f6","619531dcf66c91622fa1b861","619595558add4bfb3c87fb87","null","","null","","","","","main_T1_ITI","","","","",""
"","","","","","visual-search-circle","59","192264","0.0-14.0-0.0-1.22","5e29cbd2a5ae4b012aa989f6","619531dcf66c91622fa1b861","619595558add4bfb3c87fb87","943.9000000953674","","d","true","[[450,559],[600,300],[449,40],[150,40],[0,299],[150,559]]","true","6","main_T2_Trial","d","img/Fire_Down_Target.gif","[""img/Fire_Up_Distractor.gif"",""img/Fire_Up_Distractor.gif"",""img/Fire_Up_Distractor.gif"",""img/Fire_Up_Distractor.gif"",""img/Fire_Up_Distractor.gif"",""img/Fire_Up_Distractor.gif"",""img/Fire_Up_Distractor.gif"",""img/Fire_Up_Distractor.gif"",""img/Fire_Up_Distractor.gif"",""img/Fire_Up_Distractor.gif"",""img/Fire_Up_Distractor.gif"",""img/Fire_Up_Distractor.gif""]","6","targetDown_distractorsUp"
"","","","","","html-keyboard-response","60","192268","0.0-14.0-0.0-0.23","5e29cbd2a5ae4b012aa989f6","619531dcf66c91622fa1b861","619595558add4bfb3c87fb87","null","","null","","","","","main_T1_ITI","","","","",""
"","","","","","visual-search-circle","61","194680","0.0-14.0-0.0-1.23","5e29cbd2a5ae4b012aa989f6","619531dcf66c91622fa1b861","619595558add4bfb3c87fb87","1392.0999999046326","","d","true","[[586,212],[440,35],[212,13],[35,159],[13,387],[159,564],[387,586],[564,440]]","true","8","main_T2_Trial","d","img/Fire_Down_Target.gif","[""img/Fire_Up_Distractor.gif"",""img/Fire_Up_Distractor.gif"",""img/Fire_Up_Distractor.gif"",""img/Fire_Up_Distractor.gif"",""img/Fire_Up_Distractor.gif"",""img/Fire_Up_Distractor.gif"",""img/Fire_Up_Distractor.gif"",""img/Fire_Up_Distractor.gif"",""img/Fire_Up_Distractor.gif"",""img/Fire_Up_Distractor.gif"",""img/Fire_Up_Distractor.gif"",""img/Fire_Up_Distractor.gif""]","8","targetDown_distractorsUp"
"","","","","","html-keyboard-response","62","194683","0.0-14.0-0.0-0.24","5e29cbd2a5ae4b012aa989f6","619531dcf66c91622fa1b861","619595558add4bfb3c87fb87","null","","null","","","","","main_T1_ITI","","","","",""
"","","","","","visual-search-circle","63","197000","0.0-14.0-0.0-1.24","5e29cbd2a5ae4b012aa989f6","619531dcf66c91622fa1b861","619595558add4bfb3c87fb87","1303.8000001907349","","s","true","[[197,18],[4,247],[107,529],[402,581],[595,352],[492,70]]","false","6","main_T2_Trial","s","img/Fire_Up_Target.gif","[""img/Fire_Down_Distractor.gif"",""img/Fire_Down_Distractor.gif"",""img/Fire_Down_Distractor.gif"",""img/Fire_Down_Distractor.gif"",""img/Fire_Down_Distractor.gif"",""img/Fire_Down_Distractor.gif"",""img/Fire_Down_Distractor.gif"",""img/Fire_Down_Distractor.gif"",""img/Fire_Down_Distractor.gif"",""img/Fire_Down_Distractor.gif"",""img/Fire_Down_Distractor.gif"",""img/Fire_Down_Distractor.gif""]","6","targetUp_distractorsDown"
"","","","","","html-keyboard-response","64","197003","0.0-14.0-0.0-0.25","5e29cbd2a5ae4b012aa989f6","619531dcf66c91622fa1b861","619595558add4bfb3c87fb87","null","","null","","","","","main_T1_ITI","","","","",""
"","","","","","visual-search-circle","65","199928","0.0-14.0-0.0-1.25","5e29cbd2a5ae4b012aa989f6","619531dcf66c91622fa1b861","619595558add4bfb3c87fb87","1917.2000002861023","","d","true","[[545,127],[127,54],[54,472],[472,545]]","true","4","main_T2_Trial","d","img/Fire_Up_Target.gif","[""img/Fire_Down_Distractor.gif"",""img/Fire_Down_Distractor.gif"",""img/Fire_Down_Distractor.gif"",""img/Fire_Down_Distractor.gif"",""img/Fire_Down_Distractor.gif"",""img/Fire_Down_Distractor.gif"",""img/Fire_Down_Distractor.gif"",""img/Fire_Down_Distractor.gif"",""img/Fire_Down_Distractor.gif"",""img/Fire_Down_Distractor.gif"",""img/Fire_Down_Distractor.gif"",""img/Fire_Down_Distractor.gif""]","4","targetUp_distractorsDown"
"","","","","","html-keyboard-response","66","199936","0.0-14.0-0.0-0.26","5e29cbd2a5ae4b012aa989f6","619531dcf66c91622fa1b861","619595558add4bfb3c87fb87","null","","null","","","","","main_T1_ITI","","","","",""
"","","","","","visual-search-circle","67","210312","0.0-14.0-0.0-1.26","5e29cbd2a5ae4b012aa989f6","619531dcf66c91622fa1b861","619595558add4bfb3c87fb87","9371.599999904633","","d","false","[[141,554],[492,529],[578,187],[279,0],[8,227]]","false","5","main_T2_Trial","s","img/Fire_Down_Target.gif","[""img/Fire_Up_Distractor.gif"",""img/Fire_Up_Distractor.gif"",""img/Fire_Up_Distractor.gif"",""img/Fire_Up_Distractor.gif"",""img/Fire_Up_Distractor.gif"",""img/Fire_Up_Distractor.gif"",""img/Fire_Up_Distractor.gif"",""img/Fire_Up_Distractor.gif"",""img/Fire_Up_Distractor.gif"",""img/Fire_Up_Distractor.gif"",""img/Fire_Up_Distractor.gif"",""img/Fire_Up_Distractor.gif""]","5","targetDown_distractorsUp"
"","","","","","html-keyboard-response","68","210314","0.0-14.0-0.0-0.27","5e29cbd2a5ae4b012aa989f6","619531dcf66c91622fa1b861","619595558add4bfb3c87fb87","null","","null","","","","","main_T1_ITI","","","","",""
"","","","","","visual-search-circle","69","212292","0.0-14.0-0.0-1.27","5e29cbd2a5ae4b012aa989f6","619531dcf66c91622fa1b861","619595558add4bfb3c87fb87","966.5","","d","true","[[397,583],[583,202],[202,16],[16,397]]","true","4","main_T2_Trial","d","img/Fire_Down_Target.gif","[""img/Fire_Up_Distractor.gif"",""img/Fire_Up_Distractor.gif"",""img/Fire_Up_Distractor.gif"",""img/Fire_Up_Distractor.gif"",""img/Fire_Up_Distractor.gif"",""img/Fire_Up_Distractor.gif"",""img/Fire_Up_Distractor.gif"",""img/Fire_Up_Distractor.gif"",""img/Fire_Up_Distractor.gif"",""img/Fire_Up_Distractor.gif"",""img/Fire_Up_Distractor.gif"",""img/Fire_Up_Distractor.gif""]","4","targetDown_distractorsUp"
"","","","","","html-keyboard-response","70","212295","0.0-14.0-0.0-0.28","5e29cbd2a5ae4b012aa989f6","619531dcf66c91622fa1b861","619595558add4bfb3c87fb87","null","","null","","","","","main_T1_ITI","","","","",""
"","","","","","visual-search-circle","71","215748","0.0-14.0-0.0-1.28","5e29cbd2a5ae4b012aa989f6","619531dcf66c91622fa1b861","619595558add4bfb3c87fb87","2444.800000190735","","d","true","[[597,258],[412,21],[115,63],[2,341],[187,578],[484,536]]","true","6","main_T2_Trial","d","img/Fire_Down_Target.gif","[""img/Fire_Up_Distractor.gif"",""img/Fire_Up_Distractor.gif"",""img/Fire_Up_Distractor.gif"",""img/Fire_Up_Distractor.gif"",""img/Fire_Up_Distractor.gif"",""img/Fire_Up_Distractor.gif"",""img/Fire_Up_Distractor.gif"",""img/Fire_Up_Distractor.gif"",""img/Fire_Up_Distractor.gif"",""img/Fire_Up_Distractor.gif"",""img/Fire_Up_Distractor.gif"",""img/Fire_Up_Distractor.gif""]","6","targetDown_distractorsUp"
"","","","","","html-keyboard-response","72","215751","0.0-14.0-0.0-0.29","5e29cbd2a5ae4b012aa989f6","619531dcf66c91622fa1b861","619595558add4bfb3c87fb87","null","","null","","","","","main_T1_ITI","","","","",""
"","","","","","visual-search-circle","73","220765","0.0-14.0-0.0-1.29","5e29cbd2a5ae4b012aa989f6","619531dcf66c91622fa1b861","619595558add4bfb3c87fb87","4010.0999999046326","","s","true","[[597,263],[357,5],[37,154],[80,504],[426,571]]","false","5","main_T2_Trial","s","img/Fire_Down_Target.gif","[""img/Fire_Up_Distractor.gif"",""img/Fire_Up_Distractor.gif"",""img/Fire_Up_Distractor.gif"",""img/Fire_Up_Distractor.gif"",""img/Fire_Up_Distractor.gif"",""img/Fire_Up_Distractor.gif"",""img/Fire_Up_Distractor.gif"",""img/Fire_Up_Distractor.gif"",""img/Fire_Up_Distractor.gif"",""img/Fire_Up_Distractor.gif"",""img/Fire_Up_Distractor.gif"",""img/Fire_Up_Distractor.gif""]","5","targetDown_distractorsUp"
"","","","","","html-keyboard-response","74","220767","0.0-14.0-0.0-0.30","5e29cbd2a5ae4b012aa989f6","619531dcf66c91622fa1b861","619595558add4bfb3c87fb87","null","","null","","","","","main_T1_ITI","","","","",""
"","","","","","visual-search-circle","75","222796","0.0-14.0-0.0-1.30","5e29cbd2a5ae4b012aa989f6","619531dcf66c91622fa1b861","619595558add4bfb3c87fb87","1021.6999998092651","","d","true","[[141,45],[8,372],[279,599],[578,412],[492,70]]","true","5","main_T2_Trial","d","img/Fire_Down_Target.gif","[""img/Fire_Up_Distractor.gif"",""img/Fire_Up_Distractor.gif"",""img/Fire_Up_Distractor.gif"",""img/Fire_Up_Distractor.gif"",""img/Fire_Up_Distractor.gif"",""img/Fire_Up_Distractor.gif"",""img/Fire_Up_Distractor.gif"",""img/Fire_Up_Distractor.gif"",""img/Fire_Up_Distractor.gif"",""img/Fire_Up_Distractor.gif"",""img/Fire_Up_Distractor.gif"",""img/Fire_Up_Distractor.gif""]","5","targetDown_distractorsUp"
"","","","","","html-keyboard-response","76","222798","0.0-14.0-0.0-0.31","5e29cbd2a5ae4b012aa989f6","619531dcf66c91622fa1b861","619595558add4bfb3c87fb87","null","","null","","","","","main_T1_ITI","","","","",""
"","","","","","visual-search-circle","77","225641","0.0-14.0-0.0-1.31","5e29cbd2a5ae4b012aa989f6","619531dcf66c91622fa1b861","619595558add4bfb3c87fb87","1830.2000002861023","","s","true","[[0,320],[168,569],[467,548],[599,279],[431,30],[132,51]]","false","6","main_T2_Trial","s","img/Fire_Down_Target.gif","[""img/Fire_Up_Distractor.gif"",""img/Fire_Up_Distractor.gif"",""img/Fire_Up_Distractor.gif"",""img/Fire_Up_Distractor.gif"",""img/Fire_Up_Distractor.gif"",""img/Fire_Up_Distractor.gif"",""img/Fire_Up_Distractor.gif"",""img/Fire_Up_Distractor.gif"",""img/Fire_Up_Distractor.gif"",""img/Fire_Up_Distractor.gif"",""img/Fire_Up_Distractor.gif"",""img/Fire_Up_Distractor.gif""]","6","targetDown_distractorsUp"
"","","","","","html-keyboard-response","78","225643","0.0-14.0-0.0-0.32","5e29cbd2a5ae4b012aa989f6","619531dcf66c91622fa1b861","619595558add4bfb3c87fb87","null","","null","","","","","main_T1_ITI","","","","",""
"","","","","","visual-search-circle","79","228375","0.0-14.0-0.0-1.32","5e29cbd2a5ae4b012aa989f6","619531dcf66c91622fa1b861","619595558add4bfb3c87fb87","1721.5","","s","false","[[91,515],[338,597],[556,455],[581,195],[394,15],[135,48],[1,271]]","true","7","main_T2_Trial","d","img/Fire_Up_Target.gif","[""img/Fire_Down_Distractor.gif"",""img/Fire_Down_Distractor.gif"",""img/Fire_Down_Distractor.gif"",""img/Fire_Down_Distractor.gif"",""img/Fire_Down_Distractor.gif"",""img/Fire_Down_Distractor.gif"",""img/Fire_Down_Distractor.gif"",""img/Fire_Down_Distractor.gif"",""img/Fire_Down_Distractor.gif"",""img/Fire_Down_Distractor.gif"",""img/Fire_Down_Distractor.gif"",""img/Fire_Down_Distractor.gif""]","7","targetUp_distractorsDown"
"","","","","","html-keyboard-response","80","228376","0.0-14.0-0.0-0.33","5e29cbd2a5ae4b012aa989f6","619531dcf66c91622fa1b861","619595558add4bfb3c87fb87","null","","null","","","","","main_T1_ITI","","","","",""
"","","","","","visual-search-circle","81","231009","0.0-14.0-0.0-1.33","5e29cbd2a5ae4b012aa989f6","619531dcf66c91622fa1b861","619595558add4bfb3c87fb87","1621.9000000953674","","s","true","[[522,99],[99,77],[77,500],[500,522]]","false","4","main_T2_Trial","s","img/Fire_Down_Target.gif","[""img/Fire_Up_Distractor.gif"",""img/Fire_Up_Distractor.gif"",""img/Fire_Up_Distractor.gif"",""img/Fire_Up_Distractor.gif"",""img/Fire_Up_Distractor.gif"",""img/Fire_Up_Distractor.gif"",""img/Fire_Up_Distractor.gif"",""img/Fire_Up_Distractor.gif"",""img/Fire_Up_Distractor.gif"",""img/Fire_Up_Distractor.gif"",""img/Fire_Up_Distractor.gif"",""img/Fire_Up_Distractor.gif""]","4","targetDown_distractorsUp"
"","","","","","html-keyboard-response","82","231011","0.0-14.0-0.0-0.34","5e29cbd2a5ae4b012aa989f6","619531dcf66c91622fa1b861","619595558add4bfb3c87fb87","null","","null","","","","","main_T1_ITI","","","","",""
"","","","","","visual-search-circle","83","233340","0.0-14.0-0.0-1.34","5e29cbd2a5ae4b012aa989f6","619531dcf66c91622fa1b861","619595558add4bfb3c87fb87","1311.0999999046326","","s","true","[[326,1],[107,70],[1,273],[70,492],[273,598],[492,529],[598,326],[529,107]]","false","8","main_T2_Trial","s","img/Fire_Up_Target.gif","[""img/Fire_Down_Distractor.gif"",""img/Fire_Down_Distractor.gif"",""img/Fire_Down_Distractor.gif"",""img/Fire_Down_Distractor.gif"",""img/Fire_Down_Distractor.gif"",""img/Fire_Down_Distractor.gif"",""img/Fire_Down_Distractor.gif"",""img/Fire_Down_Distractor.gif"",""img/Fire_Down_Distractor.gif"",""img/Fire_Down_Distractor.gif"",""img/Fire_Down_Distractor.gif"",""img/Fire_Down_Distractor.gif""]","8","targetUp_distractorsDown"
"","","","","","html-keyboard-response","84","233342","0.0-14.0-0.0-0.35","5e29cbd2a5ae4b012aa989f6","619531dcf66c91622fa1b861","619595558add4bfb3c87fb87","null","","null","","","","","main_T1_ITI","","","","",""
"","","","","","visual-search-circle","85","235281","0.0-14.0-0.0-1.35","5e29cbd2a5ae4b012aa989f6","619531dcf66c91622fa1b861","619595558add4bfb3c87fb87","928.7000002861023","","s","true","[[6,237],[68,490],[304,599],[537,483],[591,228],[426,27],[165,31]]","false","7","main_T2_Trial","s","img/Fire_Up_Target.gif","[""img/Fire_Down_Distractor.gif"",""img/Fire_Down_Distractor.gif"",""img/Fire_Down_Distractor.gif"",""img/Fire_Down_Distractor.gif"",""img/Fire_Down_Distractor.gif"",""img/Fire_Down_Distractor.gif"",""img/Fire_Down_Distractor.gif"",""img/Fire_Down_Distractor.gif"",""img/Fire_Down_Distractor.gif"",""img/Fire_Down_Distractor.gif"",""img/Fire_Down_Distractor.gif"",""img/Fire_Down_Distractor.gif""]","7","targetUp_distractorsDown"
"","","","","","html-keyboard-response","86","235283","0.0-14.0-0.0-0.36","5e29cbd2a5ae4b012aa989f6","619531dcf66c91622fa1b861","619595558add4bfb3c87fb87","null","","null","","","","","main_T1_ITI","","","","",""
"","","","","","visual-search-circle","87","238540","0.0-14.0-0.0-1.36","5e29cbd2a5ae4b012aa989f6","619531dcf66c91622fa1b861","619595558add4bfb3c87fb87","2249.2999997138977","","s","true","[[242,5],[5,357],[357,594],[594,242]]","false","4","main_T2_Trial","s","img/Fire_Down_Target.gif","[""img/Fire_Up_Distractor.gif"",""img/Fire_Up_Distractor.gif"",""img/Fire_Up_Distractor.gif"",""img/Fire_Up_Distractor.gif"",""img/Fire_Up_Distractor.gif"",""img/Fire_Up_Distractor.gif"",""img/Fire_Up_Distractor.gif"",""img/Fire_Up_Distractor.gif"",""img/Fire_Up_Distractor.gif"",""img/Fire_Up_Distractor.gif"",""img/Fire_Up_Distractor.gif"",""img/Fire_Up_Distractor.gif""]","4","targetDown_distractorsUp"
"","","","","","html-keyboard-response","88","238543","0.0-14.0-0.0-0.37","5e29cbd2a5ae4b012aa989f6","619531dcf66c91622fa1b861","619595558add4bfb3c87fb87","null","","null","","","","","main_T1_ITI","","","","",""
"","","","","","visual-search-circle","89","241384","0.0-14.0-0.0-1.37","5e29cbd2a5ae4b012aa989f6","619531dcf66c91622fa1b861","619595558add4bfb3c87fb87","1827.5","","d","true","[[352,595],[563,443],[576,183],[381,11],[124,56],[0,285],[101,524]]","true","7","main_T2_Trial","d","img/Fire_Up_Target.gif","[""img/Fire_Down_Distractor.gif"",""img/Fire_Down_Distractor.gif"",""img/Fire_Down_Distractor.gif"",""img/Fire_Down_Distractor.gif"",""img/Fire_Down_Distractor.gif"",""img/Fire_Down_Distractor.gif"",""img/Fire_Down_Distractor.gif"",""img/Fire_Down_Distractor.gif"",""img/Fire_Down_Distractor.gif"",""img/Fire_Down_Distractor.gif"",""img/Fire_Down_Distractor.gif"",""img/Fire_Down_Distractor.gif""]","7","targetUp_distractorsDown"
"","","","","","html-keyboard-response","90","241386","0.0-14.0-0.0-0.38","5e29cbd2a5ae4b012aa989f6","619531dcf66c91622fa1b861","619595558add4bfb3c87fb87","null","","null","","","","","main_T1_ITI","","","","",""
"","","","","","visual-search-circle","91","243369","0.0-14.0-0.0-1.38","5e29cbd2a5ae4b012aa989f6","619531dcf66c91622fa1b861","619595558add4bfb3c87fb87","978.4000000953674","","s","true","[[417,576],[588,380],[543,124],[314,0],[74,102],[4,352],[157,563]]","false","7","main_T2_Trial","s","img/Fire_Up_Target.gif","[""img/Fire_Down_Distractor.gif"",""img/Fire_Down_Distractor.gif"",""img/Fire_Down_Distractor.gif"",""img/Fire_Down_Distractor.gif"",""img/Fire_Down_Distractor.gif"",""img/Fire_Down_Distractor.gif"",""img/Fire_Down_Distractor.gif"",""img/Fire_Down_Distractor.gif"",""img/Fire_Down_Distractor.gif"",""img/Fire_Down_Distractor.gif"",""img/Fire_Down_Distractor.gif"",""img/Fire_Down_Distractor.gif""]","7","targetUp_distractorsDown"
"","","","","","html-keyboard-response","92","245477","0.0-14.0-0.0-0.39","5e29cbd2a5ae4b012aa989f6","619531dcf66c91622fa1b861","619595558add4bfb3c87fb87","2107.5999999046326","Wow! You've completed 40 out of 160 trials! </p> <p>  </p><p> Take a quick break, then press any key when you're ready to continue."," ","","","","","main_T1_ITI","","","","",""
"","","","","","visual-search-circle","93","248364","0.0-14.0-0.0-1.39","5e29cbd2a5ae4b012aa989f6","619531dcf66c91622fa1b861","619595558add4bfb3c87fb87","1881.6999998092651","","d","true","[[5,242],[154,562],[504,519],[571,173],[263,2]]","true","5","main_T2_Trial","d","img/Fire_Down_Target.gif","[""img/Fire_Up_Distractor.gif"",""img/Fire_Up_Distractor.gif"",""img/Fire_Up_Distractor.gif"",""img/Fire_Up_Distractor.gif"",""img/Fire_Up_Distractor.gif"",""img/Fire_Up_Distractor.gif"",""img/Fire_Up_Distractor.gif"",""img/Fire_Up_Distractor.gif"",""img/Fire_Up_Distractor.gif"",""img/Fire_Up_Distractor.gif"",""img/Fire_Up_Distractor.gif"",""img/Fire_Up_Distractor.gif""]","5","targetDown_distractorsUp"
"","","","","","html-keyboard-response","94","248367","0.0-14.0-0.0-0.40","5e29cbd2a5ae4b012aa989f6","619531dcf66c91622fa1b861","619595558add4bfb3c87fb87","null","","null","","","","","main_T1_ITI","","","","",""
"","","","","","visual-search-circle","95","250408","0.0-14.0-0.0-1.40","5e29cbd2a5ae4b012aa989f6","619531dcf66c91622fa1b861","619595558add4bfb3c87fb87","1036.8000001907349","","d","true","[[597,258],[352,4],[35,159],[84,508],[431,569]]","true","5","main_T2_Trial","d","img/Fire_Up_Target.gif","[""img/Fire_Down_Distractor.gif"",""img/Fire_Down_Distractor.gif"",""img/Fire_Down_Distractor.gif"",""img/Fire_Down_Distractor.gif"",""img/Fire_Down_Distractor.gif"",""img/Fire_Down_Distractor.gif"",""img/Fire_Down_Distractor.gif"",""img/Fire_Down_Distractor.gif"",""img/Fire_Down_Distractor.gif"",""img/Fire_Down_Distractor.gif"",""img/Fire_Down_Distractor.gif"",""img/Fire_Down_Distractor.gif""]","5","targetUp_distractorsDown"
"","","","","","html-keyboard-response","96","250409","0.0-14.0-0.0-0.41","5e29cbd2a5ae4b012aa989f6","619531dcf66c91622fa1b861","619595558add4bfb3c87fb87","null","","null","","","","","main_T1_ITI","","","","",""
"","","","","","visual-search-circle","97","253141","0.0-14.0-0.0-1.41","5e29cbd2a5ae4b012aa989f6","619531dcf66c91622fa1b861","619595558add4bfb3c87fb87","1716","","d","true","[[127,54],[4,247],[54,472],[247,595],[472,545],[595,352],[545,127],[352,4]]","true","8","main_T2_Trial","d","img/Fire_Down_Target.gif","[""img/Fire_Up_Distractor.gif"",""img/Fire_Up_Distractor.gif"",""img/Fire_Up_Distractor.gif"",""img/Fire_Up_Distractor.gif"",""img/Fire_Up_Distractor.gif"",""img/Fire_Up_Distractor.gif"",""img/Fire_Up_Distractor.gif"",""img/Fire_Up_Distractor.gif"",""img/Fire_Up_Distractor.gif"",""img/Fire_Up_Distractor.gif"",""img/Fire_Up_Distractor.gif"",""img/Fire_Up_Distractor.gif""]","8","targetDown_distractorsUp"
"","","","","","html-keyboard-response","98","253143","0.0-14.0-0.0-0.42","5e29cbd2a5ae4b012aa989f6","619531dcf66c91622fa1b861","619595558add4bfb3c87fb87","null","","null","","","","","main_T1_ITI","","","","",""
"","","","","","visual-search-circle","99","255304","0.0-14.0-0.0-1.42","5e29cbd2a5ae4b012aa989f6","619531dcf66c91622fa1b861","619595558add4bfb3c87fb87","1154.9000000953674","","d","true","[[7,232],[45,458],[232,592],[458,554],[592,367],[554,141],[367,7],[141,45]]","true","8","main_T2_Trial","d","img/Fire_Up_Target.gif","[""img/Fire_Down_Distractor.gif"",""img/Fire_Down_Distractor.gif"",""img/Fire_Down_Distractor.gif"",""img/Fire_Down_Distractor.gif"",""img/Fire_Down_Distractor.gif"",""img/Fire_Down_Distractor.gif"",""img/Fire_Down_Distractor.gif"",""img/Fire_Down_Distractor.gif"",""img/Fire_Down_Distractor.gif"",""img/Fire_Down_Distractor.gif"",""img/Fire_Down_Distractor.gif"",""img/Fire_Down_Distractor.gif""]","8","targetUp_distractorsDown"
"","","","","","html-keyboard-response","100","255307","0.0-14.0-0.0-0.43","5e29cbd2a5ae4b012aa989f6","619531dcf66c91622fa1b861","619595558add4bfb3c87fb87","null","","null","","","","","main_T1_ITI","","","","",""
"","","","","","visual-search-circle","101","257192","0.0-14.0-0.0-1.43","5e29cbd2a5ae4b012aa989f6","619531dcf66c91622fa1b861","619595558add4bfb3c87fb87","871.3999996185303","","d","true","[[66,488],[488,533],[533,111],[111,66]]","true","4","main_T2_Trial","d","img/Fire_Up_Target.gif","[""img/Fire_Down_Distractor.gif"",""img/Fire_Down_Distractor.gif"",""img/Fire_Down_Distractor.gif"",""img/Fire_Down_Distractor.gif"",""img/Fire_Down_Distractor.gif"",""img/Fire_Down_Distractor.gif"",""img/Fire_Down_Distractor.gif"",""img/Fire_Down_Distractor.gif"",""img/Fire_Down_Distractor.gif"",""img/Fire_Down_Distractor.gif"",""img/Fire_Down_Distractor.gif"",""img/Fire_Down_Distractor.gif""]","4","targetUp_distractorsDown"
"","","","","","html-keyboard-response","102","257194","0.0-14.0-0.0-0.44","5e29cbd2a5ae4b012aa989f6","619531dcf66c91622fa1b861","619595558add4bfb3c87fb87","null","","null","","","","","main_T1_ITI","","","","",""
"","","","","","visual-search-circle","103","259420","0.0-14.0-0.0-1.44","5e29cbd2a5ae4b012aa989f6","619531dcf66c91622fa1b861","619595558add4bfb3c87fb87","1212.9000000953674","","s","false","[[407,19],[111,66],[3,346],[192,580],[488,533],[596,253]]","true","6","main_T2_Trial","d","img/Fire_Up_Target.gif","[""img/Fire_Down_Distractor.gif"",""img/Fire_Down_Distractor.gif"",""img/Fire_Down_Distractor.gif"",""img/Fire_Down_Distractor.gif"",""img/Fire_Down_Distractor.gif"",""img/Fire_Down_Distractor.gif"",""img/Fire_Down_Distractor.gif"",""img/Fire_Down_Distractor.gif"",""img/Fire_Down_Distractor.gif"",""img/Fire_Down_Distractor.gif"",""img/Fire_Down_Distractor.gif"",""img/Fire_Down_Distractor.gif""]","6","targetUp_distractorsDown"
"","","","","","html-keyboard-response","104","259423","0.0-14.0-0.0-0.45","5e29cbd2a5ae4b012aa989f6","619531dcf66c91622fa1b861","619595558add4bfb3c87fb87","null","","null","","","","","main_T1_ITI","","","","",""
"","","","","","visual-search-circle","105","261724","0.0-14.0-0.0-1.45","5e29cbd2a5ae4b012aa989f6","619531dcf66c91622fa1b861","619595558add4bfb3c87fb87","1283.4000000953674","","s","true","[[496,526],[594,242],[397,16],[103,73],[5,357],[202,583]]","false","6","main_T2_Trial","s","img/Fire_Down_Target.gif","[""img/Fire_Up_Distractor.gif"",""img/Fire_Up_Distractor.gif"",""img/Fire_Up_Distractor.gif"",""img/Fire_Up_Distractor.gif"",""img/Fire_Up_Distractor.gif"",""img/Fire_Up_Distractor.gif"",""img/Fire_Up_Distractor.gif"",""img/Fire_Up_Distractor.gif"",""img/Fire_Up_Distractor.gif"",""img/Fire_Up_Distractor.gif"",""img/Fire_Up_Distractor.gif"",""img/Fire_Up_Distractor.gif""]","6","targetDown_distractorsUp"
"","","","","","html-keyboard-response","106","261726","0.0-14.0-0.0-0.46","5e29cbd2a5ae4b012aa989f6","619531dcf66c91622fa1b861","619595558add4bfb3c87fb87","null","","null","","","","","main_T1_ITI","","","","",""
"","","","","","visual-search-circle","107","264372","0.0-14.0-0.0-1.46","5e29cbd2a5ae4b012aa989f6","619531dcf66c91622fa1b861","619595558add4bfb3c87fb87","1640.5999999046326","","d","true","[[173,28],[18,197],[28,426],[197,581],[426,571],[581,402],[571,173],[402,18]]","true","8","main_T2_Trial","d","img/Fire_Up_Target.gif","[""img/Fire_Down_Distractor.gif"",""img/Fire_Down_Distractor.gif"",""img/Fire_Down_Distractor.gif"",""img/Fire_Down_Distractor.gif"",""img/Fire_Down_Distractor.gif"",""img/Fire_Down_Distractor.gif"",""img/Fire_Down_Distractor.gif"",""img/Fire_Down_Distractor.gif"",""img/Fire_Down_Distractor.gif"",""img/Fire_Down_Distractor.gif"",""img/Fire_Down_Distractor.gif"",""img/Fire_Down_Distractor.gif""]","8","targetUp_distractorsDown"
"","","","","","html-keyboard-response","108","264373","0.0-14.0-0.0-0.47","5e29cbd2a5ae4b012aa989f6","619531dcf66c91622fa1b861","619595558add4bfb3c87fb87","null","","null","","","","","main_T1_ITI","","","","",""
"","","","","","visual-search-circle","109","267345","0.0-14.0-0.0-1.47","5e29cbd2a5ae4b012aa989f6","619531dcf66c91622fa1b861","619595558add4bfb3c87fb87","1964.0999999046326","","s","true","[[539,119],[119,60],[60,480],[480,539]]","false","4","main_T2_Trial","s","img/Fire_Up_Target.gif","[""img/Fire_Down_Distractor.gif"",""img/Fire_Down_Distractor.gif"",""img/Fire_Down_Distractor.gif"",""img/Fire_Down_Distractor.gif"",""img/Fire_Down_Distractor.gif"",""img/Fire_Down_Distractor.gif"",""img/Fire_Down_Distractor.gif"",""img/Fire_Down_Distractor.gif"",""img/Fire_Down_Distractor.gif"",""img/Fire_Down_Distractor.gif"",""img/Fire_Down_Distractor.gif"",""img/Fire_Down_Distractor.gif""]","4","targetUp_distractorsDown"
"","","","","","html-keyboard-response","110","267347","0.0-14.0-0.0-0.48","5e29cbd2a5ae4b012aa989f6","619531dcf66c91622fa1b861","619595558add4bfb3c87fb87","null","","null","","","","","main_T1_ITI","","","","",""
"","","","","","visual-search-circle","111","270460","0.0-14.0-0.0-1.48","5e29cbd2a5ae4b012aa989f6","619531dcf66c91622fa1b861","619595558add4bfb3c87fb87","2109.300000190735","","s","true","[[571,426],[581,197],[426,28],[197,18],[28,173],[18,402],[173,571],[402,581]]","false","8","main_T2_Trial","s","img/Fire_Up_Target.gif","[""img/Fire_Down_Distractor.gif"",""img/Fire_Down_Distractor.gif"",""img/Fire_Down_Distractor.gif"",""img/Fire_Down_Distractor.gif"",""img/Fire_Down_Distractor.gif"",""img/Fire_Down_Distractor.gif"",""img/Fire_Down_Distractor.gif"",""img/Fire_Down_Distractor.gif"",""img/Fire_Down_Distractor.gif"",""img/Fire_Down_Distractor.gif"",""img/Fire_Down_Distractor.gif"",""img/Fire_Down_Distractor.gif""]","8","targetUp_distractorsDown"
"","","","","","html-keyboard-response","112","270463","0.0-14.0-0.0-0.49","5e29cbd2a5ae4b012aa989f6","619531dcf66c91622fa1b861","619595558add4bfb3c87fb87","null","","null","","","","","main_T1_ITI","","","","",""
"","","","","","visual-search-circle","113","272864","0.0-14.0-0.0-1.49","5e29cbd2a5ae4b012aa989f6","619531dcf66c91622fa1b861","619595558add4bfb3c87fb87","1394.9000000953674","","d","true","[[458,45],[159,35],[0,289],[141,554],[440,564],[599,310]]","true","6","main_T2_Trial","d","img/Fire_Down_Target.gif","[""img/Fire_Up_Distractor.gif"",""img/Fire_Up_Distractor.gif"",""img/Fire_Up_Distractor.gif"",""img/Fire_Up_Distractor.gif"",""img/Fire_Up_Distractor.gif"",""img/Fire_Up_Distractor.gif"",""img/Fire_Up_Distractor.gif"",""img/Fire_Up_Distractor.gif"",""img/Fire_Up_Distractor.gif"",""img/Fire_Up_Distractor.gif"",""img/Fire_Up_Distractor.gif"",""img/Fire_Up_Distractor.gif""]","6","targetDown_distractorsUp"
"","","","","","html-keyboard-response","114","272866","0.0-14.0-0.0-0.50","5e29cbd2a5ae4b012aa989f6","619531dcf66c91622fa1b861","619595558add4bfb3c87fb87","null","","null","","","","","main_T1_ITI","","","","",""
"","","","","","visual-search-circle","115","278017","0.0-14.0-0.0-1.50","5e29cbd2a5ae4b012aa989f6","619531dcf66c91622fa1b861","619595558add4bfb3c87fb87","4146.099999904633","","d","true","[[504,519],[571,173],[263,2],[5,242],[154,562]]","true","5","main_T2_Trial","d","img/Fire_Up_Target.gif","[""img/Fire_Down_Distractor.gif"",""img/Fire_Down_Distractor.gif"",""img/Fire_Down_Distractor.gif"",""img/Fire_Down_Distractor.gif"",""img/Fire_Down_Distractor.gif"",""img/Fire_Down_Distractor.gif"",""img/Fire_Down_Distractor.gif"",""img/Fire_Down_Distractor.gif"",""img/Fire_Down_Distractor.gif"",""img/Fire_Down_Distractor.gif"",""img/Fire_Down_Distractor.gif"",""img/Fire_Down_Distractor.gif""]","5","targetUp_distractorsDown"
"","","","","","html-keyboard-response","116","278018","0.0-14.0-0.0-0.51","5e29cbd2a5ae4b012aa989f6","619531dcf66c91622fa1b861","619595558add4bfb3c87fb87","null","","null","","","","","main_T1_ITI","","","","",""
"","","","","","visual-search-circle","117","280076","0.0-14.0-0.0-1.51","5e29cbd2a5ae4b012aa989f6","619531dcf66c91622fa1b861","619595558add4bfb3c87fb87","1051.2000002861023","","d","true","[[154,37],[4,250],[76,500],[317,599],[544,473],[588,216],[414,22]]","true","7","main_T2_Trial","d","img/Fire_Up_Target.gif","[""img/Fire_Down_Distractor.gif"",""img/Fire_Down_Distractor.gif"",""img/Fire_Down_Distractor.gif"",""img/Fire_Down_Distractor.gif"",""img/Fire_Down_Distractor.gif"",""img/Fire_Down_Distractor.gif"",""img/Fire_Down_Distractor.gif"",""img/Fire_Down_Distractor.gif"",""img/Fire_Down_Distractor.gif"",""img/Fire_Down_Distractor.gif"",""img/Fire_Down_Distractor.gif"",""img/Fire_Down_Distractor.gif""]","7","targetUp_distractorsDown"
"","","","","","html-keyboard-response","118","280078","0.0-14.0-0.0-0.52","5e29cbd2a5ae4b012aa989f6","619531dcf66c91622fa1b861","619595558add4bfb3c87fb87","null","","null","","","","","main_T1_ITI","","","","",""
"","","","","","visual-search-circle","119","282466","0.0-14.0-0.0-1.52","5e29cbd2a5ae4b012aa989f6","619531dcf66c91622fa1b861","619595558add4bfb3c87fb87","1371.9000000953674","","s","true","[[542,476],[476,57],[57,123],[123,542]]","false","4","main_T2_Trial","s","img/Fire_Down_Target.gif","[""img/Fire_Up_Distractor.gif"",""img/Fire_Up_Distractor.gif"",""img/Fire_Up_Distractor.gif"",""img/Fire_Up_Distractor.gif"",""img/Fire_Up_Distractor.gif"",""img/Fire_Up_Distractor.gif"",""img/Fire_Up_Distractor.gif"",""img/Fire_Up_Distractor.gif"",""img/Fire_Up_Distractor.gif"",""img/Fire_Up_Distractor.gif"",""img/Fire_Up_Distractor.gif"",""img/Fire_Up_Distractor.gif""]","4","targetDown_distractorsUp"
"","","","","","html-keyboard-response","120","282469","0.0-14.0-0.0-0.53","5e29cbd2a5ae4b012aa989f6","619531dcf66c91622fa1b861","619595558add4bfb3c87fb87","null","","null","","","","","main_T1_ITI","","","","",""
"","","","","","visual-search-circle","121","284316","0.0-14.0-0.0-1.53","5e29cbd2a5ae4b012aa989f6","619531dcf66c91622fa1b861","619595558add4bfb3c87fb87","831","","s","true","[[132,548],[357,594],[548,467],[594,242],[467,51],[242,5],[51,132],[5,357]]","false","8","main_T2_Trial","s","img/Fire_Up_Target.gif","[""img/Fire_Down_Distractor.gif"",""img/Fire_Down_Distractor.gif"",""img/Fire_Down_Distractor.gif"",""img/Fire_Down_Distractor.gif"",""img/Fire_Down_Distractor.gif"",""img/Fire_Down_Distractor.gif"",""img/Fire_Down_Distractor.gif"",""img/Fire_Down_Distractor.gif"",""img/Fire_Down_Distractor.gif"",""img/Fire_Down_Distractor.gif"",""img/Fire_Down_Distractor.gif"",""img/Fire_Down_Distractor.gif""]","8","targetUp_distractorsDown"
"","","","","","html-keyboard-response","122","284319","0.0-14.0-0.0-0.54","5e29cbd2a5ae4b012aa989f6","619531dcf66c91622fa1b861","619595558add4bfb3c87fb87","null","","null","","","","","main_T1_ITI","","","","",""
"","","","","","visual-search-circle","123","286090","0.0-14.0-0.0-1.54","5e29cbd2a5ae4b012aa989f6","619531dcf66c91622fa1b861","619595558add4bfb3c87fb87","758.1999998092651","","s","true","[[279,0],[8,227],[141,554],[492,529],[578,187]]","false","5","main_T2_Trial","s","img/Fire_Up_Target.gif","[""img/Fire_Down_Distractor.gif"",""img/Fire_Down_Distractor.gif"",""img/Fire_Down_Distractor.gif"",""img/Fire_Down_Distractor.gif"",""img/Fire_Down_Distractor.gif"",""img/Fire_Down_Distractor.gif"",""img/Fire_Down_Distractor.gif"",""img/Fire_Down_Distractor.gif"",""img/Fire_Down_Distractor.gif"",""img/Fire_Down_Distractor.gif"",""img/Fire_Down_Distractor.gif"",""img/Fire_Down_Distractor.gif""]","5","targetUp_distractorsDown"
"","","","","","html-keyboard-response","124","286092","0.0-14.0-0.0-0.55","5e29cbd2a5ae4b012aa989f6","619531dcf66c91622fa1b861","619595558add4bfb3c87fb87","null","","null","","","","","main_T1_ITI","","","","",""
"","","","","","visual-search-circle","125","287933","0.0-14.0-0.0-1.55","5e29cbd2a5ae4b012aa989f6","619531dcf66c91622fa1b861","619595558add4bfb3c87fb87","829","","s","true","[[377,589],[589,377],[512,87],[222,10],[10,222],[87,512]]","false","6","main_T2_Trial","s","img/Fire_Down_Target.gif","[""img/Fire_Up_Distractor.gif"",""img/Fire_Up_Distractor.gif"",""img/Fire_Up_Distractor.gif"",""img/Fire_Up_Distractor.gif"",""img/Fire_Up_Distractor.gif"",""img/Fire_Up_Distractor.gif"",""img/Fire_Up_Distractor.gif"",""img/Fire_Up_Distractor.gif"",""img/Fire_Up_Distractor.gif"",""img/Fire_Up_Distractor.gif"",""img/Fire_Up_Distractor.gif"",""img/Fire_Up_Distractor.gif""]","6","targetDown_distractorsUp"
"","","","","","html-keyboard-response","126","287935","0.0-14.0-0.0-0.56","5e29cbd2a5ae4b012aa989f6","619531dcf66c91622fa1b861","619595558add4bfb3c87fb87","null","","null","","","","","main_T1_ITI","","","","",""
"","","","","","visual-search-circle","127","290324","0.0-14.0-0.0-1.56","5e29cbd2a5ae4b012aa989f6","619531dcf66c91622fa1b861","619595558add4bfb3c87fb87","1370.4000000953674","","s","true","[[40,150],[20,409],[211,586],[468,547],[599,322],[504,80],[255,3]]","false","7","main_T2_Trial","s","img/Fire_Down_Target.gif","[""img/Fire_Up_Distractor.gif"",""img/Fire_Up_Distractor.gif"",""img/Fire_Up_Distractor.gif"",""img/Fire_Up_Distractor.gif"",""img/Fire_Up_Distractor.gif"",""img/Fire_Up_Distractor.gif"",""img/Fire_Up_Distractor.gif"",""img/Fire_Up_Distractor.gif"",""img/Fire_Up_Distractor.gif"",""img/Fire_Up_Distractor.gif"",""img/Fire_Up_Distractor.gif"",""img/Fire_Up_Distractor.gif""]","7","targetDown_distractorsUp"
"","","","","","html-keyboard-response","128","290326","0.0-14.0-0.0-0.57","5e29cbd2a5ae4b012aa989f6","619531dcf66c91622fa1b861","619595558add4bfb3c87fb87","null","","null","","","","","main_T1_ITI","","","","",""
"","","","","","visual-search-circle","129","295860","0.0-14.0-0.0-1.57","5e29cbd2a5ae4b012aa989f6","619531dcf66c91622fa1b861","619595558add4bfb3c87fb87","4529.5","","d","true","[[586,387],[387,13],[13,212],[212,586]]","true","4","main_T2_Trial","d","img/Fire_Down_Target.gif","[""img/Fire_Up_Distractor.gif"",""img/Fire_Up_Distractor.gif"",""img/Fire_Up_Distractor.gif"",""img/Fire_Up_Distractor.gif"",""img/Fire_Up_Distractor.gif"",""img/Fire_Up_Distractor.gif"",""img/Fire_Up_Distractor.gif"",""img/Fire_Up_Distractor.gif"",""img/Fire_Up_Distractor.gif"",""img/Fire_Up_Distractor.gif"",""img/Fire_Up_Distractor.gif"",""img/Fire_Up_Distractor.gif""]","4","targetDown_distractorsUp"
"","","","","","html-keyboard-response","130","295861","0.0-14.0-0.0-0.58","5e29cbd2a5ae4b012aa989f6","619531dcf66c91622fa1b861","619595558add4bfb3c87fb87","null","","null","","","","","main_T1_ITI","","","","",""
"","","","","","visual-search-circle","131","299792","0.0-14.0-0.0-1.58","5e29cbd2a5ae4b012aa989f6","619531dcf66c91622fa1b861","619595558add4bfb3c87fb87","2921.1000003814697","","s","false","[[279,599],[496,526],[599,320],[526,103],[320,0],[103,73],[0,279],[73,496]]","true","8","main_T2_Trial","d","img/Fire_Up_Target.gif","[""img/Fire_Down_Distractor.gif"",""img/Fire_Down_Distractor.gif"",""img/Fire_Down_Distractor.gif"",""img/Fire_Down_Distractor.gif"",""img/Fire_Down_Distractor.gif"",""img/Fire_Down_Distractor.gif"",""img/Fire_Down_Distractor.gif"",""img/Fire_Down_Distractor.gif"",""img/Fire_Down_Distractor.gif"",""img/Fire_Down_Distractor.gif"",""img/Fire_Down_Distractor.gif"",""img/Fire_Down_Distractor.gif""]","8","targetUp_distractorsDown"
"","","","","","html-keyboard-response","132","301240","0.0-14.0-0.0-0.59","5e29cbd2a5ae4b012aa989f6","619531dcf66c91622fa1b861","619595558add4bfb3c87fb87","1447.7000002861023","Wow! You've completed 60 out of 160 trials! </p> <p>  </p><p> Take a quick break, then press any key when you're ready to continue."," ","","","","","main_T1_ITI","","","","",""
"","","","","","visual-search-circle","133","305564","0.0-14.0-0.0-1.59","5e29cbd2a5ae4b012aa989f6","619531dcf66c91622fa1b861","619595558add4bfb3c87fb87","3319.0999999046326","","s","true","[[202,16],[30,168],[16,397],[168,569],[397,583],[569,431],[583,202],[431,30]]","false","8","main_T2_Trial","s","img/Fire_Down_Target.gif","[""img/Fire_Up_Distractor.gif"",""img/Fire_Up_Distractor.gif"",""img/Fire_Up_Distractor.gif"",""img/Fire_Up_Distractor.gif"",""img/Fire_Up_Distractor.gif"",""img/Fire_Up_Distractor.gif"",""img/Fire_Up_Distractor.gif"",""img/Fire_Up_Distractor.gif"",""img/Fire_Up_Distractor.gif"",""img/Fire_Up_Distractor.gif"",""img/Fire_Up_Distractor.gif"",""img/Fire_Up_Distractor.gif""]","8","targetDown_distractorsUp"
"","","","","","html-keyboard-response","134","305566","0.0-14.0-0.0-0.60","5e29cbd2a5ae4b012aa989f6","619531dcf66c91622fa1b861","619595558add4bfb3c87fb87","null","","null","","","","","main_T1_ITI","","","","",""
"","","","","","visual-search-circle","135","307953","0.0-14.0-0.0-1.60","5e29cbd2a5ae4b012aa989f6","619531dcf66c91622fa1b861","619595558add4bfb3c87fb87","1371.9000000953674","","s","true","[[168,30],[16,202],[30,431],[202,583],[431,569],[583,397],[569,168],[397,16]]","false","8","main_T2_Trial","s","img/Fire_Up_Target.gif","[""img/Fire_Down_Distractor.gif"",""img/Fire_Down_Distractor.gif"",""img/Fire_Down_Distractor.gif"",""img/Fire_Down_Distractor.gif"",""img/Fire_Down_Distractor.gif"",""img/Fire_Down_Distractor.gif"",""img/Fire_Down_Distractor.gif"",""img/Fire_Down_Distractor.gif"",""img/Fire_Down_Distractor.gif"",""img/Fire_Down_Distractor.gif"",""img/Fire_Down_Distractor.gif"",""img/Fire_Down_Distractor.gif""]","8","targetUp_distractorsDown"
"","","","","","html-keyboard-response","136","307954","0.0-14.0-0.0-0.61","5e29cbd2a5ae4b012aa989f6","619531dcf66c91622fa1b861","619595558add4bfb3c87fb87","null","","null","","","","","main_T1_ITI","","","","",""
"","","","","","visual-search-circle","137","310804","0.0-14.0-0.0-1.61","5e29cbd2a5ae4b012aa989f6","619531dcf66c91622fa1b861","619595558add4bfb3c87fb87","1836.4000000953674","","s","true","[[352,4],[127,54],[4,247],[54,472],[247,595],[472,545],[595,352],[545,127]]","false","8","main_T2_Trial","s","img/Fire_Up_Target.gif","[""img/Fire_Down_Distractor.gif"",""img/Fire_Down_Distractor.gif"",""img/Fire_Down_Distractor.gif"",""img/Fire_Down_Distractor.gif"",""img/Fire_Down_Distractor.gif"",""img/Fire_Down_Distractor.gif"",""img/Fire_Down_Distractor.gif"",""img/Fire_Down_Distractor.gif"",""img/Fire_Down_Distractor.gif"",""img/Fire_Down_Distractor.gif"",""img/Fire_Down_Distractor.gif"",""img/Fire_Down_Distractor.gif""]","8","targetUp_distractorsDown"
"","","","","","html-keyboard-response","138","310806","0.0-14.0-0.0-0.62","5e29cbd2a5ae4b012aa989f6","619531dcf66c91622fa1b861","619595558add4bfb3c87fb87","null","","null","","","","","main_T1_ITI","","","","",""
"","","","","","visual-search-circle","139","313352","0.0-14.0-0.0-1.62","5e29cbd2a5ae4b012aa989f6","619531dcf66c91622fa1b861","619595558add4bfb3c87fb87","1531.8000001907349","","s","true","[[13,212],[52,469],[278,599],[520,503],[596,254],[449,39],[189,21]]","false","7","main_T2_Trial","s","img/Fire_Down_Target.gif","[""img/Fire_Up_Distractor.gif"",""img/Fire_Up_Distractor.gif"",""img/Fire_Up_Distractor.gif"",""img/Fire_Up_Distractor.gif"",""img/Fire_Up_Distractor.gif"",""img/Fire_Up_Distractor.gif"",""img/Fire_Up_Distractor.gif"",""img/Fire_Up_Distractor.gif"",""img/Fire_Up_Distractor.gif"",""img/Fire_Up_Distractor.gif"",""img/Fire_Up_Distractor.gif"",""img/Fire_Up_Distractor.gif""]","7","targetDown_distractorsUp"
"","","","","","html-keyboard-response","140","313354","0.0-14.0-0.0-0.63","5e29cbd2a5ae4b012aa989f6","619531dcf66c91622fa1b861","619595558add4bfb3c87fb87","null","","null","","","","","main_T1_ITI","","","","",""
"","","","","","visual-search-circle","141","316328","0.0-14.0-0.0-1.63","5e29cbd2a5ae4b012aa989f6","619531dcf66c91622fa1b861","619595558add4bfb3c87fb87","1969.2999997138977","","s","true","[[559,450],[589,222],[449,40],[222,10],[40,150],[10,377],[150,559],[377,589]]","false","8","main_T2_Trial","s","img/Fire_Down_Target.gif","[""img/Fire_Up_Distractor.gif"",""img/Fire_Up_Distractor.gif"",""img/Fire_Up_Distractor.gif"",""img/Fire_Up_Distractor.gif"",""img/Fire_Up_Distractor.gif"",""img/Fire_Up_Distractor.gif"",""img/Fire_Up_Distractor.gif"",""img/Fire_Up_Distractor.gif"",""img/Fire_Up_Distractor.gif"",""img/Fire_Up_Distractor.gif"",""img/Fire_Up_Distractor.gif"",""img/Fire_Up_Distractor.gif""]","8","targetDown_distractorsUp"
"","","","","","html-keyboard-response","142","316329","0.0-14.0-0.0-0.64","5e29cbd2a5ae4b012aa989f6","619531dcf66c91622fa1b861","619595558add4bfb3c87fb87","null","","null","","","","","main_T1_ITI","","","","",""
"","","","","","visual-search-circle","143","318635","0.0-14.0-0.0-1.64","5e29cbd2a5ae4b012aa989f6","619531dcf66c91622fa1b861","619595558add4bfb3c87fb87","1301.2000002861023","","d","true","[[591,227],[382,11],[91,84],[8,372],[217,588],[508,515]]","true","6","main_T2_Trial","d","img/Fire_Up_Target.gif","[""img/Fire_Down_Distractor.gif"",""img/Fire_Down_Distractor.gif"",""img/Fire_Down_Distractor.gif"",""img/Fire_Down_Distractor.gif"",""img/Fire_Down_Distractor.gif"",""img/Fire_Down_Distractor.gif"",""img/Fire_Down_Distractor.gif"",""img/Fire_Down_Distractor.gif"",""img/Fire_Down_Distractor.gif"",""img/Fire_Down_Distractor.gif"",""img/Fire_Down_Distractor.gif"",""img/Fire_Down_Distractor.gif""]","6","targetUp_distractorsDown"
"","","","","","html-keyboard-response","144","318638","0.0-14.0-0.0-0.65","5e29cbd2a5ae4b012aa989f6","619531dcf66c91622fa1b861","619595558add4bfb3c87fb87","null","","null","","","","","main_T1_ITI","","","","",""
"","","","","","visual-search-circle","145","321024","0.0-14.0-0.0-1.65","5e29cbd2a5ae4b012aa989f6","619531dcf66c91622fa1b861","619595558add4bfb3c87fb87","1371","","s","true","[[192,580],[533,488],[551,136],[222,10],[0,284]]","false","5","main_T2_Trial","s","img/Fire_Down_Target.gif","[""img/Fire_Up_Distractor.gif"",""img/Fire_Up_Distractor.gif"",""img/Fire_Up_Distractor.gif"",""img/Fire_Up_Distractor.gif"",""img/Fire_Up_Distractor.gif"",""img/Fire_Up_Distractor.gif"",""img/Fire_Up_Distractor.gif"",""img/Fire_Up_Distractor.gif"",""img/Fire_Up_Distractor.gif"",""img/Fire_Up_Distractor.gif"",""img/Fire_Up_Distractor.gif"",""img/Fire_Up_Distractor.gif""]","5","targetDown_distractorsUp"
"","","","","","html-keyboard-response","146","321026","0.0-14.0-0.0-0.66","5e29cbd2a5ae4b012aa989f6","619531dcf66c91622fa1b861","619595558add4bfb3c87fb87","null","","null","","","","","main_T1_ITI","","","","",""
"","","","","","visual-search-circle","147","323100","0.0-14.0-0.0-1.66","5e29cbd2a5ae4b012aa989f6","619531dcf66c91622fa1b861","619595558add4bfb3c87fb87","1066.3000001907349","","s","true","[[310,599],[519,504],[599,289],[504,80],[289,0],[80,95],[0,310],[95,519]]","false","8","main_T2_Trial","s","img/Fire_Down_Target.gif","[""img/Fire_Up_Distractor.gif"",""img/Fire_Up_Distractor.gif"",""img/Fire_Up_Distractor.gif"",""img/Fire_Up_Distractor.gif"",""img/Fire_Up_Distractor.gif"",""img/Fire_Up_Distractor.gif"",""img/Fire_Up_Distractor.gif"",""img/Fire_Up_Distractor.gif"",""img/Fire_Up_Distractor.gif"",""img/Fire_Up_Distractor.gif"",""img/Fire_Up_Distractor.gif"",""img/Fire_Up_Distractor.gif""]","8","targetDown_distractorsUp"
"","","","","","html-keyboard-response","148","323102","0.0-14.0-0.0-0.67","5e29cbd2a5ae4b012aa989f6","619531dcf66c91622fa1b861","619595558add4bfb3c87fb87","null","","null","","","","","main_T1_ITI","","","","",""
"","","","","","visual-search-circle","149","325104","0.0-14.0-0.0-1.67","5e29cbd2a5ae4b012aa989f6","619531dcf66c91622fa1b861","619595558add4bfb3c87fb87","986.2000002861023","","d","true","[[526,103],[103,73],[73,496],[496,526]]","true","4","main_T2_Trial","d","img/Fire_Down_Target.gif","[""img/Fire_Up_Distractor.gif"",""img/Fire_Up_Distractor.gif"",""img/Fire_Up_Distractor.gif"",""img/Fire_Up_Distractor.gif"",""img/Fire_Up_Distractor.gif"",""img/Fire_Up_Distractor.gif"",""img/Fire_Up_Distractor.gif"",""img/Fire_Up_Distractor.gif"",""img/Fire_Up_Distractor.gif"",""img/Fire_Up_Distractor.gif"",""img/Fire_Up_Distractor.gif"",""img/Fire_Up_Distractor.gif""]","4","targetDown_distractorsUp"
"","","","","","html-keyboard-response","150","325106","0.0-14.0-0.0-0.68","5e29cbd2a5ae4b012aa989f6","619531dcf66c91622fa1b861","619595558add4bfb3c87fb87","null","","null","","","","","main_T1_ITI","","","","",""
"","","","","","visual-search-circle","151","327516","0.0-14.0-0.0-1.68","5e29cbd2a5ae4b012aa989f6","619531dcf66c91622fa1b861","619595558add4bfb3c87fb87","1393.3000001907349","","d","true","[[51,467],[467,548],[548,132],[132,51]]","true","4","main_T2_Trial","d","img/Fire_Down_Target.gif","[""img/Fire_Up_Distractor.gif"",""img/Fire_Up_Distractor.gif"",""img/Fire_Up_Distractor.gif"",""img/Fire_Up_Distractor.gif"",""img/Fire_Up_Distractor.gif"",""img/Fire_Up_Distractor.gif"",""img/Fire_Up_Distractor.gif"",""img/Fire_Up_Distractor.gif"",""img/Fire_Up_Distractor.gif"",""img/Fire_Up_Distractor.gif"",""img/Fire_Up_Distractor.gif"",""img/Fire_Up_Distractor.gif""]","4","targetDown_distractorsUp"
"","","","","","html-keyboard-response","152","327518","0.0-14.0-0.0-0.69","5e29cbd2a5ae4b012aa989f6","619531dcf66c91622fa1b861","619595558add4bfb3c87fb87","null","","null","","","","","main_T1_ITI","","","","",""
"","","","","","visual-search-circle","153","329632","0.0-14.0-0.0-1.69","5e29cbd2a5ae4b012aa989f6","619531dcf66c91622fa1b861","619595558add4bfb3c87fb87","1100.9000000953674","","s","true","[[25,422],[268,598],[542,476],[574,177],[331,1],[57,123]]","false","6","main_T2_Trial","s","img/Fire_Up_Target.gif","[""img/Fire_Down_Distractor.gif"",""img/Fire_Down_Distractor.gif"",""img/Fire_Down_Distractor.gif"",""img/Fire_Down_Distractor.gif"",""img/Fire_Down_Distractor.gif"",""img/Fire_Down_Distractor.gif"",""img/Fire_Down_Distractor.gif"",""img/Fire_Down_Distractor.gif"",""img/Fire_Down_Distractor.gif"",""img/Fire_Down_Distractor.gif"",""img/Fire_Down_Distractor.gif"",""img/Fire_Down_Distractor.gif""]","6","targetUp_distractorsDown"
"","","","","","html-keyboard-response","154","329634","0.0-14.0-0.0-0.70","5e29cbd2a5ae4b012aa989f6","619531dcf66c91622fa1b861","619595558add4bfb3c87fb87","null","","null","","","","","main_T1_ITI","","","","",""
"","","","","","visual-search-circle","155","333008","0.0-14.0-0.0-1.70","5e29cbd2a5ae4b012aa989f6","619531dcf66c91622fa1b861","619595558add4bfb3c87fb87","2369","","s","true","[[294,0],[62,117],[8,371],[174,572],[434,567],[593,361],[531,108]]","false","7","main_T2_Trial","s","img/Fire_Down_Target.gif","[""img/Fire_Up_Distractor.gif"",""img/Fire_Up_Distractor.gif"",""img/Fire_Up_Distractor.gif"",""img/Fire_Up_Distractor.gif"",""img/Fire_Up_Distractor.gif"",""img/Fire_Up_Distractor.gif"",""img/Fire_Up_Distractor.gif"",""img/Fire_Up_Distractor.gif"",""img/Fire_Up_Distractor.gif"",""img/Fire_Up_Distractor.gif"",""img/Fire_Up_Distractor.gif"",""img/Fire_Up_Distractor.gif""]","7","targetDown_distractorsUp"
"","","","","","html-keyboard-response","156","333011","0.0-14.0-0.0-0.71","5e29cbd2a5ae4b012aa989f6","619531dcf66c91622fa1b861","619595558add4bfb3c87fb87","null","","null","","","","","main_T1_ITI","","","","",""
"","","","","","visual-search-circle","157","334979","0.0-14.0-0.0-1.71","5e29cbd2a5ae4b012aa989f6","619531dcf66c91622fa1b861","619595558add4bfb3c87fb87","964.5999999046326","","d","true","[[599,315],[407,19],[66,111],[48,463],[377,589]]","true","5","main_T2_Trial","d","img/Fire_Down_Target.gif","[""img/Fire_Up_Distractor.gif"",""img/Fire_Up_Distractor.gif"",""img/Fire_Up_Distractor.gif"",""img/Fire_Up_Distractor.gif"",""img/Fire_Up_Distractor.gif"",""img/Fire_Up_Distractor.gif"",""img/Fire_Up_Distractor.gif"",""img/Fire_Up_Distractor.gif"",""img/Fire_Up_Distractor.gif"",""img/Fire_Up_Distractor.gif"",""img/Fire_Up_Distractor.gif"",""img/Fire_Up_Distractor.gif""]","5","targetDown_distractorsUp"
"","","","","","html-keyboard-response","158","334982","0.0-14.0-0.0-0.72","5e29cbd2a5ae4b012aa989f6","619531dcf66c91622fa1b861","619595558add4bfb3c87fb87","null","","null","","","","","main_T1_ITI","","","","",""
"","","","","","visual-search-circle","159","337056","0.0-14.0-0.0-1.72","5e29cbd2a5ae4b012aa989f6","619531dcf66c91622fa1b861","619595558add4bfb3c87fb87","1061.5","","d","true","[[440,564],[586,387],[564,159],[387,13],[159,35],[13,212],[35,440],[212,586]]","true","8","main_T2_Trial","d","img/Fire_Down_Target.gif","[""img/Fire_Up_Distractor.gif"",""img/Fire_Up_Distractor.gif"",""img/Fire_Up_Distractor.gif"",""img/Fire_Up_Distractor.gif"",""img/Fire_Up_Distractor.gif"",""img/Fire_Up_Distractor.gif"",""img/Fire_Up_Distractor.gif"",""img/Fire_Up_Distractor.gif"",""img/Fire_Up_Distractor.gif"",""img/Fire_Up_Distractor.gif"",""img/Fire_Up_Distractor.gif"",""img/Fire_Up_Distractor.gif""]","8","targetDown_distractorsUp"
"","","","","","html-keyboard-response","160","337058","0.0-14.0-0.0-0.73","5e29cbd2a5ae4b012aa989f6","619531dcf66c91622fa1b861","619595558add4bfb3c87fb87","null","","null","","","","","main_T1_ITI","","","","",""
"","","","","","visual-search-circle","161","340032","0.0-14.0-0.0-1.73","5e29cbd2a5ae4b012aa989f6","619531dcf66c91622fa1b861","619595558add4bfb3c87fb87","1970.3999996185303","","s","true","[[222,589],[589,377],[377,10],[10,222]]","false","4","main_T2_Trial","s","img/Fire_Down_Target.gif","[""img/Fire_Up_Distractor.gif"",""img/Fire_Up_Distractor.gif"",""img/Fire_Up_Distractor.gif"",""img/Fire_Up_Distractor.gif"",""img/Fire_Up_Distractor.gif"",""img/Fire_Up_Distractor.gif"",""img/Fire_Up_Distractor.gif"",""img/Fire_Up_Distractor.gif"",""img/Fire_Up_Distractor.gif"",""img/Fire_Up_Distractor.gif"",""img/Fire_Up_Distractor.gif"",""img/Fire_Up_Distractor.gif""]","4","targetDown_distractorsUp"
"","","","","","html-keyboard-response","162","340034","0.0-14.0-0.0-0.74","5e29cbd2a5ae4b012aa989f6","619531dcf66c91622fa1b861","619595558add4bfb3c87fb87","null","","null","","","","","main_T1_ITI","","","","",""
"","","","","","visual-search-circle","163","343116","0.0-14.0-0.0-1.74","5e29cbd2a5ae4b012aa989f6","619531dcf66c91622fa1b861","619595558add4bfb3c87fb87","2070.2999997138977","","s","true","[[136,551],[362,593],[551,463],[593,237],[463,48],[237,6],[48,136],[6,362]]","false","8","main_T2_Trial","s","img/Fire_Up_Target.gif","[""img/Fire_Down_Distractor.gif"",""img/Fire_Down_Distractor.gif"",""img/Fire_Down_Distractor.gif"",""img/Fire_Down_Distractor.gif"",""img/Fire_Down_Distractor.gif"",""img/Fire_Down_Distractor.gif"",""img/Fire_Down_Distractor.gif"",""img/Fire_Down_Distractor.gif"",""img/Fire_Down_Distractor.gif"",""img/Fire_Down_Distractor.gif"",""img/Fire_Down_Distractor.gif"",""img/Fire_Down_Distractor.gif""]","8","targetUp_distractorsDown"
"","","","","","html-keyboard-response","164","343119","0.0-14.0-0.0-0.75","5e29cbd2a5ae4b012aa989f6","619531dcf66c91622fa1b861","619595558add4bfb3c87fb87","null","","null","","","","","main_T1_ITI","","","","",""
"","","","","","visual-search-circle","165","345684","0.0-14.0-0.0-1.75","5e29cbd2a5ae4b012aa989f6","619531dcf66c91622fa1b861","619595558add4bfb3c87fb87","1549.5999999046326","","s","true","[[542,476],[589,220],[417,24],[157,35],[4,246],[74,497],[313,599]]","false","7","main_T2_Trial","s","img/Fire_Up_Target.gif","[""img/Fire_Down_Distractor.gif"",""img/Fire_Down_Distractor.gif"",""img/Fire_Down_Distractor.gif"",""img/Fire_Down_Distractor.gif"",""img/Fire_Down_Distractor.gif"",""img/Fire_Down_Distractor.gif"",""img/Fire_Down_Distractor.gif"",""img/Fire_Down_Distractor.gif"",""img/Fire_Down_Distractor.gif"",""img/Fire_Down_Distractor.gif"",""img/Fire_Down_Distractor.gif"",""img/Fire_Down_Distractor.gif""]","7","targetUp_distractorsDown"
"","","","","","html-keyboard-response","166","345688","0.0-14.0-0.0-0.76","5e29cbd2a5ae4b012aa989f6","619531dcf66c91622fa1b861","619595558add4bfb3c87fb87","null","","null","","","","","main_T1_ITI","","","","",""
"","","","","","visual-search-circle","167","347540","0.0-14.0-0.0-1.76","5e29cbd2a5ae4b012aa989f6","619531dcf66c91622fa1b861","619595558add4bfb3c87fb87","834.6999998092651","","d","true","[[197,18],[15,204],[47,462],[270,598],[514,509],[597,262],[456,44]]","true","7","main_T2_Trial","d","img/Fire_Up_Target.gif","[""img/Fire_Down_Distractor.gif"",""img/Fire_Down_Distractor.gif"",""img/Fire_Down_Distractor.gif"",""img/Fire_Down_Distractor.gif"",""img/Fire_Down_Distractor.gif"",""img/Fire_Down_Distractor.gif"",""img/Fire_Down_Distractor.gif"",""img/Fire_Down_Distractor.gif"",""img/Fire_Down_Distractor.gif"",""img/Fire_Down_Distractor.gif"",""img/Fire_Down_Distractor.gif"",""img/Fire_Down_Distractor.gif""]","7","targetUp_distractorsDown"
"","","","","","html-keyboard-response","168","347542","0.0-14.0-0.0-0.77","5e29cbd2a5ae4b012aa989f6","619531dcf66c91622fa1b861","619595558add4bfb3c87fb87","null","","null","","","","","main_T1_ITI","","","","",""
"","","","","","visual-search-circle","169","350764","0.0-14.0-0.0-1.77","5e29cbd2a5ae4b012aa989f6","619531dcf66c91622fa1b861","619595558add4bfb3c87fb87","2218.5","","s","true","[[87,512],[299,600],[512,512],[600,300],[512,87],[300,0],[87,87],[0,299]]","false","8","main_T2_Trial","s","img/Fire_Up_Target.gif","[""img/Fire_Down_Distractor.gif"",""img/Fire_Down_Distractor.gif"",""img/Fire_Down_Distractor.gif"",""img/Fire_Down_Distractor.gif"",""img/Fire_Down_Distractor.gif"",""img/Fire_Down_Distractor.gif"",""img/Fire_Down_Distractor.gif"",""img/Fire_Down_Distractor.gif"",""img/Fire_Down_Distractor.gif"",""img/Fire_Down_Distractor.gif"",""img/Fire_Down_Distractor.gif"",""img/Fire_Down_Distractor.gif""]","8","targetUp_distractorsDown"
"","","","","","html-keyboard-response","170","350767","0.0-14.0-0.0-0.78","5e29cbd2a5ae4b012aa989f6","619531dcf66c91622fa1b861","619595558add4bfb3c87fb87","null","","null","","","","","main_T1_ITI","","","","",""
"","","","","","visual-search-circle","171","353169","0.0-14.0-0.0-1.78","5e29cbd2a5ae4b012aa989f6","619531dcf66c91622fa1b861","619595558add4bfb3c87fb87","1384.9000000953674","","s","true","[[504,80],[80,95],[95,519],[519,504]]","false","4","main_T2_Trial","s","img/Fire_Up_Target.gif","[""img/Fire_Down_Distractor.gif"",""img/Fire_Down_Distractor.gif"",""img/Fire_Down_Distractor.gif"",""img/Fire_Down_Distractor.gif"",""img/Fire_Down_Distractor.gif"",""img/Fire_Down_Distractor.gif"",""img/Fire_Down_Distractor.gif"",""img/Fire_Down_Distractor.gif"",""img/Fire_Down_Distractor.gif"",""img/Fire_Down_Distractor.gif"",""img/Fire_Down_Distractor.gif"",""img/Fire_Down_Distractor.gif""]","4","targetUp_distractorsDown"
"","","","","","html-keyboard-response","172","374509","0.0-14.0-0.0-0.79","5e29cbd2a5ae4b012aa989f6","619531dcf66c91622fa1b861","619595558add4bfb3c87fb87","21339.900000095367","Wow! You've completed 80 out of 160 trials! </p> <p>  </p><p> Take a quick break, then press any key when you're ready to continue."," ","","","","","main_T1_ITI","","","","",""
"","","","","","visual-search-circle","173","378449","0.0-14.0-0.0-1.79","5e29cbd2a5ae4b012aa989f6","619531dcf66c91622fa1b861","619595558add4bfb3c87fb87","2933.7999997138977","","s","true","[[35,440],[352,595],[597,341],[431,30],[84,91]]","false","5","main_T2_Trial","s","img/Fire_Down_Target.gif","[""img/Fire_Up_Distractor.gif"",""img/Fire_Up_Distractor.gif"",""img/Fire_Up_Distractor.gif"",""img/Fire_Up_Distractor.gif"",""img/Fire_Up_Distractor.gif"",""img/Fire_Up_Distractor.gif"",""img/Fire_Up_Distractor.gif"",""img/Fire_Up_Distractor.gif"",""img/Fire_Up_Distractor.gif"",""img/Fire_Up_Distractor.gif"",""img/Fire_Up_Distractor.gif"",""img/Fire_Up_Distractor.gif""]","5","targetDown_distractorsUp"
"","","","","","html-keyboard-response","174","378450","0.0-14.0-0.0-0.80","5e29cbd2a5ae4b012aa989f6","619531dcf66c91622fa1b861","619595558add4bfb3c87fb87","null","","null","","","","","main_T1_ITI","","","","",""
"","","","","","visual-search-circle","175","381756","0.0-14.0-0.0-1.80","5e29cbd2a5ae4b012aa989f6","619531dcf66c91622fa1b861","619595558add4bfb3c87fb87","2298.4000000953674","","s","true","[[412,578],[597,341],[484,63],[187,21],[2,258],[115,536]]","false","6","main_T2_Trial","s","img/Fire_Down_Target.gif","[""img/Fire_Up_Distractor.gif"",""img/Fire_Up_Distractor.gif"",""img/Fire_Up_Distractor.gif"",""img/Fire_Up_Distractor.gif"",""img/Fire_Up_Distractor.gif"",""img/Fire_Up_Distractor.gif"",""img/Fire_Up_Distractor.gif"",""img/Fire_Up_Distractor.gif"",""img/Fire_Up_Distractor.gif"",""img/Fire_Up_Distractor.gif"",""img/Fire_Up_Distractor.gif"",""img/Fire_Up_Distractor.gif""]","6","targetDown_distractorsUp"
"","","","","","html-keyboard-response","176","381759","0.0-14.0-0.0-0.81","5e29cbd2a5ae4b012aa989f6","619531dcf66c91622fa1b861","619595558add4bfb3c87fb87","null","","null","","","","","main_T1_ITI","","","","",""
"","","","","","visual-search-circle","177","383813","0.0-14.0-0.0-1.81","5e29cbd2a5ae4b012aa989f6","619531dcf66c91622fa1b861","619595558add4bfb3c87fb87","1038.0999999046326","","d","true","[[484,536],[581,197],[289,0],[11,217],[132,548]]","true","5","main_T2_Trial","d","img/Fire_Down_Target.gif","[""img/Fire_Up_Distractor.gif"",""img/Fire_Up_Distractor.gif"",""img/Fire_Up_Distractor.gif"",""img/Fire_Up_Distractor.gif"",""img/Fire_Up_Distractor.gif"",""img/Fire_Up_Distractor.gif"",""img/Fire_Up_Distractor.gif"",""img/Fire_Up_Distractor.gif"",""img/Fire_Up_Distractor.gif"",""img/Fire_Up_Distractor.gif"",""img/Fire_Up_Distractor.gif"",""img/Fire_Up_Distractor.gif""]","5","targetDown_distractorsUp"
"","","","","","html-keyboard-response","178","383816","0.0-14.0-0.0-0.82","5e29cbd2a5ae4b012aa989f6","619531dcf66c91622fa1b861","619595558add4bfb3c87fb87","null","","null","","","","","main_T1_ITI","","","","",""
"","","","","","visual-search-circle","179","385960","0.0-14.0-0.0-1.82","5e29cbd2a5ae4b012aa989f6","619531dcf66c91622fa1b861","619595558add4bfb3c87fb87","1137.5999999046326","","d","true","[[597,341],[517,93],[274,1],[50,133],[14,391],[193,580],[452,558]]","true","7","main_T2_Trial","d","img/Fire_Down_Target.gif","[""img/Fire_Up_Distractor.gif"",""img/Fire_Up_Distractor.gif"",""img/Fire_Up_Distractor.gif"",""img/Fire_Up_Distractor.gif"",""img/Fire_Up_Distractor.gif"",""img/Fire_Up_Distractor.gif"",""img/Fire_Up_Distractor.gif"",""img/Fire_Up_Distractor.gif"",""img/Fire_Up_Distractor.gif"",""img/Fire_Up_Distractor.gif"",""img/Fire_Up_Distractor.gif"",""img/Fire_Up_Distractor.gif""]","7","targetDown_distractorsUp"
"","","","","","html-keyboard-response","180","385963","0.0-14.0-0.0-0.83","5e29cbd2a5ae4b012aa989f6","619531dcf66c91622fa1b861","619595558add4bfb3c87fb87","null","","null","","","","","main_T1_ITI","","","","",""
"","","","","","visual-search-circle","181","388761","0.0-14.0-0.0-1.83","5e29cbd2a5ae4b012aa989f6","619531dcf66c91622fa1b861","619595558add4bfb3c87fb87","1792.7999997138977","","s","true","[[163,567],[567,436],[436,32],[32,163]]","false","4","main_T2_Trial","s","img/Fire_Up_Target.gif","[""img/Fire_Down_Distractor.gif"",""img/Fire_Down_Distractor.gif"",""img/Fire_Down_Distractor.gif"",""img/Fire_Down_Distractor.gif"",""img/Fire_Down_Distractor.gif"",""img/Fire_Down_Distractor.gif"",""img/Fire_Down_Distractor.gif"",""img/Fire_Down_Distractor.gif"",""img/Fire_Down_Distractor.gif"",""img/Fire_Down_Distractor.gif"",""img/Fire_Down_Distractor.gif"",""img/Fire_Down_Distractor.gif""]","4","targetUp_distractorsDown"
"","","","","","html-keyboard-response","182","388764","0.0-14.0-0.0-0.84","5e29cbd2a5ae4b012aa989f6","619531dcf66c91622fa1b861","619595558add4bfb3c87fb87","null","","null","","","","","main_T1_ITI","","","","",""
"","","","","","visual-search-circle","183","390660","0.0-14.0-0.0-1.84","5e29cbd2a5ae4b012aa989f6","619531dcf66c91622fa1b861","619595558add4bfb3c87fb87","879.3000001907349","","d","true","[[123,542],[422,574],[598,331],[476,57],[177,25],[1,268]]","true","6","main_T2_Trial","d","img/Fire_Down_Target.gif","[""img/Fire_Up_Distractor.gif"",""img/Fire_Up_Distractor.gif"",""img/Fire_Up_Distractor.gif"",""img/Fire_Up_Distractor.gif"",""img/Fire_Up_Distractor.gif"",""img/Fire_Up_Distractor.gif"",""img/Fire_Up_Distractor.gif"",""img/Fire_Up_Distractor.gif"",""img/Fire_Up_Distractor.gif"",""img/Fire_Up_Distractor.gif"",""img/Fire_Up_Distractor.gif"",""img/Fire_Up_Distractor.gif""]","6","targetDown_distractorsUp"
"","","","","","html-keyboard-response","184","390666","0.0-14.0-0.0-0.85","5e29cbd2a5ae4b012aa989f6","619531dcf66c91622fa1b861","619595558add4bfb3c87fb87","null","","null","","","","","main_T1_ITI","","","","",""
"","","","","","visual-search-circle","185","393188","0.0-14.0-0.0-1.85","5e29cbd2a5ae4b012aa989f6","619531dcf66c91622fa1b861","619595558add4bfb3c87fb87","1503.5999999046326","","d","true","[[595,247],[402,18],[107,70],[4,352],[197,581],[492,529]]","true","6","main_T2_Trial","d","img/Fire_Up_Target.gif","[""img/Fire_Down_Distractor.gif"",""img/Fire_Down_Distractor.gif"",""img/Fire_Down_Distractor.gif"",""img/Fire_Down_Distractor.gif"",""img/Fire_Down_Distractor.gif"",""img/Fire_Down_Distractor.gif"",""img/Fire_Down_Distractor.gif"",""img/Fire_Down_Distractor.gif"",""img/Fire_Down_Distractor.gif"",""img/Fire_Down_Distractor.gif"",""img/Fire_Down_Distractor.gif"",""img/Fire_Down_Distractor.gif""]","6","targetUp_distractorsDown"
"","","","","","html-keyboard-response","186","393191","0.0-14.0-0.0-0.86","5e29cbd2a5ae4b012aa989f6","619531dcf66c91622fa1b861","619595558add4bfb3c87fb87","null","","null","","","","","main_T1_ITI","","","","",""
"","","","","","visual-search-circle","187","395972","0.0-14.0-0.0-1.86","5e29cbd2a5ae4b012aa989f6","619531dcf66c91622fa1b861","619595558add4bfb3c87fb87","1769.2000002861023","","d","true","[[480,539],[599,308],[493,70],[241,5],[33,162],[26,422],[225,590]]","true","7","main_T2_Trial","d","img/Fire_Up_Target.gif","[""img/Fire_Down_Distractor.gif"",""img/Fire_Down_Distractor.gif"",""img/Fire_Down_Distractor.gif"",""img/Fire_Down_Distractor.gif"",""img/Fire_Down_Distractor.gif"",""img/Fire_Down_Distractor.gif"",""img/Fire_Down_Distractor.gif"",""img/Fire_Down_Distractor.gif"",""img/Fire_Down_Distractor.gif"",""img/Fire_Down_Distractor.gif"",""img/Fire_Down_Distractor.gif"",""img/Fire_Down_Distractor.gif""]","7","targetUp_distractorsDown"
"","","","","","html-keyboard-response","188","395974","0.0-14.0-0.0-0.87","5e29cbd2a5ae4b012aa989f6","619531dcf66c91622fa1b861","619595558add4bfb3c87fb87","null","","null","","","","","main_T1_ITI","","","","",""
"","","","","","visual-search-circle","189","398148","0.0-14.0-0.0-1.87","5e29cbd2a5ae4b012aa989f6","619531dcf66c91622fa1b861","619595558add4bfb3c87fb87","1161.7000002861023","","d","true","[[192,19],[13,209],[50,467],[275,598],[518,505],[596,257],[451,41]]","true","7","main_T2_Trial","d","img/Fire_Down_Target.gif","[""img/Fire_Up_Distractor.gif"",""img/Fire_Up_Distractor.gif"",""img/Fire_Up_Distractor.gif"",""img/Fire_Up_Distractor.gif"",""img/Fire_Up_Distractor.gif"",""img/Fire_Up_Distractor.gif"",""img/Fire_Up_Distractor.gif"",""img/Fire_Up_Distractor.gif"",""img/Fire_Up_Distractor.gif"",""img/Fire_Up_Distractor.gif"",""img/Fire_Up_Distractor.gif"",""img/Fire_Up_Distractor.gif""]","7","targetDown_distractorsUp"
"","","","","","html-keyboard-response","190","398151","0.0-14.0-0.0-0.88","5e29cbd2a5ae4b012aa989f6","619531dcf66c91622fa1b861","619595558add4bfb3c87fb87","null","","null","","","","","main_T1_ITI","","","","",""
"","","","","","visual-search-circle","191","402556","0.0-14.0-0.0-1.88","5e29cbd2a5ae4b012aa989f6","619531dcf66c91622fa1b861","619595558add4bfb3c87fb87","3389.300000190735","","d","true","[[599,310],[495,72],[243,5],[34,160],[25,420],[223,589],[478,540]]","true","7","main_T2_Trial","d","img/Fire_Up_Target.gif","[""img/Fire_Down_Distractor.gif"",""img/Fire_Down_Distractor.gif"",""img/Fire_Down_Distractor.gif"",""img/Fire_Down_Distractor.gif"",""img/Fire_Down_Distractor.gif"",""img/Fire_Down_Distractor.gif"",""img/Fire_Down_Distractor.gif"",""img/Fire_Down_Distractor.gif"",""img/Fire_Down_Distractor.gif"",""img/Fire_Down_Distractor.gif"",""img/Fire_Down_Distractor.gif"",""img/Fire_Down_Distractor.gif""]","7","targetUp_distractorsDown"
"","","","","","html-keyboard-response","192","402558","0.0-14.0-0.0-0.89","5e29cbd2a5ae4b012aa989f6","619531dcf66c91622fa1b861","619595558add4bfb3c87fb87","null","","null","","","","","main_T1_ITI","","","","",""
"","","","","","visual-search-circle","193","404840","0.0-14.0-0.0-1.89","5e29cbd2a5ae4b012aa989f6","619531dcf66c91622fa1b861","619595558add4bfb3c87fb87","1271.8000001907349","","s","true","[[599,284],[474,55],[218,11],[23,184],[36,444],[248,595],[499,524]]","false","7","main_T2_Trial","s","img/Fire_Up_Target.gif","[""img/Fire_Down_Distractor.gif"",""img/Fire_Down_Distractor.gif"",""img/Fire_Down_Distractor.gif"",""img/Fire_Down_Distractor.gif"",""img/Fire_Down_Distractor.gif"",""img/Fire_Down_Distractor.gif"",""img/Fire_Down_Distractor.gif"",""img/Fire_Down_Distractor.gif"",""img/Fire_Down_Distractor.gif"",""img/Fire_Down_Distractor.gif"",""img/Fire_Down_Distractor.gif"",""img/Fire_Down_Distractor.gif""]","7","targetUp_distractorsDown"
"","","","","","html-keyboard-response","194","404842","0.0-14.0-0.0-0.90","5e29cbd2a5ae4b012aa989f6","619531dcf66c91622fa1b861","619595558add4bfb3c87fb87","null","","null","","","","","main_T1_ITI","","","","",""
"","","","","","visual-search-circle","195","406892","0.0-14.0-0.0-1.90","5e29cbd2a5ae4b012aa989f6","619531dcf66c91622fa1b861","619595558add4bfb3c87fb87","1042.0999999046326","","d","true","[[237,593],[559,450],[522,99],[177,25],[1,331]]","true","5","main_T2_Trial","d","img/Fire_Up_Target.gif","[""img/Fire_Down_Distractor.gif"",""img/Fire_Down_Distractor.gif"",""img/Fire_Down_Distractor.gif"",""img/Fire_Down_Distractor.gif"",""img/Fire_Down_Distractor.gif"",""img/Fire_Down_Distractor.gif"",""img/Fire_Down_Distractor.gif"",""img/Fire_Down_Distractor.gif"",""img/Fire_Down_Distractor.gif"",""img/Fire_Down_Distractor.gif"",""img/Fire_Down_Distractor.gif"",""img/Fire_Down_Distractor.gif""]","5","targetUp_distractorsDown"
"","","","","","html-keyboard-response","196","406894","0.0-14.0-0.0-0.91","5e29cbd2a5ae4b012aa989f6","619531dcf66c91622fa1b861","619595558add4bfb3c87fb87","null","","null","","","","","main_T1_ITI","","","","",""
"","","","","","visual-search-circle","197","408984","0.0-14.0-0.0-1.91","5e29cbd2a5ae4b012aa989f6","619531dcf66c91622fa1b861","619595558add4bfb3c87fb87","1086.6000003814697","","s","true","[[21,187],[38,447],[252,596],[501,521],[599,280],[471,53],[214,12]]","false","7","main_T2_Trial","s","img/Fire_Up_Target.gif","[""img/Fire_Down_Distractor.gif"",""img/Fire_Down_Distractor.gif"",""img/Fire_Down_Distractor.gif"",""img/Fire_Down_Distractor.gif"",""img/Fire_Down_Distractor.gif"",""img/Fire_Down_Distractor.gif"",""img/Fire_Down_Distractor.gif"",""img/Fire_Down_Distractor.gif"",""img/Fire_Down_Distractor.gif"",""img/Fire_Down_Distractor.gif"",""img/Fire_Down_Distractor.gif"",""img/Fire_Down_Distractor.gif""]","7","targetUp_distractorsDown"
"","","","","","html-keyboard-response","198","408986","0.0-14.0-0.0-0.92","5e29cbd2a5ae4b012aa989f6","619531dcf66c91622fa1b861","619595558add4bfb3c87fb87","null","","null","","","","","main_T1_ITI","","","","",""
"","","","","","visual-search-circle","199","410820","0.0-14.0-0.0-1.92","5e29cbd2a5ae4b012aa989f6","619531dcf66c91622fa1b861","619595558add4bfb3c87fb87","828.3999996185303","","d","true","[[0,289],[289,599],[599,310],[310,0]]","true","4","main_T2_Trial","d","img/Fire_Down_Target.gif","[""img/Fire_Up_Distractor.gif"",""img/Fire_Up_Distractor.gif"",""img/Fire_Up_Distractor.gif"",""img/Fire_Up_Distractor.gif"",""img/Fire_Up_Distractor.gif"",""img/Fire_Up_Distractor.gif"",""img/Fire_Up_Distractor.gif"",""img/Fire_Up_Distractor.gif"",""img/Fire_Up_Distractor.gif"",""img/Fire_Up_Distractor.gif"",""img/Fire_Up_Distractor.gif"",""img/Fire_Up_Distractor.gif""]","4","targetDown_distractorsUp"
"","","","","","html-keyboard-response","200","410822","0.0-14.0-0.0-0.93","5e29cbd2a5ae4b012aa989f6","619531dcf66c91622fa1b861","619595558add4bfb3c87fb87","null","","null","","","","","main_T1_ITI","","","","",""
"","","","","","visual-search-circle","201","413121","0.0-14.0-0.0-1.93","5e29cbd2a5ae4b012aa989f6","619531dcf66c91622fa1b861","619595558add4bfb3c87fb87","1287.5999999046326","","s","true","[[445,562],[594,242],[336,2],[28,173],[95,519]]","false","5","main_T2_Trial","s","img/Fire_Down_Target.gif","[""img/Fire_Up_Distractor.gif"",""img/Fire_Up_Distractor.gif"",""img/Fire_Up_Distractor.gif"",""img/Fire_Up_Distractor.gif"",""img/Fire_Up_Distractor.gif"",""img/Fire_Up_Distractor.gif"",""img/Fire_Up_Distractor.gif"",""img/Fire_Up_Distractor.gif"",""img/Fire_Up_Distractor.gif"",""img/Fire_Up_Distractor.gif"",""img/Fire_Up_Distractor.gif"",""img/Fire_Up_Distractor.gif""]","5","targetDown_distractorsUp"
"","","","","","html-keyboard-response","202","413123","0.0-14.0-0.0-0.94","5e29cbd2a5ae4b012aa989f6","619531dcf66c91622fa1b861","619595558add4bfb3c87fb87","null","","null","","","","","main_T1_ITI","","","","",""
"","","","","","visual-search-circle","203","415072","0.0-14.0-0.0-1.94","5e29cbd2a5ae4b012aa989f6","619531dcf66c91622fa1b861","619595558add4bfb3c87fb87","940.3000001907349","","s","true","[[387,13],[95,80],[7,367],[212,586],[504,519],[592,232]]","false","6","main_T2_Trial","s","img/Fire_Up_Target.gif","[""img/Fire_Down_Distractor.gif"",""img/Fire_Down_Distractor.gif"",""img/Fire_Down_Distractor.gif"",""img/Fire_Down_Distractor.gif"",""img/Fire_Down_Distractor.gif"",""img/Fire_Down_Distractor.gif"",""img/Fire_Down_Distractor.gif"",""img/Fire_Down_Distractor.gif"",""img/Fire_Down_Distractor.gif"",""img/Fire_Down_Distractor.gif"",""img/Fire_Down_Distractor.gif"",""img/Fire_Down_Distractor.gif""]","6","targetUp_distractorsDown"
"","","","","","html-keyboard-response","204","415075","0.0-14.0-0.0-0.95","5e29cbd2a5ae4b012aa989f6","619531dcf66c91622fa1b861","619595558add4bfb3c87fb87","null","","null","","","","","main_T1_ITI","","","","",""
"","","","","","visual-search-circle","205","416936","0.0-14.0-0.0-1.95","5e29cbd2a5ae4b012aa989f6","619531dcf66c91622fa1b861","619595558add4bfb3c87fb87","845.5","","d","true","[[95,80],[0,323],[131,548],[389,586],[579,408],[559,149],[343,3]]","true","7","main_T2_Trial","d","img/Fire_Down_Target.gif","[""img/Fire_Up_Distractor.gif"",""img/Fire_Up_Distractor.gif"",""img/Fire_Up_Distractor.gif"",""img/Fire_Up_Distractor.gif"",""img/Fire_Up_Distractor.gif"",""img/Fire_Up_Distractor.gif"",""img/Fire_Up_Distractor.gif"",""img/Fire_Up_Distractor.gif"",""img/Fire_Up_Distractor.gif"",""img/Fire_Up_Distractor.gif"",""img/Fire_Up_Distractor.gif"",""img/Fire_Up_Distractor.gif""]","7","targetDown_distractorsUp"
"","","","","","html-keyboard-response","206","416939","0.0-14.0-0.0-0.96","5e29cbd2a5ae4b012aa989f6","619531dcf66c91622fa1b861","619595558add4bfb3c87fb87","null","","null","","","","","main_T1_ITI","","","","",""
"","","","","","visual-search-circle","207","419940","0.0-14.0-0.0-1.96","5e29cbd2a5ae4b012aa989f6","619531dcf66c91622fa1b861","619595558add4bfb3c87fb87","1987","","d","true","[[599,279],[496,73],[279,0],[73,103],[0,320],[103,526],[320,599],[526,496]]","true","8","main_T2_Trial","d","img/Fire_Up_Target.gif","[""img/Fire_Down_Distractor.gif"",""img/Fire_Down_Distractor.gif"",""img/Fire_Down_Distractor.gif"",""img/Fire_Down_Distractor.gif"",""img/Fire_Down_Distractor.gif"",""img/Fire_Down_Distractor.gif"",""img/Fire_Down_Distractor.gif"",""img/Fire_Down_Distractor.gif"",""img/Fire_Down_Distractor.gif"",""img/Fire_Down_Distractor.gif"",""img/Fire_Down_Distractor.gif"",""img/Fire_Down_Distractor.gif""]","8","targetUp_distractorsDown"
"","","","","","html-keyboard-response","208","419944","0.0-14.0-0.0-0.97","5e29cbd2a5ae4b012aa989f6","619531dcf66c91622fa1b861","619595558add4bfb3c87fb87","null","","null","","","","","main_T1_ITI","","","","",""
"","","","","","visual-search-circle","209","422416","0.0-14.0-0.0-1.97","5e29cbd2a5ae4b012aa989f6","619531dcf66c91622fa1b861","619595558add4bfb3c87fb87","1466","","d","true","[[536,115],[336,2],[115,63],[2,263],[63,484],[263,597],[484,536],[597,336]]","true","8","main_T2_Trial","d","img/Fire_Down_Target.gif","[""img/Fire_Up_Distractor.gif"",""img/Fire_Up_Distractor.gif"",""img/Fire_Up_Distractor.gif"",""img/Fire_Up_Distractor.gif"",""img/Fire_Up_Distractor.gif"",""img/Fire_Up_Distractor.gif"",""img/Fire_Up_Distractor.gif"",""img/Fire_Up_Distractor.gif"",""img/Fire_Up_Distractor.gif"",""img/Fire_Up_Distractor.gif"",""img/Fire_Up_Distractor.gif"",""img/Fire_Up_Distractor.gif""]","8","targetDown_distractorsUp"
"","","","","","html-keyboard-response","210","422417","0.0-14.0-0.0-0.98","5e29cbd2a5ae4b012aa989f6","619531dcf66c91622fa1b861","619595558add4bfb3c87fb87","null","","null","","","","","main_T1_ITI","","","","",""
"","","","","","visual-search-circle","211","424432","0.0-14.0-0.0-1.98","5e29cbd2a5ae4b012aa989f6","619531dcf66c91622fa1b861","619595558add4bfb3c87fb87","1004.5999999046326","","s","true","[[476,57],[253,3],[57,123],[3,346],[123,542],[346,596],[542,476],[596,253]]","false","8","main_T2_Trial","s","img/Fire_Down_Target.gif","[""img/Fire_Up_Distractor.gif"",""img/Fire_Up_Distractor.gif"",""img/Fire_Up_Distractor.gif"",""img/Fire_Up_Distractor.gif"",""img/Fire_Up_Distractor.gif"",""img/Fire_Up_Distractor.gif"",""img/Fire_Up_Distractor.gif"",""img/Fire_Up_Distractor.gif"",""img/Fire_Up_Distractor.gif"",""img/Fire_Up_Distractor.gif"",""img/Fire_Up_Distractor.gif"",""img/Fire_Up_Distractor.gif""]","8","targetDown_distractorsUp"
"","","","","","html-keyboard-response","212","425896","0.0-14.0-0.0-0.99","5e29cbd2a5ae4b012aa989f6","619531dcf66c91622fa1b861","619595558add4bfb3c87fb87","1464.0999999046326","Wow! You've completed 100 out of 160 trials! </p> <p>  </p><p> Take a quick break, then press any key when you're ready to continue."," ","","","","","main_T1_ITI","","","","",""
"","","","","","visual-search-circle","213","427988","0.0-14.0-0.0-1.99","5e29cbd2a5ae4b012aa989f6","619531dcf66c91622fa1b861","619595558add4bfb3c87fb87","1079.6000003814697","","s","true","[[0,320],[168,569],[467,548],[599,279],[431,30],[132,51]]","false","6","main_T2_Trial","s","img/Fire_Down_Target.gif","[""img/Fire_Up_Distractor.gif"",""img/Fire_Up_Distractor.gif"",""img/Fire_Up_Distractor.gif"",""img/Fire_Up_Distractor.gif"",""img/Fire_Up_Distractor.gif"",""img/Fire_Up_Distractor.gif"",""img/Fire_Up_Distractor.gif"",""img/Fire_Up_Distractor.gif"",""img/Fire_Up_Distractor.gif"",""img/Fire_Up_Distractor.gif"",""img/Fire_Up_Distractor.gif"",""img/Fire_Up_Distractor.gif""]","6","targetDown_distractorsUp"
"","","","","","html-keyboard-response","214","427990","0.0-14.0-0.0-0.100","5e29cbd2a5ae4b012aa989f6","619531dcf66c91622fa1b861","619595558add4bfb3c87fb87","null","","null","","","","","main_T1_ITI","","","","",""
"","","","","","visual-search-circle","215","429796","0.0-14.0-0.0-1.100","5e29cbd2a5ae4b012aa989f6","619531dcf66c91622fa1b861","619595558add4bfb3c87fb87","794","","d","true","[[496,73],[202,16],[5,242],[103,526],[397,583],[594,357]]","true","6","main_T2_Trial","d","img/Fire_Up_Target.gif","[""img/Fire_Down_Distractor.gif"",""img/Fire_Down_Distractor.gif"",""img/Fire_Down_Distractor.gif"",""img/Fire_Down_Distractor.gif"",""img/Fire_Down_Distractor.gif"",""img/Fire_Down_Distractor.gif"",""img/Fire_Down_Distractor.gif"",""img/Fire_Down_Distractor.gif"",""img/Fire_Down_Distractor.gif"",""img/Fire_Down_Distractor.gif"",""img/Fire_Down_Distractor.gif"",""img/Fire_Down_Distractor.gif""]","6","targetUp_distractorsDown"
"","","","","","html-keyboard-response","216","429799","0.0-14.0-0.0-0.101","5e29cbd2a5ae4b012aa989f6","619531dcf66c91622fa1b861","619595558add4bfb3c87fb87","null","","null","","","","","main_T1_ITI","","","","",""
