"success","timeout","failed_images","failed_audio","failed_video","trial_type","trial_index","time_elapsed","internal_node_id","subject_id","study_id","session_id","rt","stimulus","response","correct","locations","target_present","set_size","task","correct_response","target","foilCM","setSizeCM","searchCondition"
"true","false","[]","[]","[]","preload","0","65920","0.0-0.0","5e3d425fd8f8ff11d5002a94","619531dcf66c91622fa1b861","61959611df6303eaf8a23da8","","","","","","","","","","","","",""
"true","","","","","fullscreen","1","392724","0.0-1.0","5e3d425fd8f8ff11d5002a94","619531dcf66c91622fa1b861","61959611df6303eaf8a23da8","","","","","","","","","","","","",""
"","","","","","html-keyboard-response","2","398349","0.0-2.0","5e3d425fd8f8ff11d5002a94","619531dcf66c91622fa1b861","61959611df6303eaf8a23da8","5613.800000011921","What a beautiful Thursday to do some awesome science! </p> <p>  </p><p> </p>
    By completing this survey or questionnaire, you are consenting to be in this research study. </p>
    Your participation is voluntary and you can stop at any time.
    <p> [Press any key to continue.] </p>
    
    "," ","","","","","","","","","",""
"","","","","","video-keyboard-response","3","428128","0.0-3.0","5e3d425fd8f8ff11d5002a94","619531dcf66c91622fa1b861","61959611df6303eaf8a23da8","29748.19999998808","[""video/TaskInstructions.mp4""]"," ","","","","","","","","","",""
"","","","","","html-keyboard-response","4","437514","0.0-4.0","5e3d425fd8f8ff11d5002a94","619531dcf66c91622fa1b861","61959611df6303eaf8a23da8","9382","
    <p>First, we're going to do a few practice trials to make sure you understand the task. You will recieve feedback on each trial. </p>
    <p>[Press any key to begin the familiarization phase.]</p>
    ","δ","","","","","","","","","",""
"","","","","","visual-search-circle","5","443284","0.0-5.0-0.0","5e3d425fd8f8ff11d5002a94","619531dcf66c91622fa1b861","61959611df6303eaf8a23da8","4692","","s","false","[[412,578],[578,187],[187,21],[21,412]]","true","4","training","d","","","",""
"","","","","","html-keyboard-response","6","451353","0.0-6.0","5e3d425fd8f8ff11d5002a94","619531dcf66c91622fa1b861","61959611df6303eaf8a23da8","8065"," <div style='float: center;'><img src='img/feedbackWrong.png'></img> </div> "," ","","","","","","","","","",""
"","","","","","visual-search-circle","7","454237","0.0-7.0-0.0","5e3d425fd8f8ff11d5002a94","619531dcf66c91622fa1b861","61959611df6303eaf8a23da8","1878.300000011921","","s","true","[[77,99],[99,522],[522,500],[500,77]]","false","4","training","s","","","",""
"","","","","","html-keyboard-response","8","460203","0.0-8.0","5e3d425fd8f8ff11d5002a94","619531dcf66c91622fa1b861","61959611df6303eaf8a23da8","5963.699999988079"," <div style='float: center; '><img src='img/feedbackRight.png'></img> </div> "," ","","","","","","","","","",""
"","","","","","visual-search-circle","9","462827","0.0-9.0-0.0","5e3d425fd8f8ff11d5002a94","619531dcf66c91622fa1b861","61959611df6303eaf8a23da8","1617.5999999642372","","s","true","[[458,554],[599,289],[440,35],[141,45],[0,310],[159,564]]","false","6","training","s","","","",""
"","","","","","html-keyboard-response","10","464546","0.0-10.0","5e3d425fd8f8ff11d5002a94","619531dcf66c91622fa1b861","61959611df6303eaf8a23da8","1717.6000000238419"," <div style='float: center; '><img src='img/feedbackRight.png'></img> </div> "," ","","","","","","","","","",""
"","","","","","visual-search-circle","11","466936","0.0-11.0-0.0","5e3d425fd8f8ff11d5002a94","619531dcf66c91622fa1b861","61959611df6303eaf8a23da8","1382.300000011921","","d","true","[[32,163],[14,392],[163,567],[392,585],[567,436],[585,207],[436,32],[207,14]]","true","8","training","d","","","",""
"","","","","","html-keyboard-response","12","467829","0.0-12.0","5e3d425fd8f8ff11d5002a94","619531dcf66c91622fa1b861","61959611df6303eaf8a23da8","891.3999999761581"," <div style='float: center; '><img src='img/feedbackRight.png'></img> </div> "," ","","","","","","","","","",""
"","","","","","video-keyboard-response","13","479401","0.0-13.0","5e3d425fd8f8ff11d5002a94","619531dcf66c91622fa1b861","61959611df6303eaf8a23da8","11539.800000011921","[""video/endTraining.mp4""]"," ","","","","","","","","","",""
"","","","","","html-keyboard-response","14","479404","0.0-14.0-0.0-0.0","5e3d425fd8f8ff11d5002a94","619531dcf66c91622fa1b861","61959611df6303eaf8a23da8","null","","null","","","","","main_T1_ITI","","","","",""
"","","","","","visual-search-circle","15","482097","0.0-14.0-0.0-1.0","5e3d425fd8f8ff11d5002a94","619531dcf66c91622fa1b861","61959611df6303eaf8a23da8","1682.699999988079","","s","true","[[574,422],[566,161],[357,5],[106,71],[0,308],[120,540],[375,590]]","false","7","main_T2_Trial","s","img/Fire_Up_Target.gif","[""img/Fire_Down_Distractor.gif"",""img/Fire_Down_Distractor.gif"",""img/Fire_Down_Distractor.gif"",""img/Fire_Down_Distractor.gif"",""img/Fire_Down_Distractor.gif"",""img/Fire_Down_Distractor.gif"",""img/Fire_Down_Distractor.gif"",""img/Fire_Down_Distractor.gif"",""img/Fire_Down_Distractor.gif"",""img/Fire_Down_Distractor.gif"",""img/Fire_Down_Distractor.gif"",""img/Fire_Down_Distractor.gif""]","7","targetUp_distractorsDown"
"","","","","","html-keyboard-response","16","482100","0.0-14.0-0.0-0.1","5e3d425fd8f8ff11d5002a94","619531dcf66c91622fa1b861","61959611df6303eaf8a23da8","null","","null","","","","","main_T1_ITI","","","","",""
"","","","","","visual-search-circle","17","484793","0.0-14.0-0.0-1.1","5e3d425fd8f8ff11d5002a94","619531dcf66c91622fa1b861","61959611df6303eaf8a23da8","1687.6000000238419","","d","true","[[580,192],[284,0],[10,222],[136,551],[488,533]]","true","5","main_T2_Trial","d","img/Fire_Up_Target.gif","[""img/Fire_Down_Distractor.gif"",""img/Fire_Down_Distractor.gif"",""img/Fire_Down_Distractor.gif"",""img/Fire_Down_Distractor.gif"",""img/Fire_Down_Distractor.gif"",""img/Fire_Down_Distractor.gif"",""img/Fire_Down_Distractor.gif"",""img/Fire_Down_Distractor.gif"",""img/Fire_Down_Distractor.gif"",""img/Fire_Down_Distractor.gif"",""img/Fire_Down_Distractor.gif"",""img/Fire_Down_Distractor.gif""]","5","targetUp_distractorsDown"
"","","","","","html-keyboard-response","18","484795","0.0-14.0-0.0-0.2","5e3d425fd8f8ff11d5002a94","619531dcf66c91622fa1b861","61959611df6303eaf8a23da8","null","","null","","","","","main_T1_ITI","","","","",""
"","","","","","visual-search-circle","19","488174","0.0-14.0-0.0-1.2","5e3d425fd8f8ff11d5002a94","619531dcf66c91622fa1b861","61959611df6303eaf8a23da8","2375.699999988079","","s","false","[[202,583],[583,397],[397,16],[16,202]]","true","4","main_T2_Trial","d","img/Fire_Up_Target.gif","[""img/Fire_Down_Distractor.gif"",""img/Fire_Down_Distractor.gif"",""img/Fire_Down_Distractor.gif"",""img/Fire_Down_Distractor.gif"",""img/Fire_Down_Distractor.gif"",""img/Fire_Down_Distractor.gif"",""img/Fire_Down_Distractor.gif"",""img/Fire_Down_Distractor.gif"",""img/Fire_Down_Distractor.gif"",""img/Fire_Down_Distractor.gif"",""img/Fire_Down_Distractor.gif"",""img/Fire_Down_Distractor.gif""]","4","targetUp_distractorsDown"
"","","","","","html-keyboard-response","20","488191","0.0-14.0-0.0-0.3","5e3d425fd8f8ff11d5002a94","619531dcf66c91622fa1b861","61959611df6303eaf8a23da8","null","","null","","","","","main_T1_ITI","","","","",""
"","","","","","visual-search-circle","21","490819","0.0-14.0-0.0-1.3","5e3d425fd8f8ff11d5002a94","619531dcf66c91622fa1b861","61959611df6303eaf8a23da8","1623.9000000357628","","d","true","[[111,66],[19,407],[315,599],[589,377],[463,48]]","true","5","main_T2_Trial","d","img/Fire_Down_Target.gif","[""img/Fire_Up_Distractor.gif"",""img/Fire_Up_Distractor.gif"",""img/Fire_Up_Distractor.gif"",""img/Fire_Up_Distractor.gif"",""img/Fire_Up_Distractor.gif"",""img/Fire_Up_Distractor.gif"",""img/Fire_Up_Distractor.gif"",""img/Fire_Up_Distractor.gif"",""img/Fire_Up_Distractor.gif"",""img/Fire_Up_Distractor.gif"",""img/Fire_Up_Distractor.gif"",""img/Fire_Up_Distractor.gif""]","5","targetDown_distractorsUp"
"","","","","","html-keyboard-response","22","490821","0.0-14.0-0.0-0.4","5e3d425fd8f8ff11d5002a94","619531dcf66c91622fa1b861","61959611df6303eaf8a23da8","null","","null","","","","","main_T1_ITI","","","","",""
"","","","","","visual-search-circle","23","494669","0.0-14.0-0.0-1.4","5e3d425fd8f8ff11d5002a94","619531dcf66c91622fa1b861","61959611df6303eaf8a23da8","2843","","s","true","[[445,562],[599,305],[454,42],[154,37],[0,294],[145,557]]","false","6","main_T2_Trial","s","img/Fire_Up_Target.gif","[""img/Fire_Down_Distractor.gif"",""img/Fire_Down_Distractor.gif"",""img/Fire_Down_Distractor.gif"",""img/Fire_Down_Distractor.gif"",""img/Fire_Down_Distractor.gif"",""img/Fire_Down_Distractor.gif"",""img/Fire_Down_Distractor.gif"",""img/Fire_Down_Distractor.gif"",""img/Fire_Down_Distractor.gif"",""img/Fire_Down_Distractor.gif"",""img/Fire_Down_Distractor.gif"",""img/Fire_Down_Distractor.gif""]","6","targetUp_distractorsDown"
"","","","","","html-keyboard-response","24","494672","0.0-14.0-0.0-0.5","5e3d425fd8f8ff11d5002a94","619531dcf66c91622fa1b861","61959611df6303eaf8a23da8","null","","null","","","","","main_T1_ITI","","","","",""
"","","","","","visual-search-circle","25","497702","0.0-14.0-0.0-1.5","5e3d425fd8f8ff11d5002a94","619531dcf66c91622fa1b861","61959611df6303eaf8a23da8","2023.0999999642372","","s","true","[[173,571],[571,426],[426,28],[28,173]]","false","4","main_T2_Trial","s","img/Fire_Up_Target.gif","[""img/Fire_Down_Distractor.gif"",""img/Fire_Down_Distractor.gif"",""img/Fire_Down_Distractor.gif"",""img/Fire_Down_Distractor.gif"",""img/Fire_Down_Distractor.gif"",""img/Fire_Down_Distractor.gif"",""img/Fire_Down_Distractor.gif"",""img/Fire_Down_Distractor.gif"",""img/Fire_Down_Distractor.gif"",""img/Fire_Down_Distractor.gif"",""img/Fire_Down_Distractor.gif"",""img/Fire_Down_Distractor.gif""]","4","targetUp_distractorsDown"
"","","","","","html-keyboard-response","26","497704","0.0-14.0-0.0-0.6","5e3d425fd8f8ff11d5002a94","619531dcf66c91622fa1b861","61959611df6303eaf8a23da8","null","","null","","","","","main_T1_ITI","","","","",""
"","","","","","visual-search-circle","27","500629","0.0-14.0-0.0-1.6","5e3d425fd8f8ff11d5002a94","619531dcf66c91622fa1b861","61959611df6303eaf8a23da8","1919.6000000238419","","s","true","[[70,107],[5,359],[163,566],[423,573],[590,374],[539,118],[307,0]]","false","7","main_T2_Trial","s","img/Fire_Up_Target.gif","[""img/Fire_Down_Distractor.gif"",""img/Fire_Down_Distractor.gif"",""img/Fire_Down_Distractor.gif"",""img/Fire_Down_Distractor.gif"",""img/Fire_Down_Distractor.gif"",""img/Fire_Down_Distractor.gif"",""img/Fire_Down_Distractor.gif"",""img/Fire_Down_Distractor.gif"",""img/Fire_Down_Distractor.gif"",""img/Fire_Down_Distractor.gif"",""img/Fire_Down_Distractor.gif"",""img/Fire_Down_Distractor.gif""]","7","targetUp_distractorsDown"
"","","","","","html-keyboard-response","28","500632","0.0-14.0-0.0-0.7","5e3d425fd8f8ff11d5002a94","619531dcf66c91622fa1b861","61959611df6303eaf8a23da8","null","","null","","","","","main_T1_ITI","","","","",""
"","","","","","visual-search-circle","29","503336","0.0-14.0-0.0-1.7","5e3d425fd8f8ff11d5002a94","619531dcf66c91622fa1b861","61959611df6303eaf8a23da8","1700.199999988079","","s","true","[[253,596],[596,346],[346,3],[3,253]]","false","4","main_T2_Trial","s","img/Fire_Up_Target.gif","[""img/Fire_Down_Distractor.gif"",""img/Fire_Down_Distractor.gif"",""img/Fire_Down_Distractor.gif"",""img/Fire_Down_Distractor.gif"",""img/Fire_Down_Distractor.gif"",""img/Fire_Down_Distractor.gif"",""img/Fire_Down_Distractor.gif"",""img/Fire_Down_Distractor.gif"",""img/Fire_Down_Distractor.gif"",""img/Fire_Down_Distractor.gif"",""img/Fire_Down_Distractor.gif"",""img/Fire_Down_Distractor.gif""]","4","targetUp_distractorsDown"
"","","","","","html-keyboard-response","30","503338","0.0-14.0-0.0-0.8","5e3d425fd8f8ff11d5002a94","619531dcf66c91622fa1b861","61959611df6303eaf8a23da8","null","","null","","","","","main_T1_ITI","","","","",""
"","","","","","visual-search-circle","31","508429","0.0-14.0-0.0-1.8","5e3d425fd8f8ff11d5002a94","619531dcf66c91622fa1b861","61959611df6303eaf8a23da8","4086.300000011921","","d","false","[[526,496],[496,73],[73,103],[103,526]]","false","4","main_T2_Trial","s","img/Fire_Down_Target.gif","[""img/Fire_Up_Distractor.gif"",""img/Fire_Up_Distractor.gif"",""img/Fire_Up_Distractor.gif"",""img/Fire_Up_Distractor.gif"",""img/Fire_Up_Distractor.gif"",""img/Fire_Up_Distractor.gif"",""img/Fire_Up_Distractor.gif"",""img/Fire_Up_Distractor.gif"",""img/Fire_Up_Distractor.gif"",""img/Fire_Up_Distractor.gif"",""img/Fire_Up_Distractor.gif"",""img/Fire_Up_Distractor.gif""]","4","targetDown_distractorsUp"
"","","","","","html-keyboard-response","32","508433","0.0-14.0-0.0-0.9","5e3d425fd8f8ff11d5002a94","619531dcf66c91622fa1b861","61959611df6303eaf8a23da8","null","","null","","","","","main_T1_ITI","","","","",""
"","","","","","visual-search-circle","33","516443","0.0-14.0-0.0-1.9","5e3d425fd8f8ff11d5002a94","619531dcf66c91622fa1b861","61959611df6303eaf8a23da8","7005.699999988079","","s","true","[[182,23],[2,263],[119,539],[417,576],[597,336],[480,60]]","false","6","main_T2_Trial","s","img/Fire_Down_Target.gif","[""img/Fire_Up_Distractor.gif"",""img/Fire_Up_Distractor.gif"",""img/Fire_Up_Distractor.gif"",""img/Fire_Up_Distractor.gif"",""img/Fire_Up_Distractor.gif"",""img/Fire_Up_Distractor.gif"",""img/Fire_Up_Distractor.gif"",""img/Fire_Up_Distractor.gif"",""img/Fire_Up_Distractor.gif"",""img/Fire_Up_Distractor.gif"",""img/Fire_Up_Distractor.gif"",""img/Fire_Up_Distractor.gif""]","6","targetDown_distractorsUp"
"","","","","","html-keyboard-response","34","516445","0.0-14.0-0.0-0.10","5e3d425fd8f8ff11d5002a94","619531dcf66c91622fa1b861","61959611df6303eaf8a23da8","null","","null","","","","","main_T1_ITI","","","","",""
"","","","","","visual-search-circle","35","519162","0.0-14.0-0.0-1.10","5e3d425fd8f8ff11d5002a94","619531dcf66c91622fa1b861","61959611df6303eaf8a23da8","1712.2999999523163","","d","true","[[488,533],[596,253],[407,19],[111,66],[3,346],[192,580]]","true","6","main_T2_Trial","d","img/Fire_Down_Target.gif","[""img/Fire_Up_Distractor.gif"",""img/Fire_Up_Distractor.gif"",""img/Fire_Up_Distractor.gif"",""img/Fire_Up_Distractor.gif"",""img/Fire_Up_Distractor.gif"",""img/Fire_Up_Distractor.gif"",""img/Fire_Up_Distractor.gif"",""img/Fire_Up_Distractor.gif"",""img/Fire_Up_Distractor.gif"",""img/Fire_Up_Distractor.gif"",""img/Fire_Up_Distractor.gif"",""img/Fire_Up_Distractor.gif""]","6","targetDown_distractorsUp"
"","","","","","html-keyboard-response","36","519165","0.0-14.0-0.0-0.11","5e3d425fd8f8ff11d5002a94","619531dcf66c91622fa1b861","61959611df6303eaf8a23da8","null","","null","","","","","main_T1_ITI","","","","",""
"","","","","","visual-search-circle","37","524841","0.0-14.0-0.0-1.11","5e3d425fd8f8ff11d5002a94","619531dcf66c91622fa1b861","61959611df6303eaf8a23da8","4669.699999988079","","s","true","[[599,315],[499,75],[248,4],[36,155],[23,415],[218,588],[474,544]]","false","7","main_T2_Trial","s","img/Fire_Down_Target.gif","[""img/Fire_Up_Distractor.gif"",""img/Fire_Up_Distractor.gif"",""img/Fire_Up_Distractor.gif"",""img/Fire_Up_Distractor.gif"",""img/Fire_Up_Distractor.gif"",""img/Fire_Up_Distractor.gif"",""img/Fire_Up_Distractor.gif"",""img/Fire_Up_Distractor.gif"",""img/Fire_Up_Distractor.gif"",""img/Fire_Up_Distractor.gif"",""img/Fire_Up_Distractor.gif"",""img/Fire_Up_Distractor.gif""]","7","targetDown_distractorsUp"
"","","","","","html-keyboard-response","38","524856","0.0-14.0-0.0-0.12","5e3d425fd8f8ff11d5002a94","619531dcf66c91622fa1b861","61959611df6303eaf8a23da8","null","","null","","","","","main_T1_ITI","","","","",""
"","","","","","visual-search-circle","39","528864","0.0-14.0-0.0-1.12","5e3d425fd8f8ff11d5002a94","619531dcf66c91622fa1b861","61959611df6303eaf8a23da8","3001.199999988079","","s","true","[[299,600],[534,487],[592,233],[430,29],[169,29],[7,233],[65,487]]","false","7","main_T2_Trial","s","img/Fire_Up_Target.gif","[""img/Fire_Down_Distractor.gif"",""img/Fire_Down_Distractor.gif"",""img/Fire_Down_Distractor.gif"",""img/Fire_Down_Distractor.gif"",""img/Fire_Down_Distractor.gif"",""img/Fire_Down_Distractor.gif"",""img/Fire_Down_Distractor.gif"",""img/Fire_Down_Distractor.gif"",""img/Fire_Down_Distractor.gif"",""img/Fire_Down_Distractor.gif"",""img/Fire_Down_Distractor.gif"",""img/Fire_Down_Distractor.gif""]","7","targetUp_distractorsDown"
"","","","","","html-keyboard-response","40","528866","0.0-14.0-0.0-0.13","5e3d425fd8f8ff11d5002a94","619531dcf66c91622fa1b861","61959611df6303eaf8a23da8","null","","null","","","","","main_T1_ITI","","","","",""
"","","","","","visual-search-circle","41","531802","0.0-14.0-0.0-1.13","5e3d425fd8f8ff11d5002a94","619531dcf66c91622fa1b861","61959611df6303eaf8a23da8","1929.6000000238419","","d","true","[[600,300],[512,87],[300,0],[87,87],[0,299],[87,512],[299,600],[512,512]]","true","8","main_T2_Trial","d","img/Fire_Up_Target.gif","[""img/Fire_Down_Distractor.gif"",""img/Fire_Down_Distractor.gif"",""img/Fire_Down_Distractor.gif"",""img/Fire_Down_Distractor.gif"",""img/Fire_Down_Distractor.gif"",""img/Fire_Down_Distractor.gif"",""img/Fire_Down_Distractor.gif"",""img/Fire_Down_Distractor.gif"",""img/Fire_Down_Distractor.gif"",""img/Fire_Down_Distractor.gif"",""img/Fire_Down_Distractor.gif"",""img/Fire_Down_Distractor.gif""]","8","targetUp_distractorsDown"
"","","","","","html-keyboard-response","42","531805","0.0-14.0-0.0-0.14","5e3d425fd8f8ff11d5002a94","619531dcf66c91622fa1b861","61959611df6303eaf8a23da8","null","","null","","","","","main_T1_ITI","","","","",""
"","","","","","visual-search-circle","43","534175","0.0-14.0-0.0-1.14","5e3d425fd8f8ff11d5002a94","619531dcf66c91622fa1b861","61959611df6303eaf8a23da8","1364.8999999761581","","d","true","[[586,387],[564,159],[387,13],[159,35],[13,212],[35,440],[212,586],[440,564]]","true","8","main_T2_Trial","d","img/Fire_Up_Target.gif","[""img/Fire_Down_Distractor.gif"",""img/Fire_Down_Distractor.gif"",""img/Fire_Down_Distractor.gif"",""img/Fire_Down_Distractor.gif"",""img/Fire_Down_Distractor.gif"",""img/Fire_Down_Distractor.gif"",""img/Fire_Down_Distractor.gif"",""img/Fire_Down_Distractor.gif"",""img/Fire_Down_Distractor.gif"",""img/Fire_Down_Distractor.gif"",""img/Fire_Down_Distractor.gif"",""img/Fire_Down_Distractor.gif""]","8","targetUp_distractorsDown"
"","","","","","html-keyboard-response","44","534177","0.0-14.0-0.0-0.15","5e3d425fd8f8ff11d5002a94","619531dcf66c91622fa1b861","61959611df6303eaf8a23da8","null","","null","","","","","main_T1_ITI","","","","",""
"","","","","","visual-search-circle","45","537817","0.0-14.0-0.0-1.15","5e3d425fd8f8ff11d5002a94","619531dcf66c91622fa1b861","61959611df6303eaf8a23da8","2637.399999976158","","s","true","[[392,14],[14,207],[207,585],[585,392]]","false","4","main_T2_Trial","s","img/Fire_Up_Target.gif","[""img/Fire_Down_Distractor.gif"",""img/Fire_Down_Distractor.gif"",""img/Fire_Down_Distractor.gif"",""img/Fire_Down_Distractor.gif"",""img/Fire_Down_Distractor.gif"",""img/Fire_Down_Distractor.gif"",""img/Fire_Down_Distractor.gif"",""img/Fire_Down_Distractor.gif"",""img/Fire_Down_Distractor.gif"",""img/Fire_Down_Distractor.gif"",""img/Fire_Down_Distractor.gif"",""img/Fire_Down_Distractor.gif""]","4","targetUp_distractorsDown"
"","","","","","html-keyboard-response","46","537821","0.0-14.0-0.0-0.16","5e3d425fd8f8ff11d5002a94","619531dcf66c91622fa1b861","61959611df6303eaf8a23da8","null","","null","","","","","main_T1_ITI","","","","",""
"","","","","","visual-search-circle","47","541080","0.0-14.0-0.0-1.16","5e3d425fd8f8ff11d5002a94","619531dcf66c91622fa1b861","61959611df6303eaf8a23da8","2253","","d","true","[[357,5],[105,71],[0,309],[120,540],[376,590],[574,421],[565,161]]","true","7","main_T2_Trial","d","img/Fire_Down_Target.gif","[""img/Fire_Up_Distractor.gif"",""img/Fire_Up_Distractor.gif"",""img/Fire_Up_Distractor.gif"",""img/Fire_Up_Distractor.gif"",""img/Fire_Up_Distractor.gif"",""img/Fire_Up_Distractor.gif"",""img/Fire_Up_Distractor.gif"",""img/Fire_Up_Distractor.gif"",""img/Fire_Up_Distractor.gif"",""img/Fire_Up_Distractor.gif"",""img/Fire_Up_Distractor.gif"",""img/Fire_Up_Distractor.gif""]","7","targetDown_distractorsUp"
"","","","","","html-keyboard-response","48","541082","0.0-14.0-0.0-0.17","5e3d425fd8f8ff11d5002a94","619531dcf66c91622fa1b861","61959611df6303eaf8a23da8","null","","null","","","","","main_T1_ITI","","","","",""
"","","","","","visual-search-circle","49","543624","0.0-14.0-0.0-1.17","5e3d425fd8f8ff11d5002a94","619531dcf66c91622fa1b861","61959611df6303eaf8a23da8","1538.699999988079","","s","true","[[45,141],[70,492],[412,578],[599,279],[372,8]]","false","5","main_T2_Trial","s","img/Fire_Up_Target.gif","[""img/Fire_Down_Distractor.gif"",""img/Fire_Down_Distractor.gif"",""img/Fire_Down_Distractor.gif"",""img/Fire_Down_Distractor.gif"",""img/Fire_Down_Distractor.gif"",""img/Fire_Down_Distractor.gif"",""img/Fire_Down_Distractor.gif"",""img/Fire_Down_Distractor.gif"",""img/Fire_Down_Distractor.gif"",""img/Fire_Down_Distractor.gif"",""img/Fire_Down_Distractor.gif"",""img/Fire_Down_Distractor.gif""]","5","targetUp_distractorsDown"
"","","","","","html-keyboard-response","50","543626","0.0-14.0-0.0-0.18","5e3d425fd8f8ff11d5002a94","619531dcf66c91622fa1b861","61959611df6303eaf8a23da8","null","","null","","","","","main_T1_ITI","","","","",""
"","","","","","visual-search-circle","51","545816","0.0-14.0-0.0-1.18","5e3d425fd8f8ff11d5002a94","619531dcf66c91622fa1b861","61959611df6303eaf8a23da8","1183.5999999642372","","d","true","[[23,417],[187,578],[417,576],[578,412],[576,182],[412,21],[182,23],[21,187]]","true","8","main_T2_Trial","d","img/Fire_Down_Target.gif","[""img/Fire_Up_Distractor.gif"",""img/Fire_Up_Distractor.gif"",""img/Fire_Up_Distractor.gif"",""img/Fire_Up_Distractor.gif"",""img/Fire_Up_Distractor.gif"",""img/Fire_Up_Distractor.gif"",""img/Fire_Up_Distractor.gif"",""img/Fire_Up_Distractor.gif"",""img/Fire_Up_Distractor.gif"",""img/Fire_Up_Distractor.gif"",""img/Fire_Up_Distractor.gif"",""img/Fire_Up_Distractor.gif""]","8","targetDown_distractorsUp"
"","","","","","html-keyboard-response","52","567688","0.0-14.0-0.0-0.19","5e3d425fd8f8ff11d5002a94","619531dcf66c91622fa1b861","61959611df6303eaf8a23da8","21871.19999998808","Wow! You've completed 20 out of 160 trials! </p> <p>  </p><p> Take a quick break, then press any key when you're ready to continue."," ","","","","","main_T1_ITI","","","","",""
"","","","","","visual-search-circle","53","569675","0.0-14.0-0.0-1.19","5e3d425fd8f8ff11d5002a94","619531dcf66c91622fa1b861","61959611df6303eaf8a23da8","981.3000000119209","","d","true","[[35,440],[212,586],[440,564],[586,387],[564,159],[387,13],[159,35],[13,212]]","true","8","main_T2_Trial","d","img/Fire_Down_Target.gif","[""img/Fire_Up_Distractor.gif"",""img/Fire_Up_Distractor.gif"",""img/Fire_Up_Distractor.gif"",""img/Fire_Up_Distractor.gif"",""img/Fire_Up_Distractor.gif"",""img/Fire_Up_Distractor.gif"",""img/Fire_Up_Distractor.gif"",""img/Fire_Up_Distractor.gif"",""img/Fire_Up_Distractor.gif"",""img/Fire_Up_Distractor.gif"",""img/Fire_Up_Distractor.gif"",""img/Fire_Up_Distractor.gif""]","8","targetDown_distractorsUp"
"","","","","","html-keyboard-response","54","569695","0.0-14.0-0.0-0.20","5e3d425fd8f8ff11d5002a94","619531dcf66c91622fa1b861","61959611df6303eaf8a23da8","null","","null","","","","","main_T1_ITI","","","","",""
"","","","","","visual-search-circle","55","572234","0.0-14.0-0.0-1.20","5e3d425fd8f8ff11d5002a94","619531dcf66c91622fa1b861","61959611df6303eaf8a23da8","1534","","d","true","[[273,598],[545,472],[571,173],[326,1],[54,127],[28,426]]","true","6","main_T2_Trial","d","img/Fire_Up_Target.gif","[""img/Fire_Down_Distractor.gif"",""img/Fire_Down_Distractor.gif"",""img/Fire_Down_Distractor.gif"",""img/Fire_Down_Distractor.gif"",""img/Fire_Down_Distractor.gif"",""img/Fire_Down_Distractor.gif"",""img/Fire_Down_Distractor.gif"",""img/Fire_Down_Distractor.gif"",""img/Fire_Down_Distractor.gif"",""img/Fire_Down_Distractor.gif"",""img/Fire_Down_Distractor.gif"",""img/Fire_Down_Distractor.gif""]","6","targetUp_distractorsDown"
"","","","","","html-keyboard-response","56","572237","0.0-14.0-0.0-0.21","5e3d425fd8f8ff11d5002a94","619531dcf66c91622fa1b861","61959611df6303eaf8a23da8","null","","null","","","","","main_T1_ITI","","","","",""
"","","","","","visual-search-circle","57","574417","0.0-14.0-0.0-1.21","5e3d425fd8f8ff11d5002a94","619531dcf66c91622fa1b861","61959611df6303eaf8a23da8","1171.699999988079","","d","true","[[84,91],[0,305],[91,515],[305,599],[515,508],[599,294],[508,84],[294,0]]","true","8","main_T2_Trial","d","img/Fire_Down_Target.gif","[""img/Fire_Up_Distractor.gif"",""img/Fire_Up_Distractor.gif"",""img/Fire_Up_Distractor.gif"",""img/Fire_Up_Distractor.gif"",""img/Fire_Up_Distractor.gif"",""img/Fire_Up_Distractor.gif"",""img/Fire_Up_Distractor.gif"",""img/Fire_Up_Distractor.gif"",""img/Fire_Up_Distractor.gif"",""img/Fire_Up_Distractor.gif"",""img/Fire_Up_Distractor.gif"",""img/Fire_Up_Distractor.gif""]","8","targetDown_distractorsUp"
"","","","","","html-keyboard-response","58","574420","0.0-14.0-0.0-0.22","5e3d425fd8f8ff11d5002a94","619531dcf66c91622fa1b861","61959611df6303eaf8a23da8","null","","null","","","","","main_T1_ITI","","","","",""
"","","","","","visual-search-circle","59","582430","0.0-14.0-0.0-1.22","5e3d425fd8f8ff11d5002a94","619531dcf66c91622fa1b861","61959611df6303eaf8a23da8","7004.099999964237","","d","true","[[536,115],[336,2],[115,63],[2,263],[63,484],[263,597],[484,536],[597,336]]","true","8","main_T2_Trial","d","img/Fire_Up_Target.gif","[""img/Fire_Down_Distractor.gif"",""img/Fire_Down_Distractor.gif"",""img/Fire_Down_Distractor.gif"",""img/Fire_Down_Distractor.gif"",""img/Fire_Down_Distractor.gif"",""img/Fire_Down_Distractor.gif"",""img/Fire_Down_Distractor.gif"",""img/Fire_Down_Distractor.gif"",""img/Fire_Down_Distractor.gif"",""img/Fire_Down_Distractor.gif"",""img/Fire_Down_Distractor.gif"",""img/Fire_Down_Distractor.gif""]","8","targetUp_distractorsDown"
"","","","","","html-keyboard-response","60","582433","0.0-14.0-0.0-0.23","5e3d425fd8f8ff11d5002a94","619531dcf66c91622fa1b861","61959611df6303eaf8a23da8","null","","null","","","","","main_T1_ITI","","","","",""
"","","","","","visual-search-circle","61","586022","0.0-14.0-0.0-1.23","5e3d425fd8f8ff11d5002a94","619531dcf66c91622fa1b861","61959611df6303eaf8a23da8","2583.100000023842","","d","true","[[173,28],[1,273],[127,545],[426,571],[598,326],[472,54]]","true","6","main_T2_Trial","d","img/Fire_Up_Target.gif","[""img/Fire_Down_Distractor.gif"",""img/Fire_Down_Distractor.gif"",""img/Fire_Down_Distractor.gif"",""img/Fire_Down_Distractor.gif"",""img/Fire_Down_Distractor.gif"",""img/Fire_Down_Distractor.gif"",""img/Fire_Down_Distractor.gif"",""img/Fire_Down_Distractor.gif"",""img/Fire_Down_Distractor.gif"",""img/Fire_Down_Distractor.gif"",""img/Fire_Down_Distractor.gif"",""img/Fire_Down_Distractor.gif""]","6","targetUp_distractorsDown"
"","","","","","html-keyboard-response","62","586025","0.0-14.0-0.0-0.24","5e3d425fd8f8ff11d5002a94","619531dcf66c91622fa1b861","61959611df6303eaf8a23da8","null","","null","","","","","main_T1_ITI","","","","",""
"","","","","","visual-search-circle","63","588986","0.0-14.0-0.0-1.24","5e3d425fd8f8ff11d5002a94","619531dcf66c91622fa1b861","61959611df6303eaf8a23da8","1946.699999988079","","s","true","[[594,357],[528,105],[290,0],[59,120],[9,376],[178,574],[438,565]]","false","7","main_T2_Trial","s","img/Fire_Down_Target.gif","[""img/Fire_Up_Distractor.gif"",""img/Fire_Up_Distractor.gif"",""img/Fire_Up_Distractor.gif"",""img/Fire_Up_Distractor.gif"",""img/Fire_Up_Distractor.gif"",""img/Fire_Up_Distractor.gif"",""img/Fire_Up_Distractor.gif"",""img/Fire_Up_Distractor.gif"",""img/Fire_Up_Distractor.gif"",""img/Fire_Up_Distractor.gif"",""img/Fire_Up_Distractor.gif"",""img/Fire_Up_Distractor.gif""]","7","targetDown_distractorsUp"
"","","","","","html-keyboard-response","64","588990","0.0-14.0-0.0-0.25","5e3d425fd8f8ff11d5002a94","619531dcf66c91622fa1b861","61959611df6303eaf8a23da8","null","","null","","","","","main_T1_ITI","","","","",""
"","","","","","visual-search-circle","65","594211","0.0-14.0-0.0-1.25","5e3d425fd8f8ff11d5002a94","619531dcf66c91622fa1b861","61959611df6303eaf8a23da8","4215","","d","true","[[596,253],[407,19],[111,66],[3,346],[192,580],[488,533]]","true","6","main_T2_Trial","d","img/Fire_Down_Target.gif","[""img/Fire_Up_Distractor.gif"",""img/Fire_Up_Distractor.gif"",""img/Fire_Up_Distractor.gif"",""img/Fire_Up_Distractor.gif"",""img/Fire_Up_Distractor.gif"",""img/Fire_Up_Distractor.gif"",""img/Fire_Up_Distractor.gif"",""img/Fire_Up_Distractor.gif"",""img/Fire_Up_Distractor.gif"",""img/Fire_Up_Distractor.gif"",""img/Fire_Up_Distractor.gif"",""img/Fire_Up_Distractor.gif""]","6","targetDown_distractorsUp"
"","","","","","html-keyboard-response","66","594212","0.0-14.0-0.0-0.26","5e3d425fd8f8ff11d5002a94","619531dcf66c91622fa1b861","61959611df6303eaf8a23da8","null","","null","","","","","main_T1_ITI","","","","",""
"","","","","","visual-search-circle","67","596953","0.0-14.0-0.0-1.26","5e3d425fd8f8ff11d5002a94","619531dcf66c91622fa1b861","61959611df6303eaf8a23da8","1727.5","","s","true","[[187,21],[0,320],[227,591],[554,458],[529,107]]","false","5","main_T2_Trial","s","img/Fire_Down_Target.gif","[""img/Fire_Up_Distractor.gif"",""img/Fire_Up_Distractor.gif"",""img/Fire_Up_Distractor.gif"",""img/Fire_Up_Distractor.gif"",""img/Fire_Up_Distractor.gif"",""img/Fire_Up_Distractor.gif"",""img/Fire_Up_Distractor.gif"",""img/Fire_Up_Distractor.gif"",""img/Fire_Up_Distractor.gif"",""img/Fire_Up_Distractor.gif"",""img/Fire_Up_Distractor.gif"",""img/Fire_Up_Distractor.gif""]","5","targetDown_distractorsUp"
"","","","","","html-keyboard-response","68","596956","0.0-14.0-0.0-0.27","5e3d425fd8f8ff11d5002a94","619531dcf66c91622fa1b861","61959611df6303eaf8a23da8","null","","null","","","","","main_T1_ITI","","","","",""
"","","","","","visual-search-circle","69","600538","0.0-14.0-0.0-1.27","5e3d425fd8f8ff11d5002a94","619531dcf66c91622fa1b861","61959611df6303eaf8a23da8","2575.899999976158","","s","true","[[73,496],[417,576],[598,273],[367,7],[42,145]]","false","5","main_T2_Trial","s","img/Fire_Down_Target.gif","[""img/Fire_Up_Distractor.gif"",""img/Fire_Up_Distractor.gif"",""img/Fire_Up_Distractor.gif"",""img/Fire_Up_Distractor.gif"",""img/Fire_Up_Distractor.gif"",""img/Fire_Up_Distractor.gif"",""img/Fire_Up_Distractor.gif"",""img/Fire_Up_Distractor.gif"",""img/Fire_Up_Distractor.gif"",""img/Fire_Up_Distractor.gif"",""img/Fire_Up_Distractor.gif"",""img/Fire_Up_Distractor.gif""]","5","targetDown_distractorsUp"
"","","","","","html-keyboard-response","70","600543","0.0-14.0-0.0-0.28","5e3d425fd8f8ff11d5002a94","619531dcf66c91622fa1b861","61959611df6303eaf8a23da8","null","","null","","","","","main_T1_ITI","","","","",""
"","","","","","visual-search-circle","71","603236","0.0-14.0-0.0-1.28","5e3d425fd8f8ff11d5002a94","619531dcf66c91622fa1b861","61959611df6303eaf8a23da8","1686.3999999761581","","s","true","[[8,372],[175,572],[435,567],[593,360],[530,108],[294,0],[61,117]]","false","7","main_T2_Trial","s","img/Fire_Up_Target.gif","[""img/Fire_Down_Distractor.gif"",""img/Fire_Down_Distractor.gif"",""img/Fire_Down_Distractor.gif"",""img/Fire_Down_Distractor.gif"",""img/Fire_Down_Distractor.gif"",""img/Fire_Down_Distractor.gif"",""img/Fire_Down_Distractor.gif"",""img/Fire_Down_Distractor.gif"",""img/Fire_Down_Distractor.gif"",""img/Fire_Down_Distractor.gif"",""img/Fire_Down_Distractor.gif"",""img/Fire_Down_Distractor.gif""]","7","targetUp_distractorsDown"
"","","","","","html-keyboard-response","72","603240","0.0-14.0-0.0-0.29","5e3d425fd8f8ff11d5002a94","619531dcf66c91622fa1b861","61959611df6303eaf8a23da8","null","","null","","","","","main_T1_ITI","","","","",""
"","","","","","visual-search-circle","73","605159","0.0-14.0-0.0-1.29","5e3d425fd8f8ff11d5002a94","619531dcf66c91622fa1b861","61959611df6303eaf8a23da8","910","","d","true","[[417,23],[23,182],[182,576],[576,417]]","true","4","main_T2_Trial","d","img/Fire_Up_Target.gif","[""img/Fire_Down_Distractor.gif"",""img/Fire_Down_Distractor.gif"",""img/Fire_Down_Distractor.gif"",""img/Fire_Down_Distractor.gif"",""img/Fire_Down_Distractor.gif"",""img/Fire_Down_Distractor.gif"",""img/Fire_Down_Distractor.gif"",""img/Fire_Down_Distractor.gif"",""img/Fire_Down_Distractor.gif"",""img/Fire_Down_Distractor.gif"",""img/Fire_Down_Distractor.gif"",""img/Fire_Down_Distractor.gif""]","4","targetUp_distractorsDown"
"","","","","","html-keyboard-response","74","605161","0.0-14.0-0.0-0.30","5e3d425fd8f8ff11d5002a94","619531dcf66c91622fa1b861","61959611df6303eaf8a23da8","null","","null","","","","","main_T1_ITI","","","","",""
"","","","","","visual-search-circle","75","607696","0.0-14.0-0.0-1.30","5e3d425fd8f8ff11d5002a94","619531dcf66c91622fa1b861","61959611df6303eaf8a23da8","1531.6000000238419","","d","true","[[569,431],[431,30],[30,168],[168,569]]","true","4","main_T2_Trial","d","img/Fire_Down_Target.gif","[""img/Fire_Up_Distractor.gif"",""img/Fire_Up_Distractor.gif"",""img/Fire_Up_Distractor.gif"",""img/Fire_Up_Distractor.gif"",""img/Fire_Up_Distractor.gif"",""img/Fire_Up_Distractor.gif"",""img/Fire_Up_Distractor.gif"",""img/Fire_Up_Distractor.gif"",""img/Fire_Up_Distractor.gif"",""img/Fire_Up_Distractor.gif"",""img/Fire_Up_Distractor.gif"",""img/Fire_Up_Distractor.gif""]","4","targetDown_distractorsUp"
"","","","","","html-keyboard-response","76","607699","0.0-14.0-0.0-0.31","5e3d425fd8f8ff11d5002a94","619531dcf66c91622fa1b861","61959611df6303eaf8a23da8","null","","null","","","","","main_T1_ITI","","","","",""
"","","","","","visual-search-circle","77","611185","0.0-14.0-0.0-1.31","5e3d425fd8f8ff11d5002a94","619531dcf66c91622fa1b861","61959611df6303eaf8a23da8","2479.699999988079","","d","true","[[574,177],[375,9],[120,59],[0,291],[106,528],[357,594],[566,438]]","true","7","main_T2_Trial","d","img/Fire_Up_Target.gif","[""img/Fire_Down_Distractor.gif"",""img/Fire_Down_Distractor.gif"",""img/Fire_Down_Distractor.gif"",""img/Fire_Down_Distractor.gif"",""img/Fire_Down_Distractor.gif"",""img/Fire_Down_Distractor.gif"",""img/Fire_Down_Distractor.gif"",""img/Fire_Down_Distractor.gif"",""img/Fire_Down_Distractor.gif"",""img/Fire_Down_Distractor.gif"",""img/Fire_Down_Distractor.gif"",""img/Fire_Down_Distractor.gif""]","7","targetUp_distractorsDown"
"","","","","","html-keyboard-response","78","611188","0.0-14.0-0.0-0.32","5e3d425fd8f8ff11d5002a94","619531dcf66c91622fa1b861","61959611df6303eaf8a23da8","null","","null","","","","","main_T1_ITI","","","","",""
"","","","","","visual-search-circle","79","613545","0.0-14.0-0.0-1.32","5e3d425fd8f8ff11d5002a94","619531dcf66c91622fa1b861","61959611df6303eaf8a23da8","1351.2000000476837","","s","true","[[91,515],[305,599],[515,508],[599,294],[508,84],[294,0],[84,91],[0,305]]","false","8","main_T2_Trial","s","img/Fire_Up_Target.gif","[""img/Fire_Down_Distractor.gif"",""img/Fire_Down_Distractor.gif"",""img/Fire_Down_Distractor.gif"",""img/Fire_Down_Distractor.gif"",""img/Fire_Down_Distractor.gif"",""img/Fire_Down_Distractor.gif"",""img/Fire_Down_Distractor.gif"",""img/Fire_Down_Distractor.gif"",""img/Fire_Down_Distractor.gif"",""img/Fire_Down_Distractor.gif"",""img/Fire_Down_Distractor.gif"",""img/Fire_Down_Distractor.gif""]","8","targetUp_distractorsDown"
"","","","","","html-keyboard-response","80","613547","0.0-14.0-0.0-0.33","5e3d425fd8f8ff11d5002a94","619531dcf66c91622fa1b861","61959611df6303eaf8a23da8","null","","null","","","","","main_T1_ITI","","","","",""
"","","","","","visual-search-circle","81","617447","0.0-14.0-0.0-1.33","5e3d425fd8f8ff11d5002a94","619531dcf66c91622fa1b861","61959611df6303eaf8a23da8","2881.699999988079","","s","true","[[508,84],[217,11],[8,227],[91,515],[382,588],[591,372]]","false","6","main_T2_Trial","s","img/Fire_Down_Target.gif","[""img/Fire_Up_Distractor.gif"",""img/Fire_Up_Distractor.gif"",""img/Fire_Up_Distractor.gif"",""img/Fire_Up_Distractor.gif"",""img/Fire_Up_Distractor.gif"",""img/Fire_Up_Distractor.gif"",""img/Fire_Up_Distractor.gif"",""img/Fire_Up_Distractor.gif"",""img/Fire_Up_Distractor.gif"",""img/Fire_Up_Distractor.gif"",""img/Fire_Up_Distractor.gif"",""img/Fire_Up_Distractor.gif""]","6","targetDown_distractorsUp"
"","","","","","html-keyboard-response","82","617449","0.0-14.0-0.0-0.34","5e3d425fd8f8ff11d5002a94","619531dcf66c91622fa1b861","61959611df6303eaf8a23da8","null","","null","","","","","main_T1_ITI","","","","",""
"","","","","","visual-search-circle","83","619537","0.0-14.0-0.0-1.34","5e3d425fd8f8ff11d5002a94","619531dcf66c91622fa1b861","61959611df6303eaf8a23da8","1081.6000000238419","","d","true","[[145,42],[8,227],[42,454],[227,591],[454,557],[591,372],[557,145],[372,8]]","true","8","main_T2_Trial","d","img/Fire_Down_Target.gif","[""img/Fire_Up_Distractor.gif"",""img/Fire_Up_Distractor.gif"",""img/Fire_Up_Distractor.gif"",""img/Fire_Up_Distractor.gif"",""img/Fire_Up_Distractor.gif"",""img/Fire_Up_Distractor.gif"",""img/Fire_Up_Distractor.gif"",""img/Fire_Up_Distractor.gif"",""img/Fire_Up_Distractor.gif"",""img/Fire_Up_Distractor.gif"",""img/Fire_Up_Distractor.gif"",""img/Fire_Up_Distractor.gif""]","8","targetDown_distractorsUp"
"","","","","","html-keyboard-response","84","619540","0.0-14.0-0.0-0.35","5e3d425fd8f8ff11d5002a94","619531dcf66c91622fa1b861","61959611df6303eaf8a23da8","null","","null","","","","","main_T1_ITI","","","","",""
"","","","","","visual-search-circle","85","624933","0.0-14.0-0.0-1.35","5e3d425fd8f8ff11d5002a94","619531dcf66c91622fa1b861","61959611df6303eaf8a23da8","4387.699999988079","","s","true","[[305,599],[537,482],[591,228],[425,27],[165,32],[6,238],[68,491]]","false","7","main_T2_Trial","s","img/Fire_Up_Target.gif","[""img/Fire_Down_Distractor.gif"",""img/Fire_Down_Distractor.gif"",""img/Fire_Down_Distractor.gif"",""img/Fire_Down_Distractor.gif"",""img/Fire_Down_Distractor.gif"",""img/Fire_Down_Distractor.gif"",""img/Fire_Down_Distractor.gif"",""img/Fire_Down_Distractor.gif"",""img/Fire_Down_Distractor.gif"",""img/Fire_Down_Distractor.gif"",""img/Fire_Down_Distractor.gif"",""img/Fire_Down_Distractor.gif""]","7","targetUp_distractorsDown"
"","","","","","html-keyboard-response","86","624935","0.0-14.0-0.0-0.36","5e3d425fd8f8ff11d5002a94","619531dcf66c91622fa1b861","61959611df6303eaf8a23da8","null","","null","","","","","main_T1_ITI","","","","",""
"","","","","","visual-search-circle","87","627364","0.0-14.0-0.0-1.36","5e3d425fd8f8ff11d5002a94","619531dcf66c91622fa1b861","61959611df6303eaf8a23da8","1416.699999988079","","s","true","[[583,202],[294,0],[13,212],[127,545],[480,539]]","false","5","main_T2_Trial","s","img/Fire_Down_Target.gif","[""img/Fire_Up_Distractor.gif"",""img/Fire_Up_Distractor.gif"",""img/Fire_Up_Distractor.gif"",""img/Fire_Up_Distractor.gif"",""img/Fire_Up_Distractor.gif"",""img/Fire_Up_Distractor.gif"",""img/Fire_Up_Distractor.gif"",""img/Fire_Up_Distractor.gif"",""img/Fire_Up_Distractor.gif"",""img/Fire_Up_Distractor.gif"",""img/Fire_Up_Distractor.gif"",""img/Fire_Up_Distractor.gif""]","5","targetDown_distractorsUp"
"","","","","","html-keyboard-response","88","627366","0.0-14.0-0.0-0.37","5e3d425fd8f8ff11d5002a94","619531dcf66c91622fa1b861","61959611df6303eaf8a23da8","null","","null","","","","","main_T1_ITI","","","","",""
"","","","","","visual-search-circle","89","630365","0.0-14.0-0.0-1.37","5e3d425fd8f8ff11d5002a94","619531dcf66c91622fa1b861","61959611df6303eaf8a23da8","1985.6000000238419","","s","true","[[8,372],[372,591],[591,227],[227,8]]","false","4","main_T2_Trial","s","img/Fire_Up_Target.gif","[""img/Fire_Down_Distractor.gif"",""img/Fire_Down_Distractor.gif"",""img/Fire_Down_Distractor.gif"",""img/Fire_Down_Distractor.gif"",""img/Fire_Down_Distractor.gif"",""img/Fire_Down_Distractor.gif"",""img/Fire_Down_Distractor.gif"",""img/Fire_Down_Distractor.gif"",""img/Fire_Down_Distractor.gif"",""img/Fire_Down_Distractor.gif"",""img/Fire_Down_Distractor.gif"",""img/Fire_Down_Distractor.gif""]","4","targetUp_distractorsDown"
"","","","","","html-keyboard-response","90","630368","0.0-14.0-0.0-0.38","5e3d425fd8f8ff11d5002a94","619531dcf66c91622fa1b861","61959611df6303eaf8a23da8","null","","null","","","","","main_T1_ITI","","","","",""
"","","","","","visual-search-circle","91","633574","0.0-14.0-0.0-1.38","5e3d425fd8f8ff11d5002a94","619531dcf66c91622fa1b861","61959611df6303eaf8a23da8","2201.600000023842","","d","true","[[589,222],[222,10],[10,377],[377,589]]","true","4","main_T2_Trial","d","img/Fire_Down_Target.gif","[""img/Fire_Up_Distractor.gif"",""img/Fire_Up_Distractor.gif"",""img/Fire_Up_Distractor.gif"",""img/Fire_Up_Distractor.gif"",""img/Fire_Up_Distractor.gif"",""img/Fire_Up_Distractor.gif"",""img/Fire_Up_Distractor.gif"",""img/Fire_Up_Distractor.gif"",""img/Fire_Up_Distractor.gif"",""img/Fire_Up_Distractor.gif"",""img/Fire_Up_Distractor.gif"",""img/Fire_Up_Distractor.gif""]","4","targetDown_distractorsUp"
"","","","","","html-keyboard-response","92","636080","0.0-14.0-0.0-0.39","5e3d425fd8f8ff11d5002a94","619531dcf66c91622fa1b861","61959611df6303eaf8a23da8","2497.5","Wow! You've completed 40 out of 160 trials! </p> <p>  </p><p> Take a quick break, then press any key when you're ready to continue."," ","","","","","main_T1_ITI","","","","",""
"","","","","","visual-search-circle","93","643241","0.0-14.0-0.0-1.39","5e3d425fd8f8ff11d5002a94","619531dcf66c91622fa1b861","61959611df6303eaf8a23da8","6158.199999988079","","s","true","[[0,305],[305,599],[599,294],[294,0]]","false","4","main_T2_Trial","s","img/Fire_Down_Target.gif","[""img/Fire_Up_Distractor.gif"",""img/Fire_Up_Distractor.gif"",""img/Fire_Up_Distractor.gif"",""img/Fire_Up_Distractor.gif"",""img/Fire_Up_Distractor.gif"",""img/Fire_Up_Distractor.gif"",""img/Fire_Up_Distractor.gif"",""img/Fire_Up_Distractor.gif"",""img/Fire_Up_Distractor.gif"",""img/Fire_Up_Distractor.gif"",""img/Fire_Up_Distractor.gif"",""img/Fire_Up_Distractor.gif""]","4","targetDown_distractorsUp"
"","","","","","html-keyboard-response","94","643244","0.0-14.0-0.0-0.40","5e3d425fd8f8ff11d5002a94","619531dcf66c91622fa1b861","61959611df6303eaf8a23da8","null","","null","","","","","main_T1_ITI","","","","",""
"","","","","","visual-search-circle","95","645962","0.0-14.0-0.0-1.40","5e3d425fd8f8ff11d5002a94","619531dcf66c91622fa1b861","61959611df6303eaf8a23da8","1709.8999999761581","","d","true","[[119,60],[2,258],[60,480],[258,597],[480,539],[597,341],[539,119],[341,2]]","true","8","main_T2_Trial","d","img/Fire_Up_Target.gif","[""img/Fire_Down_Distractor.gif"",""img/Fire_Down_Distractor.gif"",""img/Fire_Down_Distractor.gif"",""img/Fire_Down_Distractor.gif"",""img/Fire_Down_Distractor.gif"",""img/Fire_Down_Distractor.gif"",""img/Fire_Down_Distractor.gif"",""img/Fire_Down_Distractor.gif"",""img/Fire_Down_Distractor.gif"",""img/Fire_Down_Distractor.gif"",""img/Fire_Down_Distractor.gif"",""img/Fire_Down_Distractor.gif""]","8","targetUp_distractorsDown"
"","","","","","html-keyboard-response","96","645965","0.0-14.0-0.0-0.41","5e3d425fd8f8ff11d5002a94","619531dcf66c91622fa1b861","61959611df6303eaf8a23da8","null","","null","","","","","main_T1_ITI","","","","",""
"","","","","","visual-search-circle","97","652731","0.0-14.0-0.0-1.41","5e3d425fd8f8ff11d5002a94","619531dcf66c91622fa1b861","61959611df6303eaf8a23da8","5749.899999976158","","s","true","[[107,70],[0,307],[118,539],[374,590],[573,423],[566,163],[359,5]]","false","7","main_T2_Trial","s","img/Fire_Up_Target.gif","[""img/Fire_Down_Distractor.gif"",""img/Fire_Down_Distractor.gif"",""img/Fire_Down_Distractor.gif"",""img/Fire_Down_Distractor.gif"",""img/Fire_Down_Distractor.gif"",""img/Fire_Down_Distractor.gif"",""img/Fire_Down_Distractor.gif"",""img/Fire_Down_Distractor.gif"",""img/Fire_Down_Distractor.gif"",""img/Fire_Down_Distractor.gif"",""img/Fire_Down_Distractor.gif"",""img/Fire_Down_Distractor.gif""]","7","targetUp_distractorsDown"
"","","","","","html-keyboard-response","98","652733","0.0-14.0-0.0-0.42","5e3d425fd8f8ff11d5002a94","619531dcf66c91622fa1b861","61959611df6303eaf8a23da8","null","","null","","","","","main_T1_ITI","","","","",""
"","","","","","visual-search-circle","99","658019","0.0-14.0-0.0-1.42","5e3d425fd8f8ff11d5002a94","619531dcf66c91622fa1b861","61959611df6303eaf8a23da8","4280.900000035763","","d","true","[[73,496],[417,576],[598,273],[367,7],[42,145]]","true","5","main_T2_Trial","d","img/Fire_Up_Target.gif","[""img/Fire_Down_Distractor.gif"",""img/Fire_Down_Distractor.gif"",""img/Fire_Down_Distractor.gif"",""img/Fire_Down_Distractor.gif"",""img/Fire_Down_Distractor.gif"",""img/Fire_Down_Distractor.gif"",""img/Fire_Down_Distractor.gif"",""img/Fire_Down_Distractor.gif"",""img/Fire_Down_Distractor.gif"",""img/Fire_Down_Distractor.gif"",""img/Fire_Down_Distractor.gif"",""img/Fire_Down_Distractor.gif""]","5","targetUp_distractorsDown"
"","","","","","html-keyboard-response","100","658022","0.0-14.0-0.0-0.43","5e3d425fd8f8ff11d5002a94","619531dcf66c91622fa1b861","61959611df6303eaf8a23da8","null","","null","","","","","main_T1_ITI","","","","",""
"","","","","","visual-search-circle","101","663017","0.0-14.0-0.0-1.43","5e3d425fd8f8ff11d5002a94","619531dcf66c91622fa1b861","61959611df6303eaf8a23da8","3987.699999988079","","s","true","[[574,177],[375,9],[120,59],[0,291],[106,528],[357,594],[566,438]]","false","7","main_T2_Trial","s","img/Fire_Down_Target.gif","[""img/Fire_Up_Distractor.gif"",""img/Fire_Up_Distractor.gif"",""img/Fire_Up_Distractor.gif"",""img/Fire_Up_Distractor.gif"",""img/Fire_Up_Distractor.gif"",""img/Fire_Up_Distractor.gif"",""img/Fire_Up_Distractor.gif"",""img/Fire_Up_Distractor.gif"",""img/Fire_Up_Distractor.gif"",""img/Fire_Up_Distractor.gif"",""img/Fire_Up_Distractor.gif"",""img/Fire_Up_Distractor.gif""]","7","targetDown_distractorsUp"
"","","","","","html-keyboard-response","102","663019","0.0-14.0-0.0-0.44","5e3d425fd8f8ff11d5002a94","619531dcf66c91622fa1b861","61959611df6303eaf8a23da8","null","","null","","","","","main_T1_ITI","","","","",""
"","","","","","visual-search-circle","103","666267","0.0-14.0-0.0-1.44","5e3d425fd8f8ff11d5002a94","619531dcf66c91622fa1b861","61959611df6303eaf8a23da8","2242.100000023842","","s","true","[[529,107],[326,1],[107,70],[1,273],[70,492],[273,598],[492,529],[598,326]]","false","8","main_T2_Trial","s","img/Fire_Down_Target.gif","[""img/Fire_Up_Distractor.gif"",""img/Fire_Up_Distractor.gif"",""img/Fire_Up_Distractor.gif"",""img/Fire_Up_Distractor.gif"",""img/Fire_Up_Distractor.gif"",""img/Fire_Up_Distractor.gif"",""img/Fire_Up_Distractor.gif"",""img/Fire_Up_Distractor.gif"",""img/Fire_Up_Distractor.gif"",""img/Fire_Up_Distractor.gif"",""img/Fire_Up_Distractor.gif"",""img/Fire_Up_Distractor.gif""]","8","targetDown_distractorsUp"
"","","","","","html-keyboard-response","104","666270","0.0-14.0-0.0-0.45","5e3d425fd8f8ff11d5002a94","619531dcf66c91622fa1b861","61959611df6303eaf8a23da8","null","","null","","","","","main_T1_ITI","","","","",""
"","","","","","visual-search-circle","105","669490","0.0-14.0-0.0-1.45","5e3d425fd8f8ff11d5002a94","619531dcf66c91622fa1b861","61959611df6303eaf8a23da8","2215.899999976158","","d","true","[[467,548],[599,279],[431,30],[132,51],[0,320],[168,569]]","true","6","main_T2_Trial","d","img/Fire_Up_Target.gif","[""img/Fire_Down_Distractor.gif"",""img/Fire_Down_Distractor.gif"",""img/Fire_Down_Distractor.gif"",""img/Fire_Down_Distractor.gif"",""img/Fire_Down_Distractor.gif"",""img/Fire_Down_Distractor.gif"",""img/Fire_Down_Distractor.gif"",""img/Fire_Down_Distractor.gif"",""img/Fire_Down_Distractor.gif"",""img/Fire_Down_Distractor.gif"",""img/Fire_Down_Distractor.gif"",""img/Fire_Down_Distractor.gif""]","6","targetUp_distractorsDown"
"","","","","","html-keyboard-response","106","669492","0.0-14.0-0.0-0.46","5e3d425fd8f8ff11d5002a94","619531dcf66c91622fa1b861","61959611df6303eaf8a23da8","null","","null","","","","","main_T1_ITI","","","","",""
"","","","","","visual-search-circle","107","672517","0.0-14.0-0.0-1.46","5e3d425fd8f8ff11d5002a94","619531dcf66c91622fa1b861","61959611df6303eaf8a23da8","2018.7000000476837","","s","true","[[598,273],[426,28],[127,54],[1,326],[173,571],[472,545]]","false","6","main_T2_Trial","s","img/Fire_Up_Target.gif","[""img/Fire_Down_Distractor.gif"",""img/Fire_Down_Distractor.gif"",""img/Fire_Down_Distractor.gif"",""img/Fire_Down_Distractor.gif"",""img/Fire_Down_Distractor.gif"",""img/Fire_Down_Distractor.gif"",""img/Fire_Down_Distractor.gif"",""img/Fire_Down_Distractor.gif"",""img/Fire_Down_Distractor.gif"",""img/Fire_Down_Distractor.gif"",""img/Fire_Down_Distractor.gif"",""img/Fire_Down_Distractor.gif""]","6","targetUp_distractorsDown"
"","","","","","html-keyboard-response","108","672519","0.0-14.0-0.0-0.47","5e3d425fd8f8ff11d5002a94","619531dcf66c91622fa1b861","61959611df6303eaf8a23da8","null","","null","","","","","main_T1_ITI","","","","",""
"","","","","","visual-search-circle","109","674625","0.0-14.0-0.0-1.47","5e3d425fd8f8ff11d5002a94","619531dcf66c91622fa1b861","61959611df6303eaf8a23da8","1101.2000000476837","","s","true","[[585,207],[300,0],[14,207],[123,542],[476,542]]","false","5","main_T2_Trial","s","img/Fire_Up_Target.gif","[""img/Fire_Down_Distractor.gif"",""img/Fire_Down_Distractor.gif"",""img/Fire_Down_Distractor.gif"",""img/Fire_Down_Distractor.gif"",""img/Fire_Down_Distractor.gif"",""img/Fire_Down_Distractor.gif"",""img/Fire_Down_Distractor.gif"",""img/Fire_Down_Distractor.gif"",""img/Fire_Down_Distractor.gif"",""img/Fire_Down_Distractor.gif"",""img/Fire_Down_Distractor.gif"",""img/Fire_Down_Distractor.gif""]","5","targetUp_distractorsDown"
"","","","","","html-keyboard-response","110","674628","0.0-14.0-0.0-0.48","5e3d425fd8f8ff11d5002a94","619531dcf66c91622fa1b861","61959611df6303eaf8a23da8","null","","null","","","","","main_T1_ITI","","","","",""
"","","","","","visual-search-circle","111","676886","0.0-14.0-0.0-1.48","5e3d425fd8f8ff11d5002a94","619531dcf66c91622fa1b861","61959611df6303eaf8a23da8","1252.8999999761581","","d","true","[[580,407],[533,111],[253,3],[19,192],[66,488],[346,596]]","true","6","main_T2_Trial","d","img/Fire_Down_Target.gif","[""img/Fire_Up_Distractor.gif"",""img/Fire_Up_Distractor.gif"",""img/Fire_Up_Distractor.gif"",""img/Fire_Up_Distractor.gif"",""img/Fire_Up_Distractor.gif"",""img/Fire_Up_Distractor.gif"",""img/Fire_Up_Distractor.gif"",""img/Fire_Up_Distractor.gif"",""img/Fire_Up_Distractor.gif"",""img/Fire_Up_Distractor.gif"",""img/Fire_Up_Distractor.gif"",""img/Fire_Up_Distractor.gif""]","6","targetDown_distractorsUp"
"","","","","","html-keyboard-response","112","676890","0.0-14.0-0.0-0.49","5e3d425fd8f8ff11d5002a94","619531dcf66c91622fa1b861","61959611df6303eaf8a23da8","null","","null","","","","","main_T1_ITI","","","","",""
"","","","","","visual-search-circle","113","678733","0.0-14.0-0.0-1.49","5e3d425fd8f8ff11d5002a94","619531dcf66c91622fa1b861","61959611df6303eaf8a23da8","839.6999999880791","","d","true","[[197,581],[581,402],[402,18],[18,197]]","true","4","main_T2_Trial","d","img/Fire_Down_Target.gif","[""img/Fire_Up_Distractor.gif"",""img/Fire_Up_Distractor.gif"",""img/Fire_Up_Distractor.gif"",""img/Fire_Up_Distractor.gif"",""img/Fire_Up_Distractor.gif"",""img/Fire_Up_Distractor.gif"",""img/Fire_Up_Distractor.gif"",""img/Fire_Up_Distractor.gif"",""img/Fire_Up_Distractor.gif"",""img/Fire_Up_Distractor.gif"",""img/Fire_Up_Distractor.gif"",""img/Fire_Up_Distractor.gif""]","4","targetDown_distractorsUp"
"","","","","","html-keyboard-response","114","678735","0.0-14.0-0.0-0.50","5e3d425fd8f8ff11d5002a94","619531dcf66c91622fa1b861","61959611df6303eaf8a23da8","null","","null","","","","","main_T1_ITI","","","","",""
"","","","","","visual-search-circle","115","681128","0.0-14.0-0.0-1.50","5e3d425fd8f8ff11d5002a94","619531dcf66c91622fa1b861","61959611df6303eaf8a23da8","1386.800000011921","","s","true","[[7,367],[141,554],[367,592],[554,458],[592,232],[458,45],[232,7],[45,141]]","false","8","main_T2_Trial","s","img/Fire_Down_Target.gif","[""img/Fire_Up_Distractor.gif"",""img/Fire_Up_Distractor.gif"",""img/Fire_Up_Distractor.gif"",""img/Fire_Up_Distractor.gif"",""img/Fire_Up_Distractor.gif"",""img/Fire_Up_Distractor.gif"",""img/Fire_Up_Distractor.gif"",""img/Fire_Up_Distractor.gif"",""img/Fire_Up_Distractor.gif"",""img/Fire_Up_Distractor.gif"",""img/Fire_Up_Distractor.gif"",""img/Fire_Up_Distractor.gif""]","8","targetDown_distractorsUp"
"","","","","","html-keyboard-response","116","681131","0.0-14.0-0.0-0.51","5e3d425fd8f8ff11d5002a94","619531dcf66c91622fa1b861","61959611df6303eaf8a23da8","null","","null","","","","","main_T1_ITI","","","","",""
"","","","","","visual-search-circle","117","683241","0.0-14.0-0.0-1.51","5e3d425fd8f8ff11d5002a94","619531dcf66c91622fa1b861","61959611df6303eaf8a23da8","1106.5","","s","true","[[508,84],[159,35],[4,352],[258,597],[569,431]]","false","5","main_T2_Trial","s","img/Fire_Down_Target.gif","[""img/Fire_Up_Distractor.gif"",""img/Fire_Up_Distractor.gif"",""img/Fire_Up_Distractor.gif"",""img/Fire_Up_Distractor.gif"",""img/Fire_Up_Distractor.gif"",""img/Fire_Up_Distractor.gif"",""img/Fire_Up_Distractor.gif"",""img/Fire_Up_Distractor.gif"",""img/Fire_Up_Distractor.gif"",""img/Fire_Up_Distractor.gif"",""img/Fire_Up_Distractor.gif"",""img/Fire_Up_Distractor.gif""]","5","targetDown_distractorsUp"
"","","","","","html-keyboard-response","118","683244","0.0-14.0-0.0-0.52","5e3d425fd8f8ff11d5002a94","619531dcf66c91622fa1b861","61959611df6303eaf8a23da8","null","","null","","","","","main_T1_ITI","","","","",""
"","","","","","visual-search-circle","119","687364","0.0-14.0-0.0-1.52","5e3d425fd8f8ff11d5002a94","619531dcf66c91622fa1b861","61959611df6303eaf8a23da8","3107.600000023842","","d","false","[[554,141],[289,0],[35,159],[45,458],[310,599],[564,440]]","false","6","main_T2_Trial","s","img/Fire_Up_Target.gif","[""img/Fire_Down_Distractor.gif"",""img/Fire_Down_Distractor.gif"",""img/Fire_Down_Distractor.gif"",""img/Fire_Down_Distractor.gif"",""img/Fire_Down_Distractor.gif"",""img/Fire_Down_Distractor.gif"",""img/Fire_Down_Distractor.gif"",""img/Fire_Down_Distractor.gif"",""img/Fire_Down_Distractor.gif"",""img/Fire_Down_Distractor.gif"",""img/Fire_Down_Distractor.gif"",""img/Fire_Down_Distractor.gif""]","6","targetUp_distractorsDown"
"","","","","","html-keyboard-response","120","687366","0.0-14.0-0.0-0.53","5e3d425fd8f8ff11d5002a94","619531dcf66c91622fa1b861","61959611df6303eaf8a23da8","null","","null","","","","","main_T1_ITI","","","","",""
"","","","","","visual-search-circle","121","690961","0.0-14.0-0.0-1.53","5e3d425fd8f8ff11d5002a94","619531dcf66c91622fa1b861","61959611df6303eaf8a23da8","2590.400000035763","","d","true","[[545,127],[127,54],[54,472],[472,545]]","true","4","main_T2_Trial","d","img/Fire_Down_Target.gif","[""img/Fire_Up_Distractor.gif"",""img/Fire_Up_Distractor.gif"",""img/Fire_Up_Distractor.gif"",""img/Fire_Up_Distractor.gif"",""img/Fire_Up_Distractor.gif"",""img/Fire_Up_Distractor.gif"",""img/Fire_Up_Distractor.gif"",""img/Fire_Up_Distractor.gif"",""img/Fire_Up_Distractor.gif"",""img/Fire_Up_Distractor.gif"",""img/Fire_Up_Distractor.gif"",""img/Fire_Up_Distractor.gif""]","4","targetDown_distractorsUp"
"","","","","","html-keyboard-response","122","690964","0.0-14.0-0.0-0.54","5e3d425fd8f8ff11d5002a94","619531dcf66c91622fa1b861","61959611df6303eaf8a23da8","null","","null","","","","","main_T1_ITI","","","","",""
"","","","","","visual-search-circle","123","693069","0.0-14.0-0.0-1.54","5e3d425fd8f8ff11d5002a94","619531dcf66c91622fa1b861","61959611df6303eaf8a23da8","1090.699999988079","","d","true","[[545,127],[318,0],[77,98],[3,348],[153,561],[413,577],[587,384]]","true","7","main_T2_Trial","d","img/Fire_Down_Target.gif","[""img/Fire_Up_Distractor.gif"",""img/Fire_Up_Distractor.gif"",""img/Fire_Up_Distractor.gif"",""img/Fire_Up_Distractor.gif"",""img/Fire_Up_Distractor.gif"",""img/Fire_Up_Distractor.gif"",""img/Fire_Up_Distractor.gif"",""img/Fire_Up_Distractor.gif"",""img/Fire_Up_Distractor.gif"",""img/Fire_Up_Distractor.gif"",""img/Fire_Up_Distractor.gif"",""img/Fire_Up_Distractor.gif""]","7","targetDown_distractorsUp"
"","","","","","html-keyboard-response","124","693071","0.0-14.0-0.0-0.55","5e3d425fd8f8ff11d5002a94","619531dcf66c91622fa1b861","61959611df6303eaf8a23da8","null","","null","","","","","main_T1_ITI","","","","",""
"","","","","","visual-search-circle","125","695495","0.0-14.0-0.0-1.55","5e3d425fd8f8ff11d5002a94","619531dcf66c91622fa1b861","61959611df6303eaf8a23da8","1420.4000000357628","","d","true","[[402,18],[63,115],[51,467],[382,588],[599,310]]","true","5","main_T2_Trial","d","img/Fire_Up_Target.gif","[""img/Fire_Down_Distractor.gif"",""img/Fire_Down_Distractor.gif"",""img/Fire_Down_Distractor.gif"",""img/Fire_Down_Distractor.gif"",""img/Fire_Down_Distractor.gif"",""img/Fire_Down_Distractor.gif"",""img/Fire_Down_Distractor.gif"",""img/Fire_Down_Distractor.gif"",""img/Fire_Down_Distractor.gif"",""img/Fire_Down_Distractor.gif"",""img/Fire_Down_Distractor.gif"",""img/Fire_Down_Distractor.gif""]","5","targetUp_distractorsDown"
"","","","","","html-keyboard-response","126","695497","0.0-14.0-0.0-0.56","5e3d425fd8f8ff11d5002a94","619531dcf66c91622fa1b861","61959611df6303eaf8a23da8","null","","null","","","","","main_T1_ITI","","","","",""
"","","","","","visual-search-circle","127","701075","0.0-14.0-0.0-1.56","5e3d425fd8f8ff11d5002a94","619531dcf66c91622fa1b861","61959611df6303eaf8a23da8","4572.600000023842","","s","true","[[504,519],[599,276],[468,51],[210,13],[20,191],[40,450],[256,596]]","false","7","main_T2_Trial","s","img/Fire_Up_Target.gif","[""img/Fire_Down_Distractor.gif"",""img/Fire_Down_Distractor.gif"",""img/Fire_Down_Distractor.gif"",""img/Fire_Down_Distractor.gif"",""img/Fire_Down_Distractor.gif"",""img/Fire_Down_Distractor.gif"",""img/Fire_Down_Distractor.gif"",""img/Fire_Down_Distractor.gif"",""img/Fire_Down_Distractor.gif"",""img/Fire_Down_Distractor.gif"",""img/Fire_Down_Distractor.gif"",""img/Fire_Down_Distractor.gif""]","7","targetUp_distractorsDown"
"","","","","","html-keyboard-response","128","701077","0.0-14.0-0.0-0.57","5e3d425fd8f8ff11d5002a94","619531dcf66c91622fa1b861","61959611df6303eaf8a23da8","null","","null","","","","","main_T1_ITI","","","","",""
"","","","","","visual-search-circle","129","704671","0.0-14.0-0.0-1.57","5e3d425fd8f8ff11d5002a94","619531dcf66c91622fa1b861","61959611df6303eaf8a23da8","2587.800000011921","","d","true","[[154,37],[4,250],[76,500],[317,599],[544,473],[588,216],[414,22]]","true","7","main_T2_Trial","d","img/Fire_Down_Target.gif","[""img/Fire_Up_Distractor.gif"",""img/Fire_Up_Distractor.gif"",""img/Fire_Up_Distractor.gif"",""img/Fire_Up_Distractor.gif"",""img/Fire_Up_Distractor.gif"",""img/Fire_Up_Distractor.gif"",""img/Fire_Up_Distractor.gif"",""img/Fire_Up_Distractor.gif"",""img/Fire_Up_Distractor.gif"",""img/Fire_Up_Distractor.gif"",""img/Fire_Up_Distractor.gif"",""img/Fire_Up_Distractor.gif""]","7","targetDown_distractorsUp"
"","","","","","html-keyboard-response","130","704674","0.0-14.0-0.0-0.58","5e3d425fd8f8ff11d5002a94","619531dcf66c91622fa1b861","61959611df6303eaf8a23da8","null","","null","","","","","main_T1_ITI","","","","",""
"","","","","","visual-search-circle","131","706966","0.0-14.0-0.0-1.58","5e3d425fd8f8ff11d5002a94","619531dcf66c91622fa1b861","61959611df6303eaf8a23da8","1287.0999999642372","","d","true","[[111,533],[533,488],[488,66],[66,111]]","true","4","main_T2_Trial","d","img/Fire_Down_Target.gif","[""img/Fire_Up_Distractor.gif"",""img/Fire_Up_Distractor.gif"",""img/Fire_Up_Distractor.gif"",""img/Fire_Up_Distractor.gif"",""img/Fire_Up_Distractor.gif"",""img/Fire_Up_Distractor.gif"",""img/Fire_Up_Distractor.gif"",""img/Fire_Up_Distractor.gif"",""img/Fire_Up_Distractor.gif"",""img/Fire_Up_Distractor.gif"",""img/Fire_Up_Distractor.gif"",""img/Fire_Up_Distractor.gif""]","4","targetDown_distractorsUp"
"","","","","","html-keyboard-response","132","708503","0.0-14.0-0.0-0.59","5e3d425fd8f8ff11d5002a94","619531dcf66c91622fa1b861","61959611df6303eaf8a23da8","1535.800000011921","Wow! You've completed 60 out of 160 trials! </p> <p>  </p><p> Take a quick break, then press any key when you're ready to continue."," ","","","","","main_T1_ITI","","","","",""
"","","","","","visual-search-circle","133","713163","0.0-14.0-0.0-1.59","5e3d425fd8f8ff11d5002a94","619531dcf66c91622fa1b861","61959611df6303eaf8a23da8","3656.400000035763","","s","true","[[0,294],[145,557],[445,562],[599,305],[454,42],[154,37]]","false","6","main_T2_Trial","s","img/Fire_Up_Target.gif","[""img/Fire_Down_Distractor.gif"",""img/Fire_Down_Distractor.gif"",""img/Fire_Down_Distractor.gif"",""img/Fire_Down_Distractor.gif"",""img/Fire_Down_Distractor.gif"",""img/Fire_Down_Distractor.gif"",""img/Fire_Down_Distractor.gif"",""img/Fire_Down_Distractor.gif"",""img/Fire_Down_Distractor.gif"",""img/Fire_Down_Distractor.gif"",""img/Fire_Down_Distractor.gif"",""img/Fire_Down_Distractor.gif""]","6","targetUp_distractorsDown"
"","","","","","html-keyboard-response","134","713167","0.0-14.0-0.0-0.60","5e3d425fd8f8ff11d5002a94","619531dcf66c91622fa1b861","61959611df6303eaf8a23da8","null","","null","","","","","main_T1_ITI","","","","",""
"","","","","","visual-search-circle","135","722244","0.0-14.0-0.0-1.60","5e3d425fd8f8ff11d5002a94","619531dcf66c91622fa1b861","61959611df6303eaf8a23da8","8069.899999976158","","s","true","[[599,294],[508,84],[294,0],[84,91],[0,305],[91,515],[305,599],[515,508]]","false","8","main_T2_Trial","s","img/Fire_Down_Target.gif","[""img/Fire_Up_Distractor.gif"",""img/Fire_Up_Distractor.gif"",""img/Fire_Up_Distractor.gif"",""img/Fire_Up_Distractor.gif"",""img/Fire_Up_Distractor.gif"",""img/Fire_Up_Distractor.gif"",""img/Fire_Up_Distractor.gif"",""img/Fire_Up_Distractor.gif"",""img/Fire_Up_Distractor.gif"",""img/Fire_Up_Distractor.gif"",""img/Fire_Up_Distractor.gif"",""img/Fire_Up_Distractor.gif""]","8","targetDown_distractorsUp"
"","","","","","html-keyboard-response","136","722247","0.0-14.0-0.0-0.61","5e3d425fd8f8ff11d5002a94","619531dcf66c91622fa1b861","61959611df6303eaf8a23da8","null","","null","","","","","main_T1_ITI","","","","",""
"","","","","","visual-search-circle","137","724267","0.0-14.0-0.0-1.61","5e3d425fd8f8ff11d5002a94","619531dcf66c91622fa1b861","61959611df6303eaf8a23da8","1016.1999999880791","","d","true","[[4,247],[107,529],[402,581],[595,352],[492,70],[197,18]]","true","6","main_T2_Trial","d","img/Fire_Down_Target.gif","[""img/Fire_Up_Distractor.gif"",""img/Fire_Up_Distractor.gif"",""img/Fire_Up_Distractor.gif"",""img/Fire_Up_Distractor.gif"",""img/Fire_Up_Distractor.gif"",""img/Fire_Up_Distractor.gif"",""img/Fire_Up_Distractor.gif"",""img/Fire_Up_Distractor.gif"",""img/Fire_Up_Distractor.gif"",""img/Fire_Up_Distractor.gif"",""img/Fire_Up_Distractor.gif"",""img/Fire_Up_Distractor.gif""]","6","targetDown_distractorsUp"
"","","","","","html-keyboard-response","138","724281","0.0-14.0-0.0-0.62","5e3d425fd8f8ff11d5002a94","619531dcf66c91622fa1b861","61959611df6303eaf8a23da8","null","","null","","","","","main_T1_ITI","","","","",""
"","","","","","visual-search-circle","139","726411","0.0-14.0-0.0-1.62","5e3d425fd8f8ff11d5002a94","619531dcf66c91622fa1b861","61959611df6303eaf8a23da8","1114.9000000357628","","d","true","[[367,7],[113,64],[0,299],[112,534],[366,592],[569,430],[570,170]]","true","7","main_T2_Trial","d","img/Fire_Up_Target.gif","[""img/Fire_Down_Distractor.gif"",""img/Fire_Down_Distractor.gif"",""img/Fire_Down_Distractor.gif"",""img/Fire_Down_Distractor.gif"",""img/Fire_Down_Distractor.gif"",""img/Fire_Down_Distractor.gif"",""img/Fire_Down_Distractor.gif"",""img/Fire_Down_Distractor.gif"",""img/Fire_Down_Distractor.gif"",""img/Fire_Down_Distractor.gif"",""img/Fire_Down_Distractor.gif"",""img/Fire_Down_Distractor.gif""]","7","targetUp_distractorsDown"
"","","","","","html-keyboard-response","140","726414","0.0-14.0-0.0-0.63","5e3d425fd8f8ff11d5002a94","619531dcf66c91622fa1b861","61959611df6303eaf8a23da8","null","","null","","","","","main_T1_ITI","","","","",""
"","","","","","visual-search-circle","141","732722","0.0-14.0-0.0-1.63","5e3d425fd8f8ff11d5002a94","619531dcf66c91622fa1b861","61959611df6303eaf8a23da8","5296.100000023842","","d","true","[[567,163],[253,3],[3,253],[163,567],[512,512]]","true","5","main_T2_Trial","d","img/Fire_Down_Target.gif","[""img/Fire_Up_Distractor.gif"",""img/Fire_Up_Distractor.gif"",""img/Fire_Up_Distractor.gif"",""img/Fire_Up_Distractor.gif"",""img/Fire_Up_Distractor.gif"",""img/Fire_Up_Distractor.gif"",""img/Fire_Up_Distractor.gif"",""img/Fire_Up_Distractor.gif"",""img/Fire_Up_Distractor.gif"",""img/Fire_Up_Distractor.gif"",""img/Fire_Up_Distractor.gif"",""img/Fire_Up_Distractor.gif""]","5","targetDown_distractorsUp"
"","","","","","html-keyboard-response","142","732725","0.0-14.0-0.0-0.64","5e3d425fd8f8ff11d5002a94","619531dcf66c91622fa1b861","61959611df6303eaf8a23da8","null","","null","","","","","main_T1_ITI","","","","",""
"","","","","","visual-search-circle","143","744801","0.0-14.0-0.0-1.64","5e3d425fd8f8ff11d5002a94","619531dcf66c91622fa1b861","61959611df6303eaf8a23da8","11069.100000023842","","d","true","[[545,472],[595,247],[472,54],[247,4],[54,127],[4,352],[127,545],[352,595]]","true","8","main_T2_Trial","d","img/Fire_Up_Target.gif","[""img/Fire_Down_Distractor.gif"",""img/Fire_Down_Distractor.gif"",""img/Fire_Down_Distractor.gif"",""img/Fire_Down_Distractor.gif"",""img/Fire_Down_Distractor.gif"",""img/Fire_Down_Distractor.gif"",""img/Fire_Down_Distractor.gif"",""img/Fire_Down_Distractor.gif"",""img/Fire_Down_Distractor.gif"",""img/Fire_Down_Distractor.gif"",""img/Fire_Down_Distractor.gif"",""img/Fire_Down_Distractor.gif""]","8","targetUp_distractorsDown"
"","","","","","html-keyboard-response","144","744817","0.0-14.0-0.0-0.65","5e3d425fd8f8ff11d5002a94","619531dcf66c91622fa1b861","61959611df6303eaf8a23da8","null","","null","","","","","main_T1_ITI","","","","",""
"","","","","","visual-search-circle","145","749446","0.0-14.0-0.0-1.65","5e3d425fd8f8ff11d5002a94","619531dcf66c91622fa1b861","61959611df6303eaf8a23da8","3612.399999976158","","s","true","[[30,431],[202,583],[431,569],[583,397],[569,168],[397,16],[168,30],[16,202]]","false","8","main_T2_Trial","s","img/Fire_Up_Target.gif","[""img/Fire_Down_Distractor.gif"",""img/Fire_Down_Distractor.gif"",""img/Fire_Down_Distractor.gif"",""img/Fire_Down_Distractor.gif"",""img/Fire_Down_Distractor.gif"",""img/Fire_Down_Distractor.gif"",""img/Fire_Down_Distractor.gif"",""img/Fire_Down_Distractor.gif"",""img/Fire_Down_Distractor.gif"",""img/Fire_Down_Distractor.gif"",""img/Fire_Down_Distractor.gif"",""img/Fire_Down_Distractor.gif""]","8","targetUp_distractorsDown"
"","","","","","html-keyboard-response","146","749448","0.0-14.0-0.0-0.66","5e3d425fd8f8ff11d5002a94","619531dcf66c91622fa1b861","61959611df6303eaf8a23da8","null","","null","","","","","main_T1_ITI","","","","",""
"","","","","","visual-search-circle","147","751745","0.0-14.0-0.0-1.66","5e3d425fd8f8ff11d5002a94","619531dcf66c91622fa1b861","61959611df6303eaf8a23da8","1290.800000011921","","s","true","[[111,66],[0,302],[114,535],[368,591],[571,428],[569,167],[364,7]]","false","7","main_T2_Trial","s","img/Fire_Up_Target.gif","[""img/Fire_Down_Distractor.gif"",""img/Fire_Down_Distractor.gif"",""img/Fire_Down_Distractor.gif"",""img/Fire_Down_Distractor.gif"",""img/Fire_Down_Distractor.gif"",""img/Fire_Down_Distractor.gif"",""img/Fire_Down_Distractor.gif"",""img/Fire_Down_Distractor.gif"",""img/Fire_Down_Distractor.gif"",""img/Fire_Down_Distractor.gif"",""img/Fire_Down_Distractor.gif"",""img/Fire_Down_Distractor.gif""]","7","targetUp_distractorsDown"
"","","","","","html-keyboard-response","148","751748","0.0-14.0-0.0-0.67","5e3d425fd8f8ff11d5002a94","619531dcf66c91622fa1b861","61959611df6303eaf8a23da8","null","","null","","","","","main_T1_ITI","","","","",""
"","","","","","visual-search-circle","149","757245","0.0-14.0-0.0-1.67","5e3d425fd8f8ff11d5002a94","619531dcf66c91622fa1b861","61959611df6303eaf8a23da8","4490.5","","s","true","[[91,515],[305,599],[515,508],[599,294],[508,84],[294,0],[84,91],[0,305]]","false","8","main_T2_Trial","s","img/Fire_Down_Target.gif","[""img/Fire_Up_Distractor.gif"",""img/Fire_Up_Distractor.gif"",""img/Fire_Up_Distractor.gif"",""img/Fire_Up_Distractor.gif"",""img/Fire_Up_Distractor.gif"",""img/Fire_Up_Distractor.gif"",""img/Fire_Up_Distractor.gif"",""img/Fire_Up_Distractor.gif"",""img/Fire_Up_Distractor.gif"",""img/Fire_Up_Distractor.gif"",""img/Fire_Up_Distractor.gif"",""img/Fire_Up_Distractor.gif""]","8","targetDown_distractorsUp"
"","","","","","html-keyboard-response","150","757248","0.0-14.0-0.0-0.68","5e3d425fd8f8ff11d5002a94","619531dcf66c91622fa1b861","61959611df6303eaf8a23da8","null","","null","","","","","main_T1_ITI","","","","",""
"","","","","","visual-search-circle","151","759849","0.0-14.0-0.0-1.68","5e3d425fd8f8ff11d5002a94","619531dcf66c91622fa1b861","61959611df6303eaf8a23da8","1594.5","","s","true","[[571,173],[402,18],[173,28],[18,197],[28,426],[197,581],[426,571],[581,402]]","false","8","main_T2_Trial","s","img/Fire_Up_Target.gif","[""img/Fire_Down_Distractor.gif"",""img/Fire_Down_Distractor.gif"",""img/Fire_Down_Distractor.gif"",""img/Fire_Down_Distractor.gif"",""img/Fire_Down_Distractor.gif"",""img/Fire_Down_Distractor.gif"",""img/Fire_Down_Distractor.gif"",""img/Fire_Down_Distractor.gif"",""img/Fire_Down_Distractor.gif"",""img/Fire_Down_Distractor.gif"",""img/Fire_Down_Distractor.gif"",""img/Fire_Down_Distractor.gif""]","8","targetUp_distractorsDown"
"","","","","","html-keyboard-response","152","759866","0.0-14.0-0.0-0.69","5e3d425fd8f8ff11d5002a94","619531dcf66c91622fa1b861","61959611df6303eaf8a23da8","null","","null","","","","","main_T1_ITI","","","","",""
"","","","","","visual-search-circle","153","763321","0.0-14.0-0.0-1.69","5e3d425fd8f8ff11d5002a94","619531dcf66c91622fa1b861","61959611df6303eaf8a23da8","2449.699999988079","","s","true","[[141,45],[45,458],[458,554],[554,141]]","false","4","main_T2_Trial","s","img/Fire_Down_Target.gif","[""img/Fire_Up_Distractor.gif"",""img/Fire_Up_Distractor.gif"",""img/Fire_Up_Distractor.gif"",""img/Fire_Up_Distractor.gif"",""img/Fire_Up_Distractor.gif"",""img/Fire_Up_Distractor.gif"",""img/Fire_Up_Distractor.gif"",""img/Fire_Up_Distractor.gif"",""img/Fire_Up_Distractor.gif"",""img/Fire_Up_Distractor.gif"",""img/Fire_Up_Distractor.gif"",""img/Fire_Up_Distractor.gif""]","4","targetDown_distractorsUp"
"","","","","","html-keyboard-response","154","763323","0.0-14.0-0.0-0.70","5e3d425fd8f8ff11d5002a94","619531dcf66c91622fa1b861","61959611df6303eaf8a23da8","null","","null","","","","","main_T1_ITI","","","","",""
"","","","","","visual-search-circle","155","766593","0.0-14.0-0.0-1.70","5e3d425fd8f8ff11d5002a94","619531dcf66c91622fa1b861","61959611df6303eaf8a23da8","2265.599999964237","","d","true","[[436,32],[136,48],[0,315],[163,567],[463,551],[599,284]]","true","6","main_T2_Trial","d","img/Fire_Down_Target.gif","[""img/Fire_Up_Distractor.gif"",""img/Fire_Up_Distractor.gif"",""img/Fire_Up_Distractor.gif"",""img/Fire_Up_Distractor.gif"",""img/Fire_Up_Distractor.gif"",""img/Fire_Up_Distractor.gif"",""img/Fire_Up_Distractor.gif"",""img/Fire_Up_Distractor.gif"",""img/Fire_Up_Distractor.gif"",""img/Fire_Up_Distractor.gif"",""img/Fire_Up_Distractor.gif"",""img/Fire_Up_Distractor.gif""]","6","targetDown_distractorsUp"
"","","","","","html-keyboard-response","156","766595","0.0-14.0-0.0-0.71","5e3d425fd8f8ff11d5002a94","619531dcf66c91622fa1b861","61959611df6303eaf8a23da8","null","","null","","","","","main_T1_ITI","","","","",""
"","","","","","visual-search-circle","157","769680","0.0-14.0-0.0-1.71","5e3d425fd8f8ff11d5002a94","619531dcf66c91622fa1b861","61959611df6303eaf8a23da8","2070.099999964237","","s","true","[[467,51],[242,5],[51,132],[5,357],[132,548],[357,594],[548,467],[594,242]]","false","8","main_T2_Trial","s","img/Fire_Down_Target.gif","[""img/Fire_Up_Distractor.gif"",""img/Fire_Up_Distractor.gif"",""img/Fire_Up_Distractor.gif"",""img/Fire_Up_Distractor.gif"",""img/Fire_Up_Distractor.gif"",""img/Fire_Up_Distractor.gif"",""img/Fire_Up_Distractor.gif"",""img/Fire_Up_Distractor.gif"",""img/Fire_Up_Distractor.gif"",""img/Fire_Up_Distractor.gif"",""img/Fire_Up_Distractor.gif"",""img/Fire_Up_Distractor.gif""]","8","targetDown_distractorsUp"
"","","","","","html-keyboard-response","158","769683","0.0-14.0-0.0-0.72","5e3d425fd8f8ff11d5002a94","619531dcf66c91622fa1b861","61959611df6303eaf8a23da8","null","","null","","","","","main_T1_ITI","","","","",""
"","","","","","visual-search-circle","159","771750","0.0-14.0-0.0-1.72","5e3d425fd8f8ff11d5002a94","619531dcf66c91622fa1b861","61959611df6303eaf8a23da8","1062.2000000476837","","d","true","[[492,70],[240,5],[33,163],[26,423],[225,590],[481,539],[599,307]]","true","7","main_T2_Trial","d","img/Fire_Down_Target.gif","[""img/Fire_Up_Distractor.gif"",""img/Fire_Up_Distractor.gif"",""img/Fire_Up_Distractor.gif"",""img/Fire_Up_Distractor.gif"",""img/Fire_Up_Distractor.gif"",""img/Fire_Up_Distractor.gif"",""img/Fire_Up_Distractor.gif"",""img/Fire_Up_Distractor.gif"",""img/Fire_Up_Distractor.gif"",""img/Fire_Up_Distractor.gif"",""img/Fire_Up_Distractor.gif"",""img/Fire_Up_Distractor.gif""]","7","targetDown_distractorsUp"
"","","","","","html-keyboard-response","160","771761","0.0-14.0-0.0-0.73","5e3d425fd8f8ff11d5002a94","619531dcf66c91622fa1b861","61959611df6303eaf8a23da8","null","","null","","","","","main_T1_ITI","","","","",""
"","","","","","visual-search-circle","161","773998","0.0-14.0-0.0-1.73","5e3d425fd8f8ff11d5002a94","619531dcf66c91622fa1b861","61959611df6303eaf8a23da8","1232.8999999761581","","s","true","[[372,591],[599,320],[412,21],[70,107],[45,458]]","false","5","main_T2_Trial","s","img/Fire_Up_Target.gif","[""img/Fire_Down_Distractor.gif"",""img/Fire_Down_Distractor.gif"",""img/Fire_Down_Distractor.gif"",""img/Fire_Down_Distractor.gif"",""img/Fire_Down_Distractor.gif"",""img/Fire_Down_Distractor.gif"",""img/Fire_Down_Distractor.gif"",""img/Fire_Down_Distractor.gif"",""img/Fire_Down_Distractor.gif"",""img/Fire_Down_Distractor.gif"",""img/Fire_Down_Distractor.gif"",""img/Fire_Down_Distractor.gif""]","5","targetUp_distractorsDown"
"","","","","","html-keyboard-response","162","774001","0.0-14.0-0.0-0.74","5e3d425fd8f8ff11d5002a94","619531dcf66c91622fa1b861","61959611df6303eaf8a23da8","null","","null","","","","","main_T1_ITI","","","","",""
"","","","","","visual-search-circle","163","777056","0.0-14.0-0.0-1.74","5e3d425fd8f8ff11d5002a94","619531dcf66c91622fa1b861","61959611df6303eaf8a23da8","2050.300000011921","","d","true","[[182,23],[11,219],[56,475],[285,599],[525,497],[595,247],[442,36]]","true","7","main_T2_Trial","d","img/Fire_Down_Target.gif","[""img/Fire_Up_Distractor.gif"",""img/Fire_Up_Distractor.gif"",""img/Fire_Up_Distractor.gif"",""img/Fire_Up_Distractor.gif"",""img/Fire_Up_Distractor.gif"",""img/Fire_Up_Distractor.gif"",""img/Fire_Up_Distractor.gif"",""img/Fire_Up_Distractor.gif"",""img/Fire_Up_Distractor.gif"",""img/Fire_Up_Distractor.gif"",""img/Fire_Up_Distractor.gif"",""img/Fire_Up_Distractor.gif""]","7","targetDown_distractorsUp"
"","","","","","html-keyboard-response","164","777059","0.0-14.0-0.0-0.75","5e3d425fd8f8ff11d5002a94","619531dcf66c91622fa1b861","61959611df6303eaf8a23da8","null","","null","","","","","main_T1_ITI","","","","",""
"","","","","","visual-search-circle","165","780220","0.0-14.0-0.0-1.75","5e3d425fd8f8ff11d5002a94","619531dcf66c91622fa1b861","61959611df6303eaf8a23da8","2155.5","","s","true","[[154,562],[414,577],[588,383],[544,126],[317,0],[76,99],[4,349]]","false","7","main_T2_Trial","s","img/Fire_Down_Target.gif","[""img/Fire_Up_Distractor.gif"",""img/Fire_Up_Distractor.gif"",""img/Fire_Up_Distractor.gif"",""img/Fire_Up_Distractor.gif"",""img/Fire_Up_Distractor.gif"",""img/Fire_Up_Distractor.gif"",""img/Fire_Up_Distractor.gif"",""img/Fire_Up_Distractor.gif"",""img/Fire_Up_Distractor.gif"",""img/Fire_Up_Distractor.gif"",""img/Fire_Up_Distractor.gif"",""img/Fire_Up_Distractor.gif""]","7","targetDown_distractorsUp"
"","","","","","html-keyboard-response","166","780226","0.0-14.0-0.0-0.76","5e3d425fd8f8ff11d5002a94","619531dcf66c91622fa1b861","61959611df6303eaf8a23da8","null","","null","","","","","main_T1_ITI","","","","",""
"","","","","","visual-search-circle","167","786461","0.0-14.0-0.0-1.76","5e3d425fd8f8ff11d5002a94","619531dcf66c91622fa1b861","61959611df6303eaf8a23da8","5221.5","","d","true","[[132,548],[431,569],[599,320],[467,51],[168,30],[0,279]]","true","6","main_T2_Trial","d","img/Fire_Up_Target.gif","[""img/Fire_Down_Distractor.gif"",""img/Fire_Down_Distractor.gif"",""img/Fire_Down_Distractor.gif"",""img/Fire_Down_Distractor.gif"",""img/Fire_Down_Distractor.gif"",""img/Fire_Down_Distractor.gif"",""img/Fire_Down_Distractor.gif"",""img/Fire_Down_Distractor.gif"",""img/Fire_Down_Distractor.gif"",""img/Fire_Down_Distractor.gif"",""img/Fire_Down_Distractor.gif"",""img/Fire_Down_Distractor.gif""]","6","targetUp_distractorsDown"
"","","","","","html-keyboard-response","168","786472","0.0-14.0-0.0-0.77","5e3d425fd8f8ff11d5002a94","619531dcf66c91622fa1b861","61959611df6303eaf8a23da8","null","","null","","","","","main_T1_ITI","","","","",""
"","","","","","visual-search-circle","169","790071","0.0-14.0-0.0-1.77","5e3d425fd8f8ff11d5002a94","619531dcf66c91622fa1b861","61959611df6303eaf8a23da8","2591.7999999523163","","d","true","[[585,392],[567,163],[392,14],[163,32],[14,207],[32,436],[207,585],[436,567]]","true","8","main_T2_Trial","d","img/Fire_Down_Target.gif","[""img/Fire_Up_Distractor.gif"",""img/Fire_Up_Distractor.gif"",""img/Fire_Up_Distractor.gif"",""img/Fire_Up_Distractor.gif"",""img/Fire_Up_Distractor.gif"",""img/Fire_Up_Distractor.gif"",""img/Fire_Up_Distractor.gif"",""img/Fire_Up_Distractor.gif"",""img/Fire_Up_Distractor.gif"",""img/Fire_Up_Distractor.gif"",""img/Fire_Up_Distractor.gif"",""img/Fire_Up_Distractor.gif""]","8","targetDown_distractorsUp"
"","","","","","html-keyboard-response","170","790073","0.0-14.0-0.0-0.78","5e3d425fd8f8ff11d5002a94","619531dcf66c91622fa1b861","61959611df6303eaf8a23da8","null","","null","","","","","main_T1_ITI","","","","",""
"","","","","","visual-search-circle","171","792725","0.0-14.0-0.0-1.78","5e3d425fd8f8ff11d5002a94","619531dcf66c91622fa1b861","61959611df6303eaf8a23da8","1647.5","","s","true","[[57,476],[392,585],[600,300],[392,14],[57,123]]","false","5","main_T2_Trial","s","img/Fire_Down_Target.gif","[""img/Fire_Up_Distractor.gif"",""img/Fire_Up_Distractor.gif"",""img/Fire_Up_Distractor.gif"",""img/Fire_Up_Distractor.gif"",""img/Fire_Up_Distractor.gif"",""img/Fire_Up_Distractor.gif"",""img/Fire_Up_Distractor.gif"",""img/Fire_Up_Distractor.gif"",""img/Fire_Up_Distractor.gif"",""img/Fire_Up_Distractor.gif"",""img/Fire_Up_Distractor.gif"",""img/Fire_Up_Distractor.gif""]","5","targetDown_distractorsUp"
"","","","","","html-keyboard-response","172","801589","0.0-14.0-0.0-0.79","5e3d425fd8f8ff11d5002a94","619531dcf66c91622fa1b861","61959611df6303eaf8a23da8","8863.400000035763","Wow! You've completed 80 out of 160 trials! </p> <p>  </p><p> Take a quick break, then press any key when you're ready to continue."," ","","","","","main_T1_ITI","","","","",""
"","","","","","visual-search-circle","173","808267","0.0-14.0-0.0-1.79","5e3d425fd8f8ff11d5002a94","619531dcf66c91622fa1b861","61959611df6303eaf8a23da8","5674.099999964237","","s","true","[[526,103],[182,23],[1,326],[232,592],[557,454]]","false","5","main_T2_Trial","s","img/Fire_Up_Target.gif","[""img/Fire_Down_Distractor.gif"",""img/Fire_Down_Distractor.gif"",""img/Fire_Down_Distractor.gif"",""img/Fire_Down_Distractor.gif"",""img/Fire_Down_Distractor.gif"",""img/Fire_Down_Distractor.gif"",""img/Fire_Down_Distractor.gif"",""img/Fire_Down_Distractor.gif"",""img/Fire_Down_Distractor.gif"",""img/Fire_Down_Distractor.gif"",""img/Fire_Down_Distractor.gif"",""img/Fire_Down_Distractor.gif""]","5","targetUp_distractorsDown"
"","","","","","html-keyboard-response","174","808270","0.0-14.0-0.0-0.80","5e3d425fd8f8ff11d5002a94","619531dcf66c91622fa1b861","61959611df6303eaf8a23da8","null","","null","","","","","main_T1_ITI","","","","",""
"","","","","","visual-search-circle","175","811273","0.0-14.0-0.0-1.80","5e3d425fd8f8ff11d5002a94","619531dcf66c91622fa1b861","61959611df6303eaf8a23da8","1996.2000000476837","","s","true","[[589,377],[559,150],[377,10],[150,40],[10,222],[40,449],[222,589],[449,559]]","false","8","main_T2_Trial","s","img/Fire_Up_Target.gif","[""img/Fire_Down_Distractor.gif"",""img/Fire_Down_Distractor.gif"",""img/Fire_Down_Distractor.gif"",""img/Fire_Down_Distractor.gif"",""img/Fire_Down_Distractor.gif"",""img/Fire_Down_Distractor.gif"",""img/Fire_Down_Distractor.gif"",""img/Fire_Down_Distractor.gif"",""img/Fire_Down_Distractor.gif"",""img/Fire_Down_Distractor.gif"",""img/Fire_Down_Distractor.gif"",""img/Fire_Down_Distractor.gif""]","8","targetUp_distractorsDown"
"","","","","","html-keyboard-response","176","811276","0.0-14.0-0.0-0.81","5e3d425fd8f8ff11d5002a94","619531dcf66c91622fa1b861","61959611df6303eaf8a23da8","null","","null","","","","","main_T1_ITI","","","","",""
"","","","","","visual-search-circle","177","813163","0.0-14.0-0.0-1.81","5e3d425fd8f8ff11d5002a94","619531dcf66c91622fa1b861","61959611df6303eaf8a23da8","882.8000000119209","","d","true","[[480,539],[583,202],[294,0],[13,212],[127,545]]","true","5","main_T2_Trial","d","img/Fire_Up_Target.gif","[""img/Fire_Down_Distractor.gif"",""img/Fire_Down_Distractor.gif"",""img/Fire_Down_Distractor.gif"",""img/Fire_Down_Distractor.gif"",""img/Fire_Down_Distractor.gif"",""img/Fire_Down_Distractor.gif"",""img/Fire_Down_Distractor.gif"",""img/Fire_Down_Distractor.gif"",""img/Fire_Down_Distractor.gif"",""img/Fire_Down_Distractor.gif"",""img/Fire_Down_Distractor.gif"",""img/Fire_Down_Distractor.gif""]","5","targetUp_distractorsDown"
"","","","","","html-keyboard-response","178","813165","0.0-14.0-0.0-0.82","5e3d425fd8f8ff11d5002a94","619531dcf66c91622fa1b861","61959611df6303eaf8a23da8","null","","null","","","","","main_T1_ITI","","","","",""
"","","","","","visual-search-circle","179","815370","0.0-14.0-0.0-1.82","5e3d425fd8f8ff11d5002a94","619531dcf66c91622fa1b861","61959611df6303eaf8a23da8","1200.7999999523163","","d","true","[[182,576],[576,417],[417,23],[23,182]]","true","4","main_T2_Trial","d","img/Fire_Down_Target.gif","[""img/Fire_Up_Distractor.gif"",""img/Fire_Up_Distractor.gif"",""img/Fire_Up_Distractor.gif"",""img/Fire_Up_Distractor.gif"",""img/Fire_Up_Distractor.gif"",""img/Fire_Up_Distractor.gif"",""img/Fire_Up_Distractor.gif"",""img/Fire_Up_Distractor.gif"",""img/Fire_Up_Distractor.gif"",""img/Fire_Up_Distractor.gif"",""img/Fire_Up_Distractor.gif"",""img/Fire_Up_Distractor.gif""]","4","targetDown_distractorsUp"
"","","","","","html-keyboard-response","180","815379","0.0-14.0-0.0-0.83","5e3d425fd8f8ff11d5002a94","619531dcf66c91622fa1b861","61959611df6303eaf8a23da8","null","","null","","","","","main_T1_ITI","","","","",""
"","","","","","visual-search-circle","181","818331","0.0-14.0-0.0-1.83","5e3d425fd8f8ff11d5002a94","619531dcf66c91622fa1b861","61959611df6303eaf8a23da8","1945.199999988079","","d","true","[[585,207],[436,32],[207,14],[32,163],[14,392],[163,567],[392,585],[567,436]]","true","8","main_T2_Trial","d","img/Fire_Up_Target.gif","[""img/Fire_Down_Distractor.gif"",""img/Fire_Down_Distractor.gif"",""img/Fire_Down_Distractor.gif"",""img/Fire_Down_Distractor.gif"",""img/Fire_Down_Distractor.gif"",""img/Fire_Down_Distractor.gif"",""img/Fire_Down_Distractor.gif"",""img/Fire_Down_Distractor.gif"",""img/Fire_Down_Distractor.gif"",""img/Fire_Down_Distractor.gif"",""img/Fire_Down_Distractor.gif"",""img/Fire_Down_Distractor.gif""]","8","targetUp_distractorsDown"
"","","","","","html-keyboard-response","182","818333","0.0-14.0-0.0-0.84","5e3d425fd8f8ff11d5002a94","619531dcf66c91622fa1b861","61959611df6303eaf8a23da8","null","","null","","","","","main_T1_ITI","","","","",""
"","","","","","visual-search-circle","183","823638","0.0-14.0-0.0-1.84","5e3d425fd8f8ff11d5002a94","619531dcf66c91622fa1b861","61959611df6303eaf8a23da8","4299.5","","d","true","[[253,3],[19,192],[66,488],[346,596],[580,407],[533,111]]","true","6","main_T2_Trial","d","img/Fire_Down_Target.gif","[""img/Fire_Up_Distractor.gif"",""img/Fire_Up_Distractor.gif"",""img/Fire_Up_Distractor.gif"",""img/Fire_Up_Distractor.gif"",""img/Fire_Up_Distractor.gif"",""img/Fire_Up_Distractor.gif"",""img/Fire_Up_Distractor.gif"",""img/Fire_Up_Distractor.gif"",""img/Fire_Up_Distractor.gif"",""img/Fire_Up_Distractor.gif"",""img/Fire_Up_Distractor.gif"",""img/Fire_Up_Distractor.gif""]","6","targetDown_distractorsUp"
"","","","","","html-keyboard-response","184","823640","0.0-14.0-0.0-0.85","5e3d425fd8f8ff11d5002a94","619531dcf66c91622fa1b861","61959611df6303eaf8a23da8","null","","null","","","","","main_T1_ITI","","","","",""
"","","","","","visual-search-circle","185","830177","0.0-14.0-0.0-1.85","5e3d425fd8f8ff11d5002a94","619531dcf66c91622fa1b861","61959611df6303eaf8a23da8","5522.699999988079","","d","true","[[30,168],[29,428],[231,592],[485,535],[599,301],[488,66],[234,7]]","true","7","main_T2_Trial","d","img/Fire_Down_Target.gif","[""img/Fire_Up_Distractor.gif"",""img/Fire_Up_Distractor.gif"",""img/Fire_Up_Distractor.gif"",""img/Fire_Up_Distractor.gif"",""img/Fire_Up_Distractor.gif"",""img/Fire_Up_Distractor.gif"",""img/Fire_Up_Distractor.gif"",""img/Fire_Up_Distractor.gif"",""img/Fire_Up_Distractor.gif"",""img/Fire_Up_Distractor.gif"",""img/Fire_Up_Distractor.gif"",""img/Fire_Up_Distractor.gif""]","7","targetDown_distractorsUp"
"","","","","","html-keyboard-response","186","830179","0.0-14.0-0.0-0.86","5e3d425fd8f8ff11d5002a94","619531dcf66c91622fa1b861","61959611df6303eaf8a23da8","null","","null","","","","","main_T1_ITI","","","","",""
"","","","","","visual-search-circle","187","832313","0.0-14.0-0.0-1.86","5e3d425fd8f8ff11d5002a94","619531dcf66c91622fa1b861","61959611df6303eaf8a23da8","1129.300000011921","","s","true","[[37,154],[80,504],[426,571],[597,263],[357,5]]","false","5","main_T2_Trial","s","img/Fire_Up_Target.gif","[""img/Fire_Down_Distractor.gif"",""img/Fire_Down_Distractor.gif"",""img/Fire_Down_Distractor.gif"",""img/Fire_Down_Distractor.gif"",""img/Fire_Down_Distractor.gif"",""img/Fire_Down_Distractor.gif"",""img/Fire_Down_Distractor.gif"",""img/Fire_Down_Distractor.gif"",""img/Fire_Down_Distractor.gif"",""img/Fire_Down_Distractor.gif"",""img/Fire_Down_Distractor.gif"",""img/Fire_Down_Distractor.gif""]","5","targetUp_distractorsDown"
"","","","","","html-keyboard-response","188","832316","0.0-14.0-0.0-0.87","5e3d425fd8f8ff11d5002a94","619531dcf66c91622fa1b861","61959611df6303eaf8a23da8","null","","null","","","","","main_T1_ITI","","","","",""
"","","","","","visual-search-circle","189","835903","0.0-14.0-0.0-1.87","5e3d425fd8f8ff11d5002a94","619531dcf66c91622fa1b861","61959611df6303eaf8a23da8","2582.400000035763","","d","true","[[35,159],[84,508],[431,569],[597,258],[352,4]]","true","5","main_T2_Trial","d","img/Fire_Down_Target.gif","[""img/Fire_Up_Distractor.gif"",""img/Fire_Up_Distractor.gif"",""img/Fire_Up_Distractor.gif"",""img/Fire_Up_Distractor.gif"",""img/Fire_Up_Distractor.gif"",""img/Fire_Up_Distractor.gif"",""img/Fire_Up_Distractor.gif"",""img/Fire_Up_Distractor.gif"",""img/Fire_Up_Distractor.gif"",""img/Fire_Up_Distractor.gif"",""img/Fire_Up_Distractor.gif"",""img/Fire_Up_Distractor.gif""]","5","targetDown_distractorsUp"
"","","","","","html-keyboard-response","190","835905","0.0-14.0-0.0-0.88","5e3d425fd8f8ff11d5002a94","619531dcf66c91622fa1b861","61959611df6303eaf8a23da8","null","","null","","","","","main_T1_ITI","","","","",""
"","","","","","visual-search-circle","191","838730","0.0-14.0-0.0-1.88","5e3d425fd8f8ff11d5002a94","619531dcf66c91622fa1b861","61959611df6303eaf8a23da8","1818.5","","d","true","[[182,576],[442,563],[595,352],[525,102],[285,0],[56,124],[11,380]]","true","7","main_T2_Trial","d","img/Fire_Up_Target.gif","[""img/Fire_Down_Distractor.gif"",""img/Fire_Down_Distractor.gif"",""img/Fire_Down_Distractor.gif"",""img/Fire_Down_Distractor.gif"",""img/Fire_Down_Distractor.gif"",""img/Fire_Down_Distractor.gif"",""img/Fire_Down_Distractor.gif"",""img/Fire_Down_Distractor.gif"",""img/Fire_Down_Distractor.gif"",""img/Fire_Down_Distractor.gif"",""img/Fire_Down_Distractor.gif"",""img/Fire_Down_Distractor.gif""]","7","targetUp_distractorsDown"
"","","","","","html-keyboard-response","192","838732","0.0-14.0-0.0-0.89","5e3d425fd8f8ff11d5002a94","619531dcf66c91622fa1b861","61959611df6303eaf8a23da8","null","","null","","","","","main_T1_ITI","","","","",""
"","","","","","visual-search-circle","193","840876","0.0-14.0-0.0-1.89","5e3d425fd8f8ff11d5002a94","619531dcf66c91622fa1b861","61959611df6303eaf8a23da8","1140.0999999642372","","s","true","[[596,346],[436,32],[87,87],[32,436],[346,596]]","false","5","main_T2_Trial","s","img/Fire_Up_Target.gif","[""img/Fire_Down_Distractor.gif"",""img/Fire_Down_Distractor.gif"",""img/Fire_Down_Distractor.gif"",""img/Fire_Down_Distractor.gif"",""img/Fire_Down_Distractor.gif"",""img/Fire_Down_Distractor.gif"",""img/Fire_Down_Distractor.gif"",""img/Fire_Down_Distractor.gif"",""img/Fire_Down_Distractor.gif"",""img/Fire_Down_Distractor.gif"",""img/Fire_Down_Distractor.gif"",""img/Fire_Down_Distractor.gif""]","5","targetUp_distractorsDown"
"","","","","","html-keyboard-response","194","840878","0.0-14.0-0.0-0.90","5e3d425fd8f8ff11d5002a94","619531dcf66c91622fa1b861","61959611df6303eaf8a23da8","null","","null","","","","","main_T1_ITI","","","","",""
"","","","","","visual-search-circle","195","842901","0.0-14.0-0.0-1.90","5e3d425fd8f8ff11d5002a94","619531dcf66c91622fa1b861","61959611df6303eaf8a23da8","1017.4000000357628","","s","true","[[567,163],[315,0],[48,136],[32,436],[284,599],[551,463]]","false","6","main_T2_Trial","s","img/Fire_Up_Target.gif","[""img/Fire_Down_Distractor.gif"",""img/Fire_Down_Distractor.gif"",""img/Fire_Down_Distractor.gif"",""img/Fire_Down_Distractor.gif"",""img/Fire_Down_Distractor.gif"",""img/Fire_Down_Distractor.gif"",""img/Fire_Down_Distractor.gif"",""img/Fire_Down_Distractor.gif"",""img/Fire_Down_Distractor.gif"",""img/Fire_Down_Distractor.gif"",""img/Fire_Down_Distractor.gif"",""img/Fire_Down_Distractor.gif""]","6","targetUp_distractorsDown"
"","","","","","html-keyboard-response","196","842902","0.0-14.0-0.0-0.91","5e3d425fd8f8ff11d5002a94","619531dcf66c91622fa1b861","61959611df6303eaf8a23da8","null","","null","","","","","main_T1_ITI","","","","",""
"","","","","","visual-search-circle","197","845098","0.0-14.0-0.0-1.91","5e3d425fd8f8ff11d5002a94","619531dcf66c91622fa1b861","61959611df6303eaf8a23da8","1191.4000000357628","","s","true","[[237,6],[6,362],[362,593],[593,237]]","false","4","main_T2_Trial","s","img/Fire_Up_Target.gif","[""img/Fire_Down_Distractor.gif"",""img/Fire_Down_Distractor.gif"",""img/Fire_Down_Distractor.gif"",""img/Fire_Down_Distractor.gif"",""img/Fire_Down_Distractor.gif"",""img/Fire_Down_Distractor.gif"",""img/Fire_Down_Distractor.gif"",""img/Fire_Down_Distractor.gif"",""img/Fire_Down_Distractor.gif"",""img/Fire_Down_Distractor.gif"",""img/Fire_Down_Distractor.gif"",""img/Fire_Down_Distractor.gif""]","4","targetUp_distractorsDown"
"","","","","","html-keyboard-response","198","845100","0.0-14.0-0.0-0.92","5e3d425fd8f8ff11d5002a94","619531dcf66c91622fa1b861","61959611df6303eaf8a23da8","null","","null","","","","","main_T1_ITI","","","","",""
"","","","","","visual-search-circle","199","847219","0.0-14.0-0.0-1.92","5e3d425fd8f8ff11d5002a94","619531dcf66c91622fa1b861","61959611df6303eaf8a23da8","1112.2000000476837","","s","true","[[32,163],[14,392],[163,567],[392,585],[567,436],[585,207],[436,32],[207,14]]","false","8","main_T2_Trial","s","img/Fire_Down_Target.gif","[""img/Fire_Up_Distractor.gif"",""img/Fire_Up_Distractor.gif"",""img/Fire_Up_Distractor.gif"",""img/Fire_Up_Distractor.gif"",""img/Fire_Up_Distractor.gif"",""img/Fire_Up_Distractor.gif"",""img/Fire_Up_Distractor.gif"",""img/Fire_Up_Distractor.gif"",""img/Fire_Up_Distractor.gif"",""img/Fire_Up_Distractor.gif"",""img/Fire_Up_Distractor.gif"",""img/Fire_Up_Distractor.gif""]","8","targetDown_distractorsUp"
"","","","","","html-keyboard-response","200","847222","0.0-14.0-0.0-0.93","5e3d425fd8f8ff11d5002a94","619531dcf66c91622fa1b861","61959611df6303eaf8a23da8","null","","null","","","","","main_T1_ITI","","","","",""
"","","","","","visual-search-circle","201","849244","0.0-14.0-0.0-1.93","5e3d425fd8f8ff11d5002a94","619531dcf66c91622fa1b861","61959611df6303eaf8a23da8","1016.1999999880791","","s","true","[[21,187],[23,417],[187,578],[417,576],[578,412],[576,182],[412,21],[182,23]]","false","8","main_T2_Trial","s","img/Fire_Down_Target.gif","[""img/Fire_Up_Distractor.gif"",""img/Fire_Up_Distractor.gif"",""img/Fire_Up_Distractor.gif"",""img/Fire_Up_Distractor.gif"",""img/Fire_Up_Distractor.gif"",""img/Fire_Up_Distractor.gif"",""img/Fire_Up_Distractor.gif"",""img/Fire_Up_Distractor.gif"",""img/Fire_Up_Distractor.gif"",""img/Fire_Up_Distractor.gif"",""img/Fire_Up_Distractor.gif"",""img/Fire_Up_Distractor.gif""]","8","targetDown_distractorsUp"
"","","","","","html-keyboard-response","202","849246","0.0-14.0-0.0-0.94","5e3d425fd8f8ff11d5002a94","619531dcf66c91622fa1b861","61959611df6303eaf8a23da8","null","","null","","","","","main_T1_ITI","","","","",""
"","","","","","visual-search-circle","203","851367","0.0-14.0-0.0-1.94","5e3d425fd8f8ff11d5002a94","619531dcf66c91622fa1b861","61959611df6303eaf8a23da8","1114.3999999761581","","s","true","[[598,273],[465,50],[208,14],[19,193],[42,453],[258,597],[506,517]]","false","7","main_T2_Trial","s","img/Fire_Down_Target.gif","[""img/Fire_Up_Distractor.gif"",""img/Fire_Up_Distractor.gif"",""img/Fire_Up_Distractor.gif"",""img/Fire_Up_Distractor.gif"",""img/Fire_Up_Distractor.gif"",""img/Fire_Up_Distractor.gif"",""img/Fire_Up_Distractor.gif"",""img/Fire_Up_Distractor.gif"",""img/Fire_Up_Distractor.gif"",""img/Fire_Up_Distractor.gif"",""img/Fire_Up_Distractor.gif"",""img/Fire_Up_Distractor.gif""]","7","targetDown_distractorsUp"
"","","","","","html-keyboard-response","204","851370","0.0-14.0-0.0-0.95","5e3d425fd8f8ff11d5002a94","619531dcf66c91622fa1b861","61959611df6303eaf8a23da8","null","","null","","","","","main_T1_ITI","","","","",""
"","","","","","visual-search-circle","205","854082","0.0-14.0-0.0-1.95","5e3d425fd8f8ff11d5002a94","619531dcf66c91622fa1b861","61959611df6303eaf8a23da8","1707.7999999523163","","s","true","[[247,4],[4,352],[352,595],[595,247]]","false","4","main_T2_Trial","s","img/Fire_Down_Target.gif","[""img/Fire_Up_Distractor.gif"",""img/Fire_Up_Distractor.gif"",""img/Fire_Up_Distractor.gif"",""img/Fire_Up_Distractor.gif"",""img/Fire_Up_Distractor.gif"",""img/Fire_Up_Distractor.gif"",""img/Fire_Up_Distractor.gif"",""img/Fire_Up_Distractor.gif"",""img/Fire_Up_Distractor.gif"",""img/Fire_Up_Distractor.gif"",""img/Fire_Up_Distractor.gif"",""img/Fire_Up_Distractor.gif""]","4","targetDown_distractorsUp"
"","","","","","html-keyboard-response","206","854085","0.0-14.0-0.0-0.96","5e3d425fd8f8ff11d5002a94","619531dcf66c91622fa1b861","61959611df6303eaf8a23da8","null","","null","","","","","main_T1_ITI","","","","",""
"","","","","","visual-search-circle","207","856651","0.0-14.0-0.0-1.96","5e3d425fd8f8ff11d5002a94","619531dcf66c91622fa1b861","61959611df6303eaf8a23da8","1561.0999999642372","","d","true","[[589,222],[377,10],[87,87],[10,377],[222,589],[512,512]]","true","6","main_T2_Trial","d","img/Fire_Up_Target.gif","[""img/Fire_Down_Distractor.gif"",""img/Fire_Down_Distractor.gif"",""img/Fire_Down_Distractor.gif"",""img/Fire_Down_Distractor.gif"",""img/Fire_Down_Distractor.gif"",""img/Fire_Down_Distractor.gif"",""img/Fire_Down_Distractor.gif"",""img/Fire_Down_Distractor.gif"",""img/Fire_Down_Distractor.gif"",""img/Fire_Down_Distractor.gif"",""img/Fire_Down_Distractor.gif"",""img/Fire_Down_Distractor.gif""]","6","targetUp_distractorsDown"
"","","","","","html-keyboard-response","208","856654","0.0-14.0-0.0-0.97","5e3d425fd8f8ff11d5002a94","619531dcf66c91622fa1b861","61959611df6303eaf8a23da8","null","","null","","","","","main_T1_ITI","","","","",""
"","","","","","visual-search-circle","209","859388","0.0-14.0-0.0-1.97","5e3d425fd8f8ff11d5002a94","619531dcf66c91622fa1b861","61959611df6303eaf8a23da8","1730.3999999761581","","d","true","[[554,141],[141,45],[45,458],[458,554]]","true","4","main_T2_Trial","d","img/Fire_Down_Target.gif","[""img/Fire_Up_Distractor.gif"",""img/Fire_Up_Distractor.gif"",""img/Fire_Up_Distractor.gif"",""img/Fire_Up_Distractor.gif"",""img/Fire_Up_Distractor.gif"",""img/Fire_Up_Distractor.gif"",""img/Fire_Up_Distractor.gif"",""img/Fire_Up_Distractor.gif"",""img/Fire_Up_Distractor.gif"",""img/Fire_Up_Distractor.gif"",""img/Fire_Up_Distractor.gif"",""img/Fire_Up_Distractor.gif""]","4","targetDown_distractorsUp"
"","","","","","html-keyboard-response","210","859390","0.0-14.0-0.0-0.98","5e3d425fd8f8ff11d5002a94","619531dcf66c91622fa1b861","61959611df6303eaf8a23da8","null","","null","","","","","main_T1_ITI","","","","",""
"","","","","","visual-search-circle","211","863398","0.0-14.0-0.0-1.98","5e3d425fd8f8ff11d5002a94","619531dcf66c91622fa1b861","61959611df6303eaf8a23da8","3004.399999976158","","s","true","[[119,60],[60,480],[480,539],[539,119]]","false","4","main_T2_Trial","s","img/Fire_Up_Target.gif","[""img/Fire_Down_Distractor.gif"",""img/Fire_Down_Distractor.gif"",""img/Fire_Down_Distractor.gif"",""img/Fire_Down_Distractor.gif"",""img/Fire_Down_Distractor.gif"",""img/Fire_Down_Distractor.gif"",""img/Fire_Down_Distractor.gif"",""img/Fire_Down_Distractor.gif"",""img/Fire_Down_Distractor.gif"",""img/Fire_Down_Distractor.gif"",""img/Fire_Down_Distractor.gif"",""img/Fire_Down_Distractor.gif""]","4","targetUp_distractorsDown"
"","","","","","html-keyboard-response","212","865165","0.0-14.0-0.0-0.99","5e3d425fd8f8ff11d5002a94","619531dcf66c91622fa1b861","61959611df6303eaf8a23da8","1766.6000000238419","Wow! You've completed 100 out of 160 trials! </p> <p>  </p><p> Take a quick break, then press any key when you're ready to continue."," ","","","","","main_T1_ITI","","","","",""
"","","","","","visual-search-circle","213","867290","0.0-14.0-0.0-1.99","5e3d425fd8f8ff11d5002a94","619531dcf66c91622fa1b861","61959611df6303eaf8a23da8","1118.5999999642372","","d","true","[[187,21],[23,182],[21,412],[182,576],[412,578],[576,417],[578,187],[417,23]]","true","8","main_T2_Trial","d","img/Fire_Down_Target.gif","[""img/Fire_Up_Distractor.gif"",""img/Fire_Up_Distractor.gif"",""img/Fire_Up_Distractor.gif"",""img/Fire_Up_Distractor.gif"",""img/Fire_Up_Distractor.gif"",""img/Fire_Up_Distractor.gif"",""img/Fire_Up_Distractor.gif"",""img/Fire_Up_Distractor.gif"",""img/Fire_Up_Distractor.gif"",""img/Fire_Up_Distractor.gif"",""img/Fire_Up_Distractor.gif"",""img/Fire_Up_Distractor.gif""]","8","targetDown_distractorsUp"
"","","","","","html-keyboard-response","214","867299","0.0-14.0-0.0-0.100","5e3d425fd8f8ff11d5002a94","619531dcf66c91622fa1b861","61959611df6303eaf8a23da8","null","","null","","","","","main_T1_ITI","","","","",""
"","","","","","visual-search-circle","215","871590","0.0-14.0-0.0-1.100","5e3d425fd8f8ff11d5002a94","619531dcf66c91622fa1b861","61959611df6303eaf8a23da8","3285.900000035763","","d","true","[[597,258],[412,21],[115,63],[2,341],[187,578],[484,536]]","true","6","main_T2_Trial","d","img/Fire_Down_Target.gif","[""img/Fire_Up_Distractor.gif"",""img/Fire_Up_Distractor.gif"",""img/Fire_Up_Distractor.gif"",""img/Fire_Up_Distractor.gif"",""img/Fire_Up_Distractor.gif"",""img/Fire_Up_Distractor.gif"",""img/Fire_Up_Distractor.gif"",""img/Fire_Up_Distractor.gif"",""img/Fire_Up_Distractor.gif"",""img/Fire_Up_Distractor.gif"",""img/Fire_Up_Distractor.gif"",""img/Fire_Up_Distractor.gif""]","6","targetDown_distractorsUp"
"","","","","","html-keyboard-response","216","871598","0.0-14.0-0.0-0.101","5e3d425fd8f8ff11d5002a94","619531dcf66c91622fa1b861","61959611df6303eaf8a23da8","null","","null","","","","","main_T1_ITI","","","","",""
