"success","timeout","failed_images","failed_audio","failed_video","trial_type","trial_index","time_elapsed","internal_node_id","subject_id","study_id","session_id","rt","stimulus","response","correct","locations","target_present","set_size","task","correct_response","target","foilCM","setSizeCM","searchCondition"
"true","false","[]","[]","[]","preload","0","135273","0.0-0.0","5e5edbe9c0bc8621b5c2f7da","619531dcf66c91622fa1b861","61959747cd3e5b6fd9c6b885","","","","","","","","","","","","",""
"true","","","","","fullscreen","1","208204","0.0-1.0","5e5edbe9c0bc8621b5c2f7da","619531dcf66c91622fa1b861","61959747cd3e5b6fd9c6b885","","","","","","","","","","","","",""
"","","","","","html-keyboard-response","2","215056","0.0-2.0","5e5edbe9c0bc8621b5c2f7da","619531dcf66c91622fa1b861","61959747cd3e5b6fd9c6b885","6849","What a beautiful Thursday to do some awesome science! </p> <p>  </p><p> </p>
    By completing this survey or questionnaire, you are consenting to be in this research study. </p>
    Your participation is voluntary and you can stop at any time.
    <p> [Press any key to continue.] </p>
    
    ","arrowright","","","","","","","","","",""
"","","","","","video-keyboard-response","3","234321","0.0-3.0","5e5edbe9c0bc8621b5c2f7da","619531dcf66c91622fa1b861","61959747cd3e5b6fd9c6b885","19260.20000000298","[""video/TaskInstructions.mp4""]","d","","","","","","","","","",""
"","","","","","html-keyboard-response","4","237029","0.0-4.0","5e5edbe9c0bc8621b5c2f7da","619531dcf66c91622fa1b861","61959747cd3e5b6fd9c6b885","2706.699999988079","
    <p>First, we're going to do a few practice trials to make sure you understand the task. You will recieve feedback on each trial. </p>
    <p>[Press any key to begin the familiarization phase.]</p>
    ","s","","","","","","","","","",""
"","","","","","visual-search-circle","5","239664","0.0-5.0-0.0","5e5edbe9c0bc8621b5c2f7da","619531dcf66c91622fa1b861","61959747cd3e5b6fd9c6b885","1572.0999999940395","","d","true","[[57,123],[123,542],[542,476],[476,57]]","true","4","training","d","","","",""
"","","","","","html-keyboard-response","6","243815","0.0-6.0","5e5edbe9c0bc8621b5c2f7da","619531dcf66c91622fa1b861","61959747cd3e5b6fd9c6b885","4149.9000000059605"," <div style='float: center; '><img src='img/feedbackRight.png'></img> </div> ","d","","","","","","","","","",""
"","","","","","visual-search-circle","7","246245","0.0-7.0-0.0","5e5edbe9c0bc8621b5c2f7da","619531dcf66c91622fa1b861","61959747cd3e5b6fd9c6b885","1408.7000000029802","","s","true","[[40,150],[149,559],[559,450],[449,40]]","false","4","training","s","","","",""
"","","","","","html-keyboard-response","8","247217","0.0-8.0","5e5edbe9c0bc8621b5c2f7da","619531dcf66c91622fa1b861","61959747cd3e5b6fd9c6b885","970.5"," <div style='float: center; '><img src='img/feedbackRight.png'></img> </div> ","s","","","","","","","","","",""
"","","","","","visual-search-circle","9","250261","0.0-9.0-0.0","5e5edbe9c0bc8621b5c2f7da","619531dcf66c91622fa1b861","61959747cd3e5b6fd9c6b885","2027.199999988079","","s","true","[[119,539],[417,576],[597,336],[480,60],[182,23],[2,263]]","false","6","training","s","","","",""
"","","","","","html-keyboard-response","10","250995","0.0-10.0","5e5edbe9c0bc8621b5c2f7da","619531dcf66c91622fa1b861","61959747cd3e5b6fd9c6b885","733.2000000029802"," <div style='float: center; '><img src='img/feedbackRight.png'></img> </div> ","s","","","","","","","","","",""
"","","","","","visual-search-circle","11","253138","0.0-11.0-0.0","5e5edbe9c0bc8621b5c2f7da","619531dcf66c91622fa1b861","61959747cd3e5b6fd9c6b885","1129.4000000059605","","d","true","[[2,258],[60,480],[258,597],[480,539],[597,341],[539,119],[341,2],[119,60]]","true","8","training","d","","","",""
"","","","","","html-keyboard-response","12","253723","0.0-12.0","5e5edbe9c0bc8621b5c2f7da","619531dcf66c91622fa1b861","61959747cd3e5b6fd9c6b885","584.7000000029802"," <div style='float: center; '><img src='img/feedbackRight.png'></img> </div> ","d","","","","","","","","","",""
"","","","","","video-keyboard-response","13","255141","0.0-13.0","5e5edbe9c0bc8621b5c2f7da","619531dcf66c91622fa1b861","61959747cd3e5b6fd9c6b885","1414.0999999940395","[""video/endTraining.mp4""]","d","","","","","","","","","",""
"","","","","","html-keyboard-response","14","255144","0.0-14.0-0.0-0.0","5e5edbe9c0bc8621b5c2f7da","619531dcf66c91622fa1b861","61959747cd3e5b6fd9c6b885","null","","null","","","","","main_T1_ITI","","","","",""
"","","","","","visual-search-circle","15","257827","0.0-14.0-0.0-1.0","5e5edbe9c0bc8621b5c2f7da","619531dcf66c91622fa1b861","61959747cd3e5b6fd9c6b885","1662.5999999940395","","s","true","[[352,4],[70,107],[18,402],[247,595],[529,492],[581,197]]","false","6","main_T2_Trial","s","img/Fire_Up_Target.gif","[""img/Fire_Down_Distractor.gif"",""img/Fire_Down_Distractor.gif"",""img/Fire_Down_Distractor.gif"",""img/Fire_Down_Distractor.gif"",""img/Fire_Down_Distractor.gif"",""img/Fire_Down_Distractor.gif"",""img/Fire_Down_Distractor.gif"",""img/Fire_Down_Distractor.gif"",""img/Fire_Down_Distractor.gif"",""img/Fire_Down_Distractor.gif"",""img/Fire_Down_Distractor.gif"",""img/Fire_Down_Distractor.gif""]","6","targetUp_distractorsDown"
"","","","","","html-keyboard-response","16","257829","0.0-14.0-0.0-0.1","5e5edbe9c0bc8621b5c2f7da","619531dcf66c91622fa1b861","61959747cd3e5b6fd9c6b885","null","","null","","","","","main_T1_ITI","","","","",""
"","","","","","visual-search-circle","17","261278","0.0-14.0-0.0-1.1","5e5edbe9c0bc8621b5c2f7da","619531dcf66c91622fa1b861","61959747cd3e5b6fd9c6b885","2439.7000000029802","","s","true","[[40,450],[222,589],[450,559],[589,377],[559,150],[377,10],[150,40],[10,222]]","false","8","main_T2_Trial","s","img/Fire_Down_Target.gif","[""img/Fire_Up_Distractor.gif"",""img/Fire_Up_Distractor.gif"",""img/Fire_Up_Distractor.gif"",""img/Fire_Up_Distractor.gif"",""img/Fire_Up_Distractor.gif"",""img/Fire_Up_Distractor.gif"",""img/Fire_Up_Distractor.gif"",""img/Fire_Up_Distractor.gif"",""img/Fire_Up_Distractor.gif"",""img/Fire_Up_Distractor.gif"",""img/Fire_Up_Distractor.gif"",""img/Fire_Up_Distractor.gif""]","8","targetDown_distractorsUp"
"","","","","","html-keyboard-response","18","261281","0.0-14.0-0.0-0.2","5e5edbe9c0bc8621b5c2f7da","619531dcf66c91622fa1b861","61959747cd3e5b6fd9c6b885","null","","null","","","","","main_T1_ITI","","","","",""
"","","","","","visual-search-circle","19","263377","0.0-14.0-0.0-1.2","5e5edbe9c0bc8621b5c2f7da","619531dcf66c91622fa1b861","61959747cd3e5b6fd9c6b885","1086.7000000029802","","d","true","[[372,591],[557,454],[591,227],[454,42],[227,8],[42,145],[8,372],[145,557]]","true","8","main_T2_Trial","d","img/Fire_Up_Target.gif","[""img/Fire_Down_Distractor.gif"",""img/Fire_Down_Distractor.gif"",""img/Fire_Down_Distractor.gif"",""img/Fire_Down_Distractor.gif"",""img/Fire_Down_Distractor.gif"",""img/Fire_Down_Distractor.gif"",""img/Fire_Down_Distractor.gif"",""img/Fire_Down_Distractor.gif"",""img/Fire_Down_Distractor.gif"",""img/Fire_Down_Distractor.gif"",""img/Fire_Down_Distractor.gif"",""img/Fire_Down_Distractor.gif""]","8","targetUp_distractorsDown"
"","","","","","html-keyboard-response","20","263386","0.0-14.0-0.0-0.3","5e5edbe9c0bc8621b5c2f7da","619531dcf66c91622fa1b861","61959747cd3e5b6fd9c6b885","null","","null","","","","","main_T1_ITI","","","","",""
"","","","","","visual-search-circle","21","265905","0.0-14.0-0.0-1.3","5e5edbe9c0bc8621b5c2f7da","619531dcf66c91622fa1b861","61959747cd3e5b6fd9c6b885","1513.7999999970198","","s","true","[[536,484],[484,63],[63,115],[115,536]]","false","4","main_T2_Trial","s","img/Fire_Down_Target.gif","[""img/Fire_Up_Distractor.gif"",""img/Fire_Up_Distractor.gif"",""img/Fire_Up_Distractor.gif"",""img/Fire_Up_Distractor.gif"",""img/Fire_Up_Distractor.gif"",""img/Fire_Up_Distractor.gif"",""img/Fire_Up_Distractor.gif"",""img/Fire_Up_Distractor.gif"",""img/Fire_Up_Distractor.gif"",""img/Fire_Up_Distractor.gif"",""img/Fire_Up_Distractor.gif"",""img/Fire_Up_Distractor.gif""]","4","targetDown_distractorsUp"
"","","","","","html-keyboard-response","22","265907","0.0-14.0-0.0-0.4","5e5edbe9c0bc8621b5c2f7da","619531dcf66c91622fa1b861","61959747cd3e5b6fd9c6b885","null","","null","","","","","main_T1_ITI","","","","",""
"","","","","","visual-search-circle","23","268567","0.0-14.0-0.0-1.4","5e5edbe9c0bc8621b5c2f7da","619531dcf66c91622fa1b861","61959747cd3e5b6fd9c6b885","1646.5","","d","true","[[227,8],[8,372],[372,591],[591,227]]","true","4","main_T2_Trial","d","img/Fire_Up_Target.gif","[""img/Fire_Down_Distractor.gif"",""img/Fire_Down_Distractor.gif"",""img/Fire_Down_Distractor.gif"",""img/Fire_Down_Distractor.gif"",""img/Fire_Down_Distractor.gif"",""img/Fire_Down_Distractor.gif"",""img/Fire_Down_Distractor.gif"",""img/Fire_Down_Distractor.gif"",""img/Fire_Down_Distractor.gif"",""img/Fire_Down_Distractor.gif"",""img/Fire_Down_Distractor.gif"",""img/Fire_Down_Distractor.gif""]","4","targetUp_distractorsDown"
"","","","","","html-keyboard-response","24","268569","0.0-14.0-0.0-0.5","5e5edbe9c0bc8621b5c2f7da","619531dcf66c91622fa1b861","61959747cd3e5b6fd9c6b885","null","","null","","","","","main_T1_ITI","","","","",""
"","","","","","visual-search-circle","25","273095","0.0-14.0-0.0-1.5","5e5edbe9c0bc8621b5c2f7da","619531dcf66c91622fa1b861","61959747cd3e5b6fd9c6b885","3501.0999999940395","","s","true","[[367,7],[141,45],[7,232],[45,458],[232,592],[458,554],[592,367],[554,141]]","false","8","main_T2_Trial","s","img/Fire_Down_Target.gif","[""img/Fire_Up_Distractor.gif"",""img/Fire_Up_Distractor.gif"",""img/Fire_Up_Distractor.gif"",""img/Fire_Up_Distractor.gif"",""img/Fire_Up_Distractor.gif"",""img/Fire_Up_Distractor.gif"",""img/Fire_Up_Distractor.gif"",""img/Fire_Up_Distractor.gif"",""img/Fire_Up_Distractor.gif"",""img/Fire_Up_Distractor.gif"",""img/Fire_Up_Distractor.gif"",""img/Fire_Up_Distractor.gif""]","8","targetDown_distractorsUp"
"","","","","","html-keyboard-response","26","273097","0.0-14.0-0.0-0.6","5e5edbe9c0bc8621b5c2f7da","619531dcf66c91622fa1b861","61959747cd3e5b6fd9c6b885","null","","null","","","","","main_T1_ITI","","","","",""
"","","","","","visual-search-circle","27","275870","0.0-14.0-0.0-1.6","5e5edbe9c0bc8621b5c2f7da","619531dcf66c91622fa1b861","61959747cd3e5b6fd9c6b885","1757.6000000089407","","d","true","[[132,51],[5,242],[51,467],[242,594],[467,548],[594,357],[548,132],[357,5]]","true","8","main_T2_Trial","d","img/Fire_Down_Target.gif","[""img/Fire_Up_Distractor.gif"",""img/Fire_Up_Distractor.gif"",""img/Fire_Up_Distractor.gif"",""img/Fire_Up_Distractor.gif"",""img/Fire_Up_Distractor.gif"",""img/Fire_Up_Distractor.gif"",""img/Fire_Up_Distractor.gif"",""img/Fire_Up_Distractor.gif"",""img/Fire_Up_Distractor.gif"",""img/Fire_Up_Distractor.gif"",""img/Fire_Up_Distractor.gif"",""img/Fire_Up_Distractor.gif""]","8","targetDown_distractorsUp"
"","","","","","html-keyboard-response","28","275876","0.0-14.0-0.0-0.7","5e5edbe9c0bc8621b5c2f7da","619531dcf66c91622fa1b861","61959747cd3e5b6fd9c6b885","null","","null","","","","","main_T1_ITI","","","","",""
"","","","","","visual-search-circle","29","279009","0.0-14.0-0.0-1.7","5e5edbe9c0bc8621b5c2f7da","619531dcf66c91622fa1b861","61959747cd3e5b6fd9c6b885","2104.2000000029802","","s","false","[[512,87],[266,1],[45,140],[16,399],[200,583],[459,554],[598,333]]","true","7","main_T2_Trial","d","img/Fire_Up_Target.gif","[""img/Fire_Down_Distractor.gif"",""img/Fire_Down_Distractor.gif"",""img/Fire_Down_Distractor.gif"",""img/Fire_Down_Distractor.gif"",""img/Fire_Down_Distractor.gif"",""img/Fire_Down_Distractor.gif"",""img/Fire_Down_Distractor.gif"",""img/Fire_Down_Distractor.gif"",""img/Fire_Down_Distractor.gif"",""img/Fire_Down_Distractor.gif"",""img/Fire_Down_Distractor.gif"",""img/Fire_Down_Distractor.gif""]","7","targetUp_distractorsDown"
"","","","","","html-keyboard-response","30","279012","0.0-14.0-0.0-0.8","5e5edbe9c0bc8621b5c2f7da","619531dcf66c91622fa1b861","61959747cd3e5b6fd9c6b885","null","","null","","","","","main_T1_ITI","","","","",""
"","","","","","visual-search-circle","31","282014","0.0-14.0-0.0-1.8","5e5edbe9c0bc8621b5c2f7da","619531dcf66c91622fa1b861","61959747cd3e5b6fd9c6b885","1983.5","","d","true","[[551,463],[567,163],[315,0],[48,136],[32,436],[284,599]]","true","6","main_T2_Trial","d","img/Fire_Down_Target.gif","[""img/Fire_Up_Distractor.gif"",""img/Fire_Up_Distractor.gif"",""img/Fire_Up_Distractor.gif"",""img/Fire_Up_Distractor.gif"",""img/Fire_Up_Distractor.gif"",""img/Fire_Up_Distractor.gif"",""img/Fire_Up_Distractor.gif"",""img/Fire_Up_Distractor.gif"",""img/Fire_Up_Distractor.gif"",""img/Fire_Up_Distractor.gif"",""img/Fire_Up_Distractor.gif"",""img/Fire_Up_Distractor.gif""]","6","targetDown_distractorsUp"
"","","","","","html-keyboard-response","32","282016","0.0-14.0-0.0-0.9","5e5edbe9c0bc8621b5c2f7da","619531dcf66c91622fa1b861","61959747cd3e5b6fd9c6b885","null","","null","","","","","main_T1_ITI","","","","",""
"","","","","","visual-search-circle","33","284538","0.0-14.0-0.0-1.9","5e5edbe9c0bc8621b5c2f7da","619531dcf66c91622fa1b861","61959747cd3e5b6fd9c6b885","1507.800000011921","","d","true","[[60,480],[397,583],[599,294],[387,13],[54,127]]","true","5","main_T2_Trial","d","img/Fire_Up_Target.gif","[""img/Fire_Down_Distractor.gif"",""img/Fire_Down_Distractor.gif"",""img/Fire_Down_Distractor.gif"",""img/Fire_Down_Distractor.gif"",""img/Fire_Down_Distractor.gif"",""img/Fire_Down_Distractor.gif"",""img/Fire_Down_Distractor.gif"",""img/Fire_Down_Distractor.gif"",""img/Fire_Down_Distractor.gif"",""img/Fire_Down_Distractor.gif"",""img/Fire_Down_Distractor.gif"",""img/Fire_Down_Distractor.gif""]","5","targetUp_distractorsDown"
"","","","","","html-keyboard-response","34","284551","0.0-14.0-0.0-0.10","5e5edbe9c0bc8621b5c2f7da","619531dcf66c91622fa1b861","61959747cd3e5b6fd9c6b885","null","","null","","","","","main_T1_ITI","","","","",""
"","","","","","visual-search-circle","35","286742","0.0-14.0-0.0-1.10","5e5edbe9c0bc8621b5c2f7da","619531dcf66c91622fa1b861","61959747cd3e5b6fd9c6b885","1169.199999988079","","s","true","[[450,40],[190,20],[13,211],[52,468],[277,599],[519,504],[596,255]]","false","7","main_T2_Trial","s","img/Fire_Up_Target.gif","[""img/Fire_Down_Distractor.gif"",""img/Fire_Down_Distractor.gif"",""img/Fire_Down_Distractor.gif"",""img/Fire_Down_Distractor.gif"",""img/Fire_Down_Distractor.gif"",""img/Fire_Down_Distractor.gif"",""img/Fire_Down_Distractor.gif"",""img/Fire_Down_Distractor.gif"",""img/Fire_Down_Distractor.gif"",""img/Fire_Down_Distractor.gif"",""img/Fire_Down_Distractor.gif"",""img/Fire_Down_Distractor.gif""]","7","targetUp_distractorsDown"
"","","","","","html-keyboard-response","36","286747","0.0-14.0-0.0-0.11","5e5edbe9c0bc8621b5c2f7da","619531dcf66c91622fa1b861","61959747cd3e5b6fd9c6b885","null","","null","","","","","main_T1_ITI","","","","",""
"","","","","","visual-search-circle","37","288851","0.0-14.0-0.0-1.11","5e5edbe9c0bc8621b5c2f7da","619531dcf66c91622fa1b861","61959747cd3e5b6fd9c6b885","1090","","s","true","[[48,463],[270,598],[515,508],[597,261],[455,43],[196,18],[15,205]]","false","7","main_T2_Trial","s","img/Fire_Up_Target.gif","[""img/Fire_Down_Distractor.gif"",""img/Fire_Down_Distractor.gif"",""img/Fire_Down_Distractor.gif"",""img/Fire_Down_Distractor.gif"",""img/Fire_Down_Distractor.gif"",""img/Fire_Down_Distractor.gif"",""img/Fire_Down_Distractor.gif"",""img/Fire_Down_Distractor.gif"",""img/Fire_Down_Distractor.gif"",""img/Fire_Down_Distractor.gif"",""img/Fire_Down_Distractor.gif"",""img/Fire_Down_Distractor.gif""]","7","targetUp_distractorsDown"
"","","","","","html-keyboard-response","38","288853","0.0-14.0-0.0-0.12","5e5edbe9c0bc8621b5c2f7da","619531dcf66c91622fa1b861","61959747cd3e5b6fd9c6b885","null","","null","","","","","main_T1_ITI","","","","",""
"","","","","","visual-search-circle","39","291322","0.0-14.0-0.0-1.12","5e5edbe9c0bc8621b5c2f7da","619531dcf66c91622fa1b861","61959747cd3e5b6fd9c6b885","1449.1000000089407","","s","true","[[422,25],[77,99],[40,450],[362,593],[598,331]]","false","5","main_T2_Trial","s","img/Fire_Down_Target.gif","[""img/Fire_Up_Distractor.gif"",""img/Fire_Up_Distractor.gif"",""img/Fire_Up_Distractor.gif"",""img/Fire_Up_Distractor.gif"",""img/Fire_Up_Distractor.gif"",""img/Fire_Up_Distractor.gif"",""img/Fire_Up_Distractor.gif"",""img/Fire_Up_Distractor.gif"",""img/Fire_Up_Distractor.gif"",""img/Fire_Up_Distractor.gif"",""img/Fire_Up_Distractor.gif"",""img/Fire_Up_Distractor.gif""]","5","targetDown_distractorsUp"
"","","","","","html-keyboard-response","40","291324","0.0-14.0-0.0-0.13","5e5edbe9c0bc8621b5c2f7da","619531dcf66c91622fa1b861","61959747cd3e5b6fd9c6b885","null","","null","","","","","main_T1_ITI","","","","",""
"","","","","","visual-search-circle","41","296255","0.0-14.0-0.0-1.13","5e5edbe9c0bc8621b5c2f7da","619531dcf66c91622fa1b861","61959747cd3e5b6fd9c6b885","3915.7999999970198","","s","true","[[70,492],[352,595],[581,402],[529,107],[247,4],[18,197]]","false","6","main_T2_Trial","s","img/Fire_Down_Target.gif","[""img/Fire_Up_Distractor.gif"",""img/Fire_Up_Distractor.gif"",""img/Fire_Up_Distractor.gif"",""img/Fire_Up_Distractor.gif"",""img/Fire_Up_Distractor.gif"",""img/Fire_Up_Distractor.gif"",""img/Fire_Up_Distractor.gif"",""img/Fire_Up_Distractor.gif"",""img/Fire_Up_Distractor.gif"",""img/Fire_Up_Distractor.gif"",""img/Fire_Up_Distractor.gif"",""img/Fire_Up_Distractor.gif""]","6","targetDown_distractorsUp"
"","","","","","html-keyboard-response","42","296257","0.0-14.0-0.0-0.14","5e5edbe9c0bc8621b5c2f7da","619531dcf66c91622fa1b861","61959747cd3e5b6fd9c6b885","null","","null","","","","","main_T1_ITI","","","","",""
"","","","","","visual-search-circle","43","301155","0.0-14.0-0.0-1.14","5e5edbe9c0bc8621b5c2f7da","619531dcf66c91622fa1b861","61959747cd3e5b6fd9c6b885","3877.5","","d","false","[[377,589],[599,315],[407,19],[66,111],[48,463]]","false","5","main_T2_Trial","s","img/Fire_Up_Target.gif","[""img/Fire_Down_Distractor.gif"",""img/Fire_Down_Distractor.gif"",""img/Fire_Down_Distractor.gif"",""img/Fire_Down_Distractor.gif"",""img/Fire_Down_Distractor.gif"",""img/Fire_Down_Distractor.gif"",""img/Fire_Down_Distractor.gif"",""img/Fire_Down_Distractor.gif"",""img/Fire_Down_Distractor.gif"",""img/Fire_Down_Distractor.gif"",""img/Fire_Down_Distractor.gif"",""img/Fire_Down_Distractor.gif""]","5","targetUp_distractorsDown"
"","","","","","html-keyboard-response","44","301158","0.0-14.0-0.0-0.15","5e5edbe9c0bc8621b5c2f7da","619531dcf66c91622fa1b861","61959747cd3e5b6fd9c6b885","null","","null","","","","","main_T1_ITI","","","","",""
"","","","","","visual-search-circle","45","303437","0.0-14.0-0.0-1.15","5e5edbe9c0bc8621b5c2f7da","619531dcf66c91622fa1b861","61959747cd3e5b6fd9c6b885","1272.9000000059605","","d","true","[[57,476],[476,542],[542,123],[123,57]]","true","4","main_T2_Trial","d","img/Fire_Down_Target.gif","[""img/Fire_Up_Distractor.gif"",""img/Fire_Up_Distractor.gif"",""img/Fire_Up_Distractor.gif"",""img/Fire_Up_Distractor.gif"",""img/Fire_Up_Distractor.gif"",""img/Fire_Up_Distractor.gif"",""img/Fire_Up_Distractor.gif"",""img/Fire_Up_Distractor.gif"",""img/Fire_Up_Distractor.gif"",""img/Fire_Up_Distractor.gif"",""img/Fire_Up_Distractor.gif"",""img/Fire_Up_Distractor.gif""]","4","targetDown_distractorsUp"
"","","","","","html-keyboard-response","46","303439","0.0-14.0-0.0-0.16","5e5edbe9c0bc8621b5c2f7da","619531dcf66c91622fa1b861","61959747cd3e5b6fd9c6b885","null","","null","","","","","main_T1_ITI","","","","",""
"","","","","","visual-search-circle","47","305352","0.0-14.0-0.0-1.16","5e5edbe9c0bc8621b5c2f7da","619531dcf66c91622fa1b861","61959747cd3e5b6fd9c6b885","907.9000000059605","","s","true","[[28,173],[18,402],[173,571],[402,581],[571,426],[581,197],[426,28],[197,18]]","false","8","main_T2_Trial","s","img/Fire_Down_Target.gif","[""img/Fire_Up_Distractor.gif"",""img/Fire_Up_Distractor.gif"",""img/Fire_Up_Distractor.gif"",""img/Fire_Up_Distractor.gif"",""img/Fire_Up_Distractor.gif"",""img/Fire_Up_Distractor.gif"",""img/Fire_Up_Distractor.gif"",""img/Fire_Up_Distractor.gif"",""img/Fire_Up_Distractor.gif"",""img/Fire_Up_Distractor.gif"",""img/Fire_Up_Distractor.gif"",""img/Fire_Up_Distractor.gif""]","8","targetDown_distractorsUp"
"","","","","","html-keyboard-response","48","305355","0.0-14.0-0.0-0.17","5e5edbe9c0bc8621b5c2f7da","619531dcf66c91622fa1b861","61959747cd3e5b6fd9c6b885","null","","null","","","","","main_T1_ITI","","","","",""
"","","","","","visual-search-circle","49","308525","0.0-14.0-0.0-1.17","5e5edbe9c0bc8621b5c2f7da","619531dcf66c91622fa1b861","61959747cd3e5b6fd9c6b885","2159.300000011921","","s","true","[[598,331],[533,111],[331,1],[111,66],[1,268],[66,488],[268,598],[488,533]]","false","8","main_T2_Trial","s","img/Fire_Down_Target.gif","[""img/Fire_Up_Distractor.gif"",""img/Fire_Up_Distractor.gif"",""img/Fire_Up_Distractor.gif"",""img/Fire_Up_Distractor.gif"",""img/Fire_Up_Distractor.gif"",""img/Fire_Up_Distractor.gif"",""img/Fire_Up_Distractor.gif"",""img/Fire_Up_Distractor.gif"",""img/Fire_Up_Distractor.gif"",""img/Fire_Up_Distractor.gif"",""img/Fire_Up_Distractor.gif"",""img/Fire_Up_Distractor.gif""]","8","targetDown_distractorsUp"
"","","","","","html-keyboard-response","50","308527","0.0-14.0-0.0-0.18","5e5edbe9c0bc8621b5c2f7da","619531dcf66c91622fa1b861","61959747cd3e5b6fd9c6b885","null","","null","","","","","main_T1_ITI","","","","",""
"","","","","","visual-search-circle","51","312014","0.0-14.0-0.0-1.18","5e5edbe9c0bc8621b5c2f7da","619531dcf66c91622fa1b861","61959747cd3e5b6fd9c6b885","2469.5","","d","false","[[488,533],[580,192],[284,0],[10,222],[136,551]]","false","5","main_T2_Trial","s","img/Fire_Up_Target.gif","[""img/Fire_Down_Distractor.gif"",""img/Fire_Down_Distractor.gif"",""img/Fire_Down_Distractor.gif"",""img/Fire_Down_Distractor.gif"",""img/Fire_Down_Distractor.gif"",""img/Fire_Down_Distractor.gif"",""img/Fire_Down_Distractor.gif"",""img/Fire_Down_Distractor.gif"",""img/Fire_Down_Distractor.gif"",""img/Fire_Down_Distractor.gif"",""img/Fire_Down_Distractor.gif"",""img/Fire_Down_Distractor.gif""]","5","targetUp_distractorsDown"
"","","","","","html-keyboard-response","52","317419","0.0-14.0-0.0-0.19","5e5edbe9c0bc8621b5c2f7da","619531dcf66c91622fa1b861","61959747cd3e5b6fd9c6b885","5404.79999999702","Wow! You've completed 20 out of 160 trials! </p> <p>  </p><p> Take a quick break, then press any key when you're ready to continue.","s","","","","","main_T1_ITI","","","","",""
"","","","","","visual-search-circle","53","319440","0.0-14.0-0.0-1.19","5e5edbe9c0bc8621b5c2f7da","619531dcf66c91622fa1b861","61959747cd3e5b6fd9c6b885","1009","","d","true","[[57,476],[331,598],[574,422],[542,123],[268,1],[25,177]]","true","6","main_T2_Trial","d","img/Fire_Up_Target.gif","[""img/Fire_Down_Distractor.gif"",""img/Fire_Down_Distractor.gif"",""img/Fire_Down_Distractor.gif"",""img/Fire_Down_Distractor.gif"",""img/Fire_Down_Distractor.gif"",""img/Fire_Down_Distractor.gif"",""img/Fire_Down_Distractor.gif"",""img/Fire_Down_Distractor.gif"",""img/Fire_Down_Distractor.gif"",""img/Fire_Down_Distractor.gif"",""img/Fire_Down_Distractor.gif"",""img/Fire_Down_Distractor.gif""]","6","targetUp_distractorsDown"
"","","","","","html-keyboard-response","54","319443","0.0-14.0-0.0-0.20","5e5edbe9c0bc8621b5c2f7da","619531dcf66c91622fa1b861","61959747cd3e5b6fd9c6b885","null","","null","","","","","main_T1_ITI","","","","",""
"","","","","","visual-search-circle","55","321523","0.0-14.0-0.0-1.20","5e5edbe9c0bc8621b5c2f7da","619531dcf66c91622fa1b861","61959747cd3e5b6fd9c6b885","1067.5999999940395","","d","true","[[585,207],[362,6],[77,99],[14,392],[237,593],[522,500]]","true","6","main_T2_Trial","d","img/Fire_Down_Target.gif","[""img/Fire_Up_Distractor.gif"",""img/Fire_Up_Distractor.gif"",""img/Fire_Up_Distractor.gif"",""img/Fire_Up_Distractor.gif"",""img/Fire_Up_Distractor.gif"",""img/Fire_Up_Distractor.gif"",""img/Fire_Up_Distractor.gif"",""img/Fire_Up_Distractor.gif"",""img/Fire_Up_Distractor.gif"",""img/Fire_Up_Distractor.gif"",""img/Fire_Up_Distractor.gif"",""img/Fire_Up_Distractor.gif""]","6","targetDown_distractorsUp"
"","","","","","html-keyboard-response","56","321525","0.0-14.0-0.0-0.21","5e5edbe9c0bc8621b5c2f7da","619531dcf66c91622fa1b861","61959747cd3e5b6fd9c6b885","null","","null","","","","","main_T1_ITI","","","","",""
"","","","","","visual-search-circle","57","324235","0.0-14.0-0.0-1.21","5e5edbe9c0bc8621b5c2f7da","619531dcf66c91622fa1b861","61959747cd3e5b6fd9c6b885","1689.5","","s","true","[[45,141],[35,440],[289,599],[554,458],[564,159],[310,0]]","false","6","main_T2_Trial","s","img/Fire_Down_Target.gif","[""img/Fire_Up_Distractor.gif"",""img/Fire_Up_Distractor.gif"",""img/Fire_Up_Distractor.gif"",""img/Fire_Up_Distractor.gif"",""img/Fire_Up_Distractor.gif"",""img/Fire_Up_Distractor.gif"",""img/Fire_Up_Distractor.gif"",""img/Fire_Up_Distractor.gif"",""img/Fire_Up_Distractor.gif"",""img/Fire_Up_Distractor.gif"",""img/Fire_Up_Distractor.gif"",""img/Fire_Up_Distractor.gif""]","6","targetDown_distractorsUp"
"","","","","","html-keyboard-response","58","324238","0.0-14.0-0.0-0.22","5e5edbe9c0bc8621b5c2f7da","619531dcf66c91622fa1b861","61959747cd3e5b6fd9c6b885","null","","null","","","","","main_T1_ITI","","","","",""
"","","","","","visual-search-circle","59","325613","0.0-14.0-0.0-1.22","5e5edbe9c0bc8621b5c2f7da","619531dcf66c91622fa1b861","61959747cd3e5b6fd9c6b885","362.40000000596046","","d","false","[[103,526],[354,595],[564,441],[575,181],[379,10],[123,57],[0,287]]","false","7","main_T2_Trial","s","img/Fire_Up_Target.gif","[""img/Fire_Down_Distractor.gif"",""img/Fire_Down_Distractor.gif"",""img/Fire_Down_Distractor.gif"",""img/Fire_Down_Distractor.gif"",""img/Fire_Down_Distractor.gif"",""img/Fire_Down_Distractor.gif"",""img/Fire_Down_Distractor.gif"",""img/Fire_Down_Distractor.gif"",""img/Fire_Down_Distractor.gif"",""img/Fire_Down_Distractor.gif"",""img/Fire_Down_Distractor.gif"",""img/Fire_Down_Distractor.gif""]","7","targetUp_distractorsDown"
"","","","","","html-keyboard-response","60","325615","0.0-14.0-0.0-0.23","5e5edbe9c0bc8621b5c2f7da","619531dcf66c91622fa1b861","61959747cd3e5b6fd9c6b885","null","","null","","","","","main_T1_ITI","","","","",""
"","","","","","visual-search-circle","61","327440","0.0-14.0-0.0-1.23","5e5edbe9c0bc8621b5c2f7da","619531dcf66c91622fa1b861","61959747cd3e5b6fd9c6b885","814.8999999910593","","s","true","[[0,284],[136,551],[436,567],[599,315],[463,48],[163,32]]","false","6","main_T2_Trial","s","img/Fire_Down_Target.gif","[""img/Fire_Up_Distractor.gif"",""img/Fire_Up_Distractor.gif"",""img/Fire_Up_Distractor.gif"",""img/Fire_Up_Distractor.gif"",""img/Fire_Up_Distractor.gif"",""img/Fire_Up_Distractor.gif"",""img/Fire_Up_Distractor.gif"",""img/Fire_Up_Distractor.gif"",""img/Fire_Up_Distractor.gif"",""img/Fire_Up_Distractor.gif"",""img/Fire_Up_Distractor.gif"",""img/Fire_Up_Distractor.gif""]","6","targetDown_distractorsUp"
"","","","","","html-keyboard-response","62","327442","0.0-14.0-0.0-0.24","5e5edbe9c0bc8621b5c2f7da","619531dcf66c91622fa1b861","61959747cd3e5b6fd9c6b885","null","","null","","","","","main_T1_ITI","","","","",""
"","","","","","visual-search-circle","63","329507","0.0-14.0-0.0-1.24","5e5edbe9c0bc8621b5c2f7da","619531dcf66c91622fa1b861","61959747cd3e5b6fd9c6b885","1035","","d","true","[[2,341],[119,539],[341,597],[539,480],[597,258],[480,60],[258,2],[60,119]]","true","8","main_T2_Trial","d","img/Fire_Up_Target.gif","[""img/Fire_Down_Distractor.gif"",""img/Fire_Down_Distractor.gif"",""img/Fire_Down_Distractor.gif"",""img/Fire_Down_Distractor.gif"",""img/Fire_Down_Distractor.gif"",""img/Fire_Down_Distractor.gif"",""img/Fire_Down_Distractor.gif"",""img/Fire_Down_Distractor.gif"",""img/Fire_Down_Distractor.gif"",""img/Fire_Down_Distractor.gif"",""img/Fire_Down_Distractor.gif"",""img/Fire_Down_Distractor.gif""]","8","targetUp_distractorsDown"
"","","","","","html-keyboard-response","64","329509","0.0-14.0-0.0-0.25","5e5edbe9c0bc8621b5c2f7da","619531dcf66c91622fa1b861","61959747cd3e5b6fd9c6b885","null","","null","","","","","main_T1_ITI","","","","",""
"","","","","","visual-search-circle","65","331155","0.0-14.0-0.0-1.25","5e5edbe9c0bc8621b5c2f7da","619531dcf66c91622fa1b861","61959747cd3e5b6fd9c6b885","626.8999999910593","","s","true","[[548,132],[279,0],[30,168],[51,467],[320,599],[569,431]]","false","6","main_T2_Trial","s","img/Fire_Up_Target.gif","[""img/Fire_Down_Distractor.gif"",""img/Fire_Down_Distractor.gif"",""img/Fire_Down_Distractor.gif"",""img/Fire_Down_Distractor.gif"",""img/Fire_Down_Distractor.gif"",""img/Fire_Down_Distractor.gif"",""img/Fire_Down_Distractor.gif"",""img/Fire_Down_Distractor.gif"",""img/Fire_Down_Distractor.gif"",""img/Fire_Down_Distractor.gif"",""img/Fire_Down_Distractor.gif"",""img/Fire_Down_Distractor.gif""]","6","targetUp_distractorsDown"
"","","","","","html-keyboard-response","66","331157","0.0-14.0-0.0-0.26","5e5edbe9c0bc8621b5c2f7da","619531dcf66c91622fa1b861","61959747cd3e5b6fd9c6b885","null","","null","","","","","main_T1_ITI","","","","",""
"","","","","","visual-search-circle","67","333320","0.0-14.0-0.0-1.26","5e5edbe9c0bc8621b5c2f7da","619531dcf66c91622fa1b861","61959747cd3e5b6fd9c6b885","1144.5999999940395","","s","true","[[40,450],[450,559],[559,150],[150,40]]","false","4","main_T2_Trial","s","img/Fire_Down_Target.gif","[""img/Fire_Up_Distractor.gif"",""img/Fire_Up_Distractor.gif"",""img/Fire_Up_Distractor.gif"",""img/Fire_Up_Distractor.gif"",""img/Fire_Up_Distractor.gif"",""img/Fire_Up_Distractor.gif"",""img/Fire_Up_Distractor.gif"",""img/Fire_Up_Distractor.gif"",""img/Fire_Up_Distractor.gif"",""img/Fire_Up_Distractor.gif"",""img/Fire_Up_Distractor.gif"",""img/Fire_Up_Distractor.gif""]","4","targetDown_distractorsUp"
"","","","","","html-keyboard-response","68","333323","0.0-14.0-0.0-0.27","5e5edbe9c0bc8621b5c2f7da","619531dcf66c91622fa1b861","61959747cd3e5b6fd9c6b885","null","","null","","","","","main_T1_ITI","","","","",""
"","","","","","visual-search-circle","69","335091","0.0-14.0-0.0-1.27","5e5edbe9c0bc8621b5c2f7da","619531dcf66c91622fa1b861","61959747cd3e5b6fd9c6b885","760.3999999910593","","s","true","[[217,588],[588,382],[382,11],[11,217]]","false","4","main_T2_Trial","s","img/Fire_Up_Target.gif","[""img/Fire_Down_Distractor.gif"",""img/Fire_Down_Distractor.gif"",""img/Fire_Down_Distractor.gif"",""img/Fire_Down_Distractor.gif"",""img/Fire_Down_Distractor.gif"",""img/Fire_Down_Distractor.gif"",""img/Fire_Down_Distractor.gif"",""img/Fire_Down_Distractor.gif"",""img/Fire_Down_Distractor.gif"",""img/Fire_Down_Distractor.gif"",""img/Fire_Down_Distractor.gif"",""img/Fire_Down_Distractor.gif""]","4","targetUp_distractorsDown"
"","","","","","html-keyboard-response","70","335094","0.0-14.0-0.0-0.28","5e5edbe9c0bc8621b5c2f7da","619531dcf66c91622fa1b861","61959747cd3e5b6fd9c6b885","null","","null","","","","","main_T1_ITI","","","","",""
"","","","","","visual-search-circle","71","336627","0.0-14.0-0.0-1.28","5e5edbe9c0bc8621b5c2f7da","619531dcf66c91622fa1b861","61959747cd3e5b6fd9c6b885","523.2999999970198","","d","false","[[0,284],[100,524],[351,595],[563,444],[576,184],[381,11],[125,55]]","false","7","main_T2_Trial","s","img/Fire_Down_Target.gif","[""img/Fire_Up_Distractor.gif"",""img/Fire_Up_Distractor.gif"",""img/Fire_Up_Distractor.gif"",""img/Fire_Up_Distractor.gif"",""img/Fire_Up_Distractor.gif"",""img/Fire_Up_Distractor.gif"",""img/Fire_Up_Distractor.gif"",""img/Fire_Up_Distractor.gif"",""img/Fire_Up_Distractor.gif"",""img/Fire_Up_Distractor.gif"",""img/Fire_Up_Distractor.gif"",""img/Fire_Up_Distractor.gif""]","7","targetDown_distractorsUp"
"","","","","","html-keyboard-response","72","336637","0.0-14.0-0.0-0.29","5e5edbe9c0bc8621b5c2f7da","619531dcf66c91622fa1b861","61959747cd3e5b6fd9c6b885","null","","null","","","","","main_T1_ITI","","","","",""
"","","","","","visual-search-circle","73","338835","0.0-14.0-0.0-1.29","5e5edbe9c0bc8621b5c2f7da","619531dcf66c91622fa1b861","61959747cd3e5b6fd9c6b885","1188.6000000089407","","s","true","[[436,567],[567,163],[163,32],[32,436]]","false","4","main_T2_Trial","s","img/Fire_Up_Target.gif","[""img/Fire_Down_Distractor.gif"",""img/Fire_Down_Distractor.gif"",""img/Fire_Down_Distractor.gif"",""img/Fire_Down_Distractor.gif"",""img/Fire_Down_Distractor.gif"",""img/Fire_Down_Distractor.gif"",""img/Fire_Down_Distractor.gif"",""img/Fire_Down_Distractor.gif"",""img/Fire_Down_Distractor.gif"",""img/Fire_Down_Distractor.gif"",""img/Fire_Down_Distractor.gif"",""img/Fire_Down_Distractor.gif""]","4","targetUp_distractorsDown"
"","","","","","html-keyboard-response","74","338837","0.0-14.0-0.0-0.30","5e5edbe9c0bc8621b5c2f7da","619531dcf66c91622fa1b861","61959747cd3e5b6fd9c6b885","null","","null","","","","","main_T1_ITI","","","","",""
"","","","","","visual-search-circle","75","340552","0.0-14.0-0.0-1.30","5e5edbe9c0bc8621b5c2f7da","619531dcf66c91622fa1b861","61959747cd3e5b6fd9c6b885","693.5","","s","true","[[576,417],[539,119],[263,2],[23,182],[60,480],[336,597]]","false","6","main_T2_Trial","s","img/Fire_Up_Target.gif","[""img/Fire_Down_Distractor.gif"",""img/Fire_Down_Distractor.gif"",""img/Fire_Down_Distractor.gif"",""img/Fire_Down_Distractor.gif"",""img/Fire_Down_Distractor.gif"",""img/Fire_Down_Distractor.gif"",""img/Fire_Down_Distractor.gif"",""img/Fire_Down_Distractor.gif"",""img/Fire_Down_Distractor.gif"",""img/Fire_Down_Distractor.gif"",""img/Fire_Down_Distractor.gif"",""img/Fire_Down_Distractor.gif""]","6","targetUp_distractorsDown"
"","","","","","html-keyboard-response","76","340554","0.0-14.0-0.0-0.31","5e5edbe9c0bc8621b5c2f7da","619531dcf66c91622fa1b861","61959747cd3e5b6fd9c6b885","null","","null","","","","","main_T1_ITI","","","","",""
"","","","","","visual-search-circle","77","342234","0.0-14.0-0.0-1.31","5e5edbe9c0bc8621b5c2f7da","619531dcf66c91622fa1b861","61959747cd3e5b6fd9c6b885","664.8999999910593","","d","true","[[54,472],[281,599],[522,501],[596,251],[446,38],[186,22],[12,215]]","true","7","main_T2_Trial","d","img/Fire_Down_Target.gif","[""img/Fire_Up_Distractor.gif"",""img/Fire_Up_Distractor.gif"",""img/Fire_Up_Distractor.gif"",""img/Fire_Up_Distractor.gif"",""img/Fire_Up_Distractor.gif"",""img/Fire_Up_Distractor.gif"",""img/Fire_Up_Distractor.gif"",""img/Fire_Up_Distractor.gif"",""img/Fire_Up_Distractor.gif"",""img/Fire_Up_Distractor.gif"",""img/Fire_Up_Distractor.gif"",""img/Fire_Up_Distractor.gif""]","7","targetDown_distractorsUp"
"","","","","","html-keyboard-response","78","342237","0.0-14.0-0.0-0.32","5e5edbe9c0bc8621b5c2f7da","619531dcf66c91622fa1b861","61959747cd3e5b6fd9c6b885","null","","null","","","","","main_T1_ITI","","","","",""
"","","","","","visual-search-circle","79","344013","0.0-14.0-0.0-1.32","5e5edbe9c0bc8621b5c2f7da","619531dcf66c91622fa1b861","61959747cd3e5b6fd9c6b885","758","","d","false","[[299,600],[585,392],[476,57],[123,57],[14,392]]","false","5","main_T2_Trial","s","img/Fire_Up_Target.gif","[""img/Fire_Down_Distractor.gif"",""img/Fire_Down_Distractor.gif"",""img/Fire_Down_Distractor.gif"",""img/Fire_Down_Distractor.gif"",""img/Fire_Down_Distractor.gif"",""img/Fire_Down_Distractor.gif"",""img/Fire_Down_Distractor.gif"",""img/Fire_Down_Distractor.gif"",""img/Fire_Down_Distractor.gif"",""img/Fire_Down_Distractor.gif"",""img/Fire_Down_Distractor.gif"",""img/Fire_Down_Distractor.gif""]","5","targetUp_distractorsDown"
"","","","","","html-keyboard-response","80","344016","0.0-14.0-0.0-0.33","5e5edbe9c0bc8621b5c2f7da","619531dcf66c91622fa1b861","61959747cd3e5b6fd9c6b885","null","","null","","","","","main_T1_ITI","","","","",""
"","","","","","visual-search-circle","81","346993","0.0-14.0-0.0-1.33","5e5edbe9c0bc8621b5c2f7da","619531dcf66c91622fa1b861","61959747cd3e5b6fd9c6b885","1958.9000000059605","","s","true","[[526,103],[287,0],[57,123],[10,379],[181,575],[441,564],[595,354]]","false","7","main_T2_Trial","s","img/Fire_Down_Target.gif","[""img/Fire_Up_Distractor.gif"",""img/Fire_Up_Distractor.gif"",""img/Fire_Up_Distractor.gif"",""img/Fire_Up_Distractor.gif"",""img/Fire_Up_Distractor.gif"",""img/Fire_Up_Distractor.gif"",""img/Fire_Up_Distractor.gif"",""img/Fire_Up_Distractor.gif"",""img/Fire_Up_Distractor.gif"",""img/Fire_Up_Distractor.gif"",""img/Fire_Up_Distractor.gif"",""img/Fire_Up_Distractor.gif""]","7","targetDown_distractorsUp"
"","","","","","html-keyboard-response","82","346995","0.0-14.0-0.0-0.34","5e5edbe9c0bc8621b5c2f7da","619531dcf66c91622fa1b861","61959747cd3e5b6fd9c6b885","null","","null","","","","","main_T1_ITI","","","","",""
"","","","","","visual-search-circle","83","349283","0.0-14.0-0.0-1.34","5e5edbe9c0bc8621b5c2f7da","619531dcf66c91622fa1b861","61959747cd3e5b6fd9c6b885","1274","","d","false","[[11,382],[184,577],[444,562],[595,350],[523,100],[283,0],[55,126]]","false","7","main_T2_Trial","s","img/Fire_Down_Target.gif","[""img/Fire_Up_Distractor.gif"",""img/Fire_Up_Distractor.gif"",""img/Fire_Up_Distractor.gif"",""img/Fire_Up_Distractor.gif"",""img/Fire_Up_Distractor.gif"",""img/Fire_Up_Distractor.gif"",""img/Fire_Up_Distractor.gif"",""img/Fire_Up_Distractor.gif"",""img/Fire_Up_Distractor.gif"",""img/Fire_Up_Distractor.gif"",""img/Fire_Up_Distractor.gif"",""img/Fire_Up_Distractor.gif""]","7","targetDown_distractorsUp"
"","","","","","html-keyboard-response","84","349285","0.0-14.0-0.0-0.35","5e5edbe9c0bc8621b5c2f7da","619531dcf66c91622fa1b861","61959747cd3e5b6fd9c6b885","null","","null","","","","","main_T1_ITI","","","","",""
"","","","","","visual-search-circle","85","351561","0.0-14.0-0.0-1.35","5e5edbe9c0bc8621b5c2f7da","619531dcf66c91622fa1b861","61959747cd3e5b6fd9c6b885","1254.8999999910593","","d","true","[[599,294],[294,0],[0,305],[305,599]]","true","4","main_T2_Trial","d","img/Fire_Up_Target.gif","[""img/Fire_Down_Distractor.gif"",""img/Fire_Down_Distractor.gif"",""img/Fire_Down_Distractor.gif"",""img/Fire_Down_Distractor.gif"",""img/Fire_Down_Distractor.gif"",""img/Fire_Down_Distractor.gif"",""img/Fire_Down_Distractor.gif"",""img/Fire_Down_Distractor.gif"",""img/Fire_Down_Distractor.gif"",""img/Fire_Down_Distractor.gif"",""img/Fire_Down_Distractor.gif"",""img/Fire_Down_Distractor.gif""]","4","targetUp_distractorsDown"
"","","","","","html-keyboard-response","86","351563","0.0-14.0-0.0-0.36","5e5edbe9c0bc8621b5c2f7da","619531dcf66c91622fa1b861","61959747cd3e5b6fd9c6b885","null","","null","","","","","main_T1_ITI","","","","",""
"","","","","","visual-search-circle","87","353580","0.0-14.0-0.0-1.36","5e5edbe9c0bc8621b5c2f7da","619531dcf66c91622fa1b861","61959747cd3e5b6fd9c6b885","998.6000000089407","","d","true","[[103,526],[526,496],[496,73],[73,103]]","true","4","main_T2_Trial","d","img/Fire_Up_Target.gif","[""img/Fire_Down_Distractor.gif"",""img/Fire_Down_Distractor.gif"",""img/Fire_Down_Distractor.gif"",""img/Fire_Down_Distractor.gif"",""img/Fire_Down_Distractor.gif"",""img/Fire_Down_Distractor.gif"",""img/Fire_Down_Distractor.gif"",""img/Fire_Down_Distractor.gif"",""img/Fire_Down_Distractor.gif"",""img/Fire_Down_Distractor.gif"",""img/Fire_Down_Distractor.gif"",""img/Fire_Down_Distractor.gif""]","4","targetUp_distractorsDown"
"","","","","","html-keyboard-response","88","353582","0.0-14.0-0.0-0.37","5e5edbe9c0bc8621b5c2f7da","619531dcf66c91622fa1b861","61959747cd3e5b6fd9c6b885","null","","null","","","","","main_T1_ITI","","","","",""
"","","","","","visual-search-circle","89","355444","0.0-14.0-0.0-1.37","5e5edbe9c0bc8621b5c2f7da","619531dcf66c91622fa1b861","61959747cd3e5b6fd9c6b885","844.2000000029802","","d","false","[[197,18],[4,247],[107,529],[402,581],[595,352],[492,70]]","false","6","main_T2_Trial","s","img/Fire_Up_Target.gif","[""img/Fire_Down_Distractor.gif"",""img/Fire_Down_Distractor.gif"",""img/Fire_Down_Distractor.gif"",""img/Fire_Down_Distractor.gif"",""img/Fire_Down_Distractor.gif"",""img/Fire_Down_Distractor.gif"",""img/Fire_Down_Distractor.gif"",""img/Fire_Down_Distractor.gif"",""img/Fire_Down_Distractor.gif"",""img/Fire_Down_Distractor.gif"",""img/Fire_Down_Distractor.gif"",""img/Fire_Down_Distractor.gif""]","6","targetUp_distractorsDown"
"","","","","","html-keyboard-response","90","355446","0.0-14.0-0.0-0.38","5e5edbe9c0bc8621b5c2f7da","619531dcf66c91622fa1b861","61959747cd3e5b6fd9c6b885","null","","null","","","","","main_T1_ITI","","","","",""
"","","","","","visual-search-circle","91","366966","0.0-14.0-0.0-1.38","5e5edbe9c0bc8621b5c2f7da","619531dcf66c91622fa1b861","61959747cd3e5b6fd9c6b885","10502.09999999404","","d","false","[[417,23],[187,21],[23,182],[21,412],[182,576],[412,578],[576,417],[578,187]]","false","8","main_T2_Trial","s","img/Fire_Up_Target.gif","[""img/Fire_Down_Distractor.gif"",""img/Fire_Down_Distractor.gif"",""img/Fire_Down_Distractor.gif"",""img/Fire_Down_Distractor.gif"",""img/Fire_Down_Distractor.gif"",""img/Fire_Down_Distractor.gif"",""img/Fire_Down_Distractor.gif"",""img/Fire_Down_Distractor.gif"",""img/Fire_Down_Distractor.gif"",""img/Fire_Down_Distractor.gif"",""img/Fire_Down_Distractor.gif"",""img/Fire_Down_Distractor.gif""]","8","targetUp_distractorsDown"
"","","","","","html-keyboard-response","92","370479","0.0-14.0-0.0-0.39","5e5edbe9c0bc8621b5c2f7da","619531dcf66c91622fa1b861","61959747cd3e5b6fd9c6b885","3512.7999999970198","Wow! You've completed 40 out of 160 trials! </p> <p>  </p><p> Take a quick break, then press any key when you're ready to continue.","s","","","","","main_T1_ITI","","","","",""
"","","","","","visual-search-circle","93","372515","0.0-14.0-0.0-1.39","5e5edbe9c0bc8621b5c2f7da","619531dcf66c91622fa1b861","61959747cd3e5b6fd9c6b885","1021.0999999940395","","s","true","[[554,458],[564,159],[310,0],[45,141],[35,440],[289,599]]","false","6","main_T2_Trial","s","img/Fire_Down_Target.gif","[""img/Fire_Up_Distractor.gif"",""img/Fire_Up_Distractor.gif"",""img/Fire_Up_Distractor.gif"",""img/Fire_Up_Distractor.gif"",""img/Fire_Up_Distractor.gif"",""img/Fire_Up_Distractor.gif"",""img/Fire_Up_Distractor.gif"",""img/Fire_Up_Distractor.gif"",""img/Fire_Up_Distractor.gif"",""img/Fire_Up_Distractor.gif"",""img/Fire_Up_Distractor.gif"",""img/Fire_Up_Distractor.gif""]","6","targetDown_distractorsUp"
"","","","","","html-keyboard-response","94","372517","0.0-14.0-0.0-0.40","5e5edbe9c0bc8621b5c2f7da","619531dcf66c91622fa1b861","61959747cd3e5b6fd9c6b885","null","","null","","","","","main_T1_ITI","","","","",""
"","","","","","visual-search-circle","95","374861","0.0-14.0-0.0-1.40","5e5edbe9c0bc8621b5c2f7da","619531dcf66c91622fa1b861","61959747cd3e5b6fd9c6b885","1329.9000000059605","","d","false","[[382,588],[599,310],[402,18],[63,115],[51,467]]","false","5","main_T2_Trial","s","img/Fire_Up_Target.gif","[""img/Fire_Down_Distractor.gif"",""img/Fire_Down_Distractor.gif"",""img/Fire_Down_Distractor.gif"",""img/Fire_Down_Distractor.gif"",""img/Fire_Down_Distractor.gif"",""img/Fire_Down_Distractor.gif"",""img/Fire_Down_Distractor.gif"",""img/Fire_Down_Distractor.gif"",""img/Fire_Down_Distractor.gif"",""img/Fire_Down_Distractor.gif"",""img/Fire_Down_Distractor.gif"",""img/Fire_Down_Distractor.gif""]","5","targetUp_distractorsDown"
"","","","","","html-keyboard-response","96","374863","0.0-14.0-0.0-0.41","5e5edbe9c0bc8621b5c2f7da","619531dcf66c91622fa1b861","61959747cd3e5b6fd9c6b885","null","","null","","","","","main_T1_ITI","","","","",""
"","","","","","visual-search-circle","97","376673","0.0-14.0-0.0-1.41","5e5edbe9c0bc8621b5c2f7da","619531dcf66c91622fa1b861","61959747cd3e5b6fd9c6b885","800.2999999970198","","d","true","[[310,0],[95,80],[0,289],[80,504],[289,599],[504,519],[599,310],[519,95]]","true","8","main_T2_Trial","d","img/Fire_Up_Target.gif","[""img/Fire_Down_Distractor.gif"",""img/Fire_Down_Distractor.gif"",""img/Fire_Down_Distractor.gif"",""img/Fire_Down_Distractor.gif"",""img/Fire_Down_Distractor.gif"",""img/Fire_Down_Distractor.gif"",""img/Fire_Down_Distractor.gif"",""img/Fire_Down_Distractor.gif"",""img/Fire_Down_Distractor.gif"",""img/Fire_Down_Distractor.gif"",""img/Fire_Down_Distractor.gif"",""img/Fire_Down_Distractor.gif""]","8","targetUp_distractorsDown"
"","","","","","html-keyboard-response","98","376676","0.0-14.0-0.0-0.42","5e5edbe9c0bc8621b5c2f7da","619531dcf66c91622fa1b861","61959747cd3e5b6fd9c6b885","null","","null","","","","","main_T1_ITI","","","","",""
"","","","","","visual-search-circle","99","378452","0.0-14.0-0.0-1.42","5e5edbe9c0bc8621b5c2f7da","619531dcf66c91622fa1b861","61959747cd3e5b6fd9c6b885","768","","d","true","[[407,19],[66,111],[48,463],[377,589],[599,315]]","true","5","main_T2_Trial","d","img/Fire_Up_Target.gif","[""img/Fire_Down_Distractor.gif"",""img/Fire_Down_Distractor.gif"",""img/Fire_Down_Distractor.gif"",""img/Fire_Down_Distractor.gif"",""img/Fire_Down_Distractor.gif"",""img/Fire_Down_Distractor.gif"",""img/Fire_Down_Distractor.gif"",""img/Fire_Down_Distractor.gif"",""img/Fire_Down_Distractor.gif"",""img/Fire_Down_Distractor.gif"",""img/Fire_Down_Distractor.gif"",""img/Fire_Down_Distractor.gif""]","5","targetUp_distractorsDown"
"","","","","","html-keyboard-response","100","378454","0.0-14.0-0.0-0.43","5e5edbe9c0bc8621b5c2f7da","619531dcf66c91622fa1b861","61959747cd3e5b6fd9c6b885","null","","null","","","","","main_T1_ITI","","","","",""
"","","","","","visual-search-circle","101","380311","0.0-14.0-0.0-1.43","5e5edbe9c0bc8621b5c2f7da","619531dcf66c91622fa1b861","61959747cd3e5b6fd9c6b885","840.2999999970198","","s","true","[[562,154],[382,11],[154,37],[11,217],[37,445],[217,588],[445,562],[588,382]]","false","8","main_T2_Trial","s","img/Fire_Up_Target.gif","[""img/Fire_Down_Distractor.gif"",""img/Fire_Down_Distractor.gif"",""img/Fire_Down_Distractor.gif"",""img/Fire_Down_Distractor.gif"",""img/Fire_Down_Distractor.gif"",""img/Fire_Down_Distractor.gif"",""img/Fire_Down_Distractor.gif"",""img/Fire_Down_Distractor.gif"",""img/Fire_Down_Distractor.gif"",""img/Fire_Down_Distractor.gif"",""img/Fire_Down_Distractor.gif"",""img/Fire_Down_Distractor.gif""]","8","targetUp_distractorsDown"
"","","","","","html-keyboard-response","102","380313","0.0-14.0-0.0-0.44","5e5edbe9c0bc8621b5c2f7da","619531dcf66c91622fa1b861","61959747cd3e5b6fd9c6b885","null","","null","","","","","main_T1_ITI","","","","",""
"","","","","","visual-search-circle","103","382318","0.0-14.0-0.0-1.44","5e5edbe9c0bc8621b5c2f7da","619531dcf66c91622fa1b861","61959747cd3e5b6fd9c6b885","982.0999999940395","","s","true","[[63,484],[263,597],[484,536],[597,336],[536,115],[336,2],[115,63],[2,263]]","false","8","main_T2_Trial","s","img/Fire_Up_Target.gif","[""img/Fire_Down_Distractor.gif"",""img/Fire_Down_Distractor.gif"",""img/Fire_Down_Distractor.gif"",""img/Fire_Down_Distractor.gif"",""img/Fire_Down_Distractor.gif"",""img/Fire_Down_Distractor.gif"",""img/Fire_Down_Distractor.gif"",""img/Fire_Down_Distractor.gif"",""img/Fire_Down_Distractor.gif"",""img/Fire_Down_Distractor.gif"",""img/Fire_Down_Distractor.gif"",""img/Fire_Down_Distractor.gif""]","8","targetUp_distractorsDown"
"","","","","","html-keyboard-response","104","382321","0.0-14.0-0.0-0.45","5e5edbe9c0bc8621b5c2f7da","619531dcf66c91622fa1b861","61959747cd3e5b6fd9c6b885","null","","null","","","","","main_T1_ITI","","","","",""
"","","","","","visual-search-circle","105","384457","0.0-14.0-0.0-1.45","5e5edbe9c0bc8621b5c2f7da","619531dcf66c91622fa1b861","61959747cd3e5b6fd9c6b885","1119.2000000029802","","d","true","[[522,500],[585,207],[362,6],[77,99],[14,392],[237,593]]","true","6","main_T2_Trial","d","img/Fire_Up_Target.gif","[""img/Fire_Down_Distractor.gif"",""img/Fire_Down_Distractor.gif"",""img/Fire_Down_Distractor.gif"",""img/Fire_Down_Distractor.gif"",""img/Fire_Down_Distractor.gif"",""img/Fire_Down_Distractor.gif"",""img/Fire_Down_Distractor.gif"",""img/Fire_Down_Distractor.gif"",""img/Fire_Down_Distractor.gif"",""img/Fire_Down_Distractor.gif"",""img/Fire_Down_Distractor.gif"",""img/Fire_Down_Distractor.gif""]","6","targetUp_distractorsDown"
"","","","","","html-keyboard-response","106","384459","0.0-14.0-0.0-0.46","5e5edbe9c0bc8621b5c2f7da","619531dcf66c91622fa1b861","61959747cd3e5b6fd9c6b885","null","","null","","","","","main_T1_ITI","","","","",""
"","","","","","visual-search-circle","107","387078","0.0-14.0-0.0-1.46","5e5edbe9c0bc8621b5c2f7da","619531dcf66c91622fa1b861","61959747cd3e5b6fd9c6b885","1602.2999999970198","","s","true","[[132,548],[548,467],[467,51],[51,132]]","false","4","main_T2_Trial","s","img/Fire_Down_Target.gif","[""img/Fire_Up_Distractor.gif"",""img/Fire_Up_Distractor.gif"",""img/Fire_Up_Distractor.gif"",""img/Fire_Up_Distractor.gif"",""img/Fire_Up_Distractor.gif"",""img/Fire_Up_Distractor.gif"",""img/Fire_Up_Distractor.gif"",""img/Fire_Up_Distractor.gif"",""img/Fire_Up_Distractor.gif"",""img/Fire_Up_Distractor.gif"",""img/Fire_Up_Distractor.gif"",""img/Fire_Up_Distractor.gif""]","4","targetDown_distractorsUp"
"","","","","","html-keyboard-response","108","387080","0.0-14.0-0.0-0.47","5e5edbe9c0bc8621b5c2f7da","619531dcf66c91622fa1b861","61959747cd3e5b6fd9c6b885","null","","null","","","","","main_T1_ITI","","","","",""
"","","","","","visual-search-circle","109","390464","0.0-14.0-0.0-1.47","5e5edbe9c0bc8621b5c2f7da","619531dcf66c91622fa1b861","61959747cd3e5b6fd9c6b885","2377.5999999940395","","d","true","[[227,8],[8,372],[372,591],[591,227]]","true","4","main_T2_Trial","d","img/Fire_Up_Target.gif","[""img/Fire_Down_Distractor.gif"",""img/Fire_Down_Distractor.gif"",""img/Fire_Down_Distractor.gif"",""img/Fire_Down_Distractor.gif"",""img/Fire_Down_Distractor.gif"",""img/Fire_Down_Distractor.gif"",""img/Fire_Down_Distractor.gif"",""img/Fire_Down_Distractor.gif"",""img/Fire_Down_Distractor.gif"",""img/Fire_Down_Distractor.gif"",""img/Fire_Down_Distractor.gif"",""img/Fire_Down_Distractor.gif""]","4","targetUp_distractorsDown"
"","","","","","html-keyboard-response","110","390466","0.0-14.0-0.0-0.48","5e5edbe9c0bc8621b5c2f7da","619531dcf66c91622fa1b861","61959747cd3e5b6fd9c6b885","null","","null","","","","","main_T1_ITI","","","","",""
"","","","","","visual-search-circle","111","396223","0.0-14.0-0.0-1.48","5e5edbe9c0bc8621b5c2f7da","619531dcf66c91622fa1b861","61959747cd3e5b6fd9c6b885","4746.0999999940395","","s","true","[[136,551],[551,463],[463,48],[48,136]]","false","4","main_T2_Trial","s","img/Fire_Up_Target.gif","[""img/Fire_Down_Distractor.gif"",""img/Fire_Down_Distractor.gif"",""img/Fire_Down_Distractor.gif"",""img/Fire_Down_Distractor.gif"",""img/Fire_Down_Distractor.gif"",""img/Fire_Down_Distractor.gif"",""img/Fire_Down_Distractor.gif"",""img/Fire_Down_Distractor.gif"",""img/Fire_Down_Distractor.gif"",""img/Fire_Down_Distractor.gif"",""img/Fire_Down_Distractor.gif"",""img/Fire_Down_Distractor.gif""]","4","targetUp_distractorsDown"
"","","","","","html-keyboard-response","112","396226","0.0-14.0-0.0-0.49","5e5edbe9c0bc8621b5c2f7da","619531dcf66c91622fa1b861","61959747cd3e5b6fd9c6b885","null","","null","","","","","main_T1_ITI","","","","",""
"","","","","","visual-search-circle","113","398477","0.0-14.0-0.0-1.49","5e5edbe9c0bc8621b5c2f7da","619531dcf66c91622fa1b861","61959747cd3e5b6fd9c6b885","1231.1000000089407","","d","true","[[242,5],[51,132],[5,357],[132,548],[357,594],[548,467],[594,242],[467,51]]","true","8","main_T2_Trial","d","img/Fire_Up_Target.gif","[""img/Fire_Down_Distractor.gif"",""img/Fire_Down_Distractor.gif"",""img/Fire_Down_Distractor.gif"",""img/Fire_Down_Distractor.gif"",""img/Fire_Down_Distractor.gif"",""img/Fire_Down_Distractor.gif"",""img/Fire_Down_Distractor.gif"",""img/Fire_Down_Distractor.gif"",""img/Fire_Down_Distractor.gif"",""img/Fire_Down_Distractor.gif"",""img/Fire_Down_Distractor.gif"",""img/Fire_Down_Distractor.gif""]","8","targetUp_distractorsDown"
"","","","","","html-keyboard-response","114","398480","0.0-14.0-0.0-0.50","5e5edbe9c0bc8621b5c2f7da","619531dcf66c91622fa1b861","61959747cd3e5b6fd9c6b885","null","","null","","","","","main_T1_ITI","","","","",""
"","","","","","visual-search-circle","115","400331","0.0-14.0-0.0-1.50","5e5edbe9c0bc8621b5c2f7da","619531dcf66c91622fa1b861","61959747cd3e5b6fd9c6b885","847.3000000119209","","s","true","[[346,3],[3,253],[253,596],[596,346]]","false","4","main_T2_Trial","s","img/Fire_Up_Target.gif","[""img/Fire_Down_Distractor.gif"",""img/Fire_Down_Distractor.gif"",""img/Fire_Down_Distractor.gif"",""img/Fire_Down_Distractor.gif"",""img/Fire_Down_Distractor.gif"",""img/Fire_Down_Distractor.gif"",""img/Fire_Down_Distractor.gif"",""img/Fire_Down_Distractor.gif"",""img/Fire_Down_Distractor.gif"",""img/Fire_Down_Distractor.gif"",""img/Fire_Down_Distractor.gif"",""img/Fire_Down_Distractor.gif""]","4","targetUp_distractorsDown"
"","","","","","html-keyboard-response","116","400334","0.0-14.0-0.0-0.51","5e5edbe9c0bc8621b5c2f7da","619531dcf66c91622fa1b861","61959747cd3e5b6fd9c6b885","null","","null","","","","","main_T1_ITI","","","","",""
"","","","","","visual-search-circle","117","402953","0.0-14.0-0.0-1.51","5e5edbe9c0bc8621b5c2f7da","619531dcf66c91622fa1b861","61959747cd3e5b6fd9c6b885","1606.6000000089407","","d","true","[[80,95],[95,519],[519,504],[504,80]]","true","4","main_T2_Trial","d","img/Fire_Down_Target.gif","[""img/Fire_Up_Distractor.gif"",""img/Fire_Up_Distractor.gif"",""img/Fire_Up_Distractor.gif"",""img/Fire_Up_Distractor.gif"",""img/Fire_Up_Distractor.gif"",""img/Fire_Up_Distractor.gif"",""img/Fire_Up_Distractor.gif"",""img/Fire_Up_Distractor.gif"",""img/Fire_Up_Distractor.gif"",""img/Fire_Up_Distractor.gif"",""img/Fire_Up_Distractor.gif"",""img/Fire_Up_Distractor.gif""]","4","targetDown_distractorsUp"
"","","","","","html-keyboard-response","118","402956","0.0-14.0-0.0-0.52","5e5edbe9c0bc8621b5c2f7da","619531dcf66c91622fa1b861","61959747cd3e5b6fd9c6b885","null","","null","","","","","main_T1_ITI","","","","",""
"","","","","","visual-search-circle","119","404716","0.0-14.0-0.0-1.52","5e5edbe9c0bc8621b5c2f7da","619531dcf66c91622fa1b861","61959747cd3e5b6fd9c6b885","745.5999999940395","","s","true","[[145,557],[372,591],[557,454],[591,227],[454,42],[227,8],[42,145],[8,372]]","false","8","main_T2_Trial","s","img/Fire_Up_Target.gif","[""img/Fire_Down_Distractor.gif"",""img/Fire_Down_Distractor.gif"",""img/Fire_Down_Distractor.gif"",""img/Fire_Down_Distractor.gif"",""img/Fire_Down_Distractor.gif"",""img/Fire_Down_Distractor.gif"",""img/Fire_Down_Distractor.gif"",""img/Fire_Down_Distractor.gif"",""img/Fire_Down_Distractor.gif"",""img/Fire_Down_Distractor.gif"",""img/Fire_Down_Distractor.gif"",""img/Fire_Down_Distractor.gif""]","8","targetUp_distractorsDown"
"","","","","","html-keyboard-response","120","404718","0.0-14.0-0.0-0.53","5e5edbe9c0bc8621b5c2f7da","619531dcf66c91622fa1b861","61959747cd3e5b6fd9c6b885","null","","null","","","","","main_T1_ITI","","","","",""
"","","","","","visual-search-circle","121","407545","0.0-14.0-0.0-1.53","5e5edbe9c0bc8621b5c2f7da","619531dcf66c91622fa1b861","61959747cd3e5b6fd9c6b885","1818.0999999940395","","s","true","[[279,599],[578,412],[492,70],[141,45],[8,372]]","false","5","main_T2_Trial","s","img/Fire_Up_Target.gif","[""img/Fire_Down_Distractor.gif"",""img/Fire_Down_Distractor.gif"",""img/Fire_Down_Distractor.gif"",""img/Fire_Down_Distractor.gif"",""img/Fire_Down_Distractor.gif"",""img/Fire_Down_Distractor.gif"",""img/Fire_Down_Distractor.gif"",""img/Fire_Down_Distractor.gif"",""img/Fire_Down_Distractor.gif"",""img/Fire_Down_Distractor.gif"",""img/Fire_Down_Distractor.gif"",""img/Fire_Down_Distractor.gif""]","5","targetUp_distractorsDown"
"","","","","","html-keyboard-response","122","407548","0.0-14.0-0.0-0.54","5e5edbe9c0bc8621b5c2f7da","619531dcf66c91622fa1b861","61959747cd3e5b6fd9c6b885","null","","null","","","","","main_T1_ITI","","","","",""
"","","","","","visual-search-circle","123","413123","0.0-14.0-0.0-1.54","5e5edbe9c0bc8621b5c2f7da","619531dcf66c91622fa1b861","61959747cd3e5b6fd9c6b885","4563.29999999702","","s","false","[[253,3],[3,253],[163,567],[512,512],[567,163]]","true","5","main_T2_Trial","d","img/Fire_Up_Target.gif","[""img/Fire_Down_Distractor.gif"",""img/Fire_Down_Distractor.gif"",""img/Fire_Down_Distractor.gif"",""img/Fire_Down_Distractor.gif"",""img/Fire_Down_Distractor.gif"",""img/Fire_Down_Distractor.gif"",""img/Fire_Down_Distractor.gif"",""img/Fire_Down_Distractor.gif"",""img/Fire_Down_Distractor.gif"",""img/Fire_Down_Distractor.gif"",""img/Fire_Down_Distractor.gif"",""img/Fire_Down_Distractor.gif""]","5","targetUp_distractorsDown"
"","","","","","html-keyboard-response","124","413125","0.0-14.0-0.0-0.55","5e5edbe9c0bc8621b5c2f7da","619531dcf66c91622fa1b861","61959747cd3e5b6fd9c6b885","null","","null","","","","","main_T1_ITI","","","","",""
"","","","","","visual-search-circle","125","416059","0.0-14.0-0.0-1.55","5e5edbe9c0bc8621b5c2f7da","619531dcf66c91622fa1b861","61959747cd3e5b6fd9c6b885","1917.800000011921","","d","false","[[576,417],[496,73],[145,42],[7,367],[273,598]]","false","5","main_T2_Trial","s","img/Fire_Down_Target.gif","[""img/Fire_Up_Distractor.gif"",""img/Fire_Up_Distractor.gif"",""img/Fire_Up_Distractor.gif"",""img/Fire_Up_Distractor.gif"",""img/Fire_Up_Distractor.gif"",""img/Fire_Up_Distractor.gif"",""img/Fire_Up_Distractor.gif"",""img/Fire_Up_Distractor.gif"",""img/Fire_Up_Distractor.gif"",""img/Fire_Up_Distractor.gif"",""img/Fire_Up_Distractor.gif"",""img/Fire_Up_Distractor.gif""]","5","targetDown_distractorsUp"
"","","","","","html-keyboard-response","126","416061","0.0-14.0-0.0-0.56","5e5edbe9c0bc8621b5c2f7da","619531dcf66c91622fa1b861","61959747cd3e5b6fd9c6b885","null","","null","","","","","main_T1_ITI","","","","",""
"","","","","","visual-search-circle","127","418213","0.0-14.0-0.0-1.56","5e5edbe9c0bc8621b5c2f7da","619531dcf66c91622fa1b861","61959747cd3e5b6fd9c6b885","1141.4000000059605","","s","false","[[45,141],[7,367],[141,554],[367,592],[554,458],[592,232],[458,45],[232,7]]","true","8","main_T2_Trial","d","img/Fire_Up_Target.gif","[""img/Fire_Down_Distractor.gif"",""img/Fire_Down_Distractor.gif"",""img/Fire_Down_Distractor.gif"",""img/Fire_Down_Distractor.gif"",""img/Fire_Down_Distractor.gif"",""img/Fire_Down_Distractor.gif"",""img/Fire_Down_Distractor.gif"",""img/Fire_Down_Distractor.gif"",""img/Fire_Down_Distractor.gif"",""img/Fire_Down_Distractor.gif"",""img/Fire_Down_Distractor.gif"",""img/Fire_Down_Distractor.gif""]","8","targetUp_distractorsDown"
"","","","","","html-keyboard-response","128","418216","0.0-14.0-0.0-0.57","5e5edbe9c0bc8621b5c2f7da","619531dcf66c91622fa1b861","61959747cd3e5b6fd9c6b885","null","","null","","","","","main_T1_ITI","","","","",""
"","","","","","visual-search-circle","129","420392","0.0-14.0-0.0-1.57","5e5edbe9c0bc8621b5c2f7da","619531dcf66c91622fa1b861","61959747cd3e5b6fd9c6b885","1165.9000000059605","","d","true","[[522,99],[177,25],[1,331],[237,593],[559,450]]","true","5","main_T2_Trial","d","img/Fire_Up_Target.gif","[""img/Fire_Down_Distractor.gif"",""img/Fire_Down_Distractor.gif"",""img/Fire_Down_Distractor.gif"",""img/Fire_Down_Distractor.gif"",""img/Fire_Down_Distractor.gif"",""img/Fire_Down_Distractor.gif"",""img/Fire_Down_Distractor.gif"",""img/Fire_Down_Distractor.gif"",""img/Fire_Down_Distractor.gif"",""img/Fire_Down_Distractor.gif"",""img/Fire_Down_Distractor.gif"",""img/Fire_Down_Distractor.gif""]","5","targetUp_distractorsDown"
"","","","","","html-keyboard-response","130","420394","0.0-14.0-0.0-0.58","5e5edbe9c0bc8621b5c2f7da","619531dcf66c91622fa1b861","61959747cd3e5b6fd9c6b885","null","","null","","","","","main_T1_ITI","","","","",""
"","","","","","visual-search-circle","131","424955","0.0-14.0-0.0-1.58","5e5edbe9c0bc8621b5c2f7da","619531dcf66c91622fa1b861","61959747cd3e5b6fd9c6b885","3544.1000000089407","","d","true","[[168,569],[515,508],[564,159],[247,4],[2,258]]","true","5","main_T2_Trial","d","img/Fire_Down_Target.gif","[""img/Fire_Up_Distractor.gif"",""img/Fire_Up_Distractor.gif"",""img/Fire_Up_Distractor.gif"",""img/Fire_Up_Distractor.gif"",""img/Fire_Up_Distractor.gif"",""img/Fire_Up_Distractor.gif"",""img/Fire_Up_Distractor.gif"",""img/Fire_Up_Distractor.gif"",""img/Fire_Up_Distractor.gif"",""img/Fire_Up_Distractor.gif"",""img/Fire_Up_Distractor.gif"",""img/Fire_Up_Distractor.gif""]","5","targetDown_distractorsUp"
"","","","","","html-keyboard-response","132","466019","0.0-14.0-0.0-0.59","5e5edbe9c0bc8621b5c2f7da","619531dcf66c91622fa1b861","61959747cd3e5b6fd9c6b885","41063.09999999404","Wow! You've completed 60 out of 160 trials! </p> <p>  </p><p> Take a quick break, then press any key when you're ready to continue.","d","","","","","main_T1_ITI","","","","",""
"","","","","","visual-search-circle","133","468361","0.0-14.0-0.0-1.59","5e5edbe9c0bc8621b5c2f7da","619531dcf66c91622fa1b861","61959747cd3e5b6fd9c6b885","1322.7000000029802","","s","true","[[593,362],[531,109],[295,0],[62,116],[8,371],[173,572],[434,568]]","false","7","main_T2_Trial","s","img/Fire_Down_Target.gif","[""img/Fire_Up_Distractor.gif"",""img/Fire_Up_Distractor.gif"",""img/Fire_Up_Distractor.gif"",""img/Fire_Up_Distractor.gif"",""img/Fire_Up_Distractor.gif"",""img/Fire_Up_Distractor.gif"",""img/Fire_Up_Distractor.gif"",""img/Fire_Up_Distractor.gif"",""img/Fire_Up_Distractor.gif"",""img/Fire_Up_Distractor.gif"",""img/Fire_Up_Distractor.gif"",""img/Fire_Up_Distractor.gif""]","7","targetDown_distractorsUp"
"","","","","","html-keyboard-response","134","468566","0.0-14.0-0.0-0.60","5e5edbe9c0bc8621b5c2f7da","619531dcf66c91622fa1b861","61959747cd3e5b6fd9c6b885","null","","null","","","","","main_T1_ITI","","","","",""
"","","","","","visual-search-circle","135","470365","0.0-14.0-0.0-1.60","5e5edbe9c0bc8621b5c2f7da","619531dcf66c91622fa1b861","61959747cd3e5b6fd9c6b885","782.9000000059605","","d","true","[[559,150],[300,0],[40,150],[40,450],[299,600],[559,450]]","true","6","main_T2_Trial","d","img/Fire_Down_Target.gif","[""img/Fire_Up_Distractor.gif"",""img/Fire_Up_Distractor.gif"",""img/Fire_Up_Distractor.gif"",""img/Fire_Up_Distractor.gif"",""img/Fire_Up_Distractor.gif"",""img/Fire_Up_Distractor.gif"",""img/Fire_Up_Distractor.gif"",""img/Fire_Up_Distractor.gif"",""img/Fire_Up_Distractor.gif"",""img/Fire_Up_Distractor.gif"",""img/Fire_Up_Distractor.gif"",""img/Fire_Up_Distractor.gif""]","6","targetDown_distractorsUp"
"","","","","","html-keyboard-response","136","470367","0.0-14.0-0.0-0.61","5e5edbe9c0bc8621b5c2f7da","619531dcf66c91622fa1b861","61959747cd3e5b6fd9c6b885","null","","null","","","","","main_T1_ITI","","","","",""
"","","","","","visual-search-circle","137","472311","0.0-14.0-0.0-1.61","5e5edbe9c0bc8621b5c2f7da","619531dcf66c91622fa1b861","61959747cd3e5b6fd9c6b885","937.3000000119209","","d","true","[[402,18],[173,28],[18,197],[28,426],[197,581],[426,571],[581,402],[571,173]]","true","8","main_T2_Trial","d","img/Fire_Up_Target.gif","[""img/Fire_Down_Distractor.gif"",""img/Fire_Down_Distractor.gif"",""img/Fire_Down_Distractor.gif"",""img/Fire_Down_Distractor.gif"",""img/Fire_Down_Distractor.gif"",""img/Fire_Down_Distractor.gif"",""img/Fire_Down_Distractor.gif"",""img/Fire_Down_Distractor.gif"",""img/Fire_Down_Distractor.gif"",""img/Fire_Down_Distractor.gif"",""img/Fire_Down_Distractor.gif"",""img/Fire_Down_Distractor.gif""]","8","targetUp_distractorsDown"
"","","","","","html-keyboard-response","138","472313","0.0-14.0-0.0-0.62","5e5edbe9c0bc8621b5c2f7da","619531dcf66c91622fa1b861","61959747cd3e5b6fd9c6b885","null","","null","","","","","main_T1_ITI","","","","",""
"","","","","","visual-search-circle","139","474189","0.0-14.0-0.0-1.62","5e5edbe9c0bc8621b5c2f7da","619531dcf66c91622fa1b861","61959747cd3e5b6fd9c6b885","853.4000000059605","","s","true","[[115,536],[412,578],[597,341],[484,63],[187,21],[2,258]]","false","6","main_T2_Trial","s","img/Fire_Up_Target.gif","[""img/Fire_Down_Distractor.gif"",""img/Fire_Down_Distractor.gif"",""img/Fire_Down_Distractor.gif"",""img/Fire_Down_Distractor.gif"",""img/Fire_Down_Distractor.gif"",""img/Fire_Down_Distractor.gif"",""img/Fire_Down_Distractor.gif"",""img/Fire_Down_Distractor.gif"",""img/Fire_Down_Distractor.gif"",""img/Fire_Down_Distractor.gif"",""img/Fire_Down_Distractor.gif"",""img/Fire_Down_Distractor.gif""]","6","targetUp_distractorsDown"
"","","","","","html-keyboard-response","140","474191","0.0-14.0-0.0-0.63","5e5edbe9c0bc8621b5c2f7da","619531dcf66c91622fa1b861","61959747cd3e5b6fd9c6b885","null","","null","","","","","main_T1_ITI","","","","",""
"","","","","","visual-search-circle","141","476013","0.0-14.0-0.0-1.63","5e5edbe9c0bc8621b5c2f7da","619531dcf66c91622fa1b861","61959747cd3e5b6fd9c6b885","807.4000000059605","","d","true","[[3,253],[78,502],[320,599],[546,470],[587,213],[411,21],[151,39]]","true","7","main_T2_Trial","d","img/Fire_Up_Target.gif","[""img/Fire_Down_Distractor.gif"",""img/Fire_Down_Distractor.gif"",""img/Fire_Down_Distractor.gif"",""img/Fire_Down_Distractor.gif"",""img/Fire_Down_Distractor.gif"",""img/Fire_Down_Distractor.gif"",""img/Fire_Down_Distractor.gif"",""img/Fire_Down_Distractor.gif"",""img/Fire_Down_Distractor.gif"",""img/Fire_Down_Distractor.gif"",""img/Fire_Down_Distractor.gif"",""img/Fire_Down_Distractor.gif""]","7","targetUp_distractorsDown"
"","","","","","html-keyboard-response","142","476015","0.0-14.0-0.0-0.64","5e5edbe9c0bc8621b5c2f7da","619531dcf66c91622fa1b861","61959747cd3e5b6fd9c6b885","null","","null","","","","","main_T1_ITI","","","","",""
"","","","","","visual-search-circle","143","477839","0.0-14.0-0.0-1.64","5e5edbe9c0bc8621b5c2f7da","619531dcf66c91622fa1b861","61959747cd3e5b6fd9c6b885","805.5999999940395","","d","true","[[0,299],[112,534],[366,592],[570,430],[570,169],[366,7],[112,65]]","true","7","main_T2_Trial","d","img/Fire_Down_Target.gif","[""img/Fire_Up_Distractor.gif"",""img/Fire_Up_Distractor.gif"",""img/Fire_Up_Distractor.gif"",""img/Fire_Up_Distractor.gif"",""img/Fire_Up_Distractor.gif"",""img/Fire_Up_Distractor.gif"",""img/Fire_Up_Distractor.gif"",""img/Fire_Up_Distractor.gif"",""img/Fire_Up_Distractor.gif"",""img/Fire_Up_Distractor.gif"",""img/Fire_Up_Distractor.gif"",""img/Fire_Up_Distractor.gif""]","7","targetDown_distractorsUp"
"","","","","","html-keyboard-response","144","477841","0.0-14.0-0.0-0.65","5e5edbe9c0bc8621b5c2f7da","619531dcf66c91622fa1b861","61959747cd3e5b6fd9c6b885","null","","null","","","","","main_T1_ITI","","","","",""
"","","","","","visual-search-circle","145","479807","0.0-14.0-0.0-1.65","5e5edbe9c0bc8621b5c2f7da","619531dcf66c91622fa1b861","61959747cd3e5b6fd9c6b885","962.1000000089407","","d","true","[[73,103],[103,526],[526,496],[496,73]]","true","4","main_T2_Trial","d","img/Fire_Up_Target.gif","[""img/Fire_Down_Distractor.gif"",""img/Fire_Down_Distractor.gif"",""img/Fire_Down_Distractor.gif"",""img/Fire_Down_Distractor.gif"",""img/Fire_Down_Distractor.gif"",""img/Fire_Down_Distractor.gif"",""img/Fire_Down_Distractor.gif"",""img/Fire_Down_Distractor.gif"",""img/Fire_Down_Distractor.gif"",""img/Fire_Down_Distractor.gif"",""img/Fire_Down_Distractor.gif"",""img/Fire_Down_Distractor.gif""]","4","targetUp_distractorsDown"
"","","","","","html-keyboard-response","146","479809","0.0-14.0-0.0-0.66","5e5edbe9c0bc8621b5c2f7da","619531dcf66c91622fa1b861","61959747cd3e5b6fd9c6b885","null","","null","","","","","main_T1_ITI","","","","",""
"","","","","","visual-search-circle","147","482212","0.0-14.0-0.0-1.66","5e5edbe9c0bc8621b5c2f7da","619531dcf66c91622fa1b861","61959747cd3e5b6fd9c6b885","1389.5999999940395","","s","false","[[268,1],[1,331],[331,598],[598,268]]","true","4","main_T2_Trial","d","img/Fire_Down_Target.gif","[""img/Fire_Up_Distractor.gif"",""img/Fire_Up_Distractor.gif"",""img/Fire_Up_Distractor.gif"",""img/Fire_Up_Distractor.gif"",""img/Fire_Up_Distractor.gif"",""img/Fire_Up_Distractor.gif"",""img/Fire_Up_Distractor.gif"",""img/Fire_Up_Distractor.gif"",""img/Fire_Up_Distractor.gif"",""img/Fire_Up_Distractor.gif"",""img/Fire_Up_Distractor.gif"",""img/Fire_Up_Distractor.gif""]","4","targetDown_distractorsUp"
"","","","","","html-keyboard-response","148","482215","0.0-14.0-0.0-0.67","5e5edbe9c0bc8621b5c2f7da","619531dcf66c91622fa1b861","61959747cd3e5b6fd9c6b885","null","","null","","","","","main_T1_ITI","","","","",""
"","","","","","visual-search-circle","149","484004","0.0-14.0-0.0-1.67","5e5edbe9c0bc8621b5c2f7da","619531dcf66c91622fa1b861","61959747cd3e5b6fd9c6b885","757","","s","true","[[562,445],[588,217],[445,37],[217,11],[37,154],[11,382],[154,562],[382,588]]","false","8","main_T2_Trial","s","img/Fire_Down_Target.gif","[""img/Fire_Up_Distractor.gif"",""img/Fire_Up_Distractor.gif"",""img/Fire_Up_Distractor.gif"",""img/Fire_Up_Distractor.gif"",""img/Fire_Up_Distractor.gif"",""img/Fire_Up_Distractor.gif"",""img/Fire_Up_Distractor.gif"",""img/Fire_Up_Distractor.gif"",""img/Fire_Up_Distractor.gif"",""img/Fire_Up_Distractor.gif"",""img/Fire_Up_Distractor.gif"",""img/Fire_Up_Distractor.gif""]","8","targetDown_distractorsUp"
"","","","","","html-keyboard-response","150","484006","0.0-14.0-0.0-0.68","5e5edbe9c0bc8621b5c2f7da","619531dcf66c91622fa1b861","61959747cd3e5b6fd9c6b885","null","","null","","","","","main_T1_ITI","","","","",""
"","","","","","visual-search-circle","151","486047","0.0-14.0-0.0-1.68","5e5edbe9c0bc8621b5c2f7da","619531dcf66c91622fa1b861","61959747cd3e5b6fd9c6b885","1028.7000000029802","","s","true","[[30,431],[202,583],[431,569],[583,397],[569,168],[397,16],[168,30],[16,202]]","false","8","main_T2_Trial","s","img/Fire_Up_Target.gif","[""img/Fire_Down_Distractor.gif"",""img/Fire_Down_Distractor.gif"",""img/Fire_Down_Distractor.gif"",""img/Fire_Down_Distractor.gif"",""img/Fire_Down_Distractor.gif"",""img/Fire_Down_Distractor.gif"",""img/Fire_Down_Distractor.gif"",""img/Fire_Down_Distractor.gif"",""img/Fire_Down_Distractor.gif"",""img/Fire_Down_Distractor.gif"",""img/Fire_Down_Distractor.gif"",""img/Fire_Down_Distractor.gif""]","8","targetUp_distractorsDown"
"","","","","","html-keyboard-response","152","486049","0.0-14.0-0.0-0.69","5e5edbe9c0bc8621b5c2f7da","619531dcf66c91622fa1b861","61959747cd3e5b6fd9c6b885","null","","null","","","","","main_T1_ITI","","","","",""
"","","","","","visual-search-circle","153","487880","0.0-14.0-0.0-1.69","5e5edbe9c0bc8621b5c2f7da","619531dcf66c91622fa1b861","61959747cd3e5b6fd9c6b885","819.5","","d","true","[[95,519],[310,599],[519,504],[599,289],[504,80],[289,0],[80,95],[0,310]]","true","8","main_T2_Trial","d","img/Fire_Up_Target.gif","[""img/Fire_Down_Distractor.gif"",""img/Fire_Down_Distractor.gif"",""img/Fire_Down_Distractor.gif"",""img/Fire_Down_Distractor.gif"",""img/Fire_Down_Distractor.gif"",""img/Fire_Down_Distractor.gif"",""img/Fire_Down_Distractor.gif"",""img/Fire_Down_Distractor.gif"",""img/Fire_Down_Distractor.gif"",""img/Fire_Down_Distractor.gif"",""img/Fire_Down_Distractor.gif"",""img/Fire_Down_Distractor.gif""]","8","targetUp_distractorsDown"
"","","","","","html-keyboard-response","154","487884","0.0-14.0-0.0-0.70","5e5edbe9c0bc8621b5c2f7da","619531dcf66c91622fa1b861","61959747cd3e5b6fd9c6b885","null","","null","","","","","main_T1_ITI","","","","",""
"","","","","","visual-search-circle","155","489689","0.0-14.0-0.0-1.70","5e5edbe9c0bc8621b5c2f7da","619531dcf66c91622fa1b861","61959747cd3e5b6fd9c6b885","776.2000000029802","","s","true","[[91,515],[338,597],[556,455],[581,195],[394,15],[135,48],[1,271]]","false","7","main_T2_Trial","s","img/Fire_Down_Target.gif","[""img/Fire_Up_Distractor.gif"",""img/Fire_Up_Distractor.gif"",""img/Fire_Up_Distractor.gif"",""img/Fire_Up_Distractor.gif"",""img/Fire_Up_Distractor.gif"",""img/Fire_Up_Distractor.gif"",""img/Fire_Up_Distractor.gif"",""img/Fire_Up_Distractor.gif"",""img/Fire_Up_Distractor.gif"",""img/Fire_Up_Distractor.gif"",""img/Fire_Up_Distractor.gif"",""img/Fire_Up_Distractor.gif""]","7","targetDown_distractorsUp"
"","","","","","html-keyboard-response","156","489692","0.0-14.0-0.0-0.71","5e5edbe9c0bc8621b5c2f7da","619531dcf66c91622fa1b861","61959747cd3e5b6fd9c6b885","null","","null","","","","","main_T1_ITI","","","","",""
"","","","","","visual-search-circle","157","491630","0.0-14.0-0.0-1.71","5e5edbe9c0bc8621b5c2f7da","619531dcf66c91622fa1b861","61959747cd3e5b6fd9c6b885","917.3000000119209","","d","true","[[258,597],[506,517],[598,274],[466,50],[208,14],[19,193],[41,452]]","true","7","main_T2_Trial","d","img/Fire_Down_Target.gif","[""img/Fire_Up_Distractor.gif"",""img/Fire_Up_Distractor.gif"",""img/Fire_Up_Distractor.gif"",""img/Fire_Up_Distractor.gif"",""img/Fire_Up_Distractor.gif"",""img/Fire_Up_Distractor.gif"",""img/Fire_Up_Distractor.gif"",""img/Fire_Up_Distractor.gif"",""img/Fire_Up_Distractor.gif"",""img/Fire_Up_Distractor.gif"",""img/Fire_Up_Distractor.gif"",""img/Fire_Up_Distractor.gif""]","7","targetDown_distractorsUp"
"","","","","","html-keyboard-response","158","491633","0.0-14.0-0.0-0.72","5e5edbe9c0bc8621b5c2f7da","619531dcf66c91622fa1b861","61959747cd3e5b6fd9c6b885","null","","null","","","","","main_T1_ITI","","","","",""
"","","","","","visual-search-circle","159","493294","0.0-14.0-0.0-1.72","5e5edbe9c0bc8621b5c2f7da","619531dcf66c91622fa1b861","61959747cd3e5b6fd9c6b885","653.3999999910593","","s","true","[[387,586],[592,367],[504,80],[212,13],[7,232],[95,519]]","false","6","main_T2_Trial","s","img/Fire_Up_Target.gif","[""img/Fire_Down_Distractor.gif"",""img/Fire_Down_Distractor.gif"",""img/Fire_Down_Distractor.gif"",""img/Fire_Down_Distractor.gif"",""img/Fire_Down_Distractor.gif"",""img/Fire_Down_Distractor.gif"",""img/Fire_Down_Distractor.gif"",""img/Fire_Down_Distractor.gif"",""img/Fire_Down_Distractor.gif"",""img/Fire_Down_Distractor.gif"",""img/Fire_Down_Distractor.gif"",""img/Fire_Down_Distractor.gif""]","6","targetUp_distractorsDown"
"","","","","","html-keyboard-response","160","493296","0.0-14.0-0.0-0.73","5e5edbe9c0bc8621b5c2f7da","619531dcf66c91622fa1b861","61959747cd3e5b6fd9c6b885","null","","null","","","","","main_T1_ITI","","","","",""
"","","","","","visual-search-circle","161","495160","0.0-14.0-0.0-1.73","5e5edbe9c0bc8621b5c2f7da","619531dcf66c91622fa1b861","61959747cd3e5b6fd9c6b885","858.1000000089407","","s","true","[[463,48],[48,136],[136,551],[551,463]]","false","4","main_T2_Trial","s","img/Fire_Up_Target.gif","[""img/Fire_Down_Distractor.gif"",""img/Fire_Down_Distractor.gif"",""img/Fire_Down_Distractor.gif"",""img/Fire_Down_Distractor.gif"",""img/Fire_Down_Distractor.gif"",""img/Fire_Down_Distractor.gif"",""img/Fire_Down_Distractor.gif"",""img/Fire_Down_Distractor.gif"",""img/Fire_Down_Distractor.gif"",""img/Fire_Down_Distractor.gif"",""img/Fire_Down_Distractor.gif"",""img/Fire_Down_Distractor.gif""]","4","targetUp_distractorsDown"
"","","","","","html-keyboard-response","162","495166","0.0-14.0-0.0-0.74","5e5edbe9c0bc8621b5c2f7da","619531dcf66c91622fa1b861","61959747cd3e5b6fd9c6b885","null","","null","","","","","main_T1_ITI","","","","",""
"","","","","","visual-search-circle","163","497082","0.0-14.0-0.0-1.74","5e5edbe9c0bc8621b5c2f7da","619531dcf66c91622fa1b861","61959747cd3e5b6fd9c6b885","882.7000000029802","","d","true","[[580,407],[574,177],[407,19],[177,25],[19,192],[25,422],[192,580],[422,574]]","true","8","main_T2_Trial","d","img/Fire_Down_Target.gif","[""img/Fire_Up_Distractor.gif"",""img/Fire_Up_Distractor.gif"",""img/Fire_Up_Distractor.gif"",""img/Fire_Up_Distractor.gif"",""img/Fire_Up_Distractor.gif"",""img/Fire_Up_Distractor.gif"",""img/Fire_Up_Distractor.gif"",""img/Fire_Up_Distractor.gif"",""img/Fire_Up_Distractor.gif"",""img/Fire_Up_Distractor.gif"",""img/Fire_Up_Distractor.gif"",""img/Fire_Up_Distractor.gif""]","8","targetDown_distractorsUp"
"","","","","","html-keyboard-response","164","497085","0.0-14.0-0.0-0.75","5e5edbe9c0bc8621b5c2f7da","619531dcf66c91622fa1b861","61959747cd3e5b6fd9c6b885","null","","null","","","","","main_T1_ITI","","","","",""
"","","","","","visual-search-circle","165","499186","0.0-14.0-0.0-1.75","5e5edbe9c0bc8621b5c2f7da","619531dcf66c91622fa1b861","61959747cd3e5b6fd9c6b885","1080.7999999970198","","s","false","[[488,66],[235,7],[30,167],[28,428],[231,591],[485,535],[599,302]]","true","7","main_T2_Trial","d","img/Fire_Down_Target.gif","[""img/Fire_Up_Distractor.gif"",""img/Fire_Up_Distractor.gif"",""img/Fire_Up_Distractor.gif"",""img/Fire_Up_Distractor.gif"",""img/Fire_Up_Distractor.gif"",""img/Fire_Up_Distractor.gif"",""img/Fire_Up_Distractor.gif"",""img/Fire_Up_Distractor.gif"",""img/Fire_Up_Distractor.gif"",""img/Fire_Up_Distractor.gif"",""img/Fire_Up_Distractor.gif"",""img/Fire_Up_Distractor.gif""]","7","targetDown_distractorsUp"
"","","","","","html-keyboard-response","166","499188","0.0-14.0-0.0-0.76","5e5edbe9c0bc8621b5c2f7da","619531dcf66c91622fa1b861","61959747cd3e5b6fd9c6b885","null","","null","","","","","main_T1_ITI","","","","",""
"","","","","","visual-search-circle","167","500982","0.0-14.0-0.0-1.76","5e5edbe9c0bc8621b5c2f7da","619531dcf66c91622fa1b861","61959747cd3e5b6fd9c6b885","781","","s","true","[[591,227],[382,11],[91,84],[8,372],[217,588],[508,515]]","false","6","main_T2_Trial","s","img/Fire_Down_Target.gif","[""img/Fire_Up_Distractor.gif"",""img/Fire_Up_Distractor.gif"",""img/Fire_Up_Distractor.gif"",""img/Fire_Up_Distractor.gif"",""img/Fire_Up_Distractor.gif"",""img/Fire_Up_Distractor.gif"",""img/Fire_Up_Distractor.gif"",""img/Fire_Up_Distractor.gif"",""img/Fire_Up_Distractor.gif"",""img/Fire_Up_Distractor.gif"",""img/Fire_Up_Distractor.gif"",""img/Fire_Up_Distractor.gif""]","6","targetDown_distractorsUp"
"","","","","","html-keyboard-response","168","500985","0.0-14.0-0.0-0.77","5e5edbe9c0bc8621b5c2f7da","619531dcf66c91622fa1b861","61959747cd3e5b6fd9c6b885","null","","null","","","","","main_T1_ITI","","","","",""
"","","","","","visual-search-circle","169","502670","0.0-14.0-0.0-1.77","5e5edbe9c0bc8621b5c2f7da","619531dcf66c91622fa1b861","61959747cd3e5b6fd9c6b885","678.9000000059605","","s","true","[[95,80],[28,426],[336,597],[594,357],[445,37]]","false","5","main_T2_Trial","s","img/Fire_Down_Target.gif","[""img/Fire_Up_Distractor.gif"",""img/Fire_Up_Distractor.gif"",""img/Fire_Up_Distractor.gif"",""img/Fire_Up_Distractor.gif"",""img/Fire_Up_Distractor.gif"",""img/Fire_Up_Distractor.gif"",""img/Fire_Up_Distractor.gif"",""img/Fire_Up_Distractor.gif"",""img/Fire_Up_Distractor.gif"",""img/Fire_Up_Distractor.gif"",""img/Fire_Up_Distractor.gif"",""img/Fire_Up_Distractor.gif""]","5","targetDown_distractorsUp"
"","","","","","html-keyboard-response","170","502672","0.0-14.0-0.0-0.78","5e5edbe9c0bc8621b5c2f7da","619531dcf66c91622fa1b861","61959747cd3e5b6fd9c6b885","null","","null","","","","","main_T1_ITI","","","","",""
"","","","","","visual-search-circle","171","504589","0.0-14.0-0.0-1.78","5e5edbe9c0bc8621b5c2f7da","619531dcf66c91622fa1b861","61959747cd3e5b6fd9c6b885","900","","d","true","[[594,242],[438,34],[178,25],[9,223],[59,479],[290,599],[528,494]]","true","7","main_T2_Trial","d","img/Fire_Up_Target.gif","[""img/Fire_Down_Distractor.gif"",""img/Fire_Down_Distractor.gif"",""img/Fire_Down_Distractor.gif"",""img/Fire_Down_Distractor.gif"",""img/Fire_Down_Distractor.gif"",""img/Fire_Down_Distractor.gif"",""img/Fire_Down_Distractor.gif"",""img/Fire_Down_Distractor.gif"",""img/Fire_Down_Distractor.gif"",""img/Fire_Down_Distractor.gif"",""img/Fire_Down_Distractor.gif"",""img/Fire_Down_Distractor.gif""]","7","targetUp_distractorsDown"
"","","","","","html-keyboard-response","172","505639","0.0-14.0-0.0-0.79","5e5edbe9c0bc8621b5c2f7da","619531dcf66c91622fa1b861","61959747cd3e5b6fd9c6b885","1049","Wow! You've completed 80 out of 160 trials! </p> <p>  </p><p> Take a quick break, then press any key when you're ready to continue.","d","","","","","main_T1_ITI","","","","",""
"","","","","","visual-search-circle","173","507866","0.0-14.0-0.0-1.79","5e5edbe9c0bc8621b5c2f7da","619531dcf66c91622fa1b861","61959747cd3e5b6fd9c6b885","1211.5","","s","true","[[258,2],[60,119],[2,341],[119,539],[341,597],[539,480],[597,258],[480,60]]","false","8","main_T2_Trial","s","img/Fire_Up_Target.gif","[""img/Fire_Down_Distractor.gif"",""img/Fire_Down_Distractor.gif"",""img/Fire_Down_Distractor.gif"",""img/Fire_Down_Distractor.gif"",""img/Fire_Down_Distractor.gif"",""img/Fire_Down_Distractor.gif"",""img/Fire_Down_Distractor.gif"",""img/Fire_Down_Distractor.gif"",""img/Fire_Down_Distractor.gif"",""img/Fire_Down_Distractor.gif"",""img/Fire_Down_Distractor.gif"",""img/Fire_Down_Distractor.gif""]","8","targetUp_distractorsDown"
"","","","","","html-keyboard-response","174","507868","0.0-14.0-0.0-0.80","5e5edbe9c0bc8621b5c2f7da","619531dcf66c91622fa1b861","61959747cd3e5b6fd9c6b885","null","","null","","","","","main_T1_ITI","","","","",""
"","","","","","visual-search-circle","175","509608","0.0-14.0-0.0-1.80","5e5edbe9c0bc8621b5c2f7da","619531dcf66c91622fa1b861","61959747cd3e5b6fd9c6b885","721.7999999970198","","s","true","[[0,294],[145,557],[445,562],[599,305],[454,42],[154,37]]","false","6","main_T2_Trial","s","img/Fire_Down_Target.gif","[""img/Fire_Up_Distractor.gif"",""img/Fire_Up_Distractor.gif"",""img/Fire_Up_Distractor.gif"",""img/Fire_Up_Distractor.gif"",""img/Fire_Up_Distractor.gif"",""img/Fire_Up_Distractor.gif"",""img/Fire_Up_Distractor.gif"",""img/Fire_Up_Distractor.gif"",""img/Fire_Up_Distractor.gif"",""img/Fire_Up_Distractor.gif"",""img/Fire_Up_Distractor.gif"",""img/Fire_Up_Distractor.gif""]","6","targetDown_distractorsUp"
"","","","","","html-keyboard-response","176","509618","0.0-14.0-0.0-0.81","5e5edbe9c0bc8621b5c2f7da","619531dcf66c91622fa1b861","61959747cd3e5b6fd9c6b885","null","","null","","","","","main_T1_ITI","","","","",""
"","","","","","visual-search-circle","177","511484","0.0-14.0-0.0-1.81","5e5edbe9c0bc8621b5c2f7da","619531dcf66c91622fa1b861","61959747cd3e5b6fd9c6b885","848.5999999940395","","d","true","[[367,7],[42,145],[73,496],[417,576],[598,273]]","true","5","main_T2_Trial","d","img/Fire_Down_Target.gif","[""img/Fire_Up_Distractor.gif"",""img/Fire_Up_Distractor.gif"",""img/Fire_Up_Distractor.gif"",""img/Fire_Up_Distractor.gif"",""img/Fire_Up_Distractor.gif"",""img/Fire_Up_Distractor.gif"",""img/Fire_Up_Distractor.gif"",""img/Fire_Up_Distractor.gif"",""img/Fire_Up_Distractor.gif"",""img/Fire_Up_Distractor.gif"",""img/Fire_Up_Distractor.gif"",""img/Fire_Up_Distractor.gif""]","5","targetDown_distractorsUp"
"","","","","","html-keyboard-response","178","511486","0.0-14.0-0.0-0.82","5e5edbe9c0bc8621b5c2f7da","619531dcf66c91622fa1b861","61959747cd3e5b6fd9c6b885","null","","null","","","","","main_T1_ITI","","","","",""
"","","","","","visual-search-circle","179","513419","0.0-14.0-0.0-1.82","5e5edbe9c0bc8621b5c2f7da","619531dcf66c91622fa1b861","61959747cd3e5b6fd9c6b885","910.3000000119209","","d","true","[[66,488],[268,598],[488,533],[598,331],[533,111],[331,1],[111,66],[1,268]]","true","8","main_T2_Trial","d","img/Fire_Up_Target.gif","[""img/Fire_Down_Distractor.gif"",""img/Fire_Down_Distractor.gif"",""img/Fire_Down_Distractor.gif"",""img/Fire_Down_Distractor.gif"",""img/Fire_Down_Distractor.gif"",""img/Fire_Down_Distractor.gif"",""img/Fire_Down_Distractor.gif"",""img/Fire_Down_Distractor.gif"",""img/Fire_Down_Distractor.gif"",""img/Fire_Down_Distractor.gif"",""img/Fire_Down_Distractor.gif"",""img/Fire_Down_Distractor.gif""]","8","targetUp_distractorsDown"
"","","","","","html-keyboard-response","180","513421","0.0-14.0-0.0-0.83","5e5edbe9c0bc8621b5c2f7da","619531dcf66c91622fa1b861","61959747cd3e5b6fd9c6b885","null","","null","","","","","main_T1_ITI","","","","",""
"","","","","","visual-search-circle","181","515161","0.0-14.0-0.0-1.83","5e5edbe9c0bc8621b5c2f7da","619531dcf66c91622fa1b861","61959747cd3e5b6fd9c6b885","719.6000000089407","","s","true","[[542,123],[207,14],[0,299],[207,585],[542,476]]","false","5","main_T2_Trial","s","img/Fire_Down_Target.gif","[""img/Fire_Up_Distractor.gif"",""img/Fire_Up_Distractor.gif"",""img/Fire_Up_Distractor.gif"",""img/Fire_Up_Distractor.gif"",""img/Fire_Up_Distractor.gif"",""img/Fire_Up_Distractor.gif"",""img/Fire_Up_Distractor.gif"",""img/Fire_Up_Distractor.gif"",""img/Fire_Up_Distractor.gif"",""img/Fire_Up_Distractor.gif"",""img/Fire_Up_Distractor.gif"",""img/Fire_Up_Distractor.gif""]","5","targetDown_distractorsUp"
"","","","","","html-keyboard-response","182","515163","0.0-14.0-0.0-0.84","5e5edbe9c0bc8621b5c2f7da","619531dcf66c91622fa1b861","61959747cd3e5b6fd9c6b885","null","","null","","","","","main_T1_ITI","","","","",""
"","","","","","visual-search-circle","183","516876","0.0-14.0-0.0-1.84","5e5edbe9c0bc8621b5c2f7da","619531dcf66c91622fa1b861","61959747cd3e5b6fd9c6b885","696.5","","s","true","[[583,397],[397,16],[16,202],[202,583]]","false","4","main_T2_Trial","s","img/Fire_Up_Target.gif","[""img/Fire_Down_Distractor.gif"",""img/Fire_Down_Distractor.gif"",""img/Fire_Down_Distractor.gif"",""img/Fire_Down_Distractor.gif"",""img/Fire_Down_Distractor.gif"",""img/Fire_Down_Distractor.gif"",""img/Fire_Down_Distractor.gif"",""img/Fire_Down_Distractor.gif"",""img/Fire_Down_Distractor.gif"",""img/Fire_Down_Distractor.gif"",""img/Fire_Down_Distractor.gif"",""img/Fire_Down_Distractor.gif""]","4","targetUp_distractorsDown"
"","","","","","html-keyboard-response","184","516879","0.0-14.0-0.0-0.85","5e5edbe9c0bc8621b5c2f7da","619531dcf66c91622fa1b861","61959747cd3e5b6fd9c6b885","null","","null","","","","","main_T1_ITI","","","","",""
"","","","","","visual-search-circle","185","519107","0.0-14.0-0.0-1.85","5e5edbe9c0bc8621b5c2f7da","619531dcf66c91622fa1b861","61959747cd3e5b6fd9c6b885","1200","","d","true","[[533,111],[297,0],[64,114],[8,368],[171,571],[432,569],[592,364]]","true","7","main_T2_Trial","d","img/Fire_Up_Target.gif","[""img/Fire_Down_Distractor.gif"",""img/Fire_Down_Distractor.gif"",""img/Fire_Down_Distractor.gif"",""img/Fire_Down_Distractor.gif"",""img/Fire_Down_Distractor.gif"",""img/Fire_Down_Distractor.gif"",""img/Fire_Down_Distractor.gif"",""img/Fire_Down_Distractor.gif"",""img/Fire_Down_Distractor.gif"",""img/Fire_Down_Distractor.gif"",""img/Fire_Down_Distractor.gif"",""img/Fire_Down_Distractor.gif""]","7","targetUp_distractorsDown"
"","","","","","html-keyboard-response","186","519109","0.0-14.0-0.0-0.86","5e5edbe9c0bc8621b5c2f7da","619531dcf66c91622fa1b861","61959747cd3e5b6fd9c6b885","null","","null","","","","","main_T1_ITI","","","","",""
"","","","","","visual-search-circle","187","521468","0.0-14.0-0.0-1.86","5e5edbe9c0bc8621b5c2f7da","619531dcf66c91622fa1b861","61959747cd3e5b6fd9c6b885","1343.2999999970198","","s","true","[[357,594],[565,438],[574,178],[376,9],[120,59],[0,290],[105,528]]","false","7","main_T2_Trial","s","img/Fire_Down_Target.gif","[""img/Fire_Up_Distractor.gif"",""img/Fire_Up_Distractor.gif"",""img/Fire_Up_Distractor.gif"",""img/Fire_Up_Distractor.gif"",""img/Fire_Up_Distractor.gif"",""img/Fire_Up_Distractor.gif"",""img/Fire_Up_Distractor.gif"",""img/Fire_Up_Distractor.gif"",""img/Fire_Up_Distractor.gif"",""img/Fire_Up_Distractor.gif"",""img/Fire_Up_Distractor.gif"",""img/Fire_Up_Distractor.gif""]","7","targetDown_distractorsUp"
"","","","","","html-keyboard-response","188","521471","0.0-14.0-0.0-0.87","5e5edbe9c0bc8621b5c2f7da","619531dcf66c91622fa1b861","61959747cd3e5b6fd9c6b885","null","","null","","","","","main_T1_ITI","","","","",""
"","","","","","visual-search-circle","189","523476","0.0-14.0-0.0-1.87","5e5edbe9c0bc8621b5c2f7da","619531dcf66c91622fa1b861","61959747cd3e5b6fd9c6b885","992","","d","true","[[417,23],[157,36],[4,247],[74,497],[314,599],[543,475],[588,219]]","true","7","main_T2_Trial","d","img/Fire_Down_Target.gif","[""img/Fire_Up_Distractor.gif"",""img/Fire_Up_Distractor.gif"",""img/Fire_Up_Distractor.gif"",""img/Fire_Up_Distractor.gif"",""img/Fire_Up_Distractor.gif"",""img/Fire_Up_Distractor.gif"",""img/Fire_Up_Distractor.gif"",""img/Fire_Up_Distractor.gif"",""img/Fire_Up_Distractor.gif"",""img/Fire_Up_Distractor.gif"",""img/Fire_Up_Distractor.gif"",""img/Fire_Up_Distractor.gif""]","7","targetDown_distractorsUp"
"","","","","","html-keyboard-response","190","523479","0.0-14.0-0.0-0.88","5e5edbe9c0bc8621b5c2f7da","619531dcf66c91622fa1b861","61959747cd3e5b6fd9c6b885","null","","null","","","","","main_T1_ITI","","","","",""
"","","","","","visual-search-circle","191","525295","0.0-14.0-0.0-1.88","5e5edbe9c0bc8621b5c2f7da","619531dcf66c91622fa1b861","61959747cd3e5b6fd9c6b885","811.1000000089407","","d","true","[[11,382],[289,599],[581,402],[484,63],[132,51]]","true","5","main_T2_Trial","d","img/Fire_Down_Target.gif","[""img/Fire_Up_Distractor.gif"",""img/Fire_Up_Distractor.gif"",""img/Fire_Up_Distractor.gif"",""img/Fire_Up_Distractor.gif"",""img/Fire_Up_Distractor.gif"",""img/Fire_Up_Distractor.gif"",""img/Fire_Up_Distractor.gif"",""img/Fire_Up_Distractor.gif"",""img/Fire_Up_Distractor.gif"",""img/Fire_Up_Distractor.gif"",""img/Fire_Up_Distractor.gif"",""img/Fire_Up_Distractor.gif""]","5","targetDown_distractorsUp"
"","","","","","html-keyboard-response","192","525298","0.0-14.0-0.0-0.89","5e5edbe9c0bc8621b5c2f7da","619531dcf66c91622fa1b861","61959747cd3e5b6fd9c6b885","null","","null","","","","","main_T1_ITI","","","","",""
"","","","","","visual-search-circle","193","527193","0.0-14.0-0.0-1.89","5e5edbe9c0bc8621b5c2f7da","619531dcf66c91622fa1b861","61959747cd3e5b6fd9c6b885","878.3000000119209","","d","true","[[436,32],[87,87],[32,436],[346,596],[596,346]]","true","5","main_T2_Trial","d","img/Fire_Down_Target.gif","[""img/Fire_Up_Distractor.gif"",""img/Fire_Up_Distractor.gif"",""img/Fire_Up_Distractor.gif"",""img/Fire_Up_Distractor.gif"",""img/Fire_Up_Distractor.gif"",""img/Fire_Up_Distractor.gif"",""img/Fire_Up_Distractor.gif"",""img/Fire_Up_Distractor.gif"",""img/Fire_Up_Distractor.gif"",""img/Fire_Up_Distractor.gif"",""img/Fire_Up_Distractor.gif"",""img/Fire_Up_Distractor.gif""]","5","targetDown_distractorsUp"
"","","","","","html-keyboard-response","194","527195","0.0-14.0-0.0-0.90","5e5edbe9c0bc8621b5c2f7da","619531dcf66c91622fa1b861","61959747cd3e5b6fd9c6b885","null","","null","","","","","main_T1_ITI","","","","",""
"","","","","","visual-search-circle","195","529093","0.0-14.0-0.0-1.90","5e5edbe9c0bc8621b5c2f7da","619531dcf66c91622fa1b861","61959747cd3e5b6fd9c6b885","881.8999999910593","","d","true","[[480,60],[182,23],[2,263],[119,539],[417,576],[597,336]]","true","6","main_T2_Trial","d","img/Fire_Down_Target.gif","[""img/Fire_Up_Distractor.gif"",""img/Fire_Up_Distractor.gif"",""img/Fire_Up_Distractor.gif"",""img/Fire_Up_Distractor.gif"",""img/Fire_Up_Distractor.gif"",""img/Fire_Up_Distractor.gif"",""img/Fire_Up_Distractor.gif"",""img/Fire_Up_Distractor.gif"",""img/Fire_Up_Distractor.gif"",""img/Fire_Up_Distractor.gif"",""img/Fire_Up_Distractor.gif"",""img/Fire_Up_Distractor.gif""]","6","targetDown_distractorsUp"
"","","","","","html-keyboard-response","196","529095","0.0-14.0-0.0-0.91","5e5edbe9c0bc8621b5c2f7da","619531dcf66c91622fa1b861","61959747cd3e5b6fd9c6b885","null","","null","","","","","main_T1_ITI","","","","",""
"","","","","","visual-search-circle","197","530828","0.0-14.0-0.0-1.91","5e5edbe9c0bc8621b5c2f7da","619531dcf66c91622fa1b861","61959747cd3e5b6fd9c6b885","729.0999999940395","","s","true","[[450,40],[40,150],[149,559],[559,450]]","false","4","main_T2_Trial","s","img/Fire_Down_Target.gif","[""img/Fire_Up_Distractor.gif"",""img/Fire_Up_Distractor.gif"",""img/Fire_Up_Distractor.gif"",""img/Fire_Up_Distractor.gif"",""img/Fire_Up_Distractor.gif"",""img/Fire_Up_Distractor.gif"",""img/Fire_Up_Distractor.gif"",""img/Fire_Up_Distractor.gif"",""img/Fire_Up_Distractor.gif"",""img/Fire_Up_Distractor.gif"",""img/Fire_Up_Distractor.gif"",""img/Fire_Up_Distractor.gif""]","4","targetDown_distractorsUp"
"","","","","","html-keyboard-response","198","530831","0.0-14.0-0.0-0.92","5e5edbe9c0bc8621b5c2f7da","619531dcf66c91622fa1b861","61959747cd3e5b6fd9c6b885","null","","null","","","","","main_T1_ITI","","","","",""
"","","","","","visual-search-circle","199","533227","0.0-14.0-0.0-1.92","5e5edbe9c0bc8621b5c2f7da","619531dcf66c91622fa1b861","61959747cd3e5b6fd9c6b885","1381.2000000029802","","s","true","[[123,542],[542,476],[476,57],[57,123]]","false","4","main_T2_Trial","s","img/Fire_Down_Target.gif","[""img/Fire_Up_Distractor.gif"",""img/Fire_Up_Distractor.gif"",""img/Fire_Up_Distractor.gif"",""img/Fire_Up_Distractor.gif"",""img/Fire_Up_Distractor.gif"",""img/Fire_Up_Distractor.gif"",""img/Fire_Up_Distractor.gif"",""img/Fire_Up_Distractor.gif"",""img/Fire_Up_Distractor.gif"",""img/Fire_Up_Distractor.gif"",""img/Fire_Up_Distractor.gif"",""img/Fire_Up_Distractor.gif""]","4","targetDown_distractorsUp"
"","","","","","html-keyboard-response","200","533229","0.0-14.0-0.0-0.93","5e5edbe9c0bc8621b5c2f7da","619531dcf66c91622fa1b861","61959747cd3e5b6fd9c6b885","null","","null","","","","","main_T1_ITI","","","","",""
"","","","","","visual-search-circle","201","535218","0.0-14.0-0.0-1.93","5e5edbe9c0bc8621b5c2f7da","619531dcf66c91622fa1b861","61959747cd3e5b6fd9c6b885","980.5","","d","true","[[545,127],[318,0],[77,98],[3,348],[153,561],[413,577],[587,384]]","true","7","main_T2_Trial","d","img/Fire_Up_Target.gif","[""img/Fire_Down_Distractor.gif"",""img/Fire_Down_Distractor.gif"",""img/Fire_Down_Distractor.gif"",""img/Fire_Down_Distractor.gif"",""img/Fire_Down_Distractor.gif"",""img/Fire_Down_Distractor.gif"",""img/Fire_Down_Distractor.gif"",""img/Fire_Down_Distractor.gif"",""img/Fire_Down_Distractor.gif"",""img/Fire_Down_Distractor.gif"",""img/Fire_Down_Distractor.gif"",""img/Fire_Down_Distractor.gif""]","7","targetUp_distractorsDown"
"","","","","","html-keyboard-response","202","535220","0.0-14.0-0.0-0.94","5e5edbe9c0bc8621b5c2f7da","619531dcf66c91622fa1b861","61959747cd3e5b6fd9c6b885","null","","null","","","","","main_T1_ITI","","","","",""
"","","","","","visual-search-circle","203","537256","0.0-14.0-0.0-1.94","5e5edbe9c0bc8621b5c2f7da","619531dcf66c91622fa1b861","61959747cd3e5b6fd9c6b885","1017.2999999970198","","s","false","[[397,583],[599,294],[387,13],[54,127],[60,480]]","true","5","main_T2_Trial","d","img/Fire_Up_Target.gif","[""img/Fire_Down_Distractor.gif"",""img/Fire_Down_Distractor.gif"",""img/Fire_Down_Distractor.gif"",""img/Fire_Down_Distractor.gif"",""img/Fire_Down_Distractor.gif"",""img/Fire_Down_Distractor.gif"",""img/Fire_Down_Distractor.gif"",""img/Fire_Down_Distractor.gif"",""img/Fire_Down_Distractor.gif"",""img/Fire_Down_Distractor.gif"",""img/Fire_Down_Distractor.gif"",""img/Fire_Down_Distractor.gif""]","5","targetUp_distractorsDown"
"","","","","","html-keyboard-response","204","537258","0.0-14.0-0.0-0.95","5e5edbe9c0bc8621b5c2f7da","619531dcf66c91622fa1b861","61959747cd3e5b6fd9c6b885","null","","null","","","","","main_T1_ITI","","","","",""
"","","","","","visual-search-circle","205","539383","0.0-14.0-0.0-1.95","5e5edbe9c0bc8621b5c2f7da","619531dcf66c91622fa1b861","61959747cd3e5b6fd9c6b885","1106.5","","d","true","[[63,484],[402,581],[599,289],[382,11],[51,132]]","true","5","main_T2_Trial","d","img/Fire_Down_Target.gif","[""img/Fire_Up_Distractor.gif"",""img/Fire_Up_Distractor.gif"",""img/Fire_Up_Distractor.gif"",""img/Fire_Up_Distractor.gif"",""img/Fire_Up_Distractor.gif"",""img/Fire_Up_Distractor.gif"",""img/Fire_Up_Distractor.gif"",""img/Fire_Up_Distractor.gif"",""img/Fire_Up_Distractor.gif"",""img/Fire_Up_Distractor.gif"",""img/Fire_Up_Distractor.gif"",""img/Fire_Up_Distractor.gif""]","5","targetDown_distractorsUp"
"","","","","","html-keyboard-response","206","539385","0.0-14.0-0.0-0.96","5e5edbe9c0bc8621b5c2f7da","619531dcf66c91622fa1b861","61959747cd3e5b6fd9c6b885","null","","null","","","","","main_T1_ITI","","","","",""
"","","","","","visual-search-circle","207","541146","0.0-14.0-0.0-1.96","5e5edbe9c0bc8621b5c2f7da","619531dcf66c91622fa1b861","61959747cd3e5b6fd9c6b885","745.5","","s","true","[[28,426],[426,571],[571,173],[173,28]]","false","4","main_T2_Trial","s","img/Fire_Up_Target.gif","[""img/Fire_Down_Distractor.gif"",""img/Fire_Down_Distractor.gif"",""img/Fire_Down_Distractor.gif"",""img/Fire_Down_Distractor.gif"",""img/Fire_Down_Distractor.gif"",""img/Fire_Down_Distractor.gif"",""img/Fire_Down_Distractor.gif"",""img/Fire_Down_Distractor.gif"",""img/Fire_Down_Distractor.gif"",""img/Fire_Down_Distractor.gif"",""img/Fire_Down_Distractor.gif"",""img/Fire_Down_Distractor.gif""]","4","targetUp_distractorsDown"
"","","","","","html-keyboard-response","208","541148","0.0-14.0-0.0-0.97","5e5edbe9c0bc8621b5c2f7da","619531dcf66c91622fa1b861","61959747cd3e5b6fd9c6b885","null","","null","","","","","main_T1_ITI","","","","",""
"","","","","","visual-search-circle","209","542952","0.0-14.0-0.0-1.97","5e5edbe9c0bc8621b5c2f7da","619531dcf66c91622fa1b861","61959747cd3e5b6fd9c6b885","785.5","","s","true","[[594,357],[445,37],[95,80],[28,426],[336,597]]","false","5","main_T2_Trial","s","img/Fire_Up_Target.gif","[""img/Fire_Down_Distractor.gif"",""img/Fire_Down_Distractor.gif"",""img/Fire_Down_Distractor.gif"",""img/Fire_Down_Distractor.gif"",""img/Fire_Down_Distractor.gif"",""img/Fire_Down_Distractor.gif"",""img/Fire_Down_Distractor.gif"",""img/Fire_Down_Distractor.gif"",""img/Fire_Down_Distractor.gif"",""img/Fire_Down_Distractor.gif"",""img/Fire_Down_Distractor.gif"",""img/Fire_Down_Distractor.gif""]","5","targetUp_distractorsDown"
"","","","","","html-keyboard-response","210","542955","0.0-14.0-0.0-0.98","5e5edbe9c0bc8621b5c2f7da","619531dcf66c91622fa1b861","61959747cd3e5b6fd9c6b885","null","","null","","","","","main_T1_ITI","","","","",""
"","","","","","visual-search-circle","211","544709","0.0-14.0-0.0-1.98","5e5edbe9c0bc8621b5c2f7da","619531dcf66c91622fa1b861","61959747cd3e5b6fd9c6b885","737","","d","true","[[48,463],[463,551],[551,136],[136,48]]","true","4","main_T2_Trial","d","img/Fire_Down_Target.gif","[""img/Fire_Up_Distractor.gif"",""img/Fire_Up_Distractor.gif"",""img/Fire_Up_Distractor.gif"",""img/Fire_Up_Distractor.gif"",""img/Fire_Up_Distractor.gif"",""img/Fire_Up_Distractor.gif"",""img/Fire_Up_Distractor.gif"",""img/Fire_Up_Distractor.gif"",""img/Fire_Up_Distractor.gif"",""img/Fire_Up_Distractor.gif"",""img/Fire_Up_Distractor.gif"",""img/Fire_Up_Distractor.gif""]","4","targetDown_distractorsUp"
"","","","","","html-keyboard-response","212","545592","0.0-14.0-0.0-0.99","5e5edbe9c0bc8621b5c2f7da","619531dcf66c91622fa1b861","61959747cd3e5b6fd9c6b885","883","Wow! You've completed 100 out of 160 trials! </p> <p>  </p><p> Take a quick break, then press any key when you're ready to continue.","d","","","","","main_T1_ITI","","","","",""
"","","","","","visual-search-circle","213","547876","0.0-14.0-0.0-1.99","5e5edbe9c0bc8621b5c2f7da","619531dcf66c91622fa1b861","61959747cd3e5b6fd9c6b885","1269.5999999940395","","d","true","[[594,242],[397,16],[103,73],[5,357],[202,583],[496,526]]","true","6","main_T2_Trial","d","img/Fire_Down_Target.gif","[""img/Fire_Up_Distractor.gif"",""img/Fire_Up_Distractor.gif"",""img/Fire_Up_Distractor.gif"",""img/Fire_Up_Distractor.gif"",""img/Fire_Up_Distractor.gif"",""img/Fire_Up_Distractor.gif"",""img/Fire_Up_Distractor.gif"",""img/Fire_Up_Distractor.gif"",""img/Fire_Up_Distractor.gif"",""img/Fire_Up_Distractor.gif"",""img/Fire_Up_Distractor.gif"",""img/Fire_Up_Distractor.gif""]","6","targetDown_distractorsUp"
"","","","","","html-keyboard-response","214","547879","0.0-14.0-0.0-0.100","5e5edbe9c0bc8621b5c2f7da","619531dcf66c91622fa1b861","61959747cd3e5b6fd9c6b885","null","","null","","","","","main_T1_ITI","","","","",""
"","","","","","visual-search-circle","215","549632","0.0-14.0-0.0-1.100","5e5edbe9c0bc8621b5c2f7da","619531dcf66c91622fa1b861","61959747cd3e5b6fd9c6b885","740.2999999970198","","s","true","[[597,336],[536,115],[336,2],[115,63],[2,263],[63,484],[263,597],[484,536]]","false","8","main_T2_Trial","s","img/Fire_Up_Target.gif","[""img/Fire_Down_Distractor.gif"",""img/Fire_Down_Distractor.gif"",""img/Fire_Down_Distractor.gif"",""img/Fire_Down_Distractor.gif"",""img/Fire_Down_Distractor.gif"",""img/Fire_Down_Distractor.gif"",""img/Fire_Down_Distractor.gif"",""img/Fire_Down_Distractor.gif"",""img/Fire_Down_Distractor.gif"",""img/Fire_Down_Distractor.gif"",""img/Fire_Down_Distractor.gif"",""img/Fire_Down_Distractor.gif""]","8","targetUp_distractorsDown"
"","","","","","html-keyboard-response","216","549634","0.0-14.0-0.0-0.101","5e5edbe9c0bc8621b5c2f7da","619531dcf66c91622fa1b861","61959747cd3e5b6fd9c6b885","null","","null","","","","","main_T1_ITI","","","","",""
