"success","timeout","failed_images","failed_audio","failed_video","trial_type","trial_index","time_elapsed","internal_node_id","subject_id","study_id","session_id","rt","stimulus","response","correct","locations","target_present","set_size","task","correct_response","target","foilCM","setSizeCM","searchCondition"
"true","false","[]","[]","[]","preload","0","298571","0.0-0.0","5eb528ae7c968c3b2dacfd43","619531dcf66c91622fa1b861","6195954d5b601b02d574655d","","","","","","","","","","","","",""
"true","","","","","fullscreen","1","489190","0.0-1.0","5eb528ae7c968c3b2dacfd43","619531dcf66c91622fa1b861","6195954d5b601b02d574655d","","","","","","","","","","","","",""
"","","","","","html-keyboard-response","2","496387","0.0-2.0","5eb528ae7c968c3b2dacfd43","619531dcf66c91622fa1b861","6195954d5b601b02d574655d","7195.5999999996275","What a beautiful Thursday to do some awesome science! </p> <p>  </p><p> </p>
    By completing this survey or questionnaire, you are consenting to be in this research study. </p>
    Your participation is voluntary and you can stop at any time.
    <p> [Press any key to continue.] </p>
    
    ","arrowright","","","","","","","","","",""
"","","","","","video-keyboard-response","3","516707","0.0-3.0","5eb528ae7c968c3b2dacfd43","619531dcf66c91622fa1b861","6195954d5b601b02d574655d","20317.89999999944","[""video/TaskInstructions.mp4""]","arrowright","","","","","","","","","",""
"","","","","","html-keyboard-response","4","521002","0.0-4.0","5eb528ae7c968c3b2dacfd43","619531dcf66c91622fa1b861","6195954d5b601b02d574655d","4294.700000000186","
    <p>First, we're going to do a few practice trials to make sure you understand the task. You will recieve feedback on each trial. </p>
    <p>[Press any key to begin the familiarization phase.]</p>
    ","arrowright","","","","","","","","","",""
"","","","","","visual-search-circle","5","523458","0.0-5.0-0.0","5eb528ae7c968c3b2dacfd43","619531dcf66c91622fa1b861","6195954d5b601b02d574655d","1384.7999999998137","","d","true","[[515,508],[508,84],[84,91],[91,515]]","true","4","training","d","","","",""
"","","","","","html-keyboard-response","6","525098","0.0-6.0","5eb528ae7c968c3b2dacfd43","619531dcf66c91622fa1b861","6195954d5b601b02d574655d","1638.8999999994412"," <div style='float: center; '><img src='img/feedbackRight.png'></img> </div> ","arrowright","","","","","","","","","",""
"","","","","","visual-search-circle","7","527290","0.0-7.0-0.0","5eb528ae7c968c3b2dacfd43","619531dcf66c91622fa1b861","6195954d5b601b02d574655d","1181","","s","true","[[362,593],[593,237],[237,6],[6,362]]","false","4","training","s","","","",""
"","","","","","html-keyboard-response","8","527954","0.0-8.0","5eb528ae7c968c3b2dacfd43","619531dcf66c91622fa1b861","6195954d5b601b02d574655d","663"," <div style='float: center; '><img src='img/feedbackRight.png'></img> </div> ","arrowright","","","","","","","","","",""
"","","","","","visual-search-circle","9","531218","0.0-9.0-0.0","5eb528ae7c968c3b2dacfd43","619531dcf66c91622fa1b861","6195954d5b601b02d574655d","2258.9000000003725","","d","false","[[182,23],[2,263],[119,539],[417,576],[597,336],[480,60]]","false","6","training","s","","","",""
"","","","","","html-keyboard-response","10","531874","0.0-10.0","5eb528ae7c968c3b2dacfd43","619531dcf66c91622fa1b861","6195954d5b601b02d574655d","655.5"," <div style='float: center;'><img src='img/feedbackWrong.png'></img> </div> ","arrowright","","","","","","","","","",""
"","","","","","visual-search-circle","11","534026","0.0-11.0-0.0","5eb528ae7c968c3b2dacfd43","619531dcf66c91622fa1b861","6195954d5b601b02d574655d","1134.5999999996275","","d","true","[[173,571],[402,581],[571,426],[581,197],[426,28],[197,18],[28,173],[18,402]]","true","8","training","d","","","",""
"","","","","","html-keyboard-response","12","534578","0.0-12.0","5eb528ae7c968c3b2dacfd43","619531dcf66c91622fa1b861","6195954d5b601b02d574655d","551.5999999996275"," <div style='float: center; '><img src='img/feedbackRight.png'></img> </div> ","arrowright","","","","","","","","","",""
"","","","","","video-keyboard-response","13","538235","0.0-13.0","5eb528ae7c968c3b2dacfd43","619531dcf66c91622fa1b861","6195954d5b601b02d574655d","3655.2000000001863","[""video/endTraining.mp4""]","arrowright","","","","","","","","","",""
"","","","","","html-keyboard-response","14","538237","0.0-14.0-0.0-0.0","5eb528ae7c968c3b2dacfd43","619531dcf66c91622fa1b861","6195954d5b601b02d574655d","null","","null","","","","","main_T1_ITI","","","","",""
"","","","","","visual-search-circle","15","540514","0.0-14.0-0.0-1.0","5eb528ae7c968c3b2dacfd43","619531dcf66c91622fa1b861","6195954d5b601b02d574655d","1273.5999999996275","","s","true","[[586,387],[472,54],[119,60],[16,397],[305,599]]","false","5","main_T2_Trial","s","img/Fire_Down_Target.gif","[""img/Fire_Up_Distractor.gif"",""img/Fire_Up_Distractor.gif"",""img/Fire_Up_Distractor.gif"",""img/Fire_Up_Distractor.gif"",""img/Fire_Up_Distractor.gif"",""img/Fire_Up_Distractor.gif"",""img/Fire_Up_Distractor.gif"",""img/Fire_Up_Distractor.gif"",""img/Fire_Up_Distractor.gif"",""img/Fire_Up_Distractor.gif"",""img/Fire_Up_Distractor.gif"",""img/Fire_Up_Distractor.gif""]","5","targetDown_distractorsUp"
"","","","","","html-keyboard-response","16","540523","0.0-14.0-0.0-0.1","5eb528ae7c968c3b2dacfd43","619531dcf66c91622fa1b861","6195954d5b601b02d574655d","null","","null","","","","","main_T1_ITI","","","","",""
"","","","","","visual-search-circle","17","543298","0.0-14.0-0.0-1.1","5eb528ae7c968c3b2dacfd43","619531dcf66c91622fa1b861","6195954d5b601b02d574655d","1766.5","","s","true","[[70,107],[107,529],[529,492],[492,70]]","false","4","main_T2_Trial","s","img/Fire_Up_Target.gif","[""img/Fire_Down_Distractor.gif"",""img/Fire_Down_Distractor.gif"",""img/Fire_Down_Distractor.gif"",""img/Fire_Down_Distractor.gif"",""img/Fire_Down_Distractor.gif"",""img/Fire_Down_Distractor.gif"",""img/Fire_Down_Distractor.gif"",""img/Fire_Down_Distractor.gif"",""img/Fire_Down_Distractor.gif"",""img/Fire_Down_Distractor.gif"",""img/Fire_Down_Distractor.gif"",""img/Fire_Down_Distractor.gif""]","4","targetUp_distractorsDown"
"","","","","","html-keyboard-response","18","543300","0.0-14.0-0.0-0.2","5eb528ae7c968c3b2dacfd43","619531dcf66c91622fa1b861","6195954d5b601b02d574655d","null","","null","","","","","main_T1_ITI","","","","",""
"","","","","","visual-search-circle","19","546290","0.0-14.0-0.0-1.2","5eb528ae7c968c3b2dacfd43","619531dcf66c91622fa1b861","6195954d5b601b02d574655d","1984.2999999998137","","s","true","[[149,559],[559,450],[449,40],[40,150]]","false","4","main_T2_Trial","s","img/Fire_Up_Target.gif","[""img/Fire_Down_Distractor.gif"",""img/Fire_Down_Distractor.gif"",""img/Fire_Down_Distractor.gif"",""img/Fire_Down_Distractor.gif"",""img/Fire_Down_Distractor.gif"",""img/Fire_Down_Distractor.gif"",""img/Fire_Down_Distractor.gif"",""img/Fire_Down_Distractor.gif"",""img/Fire_Down_Distractor.gif"",""img/Fire_Down_Distractor.gif"",""img/Fire_Down_Distractor.gif"",""img/Fire_Down_Distractor.gif""]","4","targetUp_distractorsDown"
"","","","","","html-keyboard-response","20","546292","0.0-14.0-0.0-0.3","5eb528ae7c968c3b2dacfd43","619531dcf66c91622fa1b861","6195954d5b601b02d574655d","null","","null","","","","","main_T1_ITI","","","","",""
"","","","","","visual-search-circle","21","548570","0.0-14.0-0.0-1.3","5eb528ae7c968c3b2dacfd43","619531dcf66c91622fa1b861","6195954d5b601b02d574655d","1264.7000000001863","","d","true","[[467,51],[242,5],[51,132],[5,357],[132,548],[357,594],[548,467],[594,242]]","true","8","main_T2_Trial","d","img/Fire_Up_Target.gif","[""img/Fire_Down_Distractor.gif"",""img/Fire_Down_Distractor.gif"",""img/Fire_Down_Distractor.gif"",""img/Fire_Down_Distractor.gif"",""img/Fire_Down_Distractor.gif"",""img/Fire_Down_Distractor.gif"",""img/Fire_Down_Distractor.gif"",""img/Fire_Down_Distractor.gif"",""img/Fire_Down_Distractor.gif"",""img/Fire_Down_Distractor.gif"",""img/Fire_Down_Distractor.gif"",""img/Fire_Down_Distractor.gif""]","8","targetUp_distractorsDown"
"","","","","","html-keyboard-response","22","548573","0.0-14.0-0.0-0.4","5eb528ae7c968c3b2dacfd43","619531dcf66c91622fa1b861","6195954d5b601b02d574655d","null","","null","","","","","main_T1_ITI","","","","",""
"","","","","","visual-search-circle","23","551114","0.0-14.0-0.0-1.4","5eb528ae7c968c3b2dacfd43","619531dcf66c91622fa1b861","6195954d5b601b02d574655d","1525.5999999996275","","d","true","[[7,367],[273,598],[576,417],[496,73],[145,42]]","true","5","main_T2_Trial","d","img/Fire_Down_Target.gif","[""img/Fire_Up_Distractor.gif"",""img/Fire_Up_Distractor.gif"",""img/Fire_Up_Distractor.gif"",""img/Fire_Up_Distractor.gif"",""img/Fire_Up_Distractor.gif"",""img/Fire_Up_Distractor.gif"",""img/Fire_Up_Distractor.gif"",""img/Fire_Up_Distractor.gif"",""img/Fire_Up_Distractor.gif"",""img/Fire_Up_Distractor.gif"",""img/Fire_Up_Distractor.gif"",""img/Fire_Up_Distractor.gif""]","5","targetDown_distractorsUp"
"","","","","","html-keyboard-response","24","551115","0.0-14.0-0.0-0.5","5eb528ae7c968c3b2dacfd43","619531dcf66c91622fa1b861","6195954d5b601b02d574655d","null","","null","","","","","main_T1_ITI","","","","",""
"","","","","","visual-search-circle","25","554698","0.0-14.0-0.0-1.5","5eb528ae7c968c3b2dacfd43","619531dcf66c91622fa1b861","6195954d5b601b02d574655d","2568.5","","d","true","[[551,463],[584,205],[403,18],[144,43],[2,261],[84,508],[329,598]]","true","7","main_T2_Trial","d","img/Fire_Up_Target.gif","[""img/Fire_Down_Distractor.gif"",""img/Fire_Down_Distractor.gif"",""img/Fire_Down_Distractor.gif"",""img/Fire_Down_Distractor.gif"",""img/Fire_Down_Distractor.gif"",""img/Fire_Down_Distractor.gif"",""img/Fire_Down_Distractor.gif"",""img/Fire_Down_Distractor.gif"",""img/Fire_Down_Distractor.gif"",""img/Fire_Down_Distractor.gif"",""img/Fire_Down_Distractor.gif"",""img/Fire_Down_Distractor.gif""]","7","targetUp_distractorsDown"
"","","","","","html-keyboard-response","26","554701","0.0-14.0-0.0-0.6","5eb528ae7c968c3b2dacfd43","619531dcf66c91622fa1b861","6195954d5b601b02d574655d","null","","null","","","","","main_T1_ITI","","","","",""
"","","","","","visual-search-circle","27","557706","0.0-14.0-0.0-1.6","5eb528ae7c968c3b2dacfd43","619531dcf66c91622fa1b861","6195954d5b601b02d574655d","1994.9000000003725","","s","true","[[484,536],[597,258],[412,21],[115,63],[2,341],[187,578]]","false","6","main_T2_Trial","s","img/Fire_Up_Target.gif","[""img/Fire_Down_Distractor.gif"",""img/Fire_Down_Distractor.gif"",""img/Fire_Down_Distractor.gif"",""img/Fire_Down_Distractor.gif"",""img/Fire_Down_Distractor.gif"",""img/Fire_Down_Distractor.gif"",""img/Fire_Down_Distractor.gif"",""img/Fire_Down_Distractor.gif"",""img/Fire_Down_Distractor.gif"",""img/Fire_Down_Distractor.gif"",""img/Fire_Down_Distractor.gif"",""img/Fire_Down_Distractor.gif""]","6","targetUp_distractorsDown"
"","","","","","html-keyboard-response","28","557709","0.0-14.0-0.0-0.7","5eb528ae7c968c3b2dacfd43","619531dcf66c91622fa1b861","6195954d5b601b02d574655d","null","","null","","","","","main_T1_ITI","","","","",""
"","","","","","visual-search-circle","29","560138","0.0-14.0-0.0-1.7","5eb528ae7c968c3b2dacfd43","619531dcf66c91622fa1b861","6195954d5b601b02d574655d","1426","","d","true","[[57,123],[57,476],[392,585],[600,300],[392,14]]","true","5","main_T2_Trial","d","img/Fire_Down_Target.gif","[""img/Fire_Up_Distractor.gif"",""img/Fire_Up_Distractor.gif"",""img/Fire_Up_Distractor.gif"",""img/Fire_Up_Distractor.gif"",""img/Fire_Up_Distractor.gif"",""img/Fire_Up_Distractor.gif"",""img/Fire_Up_Distractor.gif"",""img/Fire_Up_Distractor.gif"",""img/Fire_Up_Distractor.gif"",""img/Fire_Up_Distractor.gif"",""img/Fire_Up_Distractor.gif"",""img/Fire_Up_Distractor.gif""]","5","targetDown_distractorsUp"
"","","","","","html-keyboard-response","30","560140","0.0-14.0-0.0-0.8","5eb528ae7c968c3b2dacfd43","619531dcf66c91622fa1b861","6195954d5b601b02d574655d","null","","null","","","","","main_T1_ITI","","","","",""
"","","","","","visual-search-circle","31","562402","0.0-14.0-0.0-1.8","5eb528ae7c968c3b2dacfd43","619531dcf66c91622fa1b861","6195954d5b601b02d574655d","1250.7999999998137","","d","true","[[542,476],[589,220],[417,24],[157,35],[4,246],[74,497],[313,599]]","true","7","main_T2_Trial","d","img/Fire_Up_Target.gif","[""img/Fire_Down_Distractor.gif"",""img/Fire_Down_Distractor.gif"",""img/Fire_Down_Distractor.gif"",""img/Fire_Down_Distractor.gif"",""img/Fire_Down_Distractor.gif"",""img/Fire_Down_Distractor.gif"",""img/Fire_Down_Distractor.gif"",""img/Fire_Down_Distractor.gif"",""img/Fire_Down_Distractor.gif"",""img/Fire_Down_Distractor.gif"",""img/Fire_Down_Distractor.gif"",""img/Fire_Down_Distractor.gif""]","7","targetUp_distractorsDown"
"","","","","","html-keyboard-response","32","562415","0.0-14.0-0.0-0.9","5eb528ae7c968c3b2dacfd43","619531dcf66c91622fa1b861","6195954d5b601b02d574655d","null","","null","","","","","main_T1_ITI","","","","",""
"","","","","","visual-search-circle","33","565650","0.0-14.0-0.0-1.9","5eb528ae7c968c3b2dacfd43","619531dcf66c91622fa1b861","6195954d5b601b02d574655d","2226.0999999996275","","s","true","[[571,426],[581,197],[426,28],[197,18],[28,173],[18,402],[173,571],[402,581]]","false","8","main_T2_Trial","s","img/Fire_Up_Target.gif","[""img/Fire_Down_Distractor.gif"",""img/Fire_Down_Distractor.gif"",""img/Fire_Down_Distractor.gif"",""img/Fire_Down_Distractor.gif"",""img/Fire_Down_Distractor.gif"",""img/Fire_Down_Distractor.gif"",""img/Fire_Down_Distractor.gif"",""img/Fire_Down_Distractor.gif"",""img/Fire_Down_Distractor.gif"",""img/Fire_Down_Distractor.gif"",""img/Fire_Down_Distractor.gif"",""img/Fire_Down_Distractor.gif""]","8","targetUp_distractorsDown"
"","","","","","html-keyboard-response","34","565652","0.0-14.0-0.0-0.10","5eb528ae7c968c3b2dacfd43","619531dcf66c91622fa1b861","6195954d5b601b02d574655d","null","","null","","","","","main_T1_ITI","","","","",""
"","","","","","visual-search-circle","35","568226","0.0-14.0-0.0-1.10","5eb528ae7c968c3b2dacfd43","619531dcf66c91622fa1b861","6195954d5b601b02d574655d","1559.2000000001863","","d","true","[[0,315],[222,589],[551,463],[533,111],[192,19]]","true","5","main_T2_Trial","d","img/Fire_Up_Target.gif","[""img/Fire_Down_Distractor.gif"",""img/Fire_Down_Distractor.gif"",""img/Fire_Down_Distractor.gif"",""img/Fire_Down_Distractor.gif"",""img/Fire_Down_Distractor.gif"",""img/Fire_Down_Distractor.gif"",""img/Fire_Down_Distractor.gif"",""img/Fire_Down_Distractor.gif"",""img/Fire_Down_Distractor.gif"",""img/Fire_Down_Distractor.gif"",""img/Fire_Down_Distractor.gif"",""img/Fire_Down_Distractor.gif""]","5","targetUp_distractorsDown"
"","","","","","html-keyboard-response","36","568227","0.0-14.0-0.0-0.11","5eb528ae7c968c3b2dacfd43","619531dcf66c91622fa1b861","6195954d5b601b02d574655d","null","","null","","","","","main_T1_ITI","","","","",""
"","","","","","visual-search-circle","37","570850","0.0-14.0-0.0-1.11","5eb528ae7c968c3b2dacfd43","619531dcf66c91622fa1b861","6195954d5b601b02d574655d","1606.2999999998137","","s","true","[[299,600],[600,300],[300,0],[0,299]]","false","4","main_T2_Trial","s","img/Fire_Down_Target.gif","[""img/Fire_Up_Distractor.gif"",""img/Fire_Up_Distractor.gif"",""img/Fire_Up_Distractor.gif"",""img/Fire_Up_Distractor.gif"",""img/Fire_Up_Distractor.gif"",""img/Fire_Up_Distractor.gif"",""img/Fire_Up_Distractor.gif"",""img/Fire_Up_Distractor.gif"",""img/Fire_Up_Distractor.gif"",""img/Fire_Up_Distractor.gif"",""img/Fire_Up_Distractor.gif"",""img/Fire_Up_Distractor.gif""]","4","targetDown_distractorsUp"
"","","","","","html-keyboard-response","38","570857","0.0-14.0-0.0-0.12","5eb528ae7c968c3b2dacfd43","619531dcf66c91622fa1b861","6195954d5b601b02d574655d","null","","null","","","","","main_T1_ITI","","","","",""
"","","","","","visual-search-circle","39","574346","0.0-14.0-0.0-1.12","5eb528ae7c968c3b2dacfd43","619531dcf66c91622fa1b861","6195954d5b601b02d574655d","2472","","s","true","[[526,496],[599,279],[496,73],[279,0],[73,103],[0,320],[103,526],[320,599]]","false","8","main_T2_Trial","s","img/Fire_Down_Target.gif","[""img/Fire_Up_Distractor.gif"",""img/Fire_Up_Distractor.gif"",""img/Fire_Up_Distractor.gif"",""img/Fire_Up_Distractor.gif"",""img/Fire_Up_Distractor.gif"",""img/Fire_Up_Distractor.gif"",""img/Fire_Up_Distractor.gif"",""img/Fire_Up_Distractor.gif"",""img/Fire_Up_Distractor.gif"",""img/Fire_Up_Distractor.gif"",""img/Fire_Up_Distractor.gif"",""img/Fire_Up_Distractor.gif""]","8","targetDown_distractorsUp"
"","","","","","html-keyboard-response","40","574352","0.0-14.0-0.0-0.13","5eb528ae7c968c3b2dacfd43","619531dcf66c91622fa1b861","6195954d5b601b02d574655d","null","","null","","","","","main_T1_ITI","","","","",""
"","","","","","visual-search-circle","41","577602","0.0-14.0-0.0-1.13","5eb528ae7c968c3b2dacfd43","619531dcf66c91622fa1b861","6195954d5b601b02d574655d","2241.2999999998137","","s","true","[[571,426],[545,127],[273,1],[28,173],[54,472],[326,598]]","false","6","main_T2_Trial","s","img/Fire_Up_Target.gif","[""img/Fire_Down_Distractor.gif"",""img/Fire_Down_Distractor.gif"",""img/Fire_Down_Distractor.gif"",""img/Fire_Down_Distractor.gif"",""img/Fire_Down_Distractor.gif"",""img/Fire_Down_Distractor.gif"",""img/Fire_Down_Distractor.gif"",""img/Fire_Down_Distractor.gif"",""img/Fire_Down_Distractor.gif"",""img/Fire_Down_Distractor.gif"",""img/Fire_Down_Distractor.gif"",""img/Fire_Down_Distractor.gif""]","6","targetUp_distractorsDown"
"","","","","","html-keyboard-response","42","577604","0.0-14.0-0.0-0.14","5eb528ae7c968c3b2dacfd43","619531dcf66c91622fa1b861","6195954d5b601b02d574655d","null","","null","","","","","main_T1_ITI","","","","",""
"","","","","","visual-search-circle","43","579530","0.0-14.0-0.0-1.14","5eb528ae7c968c3b2dacfd43","619531dcf66c91622fa1b861","6195954d5b601b02d574655d","910.5999999996275","","d","true","[[103,73],[73,496],[496,526],[526,103]]","true","4","main_T2_Trial","d","img/Fire_Down_Target.gif","[""img/Fire_Up_Distractor.gif"",""img/Fire_Up_Distractor.gif"",""img/Fire_Up_Distractor.gif"",""img/Fire_Up_Distractor.gif"",""img/Fire_Up_Distractor.gif"",""img/Fire_Up_Distractor.gif"",""img/Fire_Up_Distractor.gif"",""img/Fire_Up_Distractor.gif"",""img/Fire_Up_Distractor.gif"",""img/Fire_Up_Distractor.gif"",""img/Fire_Up_Distractor.gif"",""img/Fire_Up_Distractor.gif""]","4","targetDown_distractorsUp"
"","","","","","html-keyboard-response","44","579533","0.0-14.0-0.0-0.15","5eb528ae7c968c3b2dacfd43","619531dcf66c91622fa1b861","6195954d5b601b02d574655d","null","","null","","","","","main_T1_ITI","","","","",""
"","","","","","visual-search-circle","45","581546","0.0-14.0-0.0-1.15","5eb528ae7c968c3b2dacfd43","619531dcf66c91622fa1b861","6195954d5b601b02d574655d","1001.5999999996275","","d","true","[[141,45],[7,232],[45,458],[232,592],[458,554],[592,367],[554,141],[367,7]]","true","8","main_T2_Trial","d","img/Fire_Up_Target.gif","[""img/Fire_Down_Distractor.gif"",""img/Fire_Down_Distractor.gif"",""img/Fire_Down_Distractor.gif"",""img/Fire_Down_Distractor.gif"",""img/Fire_Down_Distractor.gif"",""img/Fire_Down_Distractor.gif"",""img/Fire_Down_Distractor.gif"",""img/Fire_Down_Distractor.gif"",""img/Fire_Down_Distractor.gif"",""img/Fire_Down_Distractor.gif"",""img/Fire_Down_Distractor.gif"",""img/Fire_Down_Distractor.gif""]","8","targetUp_distractorsDown"
"","","","","","html-keyboard-response","46","581553","0.0-14.0-0.0-0.16","5eb528ae7c968c3b2dacfd43","619531dcf66c91622fa1b861","6195954d5b601b02d574655d","null","","null","","","","","main_T1_ITI","","","","",""
"","","","","","visual-search-circle","47","583930","0.0-14.0-0.0-1.16","5eb528ae7c968c3b2dacfd43","619531dcf66c91622fa1b861","6195954d5b601b02d574655d","1364.300000000745","","d","true","[[326,598],[549,465],[585,208],[406,19],[146,42],[2,258],[82,506]]","true","7","main_T2_Trial","d","img/Fire_Down_Target.gif","[""img/Fire_Up_Distractor.gif"",""img/Fire_Up_Distractor.gif"",""img/Fire_Up_Distractor.gif"",""img/Fire_Up_Distractor.gif"",""img/Fire_Up_Distractor.gif"",""img/Fire_Up_Distractor.gif"",""img/Fire_Up_Distractor.gif"",""img/Fire_Up_Distractor.gif"",""img/Fire_Up_Distractor.gif"",""img/Fire_Up_Distractor.gif"",""img/Fire_Up_Distractor.gif"",""img/Fire_Up_Distractor.gif""]","7","targetDown_distractorsUp"
"","","","","","html-keyboard-response","48","583932","0.0-14.0-0.0-0.17","5eb528ae7c968c3b2dacfd43","619531dcf66c91622fa1b861","6195954d5b601b02d574655d","null","","null","","","","","main_T1_ITI","","","","",""
"","","","","","visual-search-circle","49","585794","0.0-14.0-0.0-1.17","5eb528ae7c968c3b2dacfd43","619531dcf66c91622fa1b861","6195954d5b601b02d574655d","856.0999999996275","","d","true","[[367,592],[570,429],[569,169],[366,7],[112,65],[0,300],[113,535]]","true","7","main_T2_Trial","d","img/Fire_Up_Target.gif","[""img/Fire_Down_Distractor.gif"",""img/Fire_Down_Distractor.gif"",""img/Fire_Down_Distractor.gif"",""img/Fire_Down_Distractor.gif"",""img/Fire_Down_Distractor.gif"",""img/Fire_Down_Distractor.gif"",""img/Fire_Down_Distractor.gif"",""img/Fire_Down_Distractor.gif"",""img/Fire_Down_Distractor.gif"",""img/Fire_Down_Distractor.gif"",""img/Fire_Down_Distractor.gif"",""img/Fire_Down_Distractor.gif""]","7","targetUp_distractorsDown"
"","","","","","html-keyboard-response","50","585802","0.0-14.0-0.0-0.18","5eb528ae7c968c3b2dacfd43","619531dcf66c91622fa1b861","6195954d5b601b02d574655d","null","","null","","","","","main_T1_ITI","","","","",""
"","","","","","visual-search-circle","51","587658","0.0-14.0-0.0-1.18","5eb528ae7c968c3b2dacfd43","619531dcf66c91622fa1b861","6195954d5b601b02d574655d","839.0999999996275","","d","true","[[57,476],[253,596],[476,542],[596,346],[542,123],[346,3],[123,57],[3,253]]","true","8","main_T2_Trial","d","img/Fire_Up_Target.gif","[""img/Fire_Down_Distractor.gif"",""img/Fire_Down_Distractor.gif"",""img/Fire_Down_Distractor.gif"",""img/Fire_Down_Distractor.gif"",""img/Fire_Down_Distractor.gif"",""img/Fire_Down_Distractor.gif"",""img/Fire_Down_Distractor.gif"",""img/Fire_Down_Distractor.gif"",""img/Fire_Down_Distractor.gif"",""img/Fire_Down_Distractor.gif"",""img/Fire_Down_Distractor.gif"",""img/Fire_Down_Distractor.gif""]","8","targetUp_distractorsDown"
"","","","","","html-keyboard-response","52","592770","0.0-14.0-0.0-0.19","5eb528ae7c968c3b2dacfd43","619531dcf66c91622fa1b861","6195954d5b601b02d574655d","5111.9000000003725","Wow! You've completed 20 out of 160 trials! </p> <p>  </p><p> Take a quick break, then press any key when you're ready to continue.","arrowright","","","","","main_T1_ITI","","","","",""
"","","","","","visual-search-circle","53","594650","0.0-14.0-0.0-1.19","5eb528ae7c968c3b2dacfd43","619531dcf66c91622fa1b861","6195954d5b601b02d574655d","866.7999999998137","","d","true","[[35,440],[212,586],[440,564],[586,387],[564,159],[387,13],[159,35],[13,212]]","true","8","main_T2_Trial","d","img/Fire_Down_Target.gif","[""img/Fire_Up_Distractor.gif"",""img/Fire_Up_Distractor.gif"",""img/Fire_Up_Distractor.gif"",""img/Fire_Up_Distractor.gif"",""img/Fire_Up_Distractor.gif"",""img/Fire_Up_Distractor.gif"",""img/Fire_Up_Distractor.gif"",""img/Fire_Up_Distractor.gif"",""img/Fire_Up_Distractor.gif"",""img/Fire_Up_Distractor.gif"",""img/Fire_Up_Distractor.gif"",""img/Fire_Up_Distractor.gif""]","8","targetDown_distractorsUp"
"","","","","","html-keyboard-response","54","594655","0.0-14.0-0.0-0.20","5eb528ae7c968c3b2dacfd43","619531dcf66c91622fa1b861","6195954d5b601b02d574655d","null","","null","","","","","main_T1_ITI","","","","",""
"","","","","","visual-search-circle","55","597210","0.0-14.0-0.0-1.20","5eb528ae7c968c3b2dacfd43","619531dcf66c91622fa1b861","6195954d5b601b02d574655d","1543.5","","s","true","[[496,526],[526,103],[103,73],[73,496]]","false","4","main_T2_Trial","s","img/Fire_Down_Target.gif","[""img/Fire_Up_Distractor.gif"",""img/Fire_Up_Distractor.gif"",""img/Fire_Up_Distractor.gif"",""img/Fire_Up_Distractor.gif"",""img/Fire_Up_Distractor.gif"",""img/Fire_Up_Distractor.gif"",""img/Fire_Up_Distractor.gif"",""img/Fire_Up_Distractor.gif"",""img/Fire_Up_Distractor.gif"",""img/Fire_Up_Distractor.gif"",""img/Fire_Up_Distractor.gif"",""img/Fire_Up_Distractor.gif""]","4","targetDown_distractorsUp"
"","","","","","html-keyboard-response","56","597212","0.0-14.0-0.0-0.21","5eb528ae7c968c3b2dacfd43","619531dcf66c91622fa1b861","6195954d5b601b02d574655d","null","","null","","","","","main_T1_ITI","","","","",""
"","","","","","visual-search-circle","57","598954","0.0-14.0-0.0-1.21","5eb528ae7c968c3b2dacfd43","619531dcf66c91622fa1b861","6195954d5b601b02d574655d","728.7000000001863","","d","true","[[13,387],[189,578],[449,560],[596,345],[520,96],[278,0],[52,130]]","true","7","main_T2_Trial","d","img/Fire_Down_Target.gif","[""img/Fire_Up_Distractor.gif"",""img/Fire_Up_Distractor.gif"",""img/Fire_Up_Distractor.gif"",""img/Fire_Up_Distractor.gif"",""img/Fire_Up_Distractor.gif"",""img/Fire_Up_Distractor.gif"",""img/Fire_Up_Distractor.gif"",""img/Fire_Up_Distractor.gif"",""img/Fire_Up_Distractor.gif"",""img/Fire_Up_Distractor.gif"",""img/Fire_Up_Distractor.gif"",""img/Fire_Up_Distractor.gif""]","7","targetDown_distractorsUp"
"","","","","","html-keyboard-response","58","598956","0.0-14.0-0.0-0.22","5eb528ae7c968c3b2dacfd43","619531dcf66c91622fa1b861","6195954d5b601b02d574655d","null","","null","","","","","main_T1_ITI","","","","",""
"","","","","","visual-search-circle","59","601570","0.0-14.0-0.0-1.22","5eb528ae7c968c3b2dacfd43","619531dcf66c91622fa1b861","6195954d5b601b02d574655d","1596.7999999998137","","d","true","[[595,352],[440,35],[91,84],[30,431],[341,597]]","true","5","main_T2_Trial","d","img/Fire_Up_Target.gif","[""img/Fire_Down_Distractor.gif"",""img/Fire_Down_Distractor.gif"",""img/Fire_Down_Distractor.gif"",""img/Fire_Down_Distractor.gif"",""img/Fire_Down_Distractor.gif"",""img/Fire_Down_Distractor.gif"",""img/Fire_Down_Distractor.gif"",""img/Fire_Down_Distractor.gif"",""img/Fire_Down_Distractor.gif"",""img/Fire_Down_Distractor.gif"",""img/Fire_Down_Distractor.gif"",""img/Fire_Down_Distractor.gif""]","5","targetUp_distractorsDown"
"","","","","","html-keyboard-response","60","601573","0.0-14.0-0.0-0.23","5eb528ae7c968c3b2dacfd43","619531dcf66c91622fa1b861","6195954d5b601b02d574655d","null","","null","","","","","main_T1_ITI","","","","",""
"","","","","","visual-search-circle","61","603978","0.0-14.0-0.0-1.23","5eb528ae7c968c3b2dacfd43","619531dcf66c91622fa1b861","6195954d5b601b02d574655d","1390.7999999998137","","s","true","[[346,3],[97,78],[0,320],[129,546],[386,587],[578,411],[560,151]]","false","7","main_T2_Trial","s","img/Fire_Down_Target.gif","[""img/Fire_Up_Distractor.gif"",""img/Fire_Up_Distractor.gif"",""img/Fire_Up_Distractor.gif"",""img/Fire_Up_Distractor.gif"",""img/Fire_Up_Distractor.gif"",""img/Fire_Up_Distractor.gif"",""img/Fire_Up_Distractor.gif"",""img/Fire_Up_Distractor.gif"",""img/Fire_Up_Distractor.gif"",""img/Fire_Up_Distractor.gif"",""img/Fire_Up_Distractor.gif"",""img/Fire_Up_Distractor.gif""]","7","targetDown_distractorsUp"
"","","","","","html-keyboard-response","62","603980","0.0-14.0-0.0-0.24","5eb528ae7c968c3b2dacfd43","619531dcf66c91622fa1b861","6195954d5b601b02d574655d","null","","null","","","","","main_T1_ITI","","","","",""
"","","","","","visual-search-circle","63","606618","0.0-14.0-0.0-1.24","5eb528ae7c968c3b2dacfd43","619531dcf66c91622fa1b861","6195954d5b601b02d574655d","1625.5","","s","true","[[232,592],[557,454],[526,103],[182,23],[1,326]]","false","5","main_T2_Trial","s","img/Fire_Up_Target.gif","[""img/Fire_Down_Distractor.gif"",""img/Fire_Down_Distractor.gif"",""img/Fire_Down_Distractor.gif"",""img/Fire_Down_Distractor.gif"",""img/Fire_Down_Distractor.gif"",""img/Fire_Down_Distractor.gif"",""img/Fire_Down_Distractor.gif"",""img/Fire_Down_Distractor.gif"",""img/Fire_Down_Distractor.gif"",""img/Fire_Down_Distractor.gif"",""img/Fire_Down_Distractor.gif"",""img/Fire_Down_Distractor.gif""]","5","targetUp_distractorsDown"
"","","","","","html-keyboard-response","64","606620","0.0-14.0-0.0-0.25","5eb528ae7c968c3b2dacfd43","619531dcf66c91622fa1b861","6195954d5b601b02d574655d","null","","null","","","","","main_T1_ITI","","","","",""
"","","","","","visual-search-circle","65","608978","0.0-14.0-0.0-1.25","5eb528ae7c968c3b2dacfd43","619531dcf66c91622fa1b861","6195954d5b601b02d574655d","1345.5999999996275","","s","true","[[515,91],[271,1],[48,135],[15,394],[195,581],[455,556],[597,338]]","false","7","main_T2_Trial","s","img/Fire_Down_Target.gif","[""img/Fire_Up_Distractor.gif"",""img/Fire_Up_Distractor.gif"",""img/Fire_Up_Distractor.gif"",""img/Fire_Up_Distractor.gif"",""img/Fire_Up_Distractor.gif"",""img/Fire_Up_Distractor.gif"",""img/Fire_Up_Distractor.gif"",""img/Fire_Up_Distractor.gif"",""img/Fire_Up_Distractor.gif"",""img/Fire_Up_Distractor.gif"",""img/Fire_Up_Distractor.gif"",""img/Fire_Up_Distractor.gif""]","7","targetDown_distractorsUp"
"","","","","","html-keyboard-response","66","608981","0.0-14.0-0.0-0.26","5eb528ae7c968c3b2dacfd43","619531dcf66c91622fa1b861","6195954d5b601b02d574655d","null","","null","","","","","main_T1_ITI","","","","",""
"","","","","","visual-search-circle","67","611090","0.0-14.0-0.0-1.26","5eb528ae7c968c3b2dacfd43","619531dcf66c91622fa1b861","6195954d5b601b02d574655d","1101.2000000001863","","d","true","[[305,0],[16,202],[119,539],[472,545],[586,212]]","true","5","main_T2_Trial","d","img/Fire_Up_Target.gif","[""img/Fire_Down_Distractor.gif"",""img/Fire_Down_Distractor.gif"",""img/Fire_Down_Distractor.gif"",""img/Fire_Down_Distractor.gif"",""img/Fire_Down_Distractor.gif"",""img/Fire_Down_Distractor.gif"",""img/Fire_Down_Distractor.gif"",""img/Fire_Down_Distractor.gif"",""img/Fire_Down_Distractor.gif"",""img/Fire_Down_Distractor.gif"",""img/Fire_Down_Distractor.gif"",""img/Fire_Down_Distractor.gif""]","5","targetUp_distractorsDown"
"","","","","","html-keyboard-response","68","611092","0.0-14.0-0.0-0.27","5eb528ae7c968c3b2dacfd43","619531dcf66c91622fa1b861","6195954d5b601b02d574655d","null","","null","","","","","main_T1_ITI","","","","",""
"","","","","","visual-search-circle","69","613906","0.0-14.0-0.0-1.27","5eb528ae7c968c3b2dacfd43","619531dcf66c91622fa1b861","6195954d5b601b02d574655d","1805.6000000005588","","s","true","[[454,557],[592,232],[326,1],[23,182],[103,526]]","false","5","main_T2_Trial","s","img/Fire_Up_Target.gif","[""img/Fire_Down_Distractor.gif"",""img/Fire_Down_Distractor.gif"",""img/Fire_Down_Distractor.gif"",""img/Fire_Down_Distractor.gif"",""img/Fire_Down_Distractor.gif"",""img/Fire_Down_Distractor.gif"",""img/Fire_Down_Distractor.gif"",""img/Fire_Down_Distractor.gif"",""img/Fire_Down_Distractor.gif"",""img/Fire_Down_Distractor.gif"",""img/Fire_Down_Distractor.gif"",""img/Fire_Down_Distractor.gif""]","5","targetUp_distractorsDown"
"","","","","","html-keyboard-response","70","613908","0.0-14.0-0.0-0.28","5eb528ae7c968c3b2dacfd43","619531dcf66c91622fa1b861","6195954d5b601b02d574655d","null","","null","","","","","main_T1_ITI","","","","",""
"","","","","","visual-search-circle","71","616474","0.0-14.0-0.0-1.28","5eb528ae7c968c3b2dacfd43","619531dcf66c91622fa1b861","6195954d5b601b02d574655d","1556.1000000005588","","s","true","[[237,593],[490,531],[599,295],[483,62],[228,8],[27,173],[31,434]]","false","7","main_T2_Trial","s","img/Fire_Down_Target.gif","[""img/Fire_Up_Distractor.gif"",""img/Fire_Up_Distractor.gif"",""img/Fire_Up_Distractor.gif"",""img/Fire_Up_Distractor.gif"",""img/Fire_Up_Distractor.gif"",""img/Fire_Up_Distractor.gif"",""img/Fire_Up_Distractor.gif"",""img/Fire_Up_Distractor.gif"",""img/Fire_Up_Distractor.gif"",""img/Fire_Up_Distractor.gif"",""img/Fire_Up_Distractor.gif"",""img/Fire_Up_Distractor.gif""]","7","targetDown_distractorsUp"
"","","","","","html-keyboard-response","72","616476","0.0-14.0-0.0-0.29","5eb528ae7c968c3b2dacfd43","619531dcf66c91622fa1b861","6195954d5b601b02d574655d","null","","null","","","","","main_T1_ITI","","","","",""
"","","","","","visual-search-circle","73","619106","0.0-14.0-0.0-1.29","5eb528ae7c968c3b2dacfd43","619531dcf66c91622fa1b861","6195954d5b601b02d574655d","1615.9000000003725","","s","true","[[588,217],[310,0],[18,197],[115,536],[467,548]]","false","5","main_T2_Trial","s","img/Fire_Down_Target.gif","[""img/Fire_Up_Distractor.gif"",""img/Fire_Up_Distractor.gif"",""img/Fire_Up_Distractor.gif"",""img/Fire_Up_Distractor.gif"",""img/Fire_Up_Distractor.gif"",""img/Fire_Up_Distractor.gif"",""img/Fire_Up_Distractor.gif"",""img/Fire_Up_Distractor.gif"",""img/Fire_Up_Distractor.gif"",""img/Fire_Up_Distractor.gif"",""img/Fire_Up_Distractor.gif"",""img/Fire_Up_Distractor.gif""]","5","targetDown_distractorsUp"
"","","","","","html-keyboard-response","74","619108","0.0-14.0-0.0-0.30","5eb528ae7c968c3b2dacfd43","619531dcf66c91622fa1b861","6195954d5b601b02d574655d","null","","null","","","","","main_T1_ITI","","","","",""
"","","","","","visual-search-circle","75","621882","0.0-14.0-0.0-1.30","5eb528ae7c968c3b2dacfd43","619531dcf66c91622fa1b861","6195954d5b601b02d574655d","1761.2999999998137","","d","true","[[212,586],[469,547],[599,321],[503,79],[254,3],[39,150],[21,410]]","true","7","main_T2_Trial","d","img/Fire_Down_Target.gif","[""img/Fire_Up_Distractor.gif"",""img/Fire_Up_Distractor.gif"",""img/Fire_Up_Distractor.gif"",""img/Fire_Up_Distractor.gif"",""img/Fire_Up_Distractor.gif"",""img/Fire_Up_Distractor.gif"",""img/Fire_Up_Distractor.gif"",""img/Fire_Up_Distractor.gif"",""img/Fire_Up_Distractor.gif"",""img/Fire_Up_Distractor.gif"",""img/Fire_Up_Distractor.gif"",""img/Fire_Up_Distractor.gif""]","7","targetDown_distractorsUp"
"","","","","","html-keyboard-response","76","621885","0.0-14.0-0.0-0.31","5eb528ae7c968c3b2dacfd43","619531dcf66c91622fa1b861","6195954d5b601b02d574655d","null","","null","","","","","main_T1_ITI","","","","",""
"","","","","","visual-search-circle","77","624082","0.0-14.0-0.0-1.31","5eb528ae7c968c3b2dacfd43","619531dcf66c91622fa1b861","6195954d5b601b02d574655d","1185","","s","true","[[18,402],[204,584],[462,552],[598,329],[509,85],[262,2],[44,143]]","false","7","main_T2_Trial","s","img/Fire_Down_Target.gif","[""img/Fire_Up_Distractor.gif"",""img/Fire_Up_Distractor.gif"",""img/Fire_Up_Distractor.gif"",""img/Fire_Up_Distractor.gif"",""img/Fire_Up_Distractor.gif"",""img/Fire_Up_Distractor.gif"",""img/Fire_Up_Distractor.gif"",""img/Fire_Up_Distractor.gif"",""img/Fire_Up_Distractor.gif"",""img/Fire_Up_Distractor.gif"",""img/Fire_Up_Distractor.gif"",""img/Fire_Up_Distractor.gif""]","7","targetDown_distractorsUp"
"","","","","","html-keyboard-response","78","624084","0.0-14.0-0.0-0.32","5eb528ae7c968c3b2dacfd43","619531dcf66c91622fa1b861","6195954d5b601b02d574655d","null","","null","","","","","main_T1_ITI","","","","",""
"","","","","","visual-search-circle","79","625826","0.0-14.0-0.0-1.32","5eb528ae7c968c3b2dacfd43","619531dcf66c91622fa1b861","6195954d5b601b02d574655d","729.2999999998137","","d","true","[[182,576],[412,578],[576,417],[578,187],[417,23],[187,21],[23,182],[21,412]]","true","8","main_T2_Trial","d","img/Fire_Down_Target.gif","[""img/Fire_Up_Distractor.gif"",""img/Fire_Up_Distractor.gif"",""img/Fire_Up_Distractor.gif"",""img/Fire_Up_Distractor.gif"",""img/Fire_Up_Distractor.gif"",""img/Fire_Up_Distractor.gif"",""img/Fire_Up_Distractor.gif"",""img/Fire_Up_Distractor.gif"",""img/Fire_Up_Distractor.gif"",""img/Fire_Up_Distractor.gif"",""img/Fire_Up_Distractor.gif"",""img/Fire_Up_Distractor.gif""]","8","targetDown_distractorsUp"
"","","","","","html-keyboard-response","80","625828","0.0-14.0-0.0-0.33","5eb528ae7c968c3b2dacfd43","619531dcf66c91622fa1b861","6195954d5b601b02d574655d","null","","null","","","","","main_T1_ITI","","","","",""
"","","","","","visual-search-circle","81","629026","0.0-14.0-0.0-1.33","5eb528ae7c968c3b2dacfd43","619531dcf66c91622fa1b861","6195954d5b601b02d574655d","2189.5","","d","true","[[119,539],[341,597],[539,480],[597,258],[480,60],[258,2],[60,119],[2,341]]","true","8","main_T2_Trial","d","img/Fire_Up_Target.gif","[""img/Fire_Down_Distractor.gif"",""img/Fire_Down_Distractor.gif"",""img/Fire_Down_Distractor.gif"",""img/Fire_Down_Distractor.gif"",""img/Fire_Down_Distractor.gif"",""img/Fire_Down_Distractor.gif"",""img/Fire_Down_Distractor.gif"",""img/Fire_Down_Distractor.gif"",""img/Fire_Down_Distractor.gif"",""img/Fire_Down_Distractor.gif"",""img/Fire_Down_Distractor.gif"",""img/Fire_Down_Distractor.gif""]","8","targetUp_distractorsDown"
"","","","","","html-keyboard-response","82","629028","0.0-14.0-0.0-0.34","5eb528ae7c968c3b2dacfd43","619531dcf66c91622fa1b861","6195954d5b601b02d574655d","null","","null","","","","","main_T1_ITI","","","","",""
"","","","","","visual-search-circle","83","631522","0.0-14.0-0.0-1.34","5eb528ae7c968c3b2dacfd43","619531dcf66c91622fa1b861","6195954d5b601b02d574655d","1479.4000000003725","","s","true","[[187,21],[0,320],[227,591],[554,458],[529,107]]","false","5","main_T2_Trial","s","img/Fire_Up_Target.gif","[""img/Fire_Down_Distractor.gif"",""img/Fire_Down_Distractor.gif"",""img/Fire_Down_Distractor.gif"",""img/Fire_Down_Distractor.gif"",""img/Fire_Down_Distractor.gif"",""img/Fire_Down_Distractor.gif"",""img/Fire_Down_Distractor.gif"",""img/Fire_Down_Distractor.gif"",""img/Fire_Down_Distractor.gif"",""img/Fire_Down_Distractor.gif"",""img/Fire_Down_Distractor.gif"",""img/Fire_Down_Distractor.gif""]","5","targetUp_distractorsDown"
"","","","","","html-keyboard-response","84","631525","0.0-14.0-0.0-0.35","5eb528ae7c968c3b2dacfd43","619531dcf66c91622fa1b861","6195954d5b601b02d574655d","null","","null","","","","","main_T1_ITI","","","","",""
"","","","","","visual-search-circle","85","633290","0.0-14.0-0.0-1.35","5eb528ae7c968c3b2dacfd43","619531dcf66c91622fa1b861","6195954d5b601b02d574655d","751.4000000003725","","d","true","[[168,569],[397,583],[569,431],[583,202],[431,30],[202,16],[30,168],[16,397]]","true","8","main_T2_Trial","d","img/Fire_Up_Target.gif","[""img/Fire_Down_Distractor.gif"",""img/Fire_Down_Distractor.gif"",""img/Fire_Down_Distractor.gif"",""img/Fire_Down_Distractor.gif"",""img/Fire_Down_Distractor.gif"",""img/Fire_Down_Distractor.gif"",""img/Fire_Down_Distractor.gif"",""img/Fire_Down_Distractor.gif"",""img/Fire_Down_Distractor.gif"",""img/Fire_Down_Distractor.gif"",""img/Fire_Down_Distractor.gif"",""img/Fire_Down_Distractor.gif""]","8","targetUp_distractorsDown"
"","","","","","html-keyboard-response","86","633291","0.0-14.0-0.0-0.36","5eb528ae7c968c3b2dacfd43","619531dcf66c91622fa1b861","6195954d5b601b02d574655d","null","","null","","","","","main_T1_ITI","","","","",""
"","","","","","visual-search-circle","87","635882","0.0-14.0-0.0-1.36","5eb528ae7c968c3b2dacfd43","619531dcf66c91622fa1b861","6195954d5b601b02d574655d","1576.6000000005588","","s","true","[[10,222],[40,450],[222,589],[450,559],[589,377],[559,150],[377,10],[150,40]]","false","8","main_T2_Trial","s","img/Fire_Down_Target.gif","[""img/Fire_Up_Distractor.gif"",""img/Fire_Up_Distractor.gif"",""img/Fire_Up_Distractor.gif"",""img/Fire_Up_Distractor.gif"",""img/Fire_Up_Distractor.gif"",""img/Fire_Up_Distractor.gif"",""img/Fire_Up_Distractor.gif"",""img/Fire_Up_Distractor.gif"",""img/Fire_Up_Distractor.gif"",""img/Fire_Up_Distractor.gif"",""img/Fire_Up_Distractor.gif"",""img/Fire_Up_Distractor.gif""]","8","targetDown_distractorsUp"
"","","","","","html-keyboard-response","88","635883","0.0-14.0-0.0-0.37","5eb528ae7c968c3b2dacfd43","619531dcf66c91622fa1b861","6195954d5b601b02d574655d","null","","null","","","","","main_T1_ITI","","","","",""
"","","","","","visual-search-circle","89","638234","0.0-14.0-0.0-1.37","5eb528ae7c968c3b2dacfd43","619531dcf66c91622fa1b861","6195954d5b601b02d574655d","1344.9000000003725","","s","true","[[315,0],[0,284],[284,599],[599,315]]","false","4","main_T2_Trial","s","img/Fire_Down_Target.gif","[""img/Fire_Up_Distractor.gif"",""img/Fire_Up_Distractor.gif"",""img/Fire_Up_Distractor.gif"",""img/Fire_Up_Distractor.gif"",""img/Fire_Up_Distractor.gif"",""img/Fire_Up_Distractor.gif"",""img/Fire_Up_Distractor.gif"",""img/Fire_Up_Distractor.gif"",""img/Fire_Up_Distractor.gif"",""img/Fire_Up_Distractor.gif"",""img/Fire_Up_Distractor.gif"",""img/Fire_Up_Distractor.gif""]","4","targetDown_distractorsUp"
"","","","","","html-keyboard-response","90","638236","0.0-14.0-0.0-0.38","5eb528ae7c968c3b2dacfd43","619531dcf66c91622fa1b861","6195954d5b601b02d574655d","null","","null","","","","","main_T1_ITI","","","","",""
"","","","","","visual-search-circle","91","640618","0.0-14.0-0.0-1.38","5eb528ae7c968c3b2dacfd43","619531dcf66c91622fa1b861","6195954d5b601b02d574655d","1371.9000000003725","","d","true","[[35,440],[289,599],[554,458],[564,159],[310,0],[45,141]]","true","6","main_T2_Trial","d","img/Fire_Up_Target.gif","[""img/Fire_Down_Distractor.gif"",""img/Fire_Down_Distractor.gif"",""img/Fire_Down_Distractor.gif"",""img/Fire_Down_Distractor.gif"",""img/Fire_Down_Distractor.gif"",""img/Fire_Down_Distractor.gif"",""img/Fire_Down_Distractor.gif"",""img/Fire_Down_Distractor.gif"",""img/Fire_Down_Distractor.gif"",""img/Fire_Down_Distractor.gif"",""img/Fire_Down_Distractor.gif"",""img/Fire_Down_Distractor.gif""]","6","targetUp_distractorsDown"
"","","","","","html-keyboard-response","92","641482","0.0-14.0-0.0-0.39","5eb528ae7c968c3b2dacfd43","619531dcf66c91622fa1b861","6195954d5b601b02d574655d","863.5999999996275","Wow! You've completed 40 out of 160 trials! </p> <p>  </p><p> Take a quick break, then press any key when you're ready to continue.","arrowright","","","","","main_T1_ITI","","","","",""
"","","","","","visual-search-circle","93","643834","0.0-14.0-0.0-1.39","5eb528ae7c968c3b2dacfd43","619531dcf66c91622fa1b861","6195954d5b601b02d574655d","1334.9000000003725","","s","true","[[232,7],[7,367],[367,592],[592,232]]","false","4","main_T2_Trial","s","img/Fire_Down_Target.gif","[""img/Fire_Up_Distractor.gif"",""img/Fire_Up_Distractor.gif"",""img/Fire_Up_Distractor.gif"",""img/Fire_Up_Distractor.gif"",""img/Fire_Up_Distractor.gif"",""img/Fire_Up_Distractor.gif"",""img/Fire_Up_Distractor.gif"",""img/Fire_Up_Distractor.gif"",""img/Fire_Up_Distractor.gif"",""img/Fire_Up_Distractor.gif"",""img/Fire_Up_Distractor.gif"",""img/Fire_Up_Distractor.gif""]","4","targetDown_distractorsUp"
"","","","","","html-keyboard-response","94","643837","0.0-14.0-0.0-0.40","5eb528ae7c968c3b2dacfd43","619531dcf66c91622fa1b861","6195954d5b601b02d574655d","null","","null","","","","","main_T1_ITI","","","","",""
"","","","","","visual-search-circle","95","646010","0.0-14.0-0.0-1.40","5eb528ae7c968c3b2dacfd43","619531dcf66c91622fa1b861","6195954d5b601b02d574655d","1158.7000000001863","","s","true","[[202,16],[0,305],[212,586],[545,472],[539,119]]","false","5","main_T2_Trial","s","img/Fire_Up_Target.gif","[""img/Fire_Down_Distractor.gif"",""img/Fire_Down_Distractor.gif"",""img/Fire_Down_Distractor.gif"",""img/Fire_Down_Distractor.gif"",""img/Fire_Down_Distractor.gif"",""img/Fire_Down_Distractor.gif"",""img/Fire_Down_Distractor.gif"",""img/Fire_Down_Distractor.gif"",""img/Fire_Down_Distractor.gif"",""img/Fire_Down_Distractor.gif"",""img/Fire_Down_Distractor.gif"",""img/Fire_Down_Distractor.gif""]","5","targetUp_distractorsDown"
"","","","","","html-keyboard-response","96","646012","0.0-14.0-0.0-0.41","5eb528ae7c968c3b2dacfd43","619531dcf66c91622fa1b861","6195954d5b601b02d574655d","null","","null","","","","","main_T1_ITI","","","","",""
"","","","","","visual-search-circle","97","648169","0.0-14.0-0.0-1.41","5eb528ae7c968c3b2dacfd43","619531dcf66c91622fa1b861","6195954d5b601b02d574655d","1145.300000000745","","d","true","[[597,263],[263,2],[2,336],[336,597]]","true","4","main_T2_Trial","d","img/Fire_Down_Target.gif","[""img/Fire_Up_Distractor.gif"",""img/Fire_Up_Distractor.gif"",""img/Fire_Up_Distractor.gif"",""img/Fire_Up_Distractor.gif"",""img/Fire_Up_Distractor.gif"",""img/Fire_Up_Distractor.gif"",""img/Fire_Up_Distractor.gif"",""img/Fire_Up_Distractor.gif"",""img/Fire_Up_Distractor.gif"",""img/Fire_Up_Distractor.gif"",""img/Fire_Up_Distractor.gif"",""img/Fire_Up_Distractor.gif""]","4","targetDown_distractorsUp"
"","","","","","html-keyboard-response","98","648178","0.0-14.0-0.0-0.42","5eb528ae7c968c3b2dacfd43","619531dcf66c91622fa1b861","6195954d5b601b02d574655d","null","","null","","","","","main_T1_ITI","","","","",""
"","","","","","visual-search-circle","99","650178","0.0-14.0-0.0-1.42","5eb528ae7c968c3b2dacfd43","619531dcf66c91622fa1b861","6195954d5b601b02d574655d","990","","d","true","[[217,588],[508,515],[591,227],[382,11],[91,84],[8,372]]","true","6","main_T2_Trial","d","img/Fire_Down_Target.gif","[""img/Fire_Up_Distractor.gif"",""img/Fire_Up_Distractor.gif"",""img/Fire_Up_Distractor.gif"",""img/Fire_Up_Distractor.gif"",""img/Fire_Up_Distractor.gif"",""img/Fire_Up_Distractor.gif"",""img/Fire_Up_Distractor.gif"",""img/Fire_Up_Distractor.gif"",""img/Fire_Up_Distractor.gif"",""img/Fire_Up_Distractor.gif"",""img/Fire_Up_Distractor.gif"",""img/Fire_Up_Distractor.gif""]","6","targetDown_distractorsUp"
"","","","","","html-keyboard-response","100","650180","0.0-14.0-0.0-0.43","5eb528ae7c968c3b2dacfd43","619531dcf66c91622fa1b861","6195954d5b601b02d574655d","null","","null","","","","","main_T1_ITI","","","","",""
"","","","","","visual-search-circle","101","652314","0.0-14.0-0.0-1.43","5eb528ae7c968c3b2dacfd43","619531dcf66c91622fa1b861","6195954d5b601b02d574655d","1122.5","","s","true","[[504,519],[599,276],[468,51],[210,13],[20,191],[40,450],[256,596]]","false","7","main_T2_Trial","s","img/Fire_Down_Target.gif","[""img/Fire_Up_Distractor.gif"",""img/Fire_Up_Distractor.gif"",""img/Fire_Up_Distractor.gif"",""img/Fire_Up_Distractor.gif"",""img/Fire_Up_Distractor.gif"",""img/Fire_Up_Distractor.gif"",""img/Fire_Up_Distractor.gif"",""img/Fire_Up_Distractor.gif"",""img/Fire_Up_Distractor.gif"",""img/Fire_Up_Distractor.gif"",""img/Fire_Up_Distractor.gif"",""img/Fire_Up_Distractor.gif""]","7","targetDown_distractorsUp"
"","","","","","html-keyboard-response","102","652316","0.0-14.0-0.0-0.44","5eb528ae7c968c3b2dacfd43","619531dcf66c91622fa1b861","6195954d5b601b02d574655d","null","","null","","","","","main_T1_ITI","","","","",""
"","","","","","visual-search-circle","103","654609","0.0-14.0-0.0-1.44","5eb528ae7c968c3b2dacfd43","619531dcf66c91622fa1b861","6195954d5b601b02d574655d","1287.8999999994412","","s","true","[[480,60],[258,2],[60,119],[2,341],[119,539],[341,597],[539,480],[597,258]]","false","8","main_T2_Trial","s","img/Fire_Down_Target.gif","[""img/Fire_Up_Distractor.gif"",""img/Fire_Up_Distractor.gif"",""img/Fire_Up_Distractor.gif"",""img/Fire_Up_Distractor.gif"",""img/Fire_Up_Distractor.gif"",""img/Fire_Up_Distractor.gif"",""img/Fire_Up_Distractor.gif"",""img/Fire_Up_Distractor.gif"",""img/Fire_Up_Distractor.gif"",""img/Fire_Up_Distractor.gif"",""img/Fire_Up_Distractor.gif"",""img/Fire_Up_Distractor.gif""]","8","targetDown_distractorsUp"
"","","","","","html-keyboard-response","104","654612","0.0-14.0-0.0-0.45","5eb528ae7c968c3b2dacfd43","619531dcf66c91622fa1b861","6195954d5b601b02d574655d","null","","null","","","","","main_T1_ITI","","","","",""
"","","","","","visual-search-circle","105","656649","0.0-14.0-0.0-1.45","5eb528ae7c968c3b2dacfd43","619531dcf66c91622fa1b861","6195954d5b601b02d574655d","1031.0999999996275","","s","true","[[77,99],[4,349],[153,562],[413,577],[587,384],[545,127],[317,0]]","false","7","main_T2_Trial","s","img/Fire_Up_Target.gif","[""img/Fire_Down_Distractor.gif"",""img/Fire_Down_Distractor.gif"",""img/Fire_Down_Distractor.gif"",""img/Fire_Down_Distractor.gif"",""img/Fire_Down_Distractor.gif"",""img/Fire_Down_Distractor.gif"",""img/Fire_Down_Distractor.gif"",""img/Fire_Down_Distractor.gif"",""img/Fire_Down_Distractor.gif"",""img/Fire_Down_Distractor.gif"",""img/Fire_Down_Distractor.gif"",""img/Fire_Down_Distractor.gif""]","7","targetUp_distractorsDown"
"","","","","","html-keyboard-response","106","656653","0.0-14.0-0.0-0.46","5eb528ae7c968c3b2dacfd43","619531dcf66c91622fa1b861","6195954d5b601b02d574655d","null","","null","","","","","main_T1_ITI","","","","",""
"","","","","","visual-search-circle","107","658393","0.0-14.0-0.0-1.46","5eb528ae7c968c3b2dacfd43","619531dcf66c91622fa1b861","6195954d5b601b02d574655d","732.2000000001863","","d","true","[[299,600],[559,450],[559,150],[300,0],[40,150],[40,449]]","true","6","main_T2_Trial","d","img/Fire_Down_Target.gif","[""img/Fire_Up_Distractor.gif"",""img/Fire_Up_Distractor.gif"",""img/Fire_Up_Distractor.gif"",""img/Fire_Up_Distractor.gif"",""img/Fire_Up_Distractor.gif"",""img/Fire_Up_Distractor.gif"",""img/Fire_Up_Distractor.gif"",""img/Fire_Up_Distractor.gif"",""img/Fire_Up_Distractor.gif"",""img/Fire_Up_Distractor.gif"",""img/Fire_Up_Distractor.gif"",""img/Fire_Up_Distractor.gif""]","6","targetDown_distractorsUp"
"","","","","","html-keyboard-response","108","658395","0.0-14.0-0.0-0.47","5eb528ae7c968c3b2dacfd43","619531dcf66c91622fa1b861","6195954d5b601b02d574655d","null","","null","","","","","main_T1_ITI","","","","",""
"","","","","","visual-search-circle","109","660234","0.0-14.0-0.0-1.47","5eb528ae7c968c3b2dacfd43","619531dcf66c91622fa1b861","6195954d5b601b02d574655d","826.0999999996275","","s","true","[[40,150],[10,377],[149,559],[377,589],[559,450],[589,222],[449,40],[222,10]]","false","8","main_T2_Trial","s","img/Fire_Up_Target.gif","[""img/Fire_Down_Distractor.gif"",""img/Fire_Down_Distractor.gif"",""img/Fire_Down_Distractor.gif"",""img/Fire_Down_Distractor.gif"",""img/Fire_Down_Distractor.gif"",""img/Fire_Down_Distractor.gif"",""img/Fire_Down_Distractor.gif"",""img/Fire_Down_Distractor.gif"",""img/Fire_Down_Distractor.gif"",""img/Fire_Down_Distractor.gif"",""img/Fire_Down_Distractor.gif"",""img/Fire_Down_Distractor.gif""]","8","targetUp_distractorsDown"
"","","","","","html-keyboard-response","110","660235","0.0-14.0-0.0-0.48","5eb528ae7c968c3b2dacfd43","619531dcf66c91622fa1b861","6195954d5b601b02d574655d","null","","null","","","","","main_T1_ITI","","","","",""
"","","","","","visual-search-circle","111","662970","0.0-14.0-0.0-1.48","5eb528ae7c968c3b2dacfd43","619531dcf66c91622fa1b861","6195954d5b601b02d574655d","1729.2000000001863","","s","true","[[436,567],[593,360],[530,107],[293,0],[61,118],[9,373],[175,573]]","false","7","main_T2_Trial","s","img/Fire_Up_Target.gif","[""img/Fire_Down_Distractor.gif"",""img/Fire_Down_Distractor.gif"",""img/Fire_Down_Distractor.gif"",""img/Fire_Down_Distractor.gif"",""img/Fire_Down_Distractor.gif"",""img/Fire_Down_Distractor.gif"",""img/Fire_Down_Distractor.gif"",""img/Fire_Down_Distractor.gif"",""img/Fire_Down_Distractor.gif"",""img/Fire_Down_Distractor.gif"",""img/Fire_Down_Distractor.gif"",""img/Fire_Down_Distractor.gif""]","7","targetUp_distractorsDown"
"","","","","","html-keyboard-response","112","662973","0.0-14.0-0.0-0.49","5eb528ae7c968c3b2dacfd43","619531dcf66c91622fa1b861","6195954d5b601b02d574655d","null","","null","","","","","main_T1_ITI","","","","",""
"","","","","","visual-search-circle","113","665201","0.0-14.0-0.0-1.49","5eb528ae7c968c3b2dacfd43","619531dcf66c91622fa1b861","6195954d5b601b02d574655d","1225.300000000745","","s","true","[[431,30],[30,168],[168,569],[569,431]]","false","4","main_T2_Trial","s","img/Fire_Down_Target.gif","[""img/Fire_Up_Distractor.gif"",""img/Fire_Up_Distractor.gif"",""img/Fire_Up_Distractor.gif"",""img/Fire_Up_Distractor.gif"",""img/Fire_Up_Distractor.gif"",""img/Fire_Up_Distractor.gif"",""img/Fire_Up_Distractor.gif"",""img/Fire_Up_Distractor.gif"",""img/Fire_Up_Distractor.gif"",""img/Fire_Up_Distractor.gif"",""img/Fire_Up_Distractor.gif"",""img/Fire_Up_Distractor.gif""]","4","targetDown_distractorsUp"
"","","","","","html-keyboard-response","114","665203","0.0-14.0-0.0-0.50","5eb528ae7c968c3b2dacfd43","619531dcf66c91622fa1b861","6195954d5b601b02d574655d","null","","null","","","","","main_T1_ITI","","","","",""
"","","","","","visual-search-circle","115","666801","0.0-14.0-0.0-1.50","5eb528ae7c968c3b2dacfd43","619531dcf66c91622fa1b861","6195954d5b601b02d574655d","583.6000000005588","","d","true","[[77,500],[362,593],[585,392],[522,99],[237,6],[14,207]]","true","6","main_T2_Trial","d","img/Fire_Up_Target.gif","[""img/Fire_Down_Distractor.gif"",""img/Fire_Down_Distractor.gif"",""img/Fire_Down_Distractor.gif"",""img/Fire_Down_Distractor.gif"",""img/Fire_Down_Distractor.gif"",""img/Fire_Down_Distractor.gif"",""img/Fire_Down_Distractor.gif"",""img/Fire_Down_Distractor.gif"",""img/Fire_Down_Distractor.gif"",""img/Fire_Down_Distractor.gif"",""img/Fire_Down_Distractor.gif"",""img/Fire_Down_Distractor.gif""]","6","targetUp_distractorsDown"
"","","","","","html-keyboard-response","116","666803","0.0-14.0-0.0-0.51","5eb528ae7c968c3b2dacfd43","619531dcf66c91622fa1b861","6195954d5b601b02d574655d","null","","null","","","","","main_T1_ITI","","","","",""
"","","","","","visual-search-circle","117","669202","0.0-14.0-0.0-1.51","5eb528ae7c968c3b2dacfd43","619531dcf66c91622fa1b861","6195954d5b601b02d574655d","1392.9000000003725","","d","true","[[87,512],[377,589],[589,377],[512,87],[222,10],[10,222]]","true","6","main_T2_Trial","d","img/Fire_Down_Target.gif","[""img/Fire_Up_Distractor.gif"",""img/Fire_Up_Distractor.gif"",""img/Fire_Up_Distractor.gif"",""img/Fire_Up_Distractor.gif"",""img/Fire_Up_Distractor.gif"",""img/Fire_Up_Distractor.gif"",""img/Fire_Up_Distractor.gif"",""img/Fire_Up_Distractor.gif"",""img/Fire_Up_Distractor.gif"",""img/Fire_Up_Distractor.gif"",""img/Fire_Up_Distractor.gif"",""img/Fire_Up_Distractor.gif""]","6","targetDown_distractorsUp"
"","","","","","html-keyboard-response","118","669204","0.0-14.0-0.0-0.52","5eb528ae7c968c3b2dacfd43","619531dcf66c91622fa1b861","6195954d5b601b02d574655d","null","","null","","","","","main_T1_ITI","","","","",""
"","","","","","visual-search-circle","119","671057","0.0-14.0-0.0-1.52","5eb528ae7c968c3b2dacfd43","619531dcf66c91622fa1b861","6195954d5b601b02d574655d","848.9000000003725","","s","true","[[567,163],[360,6],[107,69],[0,306],[118,538],[373,590],[573,424]]","false","7","main_T2_Trial","s","img/Fire_Up_Target.gif","[""img/Fire_Down_Distractor.gif"",""img/Fire_Down_Distractor.gif"",""img/Fire_Down_Distractor.gif"",""img/Fire_Down_Distractor.gif"",""img/Fire_Down_Distractor.gif"",""img/Fire_Down_Distractor.gif"",""img/Fire_Down_Distractor.gif"",""img/Fire_Down_Distractor.gif"",""img/Fire_Down_Distractor.gif"",""img/Fire_Down_Distractor.gif"",""img/Fire_Down_Distractor.gif"",""img/Fire_Down_Distractor.gif""]","7","targetUp_distractorsDown"
"","","","","","html-keyboard-response","120","671060","0.0-14.0-0.0-0.53","5eb528ae7c968c3b2dacfd43","619531dcf66c91622fa1b861","6195954d5b601b02d574655d","null","","null","","","","","main_T1_ITI","","","","",""
"","","","","","visual-search-circle","121","673530","0.0-14.0-0.0-1.53","5eb528ae7c968c3b2dacfd43","619531dcf66c91622fa1b861","6195954d5b601b02d574655d","1452.7999999998137","","s","true","[[417,23],[23,182],[182,576],[576,417]]","false","4","main_T2_Trial","s","img/Fire_Down_Target.gif","[""img/Fire_Up_Distractor.gif"",""img/Fire_Up_Distractor.gif"",""img/Fire_Up_Distractor.gif"",""img/Fire_Up_Distractor.gif"",""img/Fire_Up_Distractor.gif"",""img/Fire_Up_Distractor.gif"",""img/Fire_Up_Distractor.gif"",""img/Fire_Up_Distractor.gif"",""img/Fire_Up_Distractor.gif"",""img/Fire_Up_Distractor.gif"",""img/Fire_Up_Distractor.gif"",""img/Fire_Up_Distractor.gif""]","4","targetDown_distractorsUp"
"","","","","","html-keyboard-response","122","673531","0.0-14.0-0.0-0.54","5eb528ae7c968c3b2dacfd43","619531dcf66c91622fa1b861","6195954d5b601b02d574655d","null","","null","","","","","main_T1_ITI","","","","",""
"","","","","","visual-search-circle","123","675377","0.0-14.0-0.0-1.54","5eb528ae7c968c3b2dacfd43","619531dcf66c91622fa1b861","6195954d5b601b02d574655d","836.0999999996275","","s","true","[[87,512],[299,600],[512,512],[600,300],[512,87],[300,0],[87,87],[0,299]]","false","8","main_T2_Trial","s","img/Fire_Down_Target.gif","[""img/Fire_Up_Distractor.gif"",""img/Fire_Up_Distractor.gif"",""img/Fire_Up_Distractor.gif"",""img/Fire_Up_Distractor.gif"",""img/Fire_Up_Distractor.gif"",""img/Fire_Up_Distractor.gif"",""img/Fire_Up_Distractor.gif"",""img/Fire_Up_Distractor.gif"",""img/Fire_Up_Distractor.gif"",""img/Fire_Up_Distractor.gif"",""img/Fire_Up_Distractor.gif"",""img/Fire_Up_Distractor.gif""]","8","targetDown_distractorsUp"
"","","","","","html-keyboard-response","124","675379","0.0-14.0-0.0-0.55","5eb528ae7c968c3b2dacfd43","619531dcf66c91622fa1b861","6195954d5b601b02d574655d","null","","null","","","","","main_T1_ITI","","","","",""
"","","","","","visual-search-circle","125","677089","0.0-14.0-0.0-1.55","5eb528ae7c968c3b2dacfd43","619531dcf66c91622fa1b861","6195954d5b601b02d574655d","699","","d","true","[[54,472],[281,599],[522,501],[596,251],[446,38],[186,22],[12,215]]","true","7","main_T2_Trial","d","img/Fire_Down_Target.gif","[""img/Fire_Up_Distractor.gif"",""img/Fire_Up_Distractor.gif"",""img/Fire_Up_Distractor.gif"",""img/Fire_Up_Distractor.gif"",""img/Fire_Up_Distractor.gif"",""img/Fire_Up_Distractor.gif"",""img/Fire_Up_Distractor.gif"",""img/Fire_Up_Distractor.gif"",""img/Fire_Up_Distractor.gif"",""img/Fire_Up_Distractor.gif"",""img/Fire_Up_Distractor.gif"",""img/Fire_Up_Distractor.gif""]","7","targetDown_distractorsUp"
"","","","","","html-keyboard-response","126","677092","0.0-14.0-0.0-0.56","5eb528ae7c968c3b2dacfd43","619531dcf66c91622fa1b861","6195954d5b601b02d574655d","null","","null","","","","","main_T1_ITI","","","","",""
"","","","","","visual-search-circle","127","679617","0.0-14.0-0.0-1.56","5eb528ae7c968c3b2dacfd43","619531dcf66c91622fa1b861","6195954d5b601b02d574655d","1513.0999999996275","","d","true","[[192,19],[0,315],[222,589],[551,463],[533,111]]","true","5","main_T2_Trial","d","img/Fire_Up_Target.gif","[""img/Fire_Down_Distractor.gif"",""img/Fire_Down_Distractor.gif"",""img/Fire_Down_Distractor.gif"",""img/Fire_Down_Distractor.gif"",""img/Fire_Down_Distractor.gif"",""img/Fire_Down_Distractor.gif"",""img/Fire_Down_Distractor.gif"",""img/Fire_Down_Distractor.gif"",""img/Fire_Down_Distractor.gif"",""img/Fire_Down_Distractor.gif"",""img/Fire_Down_Distractor.gif"",""img/Fire_Down_Distractor.gif""]","5","targetUp_distractorsDown"
"","","","","","html-keyboard-response","128","679619","0.0-14.0-0.0-0.57","5eb528ae7c968c3b2dacfd43","619531dcf66c91622fa1b861","6195954d5b601b02d574655d","null","","null","","","","","main_T1_ITI","","","","",""
"","","","","","visual-search-circle","129","681857","0.0-14.0-0.0-1.57","5eb528ae7c968c3b2dacfd43","619531dcf66c91622fa1b861","6195954d5b601b02d574655d","1233.7000000001863","","s","true","[[2,341],[247,595],[564,440],[515,91],[168,30]]","false","5","main_T2_Trial","s","img/Fire_Up_Target.gif","[""img/Fire_Down_Distractor.gif"",""img/Fire_Down_Distractor.gif"",""img/Fire_Down_Distractor.gif"",""img/Fire_Down_Distractor.gif"",""img/Fire_Down_Distractor.gif"",""img/Fire_Down_Distractor.gif"",""img/Fire_Down_Distractor.gif"",""img/Fire_Down_Distractor.gif"",""img/Fire_Down_Distractor.gif"",""img/Fire_Down_Distractor.gif"",""img/Fire_Down_Distractor.gif"",""img/Fire_Down_Distractor.gif""]","5","targetUp_distractorsDown"
"","","","","","html-keyboard-response","130","681859","0.0-14.0-0.0-0.58","5eb528ae7c968c3b2dacfd43","619531dcf66c91622fa1b861","6195954d5b601b02d574655d","null","","null","","","","","main_T1_ITI","","","","",""
"","","","","","visual-search-circle","131","684178","0.0-14.0-0.0-1.58","5eb528ae7c968c3b2dacfd43","619531dcf66c91622fa1b861","6195954d5b601b02d574655d","1308.4000000003725","","d","true","[[431,30],[171,29],[7,231],[64,485],[298,599],[533,488],[592,234]]","true","7","main_T2_Trial","d","img/Fire_Up_Target.gif","[""img/Fire_Down_Distractor.gif"",""img/Fire_Down_Distractor.gif"",""img/Fire_Down_Distractor.gif"",""img/Fire_Down_Distractor.gif"",""img/Fire_Down_Distractor.gif"",""img/Fire_Down_Distractor.gif"",""img/Fire_Down_Distractor.gif"",""img/Fire_Down_Distractor.gif"",""img/Fire_Down_Distractor.gif"",""img/Fire_Down_Distractor.gif"",""img/Fire_Down_Distractor.gif"",""img/Fire_Down_Distractor.gif""]","7","targetUp_distractorsDown"
"","","","","","html-keyboard-response","132","686769","0.0-14.0-0.0-0.59","5eb528ae7c968c3b2dacfd43","619531dcf66c91622fa1b861","6195954d5b601b02d574655d","2591.2999999998137","Wow! You've completed 60 out of 160 trials! </p> <p>  </p><p> Take a quick break, then press any key when you're ready to continue.","arrowright","","","","","main_T1_ITI","","","","",""
"","","","","","visual-search-circle","133","688777","0.0-14.0-0.0-1.59","5eb528ae7c968c3b2dacfd43","619531dcf66c91622fa1b861","6195954d5b601b02d574655d","1005.8999999994412","","s","true","[[422,574],[574,177],[177,25],[25,422]]","false","4","main_T2_Trial","s","img/Fire_Down_Target.gif","[""img/Fire_Up_Distractor.gif"",""img/Fire_Up_Distractor.gif"",""img/Fire_Up_Distractor.gif"",""img/Fire_Up_Distractor.gif"",""img/Fire_Up_Distractor.gif"",""img/Fire_Up_Distractor.gif"",""img/Fire_Up_Distractor.gif"",""img/Fire_Up_Distractor.gif"",""img/Fire_Up_Distractor.gif"",""img/Fire_Up_Distractor.gif"",""img/Fire_Up_Distractor.gif"",""img/Fire_Up_Distractor.gif""]","4","targetDown_distractorsUp"
"","","","","","html-keyboard-response","134","688779","0.0-14.0-0.0-0.60","5eb528ae7c968c3b2dacfd43","619531dcf66c91622fa1b861","6195954d5b601b02d574655d","null","","null","","","","","main_T1_ITI","","","","",""
"","","","","","visual-search-circle","135","690865","0.0-14.0-0.0-1.60","5eb528ae7c968c3b2dacfd43","619531dcf66c91622fa1b861","6195954d5b601b02d574655d","1076.0999999996275","","d","true","[[597,341],[431,30],[84,91],[35,440],[352,595]]","true","5","main_T2_Trial","d","img/Fire_Down_Target.gif","[""img/Fire_Up_Distractor.gif"",""img/Fire_Up_Distractor.gif"",""img/Fire_Up_Distractor.gif"",""img/Fire_Up_Distractor.gif"",""img/Fire_Up_Distractor.gif"",""img/Fire_Up_Distractor.gif"",""img/Fire_Up_Distractor.gif"",""img/Fire_Up_Distractor.gif"",""img/Fire_Up_Distractor.gif"",""img/Fire_Up_Distractor.gif"",""img/Fire_Up_Distractor.gif"",""img/Fire_Up_Distractor.gif""]","5","targetDown_distractorsUp"
"","","","","","html-keyboard-response","136","690867","0.0-14.0-0.0-0.61","5eb528ae7c968c3b2dacfd43","619531dcf66c91622fa1b861","6195954d5b601b02d574655d","null","","null","","","","","main_T1_ITI","","","","",""
"","","","","","visual-search-circle","137","692505","0.0-14.0-0.0-1.61","5eb528ae7c968c3b2dacfd43","619531dcf66c91622fa1b861","6195954d5b601b02d574655d","627.2999999998137","","d","true","[[77,500],[284,599],[500,522],[599,315],[522,99],[315,0],[99,77],[0,284]]","true","8","main_T2_Trial","d","img/Fire_Down_Target.gif","[""img/Fire_Up_Distractor.gif"",""img/Fire_Up_Distractor.gif"",""img/Fire_Up_Distractor.gif"",""img/Fire_Up_Distractor.gif"",""img/Fire_Up_Distractor.gif"",""img/Fire_Up_Distractor.gif"",""img/Fire_Up_Distractor.gif"",""img/Fire_Up_Distractor.gif"",""img/Fire_Up_Distractor.gif"",""img/Fire_Up_Distractor.gif"",""img/Fire_Up_Distractor.gif"",""img/Fire_Up_Distractor.gif""]","8","targetDown_distractorsUp"
"","","","","","html-keyboard-response","138","692507","0.0-14.0-0.0-0.62","5eb528ae7c968c3b2dacfd43","619531dcf66c91622fa1b861","6195954d5b601b02d574655d","null","","null","","","","","main_T1_ITI","","","","",""
"","","","","","visual-search-circle","139","694578","0.0-14.0-0.0-1.62","5eb528ae7c968c3b2dacfd43","619531dcf66c91622fa1b861","6195954d5b601b02d574655d","1053.2999999998137","","s","true","[[202,16],[17,199],[45,458],[264,597],[511,513],[598,267],[460,46]]","false","7","main_T2_Trial","s","img/Fire_Up_Target.gif","[""img/Fire_Down_Distractor.gif"",""img/Fire_Down_Distractor.gif"",""img/Fire_Down_Distractor.gif"",""img/Fire_Down_Distractor.gif"",""img/Fire_Down_Distractor.gif"",""img/Fire_Down_Distractor.gif"",""img/Fire_Down_Distractor.gif"",""img/Fire_Down_Distractor.gif"",""img/Fire_Down_Distractor.gif"",""img/Fire_Down_Distractor.gif"",""img/Fire_Down_Distractor.gif"",""img/Fire_Down_Distractor.gif""]","7","targetUp_distractorsDown"
"","","","","","html-keyboard-response","140","694581","0.0-14.0-0.0-0.63","5eb528ae7c968c3b2dacfd43","619531dcf66c91622fa1b861","6195954d5b601b02d574655d","null","","null","","","","","main_T1_ITI","","","","",""
"","","","","","visual-search-circle","141","696489","0.0-14.0-0.0-1.63","5eb528ae7c968c3b2dacfd43","619531dcf66c91622fa1b861","6195954d5b601b02d574655d","905.9000000003725","","s","true","[[454,42],[154,37],[0,294],[145,557],[445,562],[599,305]]","false","6","main_T2_Trial","s","img/Fire_Up_Target.gif","[""img/Fire_Down_Distractor.gif"",""img/Fire_Down_Distractor.gif"",""img/Fire_Down_Distractor.gif"",""img/Fire_Down_Distractor.gif"",""img/Fire_Down_Distractor.gif"",""img/Fire_Down_Distractor.gif"",""img/Fire_Down_Distractor.gif"",""img/Fire_Down_Distractor.gif"",""img/Fire_Down_Distractor.gif"",""img/Fire_Down_Distractor.gif"",""img/Fire_Down_Distractor.gif"",""img/Fire_Down_Distractor.gif""]","6","targetUp_distractorsDown"
"","","","","","html-keyboard-response","142","696491","0.0-14.0-0.0-0.64","5eb528ae7c968c3b2dacfd43","619531dcf66c91622fa1b861","6195954d5b601b02d574655d","null","","null","","","","","main_T1_ITI","","","","",""
"","","","","","visual-search-circle","143","698465","0.0-14.0-0.0-1.64","5eb528ae7c968c3b2dacfd43","619531dcf66c91622fa1b861","6195954d5b601b02d574655d","964","","s","true","[[554,458],[529,107],[187,21],[0,320],[227,591]]","false","5","main_T2_Trial","s","img/Fire_Down_Target.gif","[""img/Fire_Up_Distractor.gif"",""img/Fire_Up_Distractor.gif"",""img/Fire_Up_Distractor.gif"",""img/Fire_Up_Distractor.gif"",""img/Fire_Up_Distractor.gif"",""img/Fire_Up_Distractor.gif"",""img/Fire_Up_Distractor.gif"",""img/Fire_Up_Distractor.gif"",""img/Fire_Up_Distractor.gif"",""img/Fire_Up_Distractor.gif"",""img/Fire_Up_Distractor.gif"",""img/Fire_Up_Distractor.gif""]","5","targetDown_distractorsUp"
"","","","","","html-keyboard-response","144","698467","0.0-14.0-0.0-0.65","5eb528ae7c968c3b2dacfd43","619531dcf66c91622fa1b861","6195954d5b601b02d574655d","null","","null","","","","","main_T1_ITI","","","","",""
"","","","","","visual-search-circle","145","700761","0.0-14.0-0.0-1.65","5eb528ae7c968c3b2dacfd43","619531dcf66c91622fa1b861","6195954d5b601b02d574655d","1276.5","","s","true","[[0,310],[121,540],[376,589],[574,420],[565,160],[356,5],[104,72]]","false","7","main_T2_Trial","s","img/Fire_Down_Target.gif","[""img/Fire_Up_Distractor.gif"",""img/Fire_Up_Distractor.gif"",""img/Fire_Up_Distractor.gif"",""img/Fire_Up_Distractor.gif"",""img/Fire_Up_Distractor.gif"",""img/Fire_Up_Distractor.gif"",""img/Fire_Up_Distractor.gif"",""img/Fire_Up_Distractor.gif"",""img/Fire_Up_Distractor.gif"",""img/Fire_Up_Distractor.gif"",""img/Fire_Up_Distractor.gif"",""img/Fire_Up_Distractor.gif""]","7","targetDown_distractorsUp"
"","","","","","html-keyboard-response","146","700764","0.0-14.0-0.0-0.66","5eb528ae7c968c3b2dacfd43","619531dcf66c91622fa1b861","6195954d5b601b02d574655d","null","","null","","","","","main_T1_ITI","","","","",""
"","","","","","visual-search-circle","147","703377","0.0-14.0-0.0-1.66","5eb528ae7c968c3b2dacfd43","619531dcf66c91622fa1b861","6195954d5b601b02d574655d","1595","","s","false","[[8,227],[91,515],[382,588],[591,372],[508,84],[217,11]]","true","6","main_T2_Trial","d","img/Fire_Up_Target.gif","[""img/Fire_Down_Distractor.gif"",""img/Fire_Down_Distractor.gif"",""img/Fire_Down_Distractor.gif"",""img/Fire_Down_Distractor.gif"",""img/Fire_Down_Distractor.gif"",""img/Fire_Down_Distractor.gif"",""img/Fire_Down_Distractor.gif"",""img/Fire_Down_Distractor.gif"",""img/Fire_Down_Distractor.gif"",""img/Fire_Down_Distractor.gif"",""img/Fire_Down_Distractor.gif"",""img/Fire_Down_Distractor.gif""]","6","targetUp_distractorsDown"
"","","","","","html-keyboard-response","148","703380","0.0-14.0-0.0-0.67","5eb528ae7c968c3b2dacfd43","619531dcf66c91622fa1b861","6195954d5b601b02d574655d","null","","null","","","","","main_T1_ITI","","","","",""
"","","","","","visual-search-circle","149","706938","0.0-14.0-0.0-1.67","5eb528ae7c968c3b2dacfd43","619531dcf66c91622fa1b861","6195954d5b601b02d574655d","2544.5","","d","true","[[382,588],[588,217],[217,11],[11,382]]","true","4","main_T2_Trial","d","img/Fire_Down_Target.gif","[""img/Fire_Up_Distractor.gif"",""img/Fire_Up_Distractor.gif"",""img/Fire_Up_Distractor.gif"",""img/Fire_Up_Distractor.gif"",""img/Fire_Up_Distractor.gif"",""img/Fire_Up_Distractor.gif"",""img/Fire_Up_Distractor.gif"",""img/Fire_Up_Distractor.gif"",""img/Fire_Up_Distractor.gif"",""img/Fire_Up_Distractor.gif"",""img/Fire_Up_Distractor.gif"",""img/Fire_Up_Distractor.gif""]","4","targetDown_distractorsUp"
"","","","","","html-keyboard-response","150","706940","0.0-14.0-0.0-0.68","5eb528ae7c968c3b2dacfd43","619531dcf66c91622fa1b861","6195954d5b601b02d574655d","null","","null","","","","","main_T1_ITI","","","","",""
"","","","","","visual-search-circle","151","712201","0.0-14.0-0.0-1.68","5eb528ae7c968c3b2dacfd43","619531dcf66c91622fa1b861","6195954d5b601b02d574655d","4251.300000000745","","d","true","[[87,512],[512,512],[512,87],[87,87]]","true","4","main_T2_Trial","d","img/Fire_Up_Target.gif","[""img/Fire_Down_Distractor.gif"",""img/Fire_Down_Distractor.gif"",""img/Fire_Down_Distractor.gif"",""img/Fire_Down_Distractor.gif"",""img/Fire_Down_Distractor.gif"",""img/Fire_Down_Distractor.gif"",""img/Fire_Down_Distractor.gif"",""img/Fire_Down_Distractor.gif"",""img/Fire_Down_Distractor.gif"",""img/Fire_Down_Distractor.gif"",""img/Fire_Down_Distractor.gif"",""img/Fire_Down_Distractor.gif""]","4","targetUp_distractorsDown"
"","","","","","html-keyboard-response","152","712203","0.0-14.0-0.0-0.69","5eb528ae7c968c3b2dacfd43","619531dcf66c91622fa1b861","6195954d5b601b02d574655d","null","","null","","","","","main_T1_ITI","","","","",""
"","","","","","visual-search-circle","153","715025","0.0-14.0-0.0-1.69","5eb528ae7c968c3b2dacfd43","619531dcf66c91622fa1b861","6195954d5b601b02d574655d","1803.4000000003725","","s","true","[[500,77],[284,0],[77,99],[0,315],[99,522],[315,599],[522,500],[599,284]]","false","8","main_T2_Trial","s","img/Fire_Down_Target.gif","[""img/Fire_Up_Distractor.gif"",""img/Fire_Up_Distractor.gif"",""img/Fire_Up_Distractor.gif"",""img/Fire_Up_Distractor.gif"",""img/Fire_Up_Distractor.gif"",""img/Fire_Up_Distractor.gif"",""img/Fire_Up_Distractor.gif"",""img/Fire_Up_Distractor.gif"",""img/Fire_Up_Distractor.gif"",""img/Fire_Up_Distractor.gif"",""img/Fire_Up_Distractor.gif"",""img/Fire_Up_Distractor.gif""]","8","targetDown_distractorsUp"
"","","","","","html-keyboard-response","154","715027","0.0-14.0-0.0-0.70","5eb528ae7c968c3b2dacfd43","619531dcf66c91622fa1b861","6195954d5b601b02d574655d","null","","null","","","","","main_T1_ITI","","","","",""
"","","","","","visual-search-circle","155","717553","0.0-14.0-0.0-1.70","5eb528ae7c968c3b2dacfd43","619531dcf66c91622fa1b861","6195954d5b601b02d574655d","1511.199999999255","","s","true","[[217,11],[0,289],[197,581],[536,484],[548,132]]","false","5","main_T2_Trial","s","img/Fire_Down_Target.gif","[""img/Fire_Up_Distractor.gif"",""img/Fire_Up_Distractor.gif"",""img/Fire_Up_Distractor.gif"",""img/Fire_Up_Distractor.gif"",""img/Fire_Up_Distractor.gif"",""img/Fire_Up_Distractor.gif"",""img/Fire_Up_Distractor.gif"",""img/Fire_Up_Distractor.gif"",""img/Fire_Up_Distractor.gif"",""img/Fire_Up_Distractor.gif"",""img/Fire_Up_Distractor.gif"",""img/Fire_Up_Distractor.gif""]","5","targetDown_distractorsUp"
"","","","","","html-keyboard-response","156","717555","0.0-14.0-0.0-0.71","5eb528ae7c968c3b2dacfd43","619531dcf66c91622fa1b861","6195954d5b601b02d574655d","null","","null","","","","","main_T1_ITI","","","","",""
"","","","","","visual-search-circle","157","720185","0.0-14.0-0.0-1.71","5eb528ae7c968c3b2dacfd43","619531dcf66c91622fa1b861","6195954d5b601b02d574655d","1623.4000000003725","","s","true","[[512,87],[222,10],[10,222],[87,512],[377,589],[589,377]]","false","6","main_T2_Trial","s","img/Fire_Down_Target.gif","[""img/Fire_Up_Distractor.gif"",""img/Fire_Up_Distractor.gif"",""img/Fire_Up_Distractor.gif"",""img/Fire_Up_Distractor.gif"",""img/Fire_Up_Distractor.gif"",""img/Fire_Up_Distractor.gif"",""img/Fire_Up_Distractor.gif"",""img/Fire_Up_Distractor.gif"",""img/Fire_Up_Distractor.gif"",""img/Fire_Up_Distractor.gif"",""img/Fire_Up_Distractor.gif"",""img/Fire_Up_Distractor.gif""]","6","targetDown_distractorsUp"
"","","","","","html-keyboard-response","158","720187","0.0-14.0-0.0-0.72","5eb528ae7c968c3b2dacfd43","619531dcf66c91622fa1b861","6195954d5b601b02d574655d","null","","null","","","","","main_T1_ITI","","","","",""
"","","","","","visual-search-circle","159","722905","0.0-14.0-0.0-1.72","5eb528ae7c968c3b2dacfd43","619531dcf66c91622fa1b861","6195954d5b601b02d574655d","1713.9000000003725","","s","true","[[597,341],[484,63],[187,21],[2,258],[115,536],[412,578]]","false","6","main_T2_Trial","s","img/Fire_Up_Target.gif","[""img/Fire_Down_Distractor.gif"",""img/Fire_Down_Distractor.gif"",""img/Fire_Down_Distractor.gif"",""img/Fire_Down_Distractor.gif"",""img/Fire_Down_Distractor.gif"",""img/Fire_Down_Distractor.gif"",""img/Fire_Down_Distractor.gif"",""img/Fire_Down_Distractor.gif"",""img/Fire_Down_Distractor.gif"",""img/Fire_Down_Distractor.gif"",""img/Fire_Down_Distractor.gif"",""img/Fire_Down_Distractor.gif""]","6","targetUp_distractorsDown"
"","","","","","html-keyboard-response","160","722908","0.0-14.0-0.0-0.73","5eb528ae7c968c3b2dacfd43","619531dcf66c91622fa1b861","6195954d5b601b02d574655d","null","","null","","","","","main_T1_ITI","","","","",""
"","","","","","visual-search-circle","161","727025","0.0-14.0-0.0-1.73","5eb528ae7c968c3b2dacfd43","619531dcf66c91622fa1b861","6195954d5b601b02d574655d","3102.300000000745","","s","true","[[564,159],[159,35],[35,440],[440,564]]","false","4","main_T2_Trial","s","img/Fire_Up_Target.gif","[""img/Fire_Down_Distractor.gif"",""img/Fire_Down_Distractor.gif"",""img/Fire_Down_Distractor.gif"",""img/Fire_Down_Distractor.gif"",""img/Fire_Down_Distractor.gif"",""img/Fire_Down_Distractor.gif"",""img/Fire_Down_Distractor.gif"",""img/Fire_Down_Distractor.gif"",""img/Fire_Down_Distractor.gif"",""img/Fire_Down_Distractor.gif"",""img/Fire_Down_Distractor.gif"",""img/Fire_Down_Distractor.gif""]","4","targetUp_distractorsDown"
"","","","","","html-keyboard-response","162","727029","0.0-14.0-0.0-0.74","5eb528ae7c968c3b2dacfd43","619531dcf66c91622fa1b861","6195954d5b601b02d574655d","null","","null","","","","","main_T1_ITI","","","","",""
"","","","","","visual-search-circle","163","728929","0.0-14.0-0.0-1.74","5eb528ae7c968c3b2dacfd43","619531dcf66c91622fa1b861","6195954d5b601b02d574655d","889.9000000003725","","d","true","[[387,13],[95,80],[7,367],[212,586],[504,519],[592,232]]","true","6","main_T2_Trial","d","img/Fire_Down_Target.gif","[""img/Fire_Up_Distractor.gif"",""img/Fire_Up_Distractor.gif"",""img/Fire_Up_Distractor.gif"",""img/Fire_Up_Distractor.gif"",""img/Fire_Up_Distractor.gif"",""img/Fire_Up_Distractor.gif"",""img/Fire_Up_Distractor.gif"",""img/Fire_Up_Distractor.gif"",""img/Fire_Up_Distractor.gif"",""img/Fire_Up_Distractor.gif"",""img/Fire_Up_Distractor.gif"",""img/Fire_Up_Distractor.gif""]","6","targetDown_distractorsUp"
"","","","","","html-keyboard-response","164","728931","0.0-14.0-0.0-0.75","5eb528ae7c968c3b2dacfd43","619531dcf66c91622fa1b861","6195954d5b601b02d574655d","null","","null","","","","","main_T1_ITI","","","","",""
"","","","","","visual-search-circle","165","731177","0.0-14.0-0.0-1.75","5eb528ae7c968c3b2dacfd43","619531dcf66c91622fa1b861","6195954d5b601b02d574655d","1240.9000000003725","","d","true","[[564,159],[159,35],[35,440],[440,564]]","true","4","main_T2_Trial","d","img/Fire_Down_Target.gif","[""img/Fire_Up_Distractor.gif"",""img/Fire_Up_Distractor.gif"",""img/Fire_Up_Distractor.gif"",""img/Fire_Up_Distractor.gif"",""img/Fire_Up_Distractor.gif"",""img/Fire_Up_Distractor.gif"",""img/Fire_Up_Distractor.gif"",""img/Fire_Up_Distractor.gif"",""img/Fire_Up_Distractor.gif"",""img/Fire_Up_Distractor.gif"",""img/Fire_Up_Distractor.gif"",""img/Fire_Up_Distractor.gif""]","4","targetDown_distractorsUp"
"","","","","","html-keyboard-response","166","731179","0.0-14.0-0.0-0.76","5eb528ae7c968c3b2dacfd43","619531dcf66c91622fa1b861","6195954d5b601b02d574655d","null","","null","","","","","main_T1_ITI","","","","",""
"","","","","","visual-search-circle","167","733361","0.0-14.0-0.0-1.76","5eb528ae7c968c3b2dacfd43","619531dcf66c91622fa1b861","6195954d5b601b02d574655d","1174.6000000014901","","d","true","[[310,0],[95,80],[0,289],[80,504],[289,599],[504,519],[599,310],[519,95]]","true","8","main_T2_Trial","d","img/Fire_Up_Target.gif","[""img/Fire_Down_Distractor.gif"",""img/Fire_Down_Distractor.gif"",""img/Fire_Down_Distractor.gif"",""img/Fire_Down_Distractor.gif"",""img/Fire_Down_Distractor.gif"",""img/Fire_Down_Distractor.gif"",""img/Fire_Down_Distractor.gif"",""img/Fire_Down_Distractor.gif"",""img/Fire_Down_Distractor.gif"",""img/Fire_Down_Distractor.gif"",""img/Fire_Down_Distractor.gif"",""img/Fire_Down_Distractor.gif""]","8","targetUp_distractorsDown"
"","","","","","html-keyboard-response","168","733363","0.0-14.0-0.0-0.77","5eb528ae7c968c3b2dacfd43","619531dcf66c91622fa1b861","6195954d5b601b02d574655d","null","","null","","","","","main_T1_ITI","","","","",""
"","","","","","visual-search-circle","169","735617","0.0-14.0-0.0-1.77","5eb528ae7c968c3b2dacfd43","619531dcf66c91622fa1b861","6195954d5b601b02d574655d","1241.199999999255","","d","true","[[571,173],[402,18],[173,28],[18,197],[28,426],[197,581],[426,571],[581,402]]","true","8","main_T2_Trial","d","img/Fire_Down_Target.gif","[""img/Fire_Up_Distractor.gif"",""img/Fire_Up_Distractor.gif"",""img/Fire_Up_Distractor.gif"",""img/Fire_Up_Distractor.gif"",""img/Fire_Up_Distractor.gif"",""img/Fire_Up_Distractor.gif"",""img/Fire_Up_Distractor.gif"",""img/Fire_Up_Distractor.gif"",""img/Fire_Up_Distractor.gif"",""img/Fire_Up_Distractor.gif"",""img/Fire_Up_Distractor.gif"",""img/Fire_Up_Distractor.gif""]","8","targetDown_distractorsUp"
"","","","","","html-keyboard-response","170","735619","0.0-14.0-0.0-0.78","5eb528ae7c968c3b2dacfd43","619531dcf66c91622fa1b861","6195954d5b601b02d574655d","null","","null","","","","","main_T1_ITI","","","","",""
"","","","","","visual-search-circle","171","737857","0.0-14.0-0.0-1.78","5eb528ae7c968c3b2dacfd43","619531dcf66c91622fa1b861","6195954d5b601b02d574655d","1223.8999999985099","","d","true","[[589,222],[222,10],[10,377],[377,589]]","true","4","main_T2_Trial","d","img/Fire_Down_Target.gif","[""img/Fire_Up_Distractor.gif"",""img/Fire_Up_Distractor.gif"",""img/Fire_Up_Distractor.gif"",""img/Fire_Up_Distractor.gif"",""img/Fire_Up_Distractor.gif"",""img/Fire_Up_Distractor.gif"",""img/Fire_Up_Distractor.gif"",""img/Fire_Up_Distractor.gif"",""img/Fire_Up_Distractor.gif"",""img/Fire_Up_Distractor.gif"",""img/Fire_Up_Distractor.gif"",""img/Fire_Up_Distractor.gif""]","4","targetDown_distractorsUp"
"","","","","","html-keyboard-response","172","739553","0.0-14.0-0.0-0.79","5eb528ae7c968c3b2dacfd43","619531dcf66c91622fa1b861","6195954d5b601b02d574655d","1695.9000000003725","Wow! You've completed 80 out of 160 trials! </p> <p>  </p><p> Take a quick break, then press any key when you're ready to continue.","arrowright","","","","","main_T1_ITI","","","","",""
"","","","","","visual-search-circle","173","741793","0.0-14.0-0.0-1.79","5eb528ae7c968c3b2dacfd43","619531dcf66c91622fa1b861","6195954d5b601b02d574655d","1222.2000000011176","","s","true","[[99,522],[315,599],[522,500],[599,284],[500,77],[284,0],[77,99],[0,315]]","false","8","main_T2_Trial","s","img/Fire_Up_Target.gif","[""img/Fire_Down_Distractor.gif"",""img/Fire_Down_Distractor.gif"",""img/Fire_Down_Distractor.gif"",""img/Fire_Down_Distractor.gif"",""img/Fire_Down_Distractor.gif"",""img/Fire_Down_Distractor.gif"",""img/Fire_Down_Distractor.gif"",""img/Fire_Down_Distractor.gif"",""img/Fire_Down_Distractor.gif"",""img/Fire_Down_Distractor.gif"",""img/Fire_Down_Distractor.gif"",""img/Fire_Down_Distractor.gif""]","8","targetUp_distractorsDown"
"","","","","","html-keyboard-response","174","741795","0.0-14.0-0.0-0.80","5eb528ae7c968c3b2dacfd43","619531dcf66c91622fa1b861","6195954d5b601b02d574655d","null","","null","","","","","main_T1_ITI","","","","",""
"","","","","","visual-search-circle","175","743793","0.0-14.0-0.0-1.80","5eb528ae7c968c3b2dacfd43","619531dcf66c91622fa1b861","6195954d5b601b02d574655d","986.4000000003725","","d","true","[[320,0],[79,97],[3,346],[151,560],[410,578],[587,386],[547,129]]","true","7","main_T2_Trial","d","img/Fire_Up_Target.gif","[""img/Fire_Down_Distractor.gif"",""img/Fire_Down_Distractor.gif"",""img/Fire_Down_Distractor.gif"",""img/Fire_Down_Distractor.gif"",""img/Fire_Down_Distractor.gif"",""img/Fire_Down_Distractor.gif"",""img/Fire_Down_Distractor.gif"",""img/Fire_Down_Distractor.gif"",""img/Fire_Down_Distractor.gif"",""img/Fire_Down_Distractor.gif"",""img/Fire_Down_Distractor.gif"",""img/Fire_Down_Distractor.gif""]","7","targetUp_distractorsDown"
"","","","","","html-keyboard-response","176","743796","0.0-14.0-0.0-0.81","5eb528ae7c968c3b2dacfd43","619531dcf66c91622fa1b861","6195954d5b601b02d574655d","null","","null","","","","","main_T1_ITI","","","","",""
"","","","","","visual-search-circle","177","745825","0.0-14.0-0.0-1.81","5eb528ae7c968c3b2dacfd43","619531dcf66c91622fa1b861","6195954d5b601b02d574655d","1012.6000000014901","","d","true","[[173,571],[433,568],[593,363],[532,110],[296,0],[63,115],[8,370]]","true","7","main_T2_Trial","d","img/Fire_Down_Target.gif","[""img/Fire_Up_Distractor.gif"",""img/Fire_Up_Distractor.gif"",""img/Fire_Up_Distractor.gif"",""img/Fire_Up_Distractor.gif"",""img/Fire_Up_Distractor.gif"",""img/Fire_Up_Distractor.gif"",""img/Fire_Up_Distractor.gif"",""img/Fire_Up_Distractor.gif"",""img/Fire_Up_Distractor.gif"",""img/Fire_Up_Distractor.gif"",""img/Fire_Up_Distractor.gif"",""img/Fire_Up_Distractor.gif""]","7","targetDown_distractorsUp"
"","","","","","html-keyboard-response","178","745827","0.0-14.0-0.0-0.82","5eb528ae7c968c3b2dacfd43","619531dcf66c91622fa1b861","6195954d5b601b02d574655d","null","","null","","","","","main_T1_ITI","","","","",""
"","","","","","visual-search-circle","179","748601","0.0-14.0-0.0-1.82","5eb528ae7c968c3b2dacfd43","619531dcf66c91622fa1b861","6195954d5b601b02d574655d","1770.300000000745","","s","true","[[422,25],[77,99],[40,450],[362,593],[598,331]]","false","5","main_T2_Trial","s","img/Fire_Up_Target.gif","[""img/Fire_Down_Distractor.gif"",""img/Fire_Down_Distractor.gif"",""img/Fire_Down_Distractor.gif"",""img/Fire_Down_Distractor.gif"",""img/Fire_Down_Distractor.gif"",""img/Fire_Down_Distractor.gif"",""img/Fire_Down_Distractor.gif"",""img/Fire_Down_Distractor.gif"",""img/Fire_Down_Distractor.gif"",""img/Fire_Down_Distractor.gif"",""img/Fire_Down_Distractor.gif"",""img/Fire_Down_Distractor.gif""]","5","targetUp_distractorsDown"
"","","","","","html-keyboard-response","180","748604","0.0-14.0-0.0-0.83","5eb528ae7c968c3b2dacfd43","619531dcf66c91622fa1b861","6195954d5b601b02d574655d","null","","null","","","","","main_T1_ITI","","","","",""
"","","","","","visual-search-circle","181","751569","0.0-14.0-0.0-1.83","5eb528ae7c968c3b2dacfd43","619531dcf66c91622fa1b861","6195954d5b601b02d574655d","1954","","s","true","[[154,37],[11,217],[37,445],[217,588],[445,562],[588,382],[562,154],[382,11]]","false","8","main_T2_Trial","s","img/Fire_Up_Target.gif","[""img/Fire_Down_Distractor.gif"",""img/Fire_Down_Distractor.gif"",""img/Fire_Down_Distractor.gif"",""img/Fire_Down_Distractor.gif"",""img/Fire_Down_Distractor.gif"",""img/Fire_Down_Distractor.gif"",""img/Fire_Down_Distractor.gif"",""img/Fire_Down_Distractor.gif"",""img/Fire_Down_Distractor.gif"",""img/Fire_Down_Distractor.gif"",""img/Fire_Down_Distractor.gif"",""img/Fire_Down_Distractor.gif""]","8","targetUp_distractorsDown"
"","","","","","html-keyboard-response","182","751571","0.0-14.0-0.0-0.84","5eb528ae7c968c3b2dacfd43","619531dcf66c91622fa1b861","6195954d5b601b02d574655d","null","","null","","","","","main_T1_ITI","","","","",""
"","","","","","visual-search-circle","183","753753","0.0-14.0-0.0-1.84","5eb528ae7c968c3b2dacfd43","619531dcf66c91622fa1b861","6195954d5b601b02d574655d","1173.9000000003725","","s","false","[[2,336],[336,597],[597,263],[263,2]]","true","4","main_T2_Trial","d","img/Fire_Up_Target.gif","[""img/Fire_Down_Distractor.gif"",""img/Fire_Down_Distractor.gif"",""img/Fire_Down_Distractor.gif"",""img/Fire_Down_Distractor.gif"",""img/Fire_Down_Distractor.gif"",""img/Fire_Down_Distractor.gif"",""img/Fire_Down_Distractor.gif"",""img/Fire_Down_Distractor.gif"",""img/Fire_Down_Distractor.gif"",""img/Fire_Down_Distractor.gif"",""img/Fire_Down_Distractor.gif"",""img/Fire_Down_Distractor.gif""]","4","targetUp_distractorsDown"
"","","","","","html-keyboard-response","184","753755","0.0-14.0-0.0-0.85","5eb528ae7c968c3b2dacfd43","619531dcf66c91622fa1b861","6195954d5b601b02d574655d","null","","null","","","","","main_T1_ITI","","","","",""
"","","","","","visual-search-circle","185","755561","0.0-14.0-0.0-1.85","5eb528ae7c968c3b2dacfd43","619531dcf66c91622fa1b861","6195954d5b601b02d574655d","793.8000000007451","","d","true","[[336,2],[60,119],[23,417],[263,597],[539,480],[576,182]]","true","6","main_T2_Trial","d","img/Fire_Up_Target.gif","[""img/Fire_Down_Distractor.gif"",""img/Fire_Down_Distractor.gif"",""img/Fire_Down_Distractor.gif"",""img/Fire_Down_Distractor.gif"",""img/Fire_Down_Distractor.gif"",""img/Fire_Down_Distractor.gif"",""img/Fire_Down_Distractor.gif"",""img/Fire_Down_Distractor.gif"",""img/Fire_Down_Distractor.gif"",""img/Fire_Down_Distractor.gif"",""img/Fire_Down_Distractor.gif"",""img/Fire_Down_Distractor.gif""]","6","targetUp_distractorsDown"
"","","","","","html-keyboard-response","186","755563","0.0-14.0-0.0-0.86","5eb528ae7c968c3b2dacfd43","619531dcf66c91622fa1b861","6195954d5b601b02d574655d","null","","null","","","","","main_T1_ITI","","","","",""
"","","","","","visual-search-circle","187","757801","0.0-14.0-0.0-1.86","5eb528ae7c968c3b2dacfd43","619531dcf66c91622fa1b861","6195954d5b601b02d574655d","1223.5","","s","true","[[279,599],[599,320],[320,0],[0,279]]","false","4","main_T2_Trial","s","img/Fire_Up_Target.gif","[""img/Fire_Down_Distractor.gif"",""img/Fire_Down_Distractor.gif"",""img/Fire_Down_Distractor.gif"",""img/Fire_Down_Distractor.gif"",""img/Fire_Down_Distractor.gif"",""img/Fire_Down_Distractor.gif"",""img/Fire_Down_Distractor.gif"",""img/Fire_Down_Distractor.gif"",""img/Fire_Down_Distractor.gif"",""img/Fire_Down_Distractor.gif"",""img/Fire_Down_Distractor.gif"",""img/Fire_Down_Distractor.gif""]","4","targetUp_distractorsDown"
"","","","","","html-keyboard-response","188","757804","0.0-14.0-0.0-0.87","5eb528ae7c968c3b2dacfd43","619531dcf66c91622fa1b861","6195954d5b601b02d574655d","null","","null","","","","","main_T1_ITI","","","","",""
"","","","","","visual-search-circle","189","760193","0.0-14.0-0.0-1.87","5eb528ae7c968c3b2dacfd43","619531dcf66c91622fa1b861","6195954d5b601b02d574655d","1379.9000000003725","","s","true","[[377,10],[87,87],[10,377],[222,589],[512,512],[589,222]]","false","6","main_T2_Trial","s","img/Fire_Down_Target.gif","[""img/Fire_Up_Distractor.gif"",""img/Fire_Up_Distractor.gif"",""img/Fire_Up_Distractor.gif"",""img/Fire_Up_Distractor.gif"",""img/Fire_Up_Distractor.gif"",""img/Fire_Up_Distractor.gif"",""img/Fire_Up_Distractor.gif"",""img/Fire_Up_Distractor.gif"",""img/Fire_Up_Distractor.gif"",""img/Fire_Up_Distractor.gif"",""img/Fire_Up_Distractor.gif"",""img/Fire_Up_Distractor.gif""]","6","targetDown_distractorsUp"
"","","","","","html-keyboard-response","190","760197","0.0-14.0-0.0-0.88","5eb528ae7c968c3b2dacfd43","619531dcf66c91622fa1b861","6195954d5b601b02d574655d","null","","null","","","","","main_T1_ITI","","","","",""
"","","","","","visual-search-circle","191","762617","0.0-14.0-0.0-1.88","5eb528ae7c968c3b2dacfd43","619531dcf66c91622fa1b861","6195954d5b601b02d574655d","1415.2000000011176","","s","true","[[30,431],[279,599],[548,467],[569,168],[320,0],[51,132]]","false","6","main_T2_Trial","s","img/Fire_Up_Target.gif","[""img/Fire_Down_Distractor.gif"",""img/Fire_Down_Distractor.gif"",""img/Fire_Down_Distractor.gif"",""img/Fire_Down_Distractor.gif"",""img/Fire_Down_Distractor.gif"",""img/Fire_Down_Distractor.gif"",""img/Fire_Down_Distractor.gif"",""img/Fire_Down_Distractor.gif"",""img/Fire_Down_Distractor.gif"",""img/Fire_Down_Distractor.gif"",""img/Fire_Down_Distractor.gif"",""img/Fire_Down_Distractor.gif""]","6","targetUp_distractorsDown"
"","","","","","html-keyboard-response","192","762620","0.0-14.0-0.0-0.89","5eb528ae7c968c3b2dacfd43","619531dcf66c91622fa1b861","6195954d5b601b02d574655d","null","","null","","","","","main_T1_ITI","","","","",""
"","","","","","visual-search-circle","193","764561","0.0-14.0-0.0-1.89","5eb528ae7c968c3b2dacfd43","619531dcf66c91622fa1b861","6195954d5b601b02d574655d","935","","d","true","[[595,247],[341,2],[30,168],[91,515],[440,564]]","true","5","main_T2_Trial","d","img/Fire_Up_Target.gif","[""img/Fire_Down_Distractor.gif"",""img/Fire_Down_Distractor.gif"",""img/Fire_Down_Distractor.gif"",""img/Fire_Down_Distractor.gif"",""img/Fire_Down_Distractor.gif"",""img/Fire_Down_Distractor.gif"",""img/Fire_Down_Distractor.gif"",""img/Fire_Down_Distractor.gif"",""img/Fire_Down_Distractor.gif"",""img/Fire_Down_Distractor.gif"",""img/Fire_Down_Distractor.gif"",""img/Fire_Down_Distractor.gif""]","5","targetUp_distractorsDown"
"","","","","","html-keyboard-response","194","764564","0.0-14.0-0.0-0.90","5eb528ae7c968c3b2dacfd43","619531dcf66c91622fa1b861","6195954d5b601b02d574655d","null","","null","","","","","main_T1_ITI","","","","",""
"","","","","","visual-search-circle","195","766457","0.0-14.0-0.0-1.90","5eb528ae7c968c3b2dacfd43","619531dcf66c91622fa1b861","6195954d5b601b02d574655d","884.1999999992549","","d","true","[[412,578],[578,187],[187,21],[21,412]]","true","4","main_T2_Trial","d","img/Fire_Up_Target.gif","[""img/Fire_Down_Distractor.gif"",""img/Fire_Down_Distractor.gif"",""img/Fire_Down_Distractor.gif"",""img/Fire_Down_Distractor.gif"",""img/Fire_Down_Distractor.gif"",""img/Fire_Down_Distractor.gif"",""img/Fire_Down_Distractor.gif"",""img/Fire_Down_Distractor.gif"",""img/Fire_Down_Distractor.gif"",""img/Fire_Down_Distractor.gif"",""img/Fire_Down_Distractor.gif"",""img/Fire_Down_Distractor.gif""]","4","targetUp_distractorsDown"
"","","","","","html-keyboard-response","196","766459","0.0-14.0-0.0-0.91","5eb528ae7c968c3b2dacfd43","619531dcf66c91622fa1b861","6195954d5b601b02d574655d","null","","null","","","","","main_T1_ITI","","","","",""
"","","","","","visual-search-circle","197","769337","0.0-14.0-0.0-1.91","5eb528ae7c968c3b2dacfd43","619531dcf66c91622fa1b861","6195954d5b601b02d574655d","1868.1000000014901","","d","true","[[599,310],[458,45],[159,35],[0,289],[141,554],[440,564]]","true","6","main_T2_Trial","d","img/Fire_Down_Target.gif","[""img/Fire_Up_Distractor.gif"",""img/Fire_Up_Distractor.gif"",""img/Fire_Up_Distractor.gif"",""img/Fire_Up_Distractor.gif"",""img/Fire_Up_Distractor.gif"",""img/Fire_Up_Distractor.gif"",""img/Fire_Up_Distractor.gif"",""img/Fire_Up_Distractor.gif"",""img/Fire_Up_Distractor.gif"",""img/Fire_Up_Distractor.gif"",""img/Fire_Up_Distractor.gif"",""img/Fire_Up_Distractor.gif""]","6","targetDown_distractorsUp"
"","","","","","html-keyboard-response","198","769339","0.0-14.0-0.0-0.92","5eb528ae7c968c3b2dacfd43","619531dcf66c91622fa1b861","6195954d5b601b02d574655d","null","","null","","","","","main_T1_ITI","","","","",""
"","","","","","visual-search-circle","199","772681","0.0-14.0-0.0-1.92","5eb528ae7c968c3b2dacfd43","619531dcf66c91622fa1b861","6195954d5b601b02d574655d","2324.0999999996275","","d","true","[[63,484],[341,597],[578,412],[536,115],[258,2],[21,187]]","true","6","main_T2_Trial","d","img/Fire_Up_Target.gif","[""img/Fire_Down_Distractor.gif"",""img/Fire_Down_Distractor.gif"",""img/Fire_Down_Distractor.gif"",""img/Fire_Down_Distractor.gif"",""img/Fire_Down_Distractor.gif"",""img/Fire_Down_Distractor.gif"",""img/Fire_Down_Distractor.gif"",""img/Fire_Down_Distractor.gif"",""img/Fire_Down_Distractor.gif"",""img/Fire_Down_Distractor.gif"",""img/Fire_Down_Distractor.gif"",""img/Fire_Down_Distractor.gif""]","6","targetUp_distractorsDown"
"","","","","","html-keyboard-response","200","772683","0.0-14.0-0.0-0.93","5eb528ae7c968c3b2dacfd43","619531dcf66c91622fa1b861","6195954d5b601b02d574655d","null","","null","","","","","main_T1_ITI","","","","",""
"","","","","","visual-search-circle","201","774825","0.0-14.0-0.0-1.93","5eb528ae7c968c3b2dacfd43","619531dcf66c91622fa1b861","6195954d5b601b02d574655d","1130.699999999255","","s","true","[[66,111],[1,331],[111,533],[331,598],[533,488],[598,268],[488,66],[268,1]]","false","8","main_T2_Trial","s","img/Fire_Up_Target.gif","[""img/Fire_Down_Distractor.gif"",""img/Fire_Down_Distractor.gif"",""img/Fire_Down_Distractor.gif"",""img/Fire_Down_Distractor.gif"",""img/Fire_Down_Distractor.gif"",""img/Fire_Down_Distractor.gif"",""img/Fire_Down_Distractor.gif"",""img/Fire_Down_Distractor.gif"",""img/Fire_Down_Distractor.gif"",""img/Fire_Down_Distractor.gif"",""img/Fire_Down_Distractor.gif"",""img/Fire_Down_Distractor.gif""]","8","targetUp_distractorsDown"
"","","","","","html-keyboard-response","202","774827","0.0-14.0-0.0-0.94","5eb528ae7c968c3b2dacfd43","619531dcf66c91622fa1b861","6195954d5b601b02d574655d","null","","null","","","","","main_T1_ITI","","","","",""
"","","","","","visual-search-circle","203","777113","0.0-14.0-0.0-1.94","5eb528ae7c968c3b2dacfd43","619531dcf66c91622fa1b861","6195954d5b601b02d574655d","1279","","s","true","[[595,247],[402,18],[107,70],[4,352],[197,581],[492,529]]","false","6","main_T2_Trial","s","img/Fire_Up_Target.gif","[""img/Fire_Down_Distractor.gif"",""img/Fire_Down_Distractor.gif"",""img/Fire_Down_Distractor.gif"",""img/Fire_Down_Distractor.gif"",""img/Fire_Down_Distractor.gif"",""img/Fire_Down_Distractor.gif"",""img/Fire_Down_Distractor.gif"",""img/Fire_Down_Distractor.gif"",""img/Fire_Down_Distractor.gif"",""img/Fire_Down_Distractor.gif"",""img/Fire_Down_Distractor.gif"",""img/Fire_Down_Distractor.gif""]","6","targetUp_distractorsDown"
"","","","","","html-keyboard-response","204","777116","0.0-14.0-0.0-0.95","5eb528ae7c968c3b2dacfd43","619531dcf66c91622fa1b861","6195954d5b601b02d574655d","null","","null","","","","","main_T1_ITI","","","","",""
"","","","","","visual-search-circle","205","778905","0.0-14.0-0.0-1.95","5eb528ae7c968c3b2dacfd43","619531dcf66c91622fa1b861","6195954d5b601b02d574655d","777.5999999996275","","d","true","[[504,80],[212,13],[7,232],[95,519],[387,586],[592,367]]","true","6","main_T2_Trial","d","img/Fire_Up_Target.gif","[""img/Fire_Down_Distractor.gif"",""img/Fire_Down_Distractor.gif"",""img/Fire_Down_Distractor.gif"",""img/Fire_Down_Distractor.gif"",""img/Fire_Down_Distractor.gif"",""img/Fire_Down_Distractor.gif"",""img/Fire_Down_Distractor.gif"",""img/Fire_Down_Distractor.gif"",""img/Fire_Down_Distractor.gif"",""img/Fire_Down_Distractor.gif"",""img/Fire_Down_Distractor.gif"",""img/Fire_Down_Distractor.gif""]","6","targetUp_distractorsDown"
"","","","","","html-keyboard-response","206","778907","0.0-14.0-0.0-0.96","5eb528ae7c968c3b2dacfd43","619531dcf66c91622fa1b861","6195954d5b601b02d574655d","null","","null","","","","","main_T1_ITI","","","","",""
"","","","","","visual-search-circle","207","780937","0.0-14.0-0.0-1.96","5eb528ae7c968c3b2dacfd43","619531dcf66c91622fa1b861","6195954d5b601b02d574655d","1016.5999999996275","","s","true","[[227,591],[454,557],[591,372],[557,145],[372,8],[145,42],[8,227],[42,454]]","false","8","main_T2_Trial","s","img/Fire_Up_Target.gif","[""img/Fire_Down_Distractor.gif"",""img/Fire_Down_Distractor.gif"",""img/Fire_Down_Distractor.gif"",""img/Fire_Down_Distractor.gif"",""img/Fire_Down_Distractor.gif"",""img/Fire_Down_Distractor.gif"",""img/Fire_Down_Distractor.gif"",""img/Fire_Down_Distractor.gif"",""img/Fire_Down_Distractor.gif"",""img/Fire_Down_Distractor.gif"",""img/Fire_Down_Distractor.gif"",""img/Fire_Down_Distractor.gif""]","8","targetUp_distractorsDown"
"","","","","","html-keyboard-response","208","780939","0.0-14.0-0.0-0.97","5eb528ae7c968c3b2dacfd43","619531dcf66c91622fa1b861","6195954d5b601b02d574655d","null","","null","","","","","main_T1_ITI","","","","",""
"","","","","","visual-search-circle","209","782785","0.0-14.0-0.0-1.97","5eb528ae7c968c3b2dacfd43","619531dcf66c91622fa1b861","6195954d5b601b02d574655d","843.4000000003725","","d","true","[[592,367],[367,7],[7,232],[232,592]]","true","4","main_T2_Trial","d","img/Fire_Up_Target.gif","[""img/Fire_Down_Distractor.gif"",""img/Fire_Down_Distractor.gif"",""img/Fire_Down_Distractor.gif"",""img/Fire_Down_Distractor.gif"",""img/Fire_Down_Distractor.gif"",""img/Fire_Down_Distractor.gif"",""img/Fire_Down_Distractor.gif"",""img/Fire_Down_Distractor.gif"",""img/Fire_Down_Distractor.gif"",""img/Fire_Down_Distractor.gif"",""img/Fire_Down_Distractor.gif"",""img/Fire_Down_Distractor.gif""]","4","targetUp_distractorsDown"
"","","","","","html-keyboard-response","210","782787","0.0-14.0-0.0-0.98","5eb528ae7c968c3b2dacfd43","619531dcf66c91622fa1b861","6195954d5b601b02d574655d","null","","null","","","","","main_T1_ITI","","","","",""
"","","","","","visual-search-circle","211","785121","0.0-14.0-0.0-1.98","5eb528ae7c968c3b2dacfd43","619531dcf66c91622fa1b861","6195954d5b601b02d574655d","1324","","s","true","[[0,289],[197,581],[536,484],[548,132],[217,11]]","false","5","main_T2_Trial","s","img/Fire_Down_Target.gif","[""img/Fire_Up_Distractor.gif"",""img/Fire_Up_Distractor.gif"",""img/Fire_Up_Distractor.gif"",""img/Fire_Up_Distractor.gif"",""img/Fire_Up_Distractor.gif"",""img/Fire_Up_Distractor.gif"",""img/Fire_Up_Distractor.gif"",""img/Fire_Up_Distractor.gif"",""img/Fire_Up_Distractor.gif"",""img/Fire_Up_Distractor.gif"",""img/Fire_Up_Distractor.gif"",""img/Fire_Up_Distractor.gif""]","5","targetDown_distractorsUp"
"","","","","","html-keyboard-response","212","786281","0.0-14.0-0.0-0.99","5eb528ae7c968c3b2dacfd43","619531dcf66c91622fa1b861","6195954d5b601b02d574655d","1159.699999999255","Wow! You've completed 100 out of 160 trials! </p> <p>  </p><p> Take a quick break, then press any key when you're ready to continue.","arrowright","","","","","main_T1_ITI","","","","",""
"","","","","","visual-search-circle","213","788201","0.0-14.0-0.0-1.99","5eb528ae7c968c3b2dacfd43","619531dcf66c91622fa1b861","6195954d5b601b02d574655d","906","","d","true","[[594,357],[548,132],[357,5],[132,51],[5,242],[51,467],[242,594],[467,548]]","true","8","main_T2_Trial","d","img/Fire_Up_Target.gif","[""img/Fire_Down_Distractor.gif"",""img/Fire_Down_Distractor.gif"",""img/Fire_Down_Distractor.gif"",""img/Fire_Down_Distractor.gif"",""img/Fire_Down_Distractor.gif"",""img/Fire_Down_Distractor.gif"",""img/Fire_Down_Distractor.gif"",""img/Fire_Down_Distractor.gif"",""img/Fire_Down_Distractor.gif"",""img/Fire_Down_Distractor.gif"",""img/Fire_Down_Distractor.gif"",""img/Fire_Down_Distractor.gif""]","8","targetUp_distractorsDown"
"","","","","","html-keyboard-response","214","788203","0.0-14.0-0.0-0.100","5eb528ae7c968c3b2dacfd43","619531dcf66c91622fa1b861","6195954d5b601b02d574655d","null","","null","","","","","main_T1_ITI","","","","",""
"","","","","","visual-search-circle","215","790081","0.0-14.0-0.0-1.100","5eb528ae7c968c3b2dacfd43","619531dcf66c91622fa1b861","6195954d5b601b02d574655d","866.6999999992549","","s","true","[[592,232],[387,13],[95,80],[7,367],[212,586],[504,519]]","false","6","main_T2_Trial","s","img/Fire_Down_Target.gif","[""img/Fire_Up_Distractor.gif"",""img/Fire_Up_Distractor.gif"",""img/Fire_Up_Distractor.gif"",""img/Fire_Up_Distractor.gif"",""img/Fire_Up_Distractor.gif"",""img/Fire_Up_Distractor.gif"",""img/Fire_Up_Distractor.gif"",""img/Fire_Up_Distractor.gif"",""img/Fire_Up_Distractor.gif"",""img/Fire_Up_Distractor.gif"",""img/Fire_Up_Distractor.gif"",""img/Fire_Up_Distractor.gif""]","6","targetDown_distractorsUp"
