"success","timeout","failed_images","failed_audio","failed_video","trial_type","trial_index","time_elapsed","internal_node_id","subject_id","study_id","session_id","rt","stimulus","response","correct","locations","target_present","set_size","task","correct_response","target","foilCM","setSizeCM","searchCondition"
"true","false","[]","[]","[]","preload","0","7130","0.0-0.0","5ec37264194de71cb7b82637","619531dcf66c91622fa1b861","6195955fbf4fafe98e790751","","","","","","","","","","","","",""
"true","","","","","fullscreen","1","9695","0.0-1.0","5ec37264194de71cb7b82637","619531dcf66c91622fa1b861","6195955fbf4fafe98e790751","","","","","","","","","","","","",""
"","","","","","html-keyboard-response","2","13698","0.0-2.0","5ec37264194de71cb7b82637","619531dcf66c91622fa1b861","6195955fbf4fafe98e790751","4001.5","What a beautiful Wednesday to do some awesome science! </p> <p>  </p><p> </p>
    By completing this survey or questionnaire, you are consenting to be in this research study. </p>
    Your participation is voluntary and you can stop at any time.
    <p> [Press any key to continue.] </p>
    
    "," ","","","","","","","","","",""
"","","","","","video-keyboard-response","3","24629","0.0-3.0","5ec37264194de71cb7b82637","619531dcf66c91622fa1b861","6195955fbf4fafe98e790751","10919.90000000596","[""video/TaskInstructions.mp4""]"," ","","","","","","","","","",""
"","","","","","html-keyboard-response","4","27234","0.0-4.0","5ec37264194de71cb7b82637","619531dcf66c91622fa1b861","6195955fbf4fafe98e790751","2603.5","
    <p>First, we're going to do a few practice trials to make sure you understand the task. You will recieve feedback on each trial. </p>
    <p>[Press any key to begin the familiarization phase.]</p>
    ","d","","","","","","","","","",""
"","","","","","visual-search-circle","5","29280","0.0-5.0-0.0","5ec37264194de71cb7b82637","619531dcf66c91622fa1b861","6195955fbf4fafe98e790751","983.1000000238419","","d","true","[[341,597],[597,258],[258,2],[2,341]]","true","4","training","d","","","",""
"","","","","","html-keyboard-response","6","31776","0.0-6.0","5ec37264194de71cb7b82637","619531dcf66c91622fa1b861","6195955fbf4fafe98e790751","2494.7000000178814"," <div style='float: center; '><img src='img/feedbackRight.png'></img> </div> "," ","","","","","","","","","",""
"","","","","","visual-search-circle","7","33601","0.0-7.0-0.0","5ec37264194de71cb7b82637","619531dcf66c91622fa1b861","6195955fbf4fafe98e790751","818.9000000059605","","s","true","[[467,51],[51,132],[132,548],[548,467]]","false","4","training","s","","","",""
"","","","","","html-keyboard-response","8","34829","0.0-8.0","5ec37264194de71cb7b82637","619531dcf66c91622fa1b861","6195955fbf4fafe98e790751","1226.9000000059605"," <div style='float: center; '><img src='img/feedbackRight.png'></img> </div> "," ","","","","","","","","","",""
"","","","","","visual-search-circle","9","37009","0.0-9.0-0.0","5ec37264194de71cb7b82637","619531dcf66c91622fa1b861","6195955fbf4fafe98e790751","1168.5999999940395","","s","true","[[11,382],[227,591],[515,508],[588,217],[372,8],[84,91]]","false","6","training","s","","","",""
"","","","","","html-keyboard-response","10","37690","0.0-10.0","5ec37264194de71cb7b82637","619531dcf66c91622fa1b861","6195955fbf4fafe98e790751","680.7999999821186"," <div style='float: center; '><img src='img/feedbackRight.png'></img> </div> ","s","","","","","","","","","",""
"","","","","","visual-search-circle","11","39729","0.0-11.0-0.0","5ec37264194de71cb7b82637","619531dcf66c91622fa1b861","6195955fbf4fafe98e790751","1028.9000000059605","","d","true","[[594,357],[548,132],[357,5],[132,51],[5,242],[51,467],[242,594],[467,548]]","true","8","training","d","","","",""
"","","","","","html-keyboard-response","12","40448","0.0-12.0","5ec37264194de71cb7b82637","619531dcf66c91622fa1b861","6195955fbf4fafe98e790751","718.1999999880791"," <div style='float: center; '><img src='img/feedbackRight.png'></img> </div> ","d","","","","","","","","","",""
"","","","","","video-keyboard-response","13","42887","0.0-13.0","5ec37264194de71cb7b82637","619531dcf66c91622fa1b861","6195955fbf4fafe98e790751","2436.699999988079","[""video/endTraining.mp4""]"," ","","","","","","","","","",""
"","","","","","html-keyboard-response","14","42891","0.0-14.0-0.0-0.0","5ec37264194de71cb7b82637","619531dcf66c91622fa1b861","6195955fbf4fafe98e790751","null","","null","","","","","main_T1_ITI","","","","",""
"","","","","","visual-search-circle","15","44790","0.0-14.0-0.0-1.0","5ec37264194de71cb7b82637","619531dcf66c91622fa1b861","6195955fbf4fafe98e790751","888.8000000119209","","s","true","[[1,326],[107,529],[326,598],[529,492],[598,273],[492,70],[273,1],[70,107]]","false","8","main_T2_Trial","s","img/Fire_Down_Target.gif","[""img/Fire_Up_Distractor.gif"",""img/Fire_Up_Distractor.gif"",""img/Fire_Up_Distractor.gif"",""img/Fire_Up_Distractor.gif"",""img/Fire_Up_Distractor.gif"",""img/Fire_Up_Distractor.gif"",""img/Fire_Up_Distractor.gif"",""img/Fire_Up_Distractor.gif"",""img/Fire_Up_Distractor.gif"",""img/Fire_Up_Distractor.gif"",""img/Fire_Up_Distractor.gif"",""img/Fire_Up_Distractor.gif""]","8","targetDown_distractorsUp"
"","","","","","html-keyboard-response","16","44793","0.0-14.0-0.0-0.1","5ec37264194de71cb7b82637","619531dcf66c91622fa1b861","6195955fbf4fafe98e790751","null","","null","","","","","main_T1_ITI","","","","",""
"","","","","","visual-search-circle","17","46658","0.0-14.0-0.0-1.1","5ec37264194de71cb7b82637","619531dcf66c91622fa1b861","6195955fbf4fafe98e790751","853.4000000059605","","d","true","[[545,127],[352,4],[127,54],[4,247],[54,472],[247,595],[472,545],[595,352]]","true","8","main_T2_Trial","d","img/Fire_Up_Target.gif","[""img/Fire_Down_Distractor.gif"",""img/Fire_Down_Distractor.gif"",""img/Fire_Down_Distractor.gif"",""img/Fire_Down_Distractor.gif"",""img/Fire_Down_Distractor.gif"",""img/Fire_Down_Distractor.gif"",""img/Fire_Down_Distractor.gif"",""img/Fire_Down_Distractor.gif"",""img/Fire_Down_Distractor.gif"",""img/Fire_Down_Distractor.gif"",""img/Fire_Down_Distractor.gif"",""img/Fire_Down_Distractor.gif""]","8","targetUp_distractorsDown"
"","","","","","html-keyboard-response","18","46660","0.0-14.0-0.0-0.2","5ec37264194de71cb7b82637","619531dcf66c91622fa1b861","6195955fbf4fafe98e790751","null","","null","","","","","main_T1_ITI","","","","",""
"","","","","","visual-search-circle","19","49062","0.0-14.0-0.0-1.2","5ec37264194de71cb7b82637","619531dcf66c91622fa1b861","6195955fbf4fafe98e790751","1392.7000000178814","","d","true","[[28,426],[336,597],[594,357],[445,37],[95,80]]","true","5","main_T2_Trial","d","img/Fire_Down_Target.gif","[""img/Fire_Up_Distractor.gif"",""img/Fire_Up_Distractor.gif"",""img/Fire_Up_Distractor.gif"",""img/Fire_Up_Distractor.gif"",""img/Fire_Up_Distractor.gif"",""img/Fire_Up_Distractor.gif"",""img/Fire_Up_Distractor.gif"",""img/Fire_Up_Distractor.gif"",""img/Fire_Up_Distractor.gif"",""img/Fire_Up_Distractor.gif"",""img/Fire_Up_Distractor.gif"",""img/Fire_Up_Distractor.gif""]","5","targetDown_distractorsUp"
"","","","","","html-keyboard-response","20","49064","0.0-14.0-0.0-0.3","5ec37264194de71cb7b82637","619531dcf66c91622fa1b861","6195955fbf4fafe98e790751","null","","null","","","","","main_T1_ITI","","","","",""
"","","","","","visual-search-circle","21","50993","0.0-14.0-0.0-1.3","5ec37264194de71cb7b82637","619531dcf66c91622fa1b861","6195955fbf4fafe98e790751","915.2999999821186","","d","true","[[598,268],[488,66],[268,1],[66,111],[1,331],[111,533],[331,598],[533,488]]","true","8","main_T2_Trial","d","img/Fire_Up_Target.gif","[""img/Fire_Down_Distractor.gif"",""img/Fire_Down_Distractor.gif"",""img/Fire_Down_Distractor.gif"",""img/Fire_Down_Distractor.gif"",""img/Fire_Down_Distractor.gif"",""img/Fire_Down_Distractor.gif"",""img/Fire_Down_Distractor.gif"",""img/Fire_Down_Distractor.gif"",""img/Fire_Down_Distractor.gif"",""img/Fire_Down_Distractor.gif"",""img/Fire_Down_Distractor.gif"",""img/Fire_Down_Distractor.gif""]","8","targetUp_distractorsDown"
"","","","","","html-keyboard-response","22","50994","0.0-14.0-0.0-0.4","5ec37264194de71cb7b82637","619531dcf66c91622fa1b861","6195955fbf4fafe98e790751","null","","null","","","","","main_T1_ITI","","","","",""
"","","","","","visual-search-circle","23","52744","0.0-14.0-0.0-1.4","5ec37264194de71cb7b82637","619531dcf66c91622fa1b861","6195955fbf4fafe98e790751","742.8000000119209","","s","true","[[599,279],[431,30],[132,51],[0,320],[168,569],[467,548]]","false","6","main_T2_Trial","s","img/Fire_Down_Target.gif","[""img/Fire_Up_Distractor.gif"",""img/Fire_Up_Distractor.gif"",""img/Fire_Up_Distractor.gif"",""img/Fire_Up_Distractor.gif"",""img/Fire_Up_Distractor.gif"",""img/Fire_Up_Distractor.gif"",""img/Fire_Up_Distractor.gif"",""img/Fire_Up_Distractor.gif"",""img/Fire_Up_Distractor.gif"",""img/Fire_Up_Distractor.gif"",""img/Fire_Up_Distractor.gif"",""img/Fire_Up_Distractor.gif""]","6","targetDown_distractorsUp"
"","","","","","html-keyboard-response","24","52746","0.0-14.0-0.0-0.5","5ec37264194de71cb7b82637","619531dcf66c91622fa1b861","6195955fbf4fafe98e790751","null","","null","","","","","main_T1_ITI","","","","",""
"","","","","","visual-search-circle","25","56108","0.0-14.0-0.0-1.5","5ec37264194de71cb7b82637","619531dcf66c91622fa1b861","6195955fbf4fafe98e790751","2354.5","","d","true","[[484,536],[581,197],[289,0],[11,217],[132,548]]","true","5","main_T2_Trial","d","img/Fire_Up_Target.gif","[""img/Fire_Down_Distractor.gif"",""img/Fire_Down_Distractor.gif"",""img/Fire_Down_Distractor.gif"",""img/Fire_Down_Distractor.gif"",""img/Fire_Down_Distractor.gif"",""img/Fire_Down_Distractor.gif"",""img/Fire_Down_Distractor.gif"",""img/Fire_Down_Distractor.gif"",""img/Fire_Down_Distractor.gif"",""img/Fire_Down_Distractor.gif"",""img/Fire_Down_Distractor.gif"",""img/Fire_Down_Distractor.gif""]","5","targetUp_distractorsDown"
"","","","","","html-keyboard-response","26","56110","0.0-14.0-0.0-0.6","5ec37264194de71cb7b82637","619531dcf66c91622fa1b861","6195955fbf4fafe98e790751","null","","null","","","","","main_T1_ITI","","","","",""
"","","","","","visual-search-circle","27","57895","0.0-14.0-0.0-1.6","5ec37264194de71cb7b82637","619531dcf66c91622fa1b861","6195955fbf4fafe98e790751","775.3000000119209","","s","true","[[472,54],[173,28],[1,273],[127,545],[426,571],[598,326]]","false","6","main_T2_Trial","s","img/Fire_Up_Target.gif","[""img/Fire_Down_Distractor.gif"",""img/Fire_Down_Distractor.gif"",""img/Fire_Down_Distractor.gif"",""img/Fire_Down_Distractor.gif"",""img/Fire_Down_Distractor.gif"",""img/Fire_Down_Distractor.gif"",""img/Fire_Down_Distractor.gif"",""img/Fire_Down_Distractor.gif"",""img/Fire_Down_Distractor.gif"",""img/Fire_Down_Distractor.gif"",""img/Fire_Down_Distractor.gif"",""img/Fire_Down_Distractor.gif""]","6","targetUp_distractorsDown"
"","","","","","html-keyboard-response","28","57897","0.0-14.0-0.0-0.7","5ec37264194de71cb7b82637","619531dcf66c91622fa1b861","6195955fbf4fafe98e790751","null","","null","","","","","main_T1_ITI","","","","",""
"","","","","","visual-search-circle","29","60018","0.0-14.0-0.0-1.7","5ec37264194de71cb7b82637","619531dcf66c91622fa1b861","6195955fbf4fafe98e790751","1112.5","","s","true","[[0,310],[217,588],[548,467],[536,115],[197,18]]","false","5","main_T2_Trial","s","img/Fire_Up_Target.gif","[""img/Fire_Down_Distractor.gif"",""img/Fire_Down_Distractor.gif"",""img/Fire_Down_Distractor.gif"",""img/Fire_Down_Distractor.gif"",""img/Fire_Down_Distractor.gif"",""img/Fire_Down_Distractor.gif"",""img/Fire_Down_Distractor.gif"",""img/Fire_Down_Distractor.gif"",""img/Fire_Down_Distractor.gif"",""img/Fire_Down_Distractor.gif"",""img/Fire_Down_Distractor.gif"",""img/Fire_Down_Distractor.gif""]","5","targetUp_distractorsDown"
"","","","","","html-keyboard-response","30","60020","0.0-14.0-0.0-0.8","5ec37264194de71cb7b82637","619531dcf66c91622fa1b861","6195955fbf4fafe98e790751","null","","null","","","","","main_T1_ITI","","","","",""
"","","","","","visual-search-circle","31","61949","0.0-14.0-0.0-1.8","5ec37264194de71cb7b82637","619531dcf66c91622fa1b861","6195955fbf4fafe98e790751","920.1000000238419","","d","true","[[54,472],[326,598],[571,426],[545,127],[273,1],[28,173]]","true","6","main_T2_Trial","d","img/Fire_Up_Target.gif","[""img/Fire_Down_Distractor.gif"",""img/Fire_Down_Distractor.gif"",""img/Fire_Down_Distractor.gif"",""img/Fire_Down_Distractor.gif"",""img/Fire_Down_Distractor.gif"",""img/Fire_Down_Distractor.gif"",""img/Fire_Down_Distractor.gif"",""img/Fire_Down_Distractor.gif"",""img/Fire_Down_Distractor.gif"",""img/Fire_Down_Distractor.gif"",""img/Fire_Down_Distractor.gif"",""img/Fire_Down_Distractor.gif""]","6","targetUp_distractorsDown"
"","","","","","html-keyboard-response","32","61951","0.0-14.0-0.0-0.9","5ec37264194de71cb7b82637","619531dcf66c91622fa1b861","6195955fbf4fafe98e790751","null","","null","","","","","main_T1_ITI","","","","",""
"","","","","","visual-search-circle","33","63751","0.0-14.0-0.0-1.9","5ec37264194de71cb7b82637","619531dcf66c91622fa1b861","6195955fbf4fafe98e790751","792.3999999761581","","s","true","[[115,536],[467,548],[588,217],[310,0],[18,197]]","false","5","main_T2_Trial","s","img/Fire_Down_Target.gif","[""img/Fire_Up_Distractor.gif"",""img/Fire_Up_Distractor.gif"",""img/Fire_Up_Distractor.gif"",""img/Fire_Up_Distractor.gif"",""img/Fire_Up_Distractor.gif"",""img/Fire_Up_Distractor.gif"",""img/Fire_Up_Distractor.gif"",""img/Fire_Up_Distractor.gif"",""img/Fire_Up_Distractor.gif"",""img/Fire_Up_Distractor.gif"",""img/Fire_Up_Distractor.gif"",""img/Fire_Up_Distractor.gif""]","5","targetDown_distractorsUp"
"","","","","","html-keyboard-response","34","63753","0.0-14.0-0.0-0.10","5ec37264194de71cb7b82637","619531dcf66c91622fa1b861","6195955fbf4fafe98e790751","null","","null","","","","","main_T1_ITI","","","","",""
"","","","","","visual-search-circle","35","65502","0.0-14.0-0.0-1.10","5ec37264194de71cb7b82637","619531dcf66c91622fa1b861","6195955fbf4fafe98e790751","741.2000000178814","","d","true","[[19,407],[177,574],[407,580],[574,422],[580,192],[422,25],[192,19],[25,177]]","true","8","main_T2_Trial","d","img/Fire_Up_Target.gif","[""img/Fire_Down_Distractor.gif"",""img/Fire_Down_Distractor.gif"",""img/Fire_Down_Distractor.gif"",""img/Fire_Down_Distractor.gif"",""img/Fire_Down_Distractor.gif"",""img/Fire_Down_Distractor.gif"",""img/Fire_Down_Distractor.gif"",""img/Fire_Down_Distractor.gif"",""img/Fire_Down_Distractor.gif"",""img/Fire_Down_Distractor.gif"",""img/Fire_Down_Distractor.gif"",""img/Fire_Down_Distractor.gif""]","8","targetUp_distractorsDown"
"","","","","","html-keyboard-response","36","65504","0.0-14.0-0.0-0.11","5ec37264194de71cb7b82637","619531dcf66c91622fa1b861","6195955fbf4fafe98e790751","null","","null","","","","","main_T1_ITI","","","","",""
"","","","","","visual-search-circle","37","68429","0.0-14.0-0.0-1.11","5ec37264194de71cb7b82637","619531dcf66c91622fa1b861","6195955fbf4fafe98e790751","1917.300000011921","","s","true","[[77,500],[362,593],[585,392],[522,99],[237,6],[14,207]]","false","6","main_T2_Trial","s","img/Fire_Up_Target.gif","[""img/Fire_Down_Distractor.gif"",""img/Fire_Down_Distractor.gif"",""img/Fire_Down_Distractor.gif"",""img/Fire_Down_Distractor.gif"",""img/Fire_Down_Distractor.gif"",""img/Fire_Down_Distractor.gif"",""img/Fire_Down_Distractor.gif"",""img/Fire_Down_Distractor.gif"",""img/Fire_Down_Distractor.gif"",""img/Fire_Down_Distractor.gif"",""img/Fire_Down_Distractor.gif"",""img/Fire_Down_Distractor.gif""]","6","targetUp_distractorsDown"
"","","","","","html-keyboard-response","38","68431","0.0-14.0-0.0-0.12","5ec37264194de71cb7b82637","619531dcf66c91622fa1b861","6195955fbf4fafe98e790751","null","","null","","","","","main_T1_ITI","","","","",""
"","","","","","visual-search-circle","39","70349","0.0-14.0-0.0-1.12","5ec37264194de71cb7b82637","619531dcf66c91622fa1b861","6195955fbf4fafe98e790751","907.6000000238419","","d","true","[[484,63],[230,8],[28,172],[31,432],[236,593],[489,532],[599,297]]","true","7","main_T2_Trial","d","img/Fire_Up_Target.gif","[""img/Fire_Down_Distractor.gif"",""img/Fire_Down_Distractor.gif"",""img/Fire_Down_Distractor.gif"",""img/Fire_Down_Distractor.gif"",""img/Fire_Down_Distractor.gif"",""img/Fire_Down_Distractor.gif"",""img/Fire_Down_Distractor.gif"",""img/Fire_Down_Distractor.gif"",""img/Fire_Down_Distractor.gif"",""img/Fire_Down_Distractor.gif"",""img/Fire_Down_Distractor.gif"",""img/Fire_Down_Distractor.gif""]","7","targetUp_distractorsDown"
"","","","","","html-keyboard-response","40","70350","0.0-14.0-0.0-0.13","5ec37264194de71cb7b82637","619531dcf66c91622fa1b861","6195955fbf4fafe98e790751","null","","null","","","","","main_T1_ITI","","","","",""
"","","","","","visual-search-circle","41","72203","0.0-14.0-0.0-1.13","5ec37264194de71cb7b82637","619531dcf66c91622fa1b861","6195955fbf4fafe98e790751","845.3000000119209","","s","true","[[16,202],[30,431],[202,583],[431,569],[583,397],[569,168],[397,16],[168,30]]","false","8","main_T2_Trial","s","img/Fire_Up_Target.gif","[""img/Fire_Down_Distractor.gif"",""img/Fire_Down_Distractor.gif"",""img/Fire_Down_Distractor.gif"",""img/Fire_Down_Distractor.gif"",""img/Fire_Down_Distractor.gif"",""img/Fire_Down_Distractor.gif"",""img/Fire_Down_Distractor.gif"",""img/Fire_Down_Distractor.gif"",""img/Fire_Down_Distractor.gif"",""img/Fire_Down_Distractor.gif"",""img/Fire_Down_Distractor.gif"",""img/Fire_Down_Distractor.gif""]","8","targetUp_distractorsDown"
"","","","","","html-keyboard-response","42","72205","0.0-14.0-0.0-0.14","5ec37264194de71cb7b82637","619531dcf66c91622fa1b861","6195955fbf4fafe98e790751","null","","null","","","","","main_T1_ITI","","","","",""
"","","","","","visual-search-circle","43","74173","0.0-14.0-0.0-1.14","5ec37264194de71cb7b82637","619531dcf66c91622fa1b861","6195955fbf4fafe98e790751","957.5","","s","true","[[331,1],[57,123],[25,422],[268,598],[542,476],[574,177]]","false","6","main_T2_Trial","s","img/Fire_Up_Target.gif","[""img/Fire_Down_Distractor.gif"",""img/Fire_Down_Distractor.gif"",""img/Fire_Down_Distractor.gif"",""img/Fire_Down_Distractor.gif"",""img/Fire_Down_Distractor.gif"",""img/Fire_Down_Distractor.gif"",""img/Fire_Down_Distractor.gif"",""img/Fire_Down_Distractor.gif"",""img/Fire_Down_Distractor.gif"",""img/Fire_Down_Distractor.gif"",""img/Fire_Down_Distractor.gif"",""img/Fire_Down_Distractor.gif""]","6","targetUp_distractorsDown"
"","","","","","html-keyboard-response","44","74175","0.0-14.0-0.0-0.15","5ec37264194de71cb7b82637","619531dcf66c91622fa1b861","6195955fbf4fafe98e790751","null","","null","","","","","main_T1_ITI","","","","",""
"","","","","","visual-search-circle","45","76558","0.0-14.0-0.0-1.15","5ec37264194de71cb7b82637","619531dcf66c91622fa1b861","6195955fbf4fafe98e790751","1374.0999999940395","","d","true","[[0,279],[132,548],[431,569],[599,320],[467,51],[168,30]]","true","6","main_T2_Trial","d","img/Fire_Down_Target.gif","[""img/Fire_Up_Distractor.gif"",""img/Fire_Up_Distractor.gif"",""img/Fire_Up_Distractor.gif"",""img/Fire_Up_Distractor.gif"",""img/Fire_Up_Distractor.gif"",""img/Fire_Up_Distractor.gif"",""img/Fire_Up_Distractor.gif"",""img/Fire_Up_Distractor.gif"",""img/Fire_Up_Distractor.gif"",""img/Fire_Up_Distractor.gif"",""img/Fire_Up_Distractor.gif"",""img/Fire_Up_Distractor.gif""]","6","targetDown_distractorsUp"
"","","","","","html-keyboard-response","46","76561","0.0-14.0-0.0-0.16","5ec37264194de71cb7b82637","619531dcf66c91622fa1b861","6195955fbf4fafe98e790751","null","","null","","","","","main_T1_ITI","","","","",""
"","","","","","visual-search-circle","47","78533","0.0-14.0-0.0-1.16","5ec37264194de71cb7b82637","619531dcf66c91622fa1b861","6195955fbf4fafe98e790751","962.3000000119209","","s","true","[[40,450],[222,589],[450,559],[589,377],[559,150],[377,10],[150,40],[10,222]]","false","8","main_T2_Trial","s","img/Fire_Down_Target.gif","[""img/Fire_Up_Distractor.gif"",""img/Fire_Up_Distractor.gif"",""img/Fire_Up_Distractor.gif"",""img/Fire_Up_Distractor.gif"",""img/Fire_Up_Distractor.gif"",""img/Fire_Up_Distractor.gif"",""img/Fire_Up_Distractor.gif"",""img/Fire_Up_Distractor.gif"",""img/Fire_Up_Distractor.gif"",""img/Fire_Up_Distractor.gif"",""img/Fire_Up_Distractor.gif"",""img/Fire_Up_Distractor.gif""]","8","targetDown_distractorsUp"
"","","","","","html-keyboard-response","48","78534","0.0-14.0-0.0-0.17","5ec37264194de71cb7b82637","619531dcf66c91622fa1b861","6195955fbf4fafe98e790751","null","","null","","","","","main_T1_ITI","","","","",""
"","","","","","visual-search-circle","49","80430","0.0-14.0-0.0-1.17","5ec37264194de71cb7b82637","619531dcf66c91622fa1b861","6195955fbf4fafe98e790751","885.6999999880791","","d","true","[[0,305],[305,599],[599,294],[294,0]]","true","4","main_T2_Trial","d","img/Fire_Up_Target.gif","[""img/Fire_Down_Distractor.gif"",""img/Fire_Down_Distractor.gif"",""img/Fire_Down_Distractor.gif"",""img/Fire_Down_Distractor.gif"",""img/Fire_Down_Distractor.gif"",""img/Fire_Down_Distractor.gif"",""img/Fire_Down_Distractor.gif"",""img/Fire_Down_Distractor.gif"",""img/Fire_Down_Distractor.gif"",""img/Fire_Down_Distractor.gif"",""img/Fire_Down_Distractor.gif"",""img/Fire_Down_Distractor.gif""]","4","targetUp_distractorsDown"
"","","","","","html-keyboard-response","50","80431","0.0-14.0-0.0-0.18","5ec37264194de71cb7b82637","619531dcf66c91622fa1b861","6195955fbf4fafe98e790751","null","","null","","","","","main_T1_ITI","","","","",""
"","","","","","visual-search-circle","51","82277","0.0-14.0-0.0-1.18","5ec37264194de71cb7b82637","619531dcf66c91622fa1b861","6195955fbf4fafe98e790751","834.5999999940395","","s","true","[[222,589],[450,559],[589,377],[559,150],[377,10],[150,40],[10,222],[40,449]]","false","8","main_T2_Trial","s","img/Fire_Up_Target.gif","[""img/Fire_Down_Distractor.gif"",""img/Fire_Down_Distractor.gif"",""img/Fire_Down_Distractor.gif"",""img/Fire_Down_Distractor.gif"",""img/Fire_Down_Distractor.gif"",""img/Fire_Down_Distractor.gif"",""img/Fire_Down_Distractor.gif"",""img/Fire_Down_Distractor.gif"",""img/Fire_Down_Distractor.gif"",""img/Fire_Down_Distractor.gif"",""img/Fire_Down_Distractor.gif"",""img/Fire_Down_Distractor.gif""]","8","targetUp_distractorsDown"
"","","","","","html-keyboard-response","52","84033","0.0-14.0-0.0-0.19","5ec37264194de71cb7b82637","619531dcf66c91622fa1b861","6195955fbf4fafe98e790751","1754.7999999821186","Wow! You've completed 20 out of 160 trials! </p> <p>  </p><p> Take a quick break, then press any key when you're ready to continue."," ","","","","","main_T1_ITI","","","","",""
"","","","","","visual-search-circle","53","86690","0.0-14.0-0.0-1.19","5ec37264194de71cb7b82637","619531dcf66c91622fa1b861","6195955fbf4fafe98e790751","1649.3999999761581","","d","true","[[593,362],[362,6],[6,237],[237,593]]","true","4","main_T2_Trial","d","img/Fire_Down_Target.gif","[""img/Fire_Up_Distractor.gif"",""img/Fire_Up_Distractor.gif"",""img/Fire_Up_Distractor.gif"",""img/Fire_Up_Distractor.gif"",""img/Fire_Up_Distractor.gif"",""img/Fire_Up_Distractor.gif"",""img/Fire_Up_Distractor.gif"",""img/Fire_Up_Distractor.gif"",""img/Fire_Up_Distractor.gif"",""img/Fire_Up_Distractor.gif"",""img/Fire_Up_Distractor.gif"",""img/Fire_Up_Distractor.gif""]","4","targetDown_distractorsUp"
"","","","","","html-keyboard-response","54","86692","0.0-14.0-0.0-0.20","5ec37264194de71cb7b82637","619531dcf66c91622fa1b861","6195955fbf4fafe98e790751","null","","null","","","","","main_T1_ITI","","","","",""
"","","","","","visual-search-circle","55","88707","0.0-14.0-0.0-1.20","5ec37264194de71cb7b82637","619531dcf66c91622fa1b861","6195955fbf4fafe98e790751","1006.9000000059605","","s","true","[[412,21],[70,107],[45,458],[372,591],[599,320]]","false","5","main_T2_Trial","s","img/Fire_Up_Target.gif","[""img/Fire_Down_Distractor.gif"",""img/Fire_Down_Distractor.gif"",""img/Fire_Down_Distractor.gif"",""img/Fire_Down_Distractor.gif"",""img/Fire_Down_Distractor.gif"",""img/Fire_Down_Distractor.gif"",""img/Fire_Down_Distractor.gif"",""img/Fire_Down_Distractor.gif"",""img/Fire_Down_Distractor.gif"",""img/Fire_Down_Distractor.gif"",""img/Fire_Down_Distractor.gif"",""img/Fire_Down_Distractor.gif""]","5","targetUp_distractorsDown"
"","","","","","html-keyboard-response","56","88712","0.0-14.0-0.0-0.21","5ec37264194de71cb7b82637","619531dcf66c91622fa1b861","6195955fbf4fafe98e790751","null","","null","","","","","main_T1_ITI","","","","",""
"","","","","","visual-search-circle","57","90649","0.0-14.0-0.0-1.21","5ec37264194de71cb7b82637","619531dcf66c91622fa1b861","6195955fbf4fafe98e790751","924.5","","s","true","[[48,463],[237,593],[463,551],[593,362],[551,136],[362,6],[136,48],[6,237]]","false","8","main_T2_Trial","s","img/Fire_Up_Target.gif","[""img/Fire_Down_Distractor.gif"",""img/Fire_Down_Distractor.gif"",""img/Fire_Down_Distractor.gif"",""img/Fire_Down_Distractor.gif"",""img/Fire_Down_Distractor.gif"",""img/Fire_Down_Distractor.gif"",""img/Fire_Down_Distractor.gif"",""img/Fire_Down_Distractor.gif"",""img/Fire_Down_Distractor.gif"",""img/Fire_Down_Distractor.gif"",""img/Fire_Down_Distractor.gif"",""img/Fire_Down_Distractor.gif""]","8","targetUp_distractorsDown"
"","","","","","html-keyboard-response","58","90652","0.0-14.0-0.0-0.22","5ec37264194de71cb7b82637","619531dcf66c91622fa1b861","6195955fbf4fafe98e790751","null","","null","","","","","main_T1_ITI","","","","",""
"","","","","","visual-search-circle","59","92534","0.0-14.0-0.0-1.22","5ec37264194de71cb7b82637","619531dcf66c91622fa1b861","6195955fbf4fafe98e790751","870","","s","true","[[422,574],[590,375],[540,120],[308,0],[71,106],[5,357],[161,566]]","false","7","main_T2_Trial","s","img/Fire_Up_Target.gif","[""img/Fire_Down_Distractor.gif"",""img/Fire_Down_Distractor.gif"",""img/Fire_Down_Distractor.gif"",""img/Fire_Down_Distractor.gif"",""img/Fire_Down_Distractor.gif"",""img/Fire_Down_Distractor.gif"",""img/Fire_Down_Distractor.gif"",""img/Fire_Down_Distractor.gif"",""img/Fire_Down_Distractor.gif"",""img/Fire_Down_Distractor.gif"",""img/Fire_Down_Distractor.gif"",""img/Fire_Down_Distractor.gif""]","7","targetUp_distractorsDown"
"","","","","","html-keyboard-response","60","92536","0.0-14.0-0.0-0.23","5ec37264194de71cb7b82637","619531dcf66c91622fa1b861","6195955fbf4fafe98e790751","null","","null","","","","","main_T1_ITI","","","","",""
"","","","","","visual-search-circle","61","94308","0.0-14.0-0.0-1.23","5ec37264194de71cb7b82637","619531dcf66c91622fa1b861","6195955fbf4fafe98e790751","762.9000000059605","","s","true","[[77,500],[422,574],[598,268],[362,6],[40,150]]","false","5","main_T2_Trial","s","img/Fire_Down_Target.gif","[""img/Fire_Up_Distractor.gif"",""img/Fire_Up_Distractor.gif"",""img/Fire_Up_Distractor.gif"",""img/Fire_Up_Distractor.gif"",""img/Fire_Up_Distractor.gif"",""img/Fire_Up_Distractor.gif"",""img/Fire_Up_Distractor.gif"",""img/Fire_Up_Distractor.gif"",""img/Fire_Up_Distractor.gif"",""img/Fire_Up_Distractor.gif"",""img/Fire_Up_Distractor.gif"",""img/Fire_Up_Distractor.gif""]","5","targetDown_distractorsUp"
"","","","","","html-keyboard-response","62","94310","0.0-14.0-0.0-0.24","5ec37264194de71cb7b82637","619531dcf66c91622fa1b861","6195955fbf4fafe98e790751","null","","null","","","","","main_T1_ITI","","","","",""
"","","","","","visual-search-circle","63","96049","0.0-14.0-0.0-1.24","5ec37264194de71cb7b82637","619531dcf66c91622fa1b861","6195955fbf4fafe98e790751","728.5","","s","true","[[431,30],[30,168],[168,569],[569,431]]","false","4","main_T2_Trial","s","img/Fire_Up_Target.gif","[""img/Fire_Down_Distractor.gif"",""img/Fire_Down_Distractor.gif"",""img/Fire_Down_Distractor.gif"",""img/Fire_Down_Distractor.gif"",""img/Fire_Down_Distractor.gif"",""img/Fire_Down_Distractor.gif"",""img/Fire_Down_Distractor.gif"",""img/Fire_Down_Distractor.gif"",""img/Fire_Down_Distractor.gif"",""img/Fire_Down_Distractor.gif"",""img/Fire_Down_Distractor.gif"",""img/Fire_Down_Distractor.gif""]","4","targetUp_distractorsDown"
"","","","","","html-keyboard-response","64","96050","0.0-14.0-0.0-0.25","5ec37264194de71cb7b82637","619531dcf66c91622fa1b861","6195955fbf4fafe98e790751","null","","null","","","","","main_T1_ITI","","","","",""
"","","","","","visual-search-circle","65","97903","0.0-14.0-0.0-1.25","5ec37264194de71cb7b82637","619531dcf66c91622fa1b861","6195955fbf4fafe98e790751","841.0999999940395","","d","true","[[3,253],[78,502],[320,599],[546,470],[587,213],[411,21],[151,39]]","true","7","main_T2_Trial","d","img/Fire_Down_Target.gif","[""img/Fire_Up_Distractor.gif"",""img/Fire_Up_Distractor.gif"",""img/Fire_Up_Distractor.gif"",""img/Fire_Up_Distractor.gif"",""img/Fire_Up_Distractor.gif"",""img/Fire_Up_Distractor.gif"",""img/Fire_Up_Distractor.gif"",""img/Fire_Up_Distractor.gif"",""img/Fire_Up_Distractor.gif"",""img/Fire_Up_Distractor.gif"",""img/Fire_Up_Distractor.gif"",""img/Fire_Up_Distractor.gif""]","7","targetDown_distractorsUp"
"","","","","","html-keyboard-response","66","97920","0.0-14.0-0.0-0.26","5ec37264194de71cb7b82637","619531dcf66c91622fa1b861","6195955fbf4fafe98e790751","null","","null","","","","","main_T1_ITI","","","","",""
"","","","","","visual-search-circle","67","100072","0.0-14.0-0.0-1.26","5ec37264194de71cb7b82637","619531dcf66c91622fa1b861","6195955fbf4fafe98e790751","1141.5999999940395","","d","true","[[402,18],[173,28],[18,197],[28,426],[197,581],[426,571],[581,402],[571,173]]","true","8","main_T2_Trial","d","img/Fire_Down_Target.gif","[""img/Fire_Up_Distractor.gif"",""img/Fire_Up_Distractor.gif"",""img/Fire_Up_Distractor.gif"",""img/Fire_Up_Distractor.gif"",""img/Fire_Up_Distractor.gif"",""img/Fire_Up_Distractor.gif"",""img/Fire_Up_Distractor.gif"",""img/Fire_Up_Distractor.gif"",""img/Fire_Up_Distractor.gif"",""img/Fire_Up_Distractor.gif"",""img/Fire_Up_Distractor.gif"",""img/Fire_Up_Distractor.gif""]","8","targetDown_distractorsUp"
"","","","","","html-keyboard-response","68","100075","0.0-14.0-0.0-0.27","5ec37264194de71cb7b82637","619531dcf66c91622fa1b861","6195955fbf4fafe98e790751","null","","null","","","","","main_T1_ITI","","","","",""
"","","","","","visual-search-circle","69","101870","0.0-14.0-0.0-1.27","5ec37264194de71cb7b82637","619531dcf66c91622fa1b861","6195955fbf4fafe98e790751","785.3000000119209","","d","true","[[25,422],[192,580],[422,574],[580,407],[574,177],[407,19],[177,25],[19,192]]","true","8","main_T2_Trial","d","img/Fire_Down_Target.gif","[""img/Fire_Up_Distractor.gif"",""img/Fire_Up_Distractor.gif"",""img/Fire_Up_Distractor.gif"",""img/Fire_Up_Distractor.gif"",""img/Fire_Up_Distractor.gif"",""img/Fire_Up_Distractor.gif"",""img/Fire_Up_Distractor.gif"",""img/Fire_Up_Distractor.gif"",""img/Fire_Up_Distractor.gif"",""img/Fire_Up_Distractor.gif"",""img/Fire_Up_Distractor.gif"",""img/Fire_Up_Distractor.gif""]","8","targetDown_distractorsUp"
"","","","","","html-keyboard-response","70","101874","0.0-14.0-0.0-0.28","5ec37264194de71cb7b82637","619531dcf66c91622fa1b861","6195955fbf4fafe98e790751","null","","null","","","","","main_T1_ITI","","","","",""
"","","","","","visual-search-circle","71","103936","0.0-14.0-0.0-1.28","5ec37264194de71cb7b82637","619531dcf66c91622fa1b861","6195955fbf4fafe98e790751","1050.2000000178814","","s","true","[[163,32],[6,239],[69,492],[306,599],[538,481],[590,226],[424,26]]","false","7","main_T2_Trial","s","img/Fire_Up_Target.gif","[""img/Fire_Down_Distractor.gif"",""img/Fire_Down_Distractor.gif"",""img/Fire_Down_Distractor.gif"",""img/Fire_Down_Distractor.gif"",""img/Fire_Down_Distractor.gif"",""img/Fire_Down_Distractor.gif"",""img/Fire_Down_Distractor.gif"",""img/Fire_Down_Distractor.gif"",""img/Fire_Down_Distractor.gif"",""img/Fire_Down_Distractor.gif"",""img/Fire_Down_Distractor.gif"",""img/Fire_Down_Distractor.gif""]","7","targetUp_distractorsDown"
"","","","","","html-keyboard-response","72","103938","0.0-14.0-0.0-0.29","5ec37264194de71cb7b82637","619531dcf66c91622fa1b861","6195955fbf4fafe98e790751","null","","null","","","","","main_T1_ITI","","","","",""
"","","","","","visual-search-circle","73","106089","0.0-14.0-0.0-1.29","5ec37264194de71cb7b82637","619531dcf66c91622fa1b861","6195955fbf4fafe98e790751","1138.5","","d","true","[[548,467],[586,210],[408,20],[148,40],[3,256],[81,505],[323,599]]","true","7","main_T2_Trial","d","img/Fire_Up_Target.gif","[""img/Fire_Down_Distractor.gif"",""img/Fire_Down_Distractor.gif"",""img/Fire_Down_Distractor.gif"",""img/Fire_Down_Distractor.gif"",""img/Fire_Down_Distractor.gif"",""img/Fire_Down_Distractor.gif"",""img/Fire_Down_Distractor.gif"",""img/Fire_Down_Distractor.gif"",""img/Fire_Down_Distractor.gif"",""img/Fire_Down_Distractor.gif"",""img/Fire_Down_Distractor.gif"",""img/Fire_Down_Distractor.gif""]","7","targetUp_distractorsDown"
"","","","","","html-keyboard-response","74","106091","0.0-14.0-0.0-0.30","5ec37264194de71cb7b82637","619531dcf66c91622fa1b861","6195955fbf4fafe98e790751","null","","null","","","","","main_T1_ITI","","","","",""
"","","","","","visual-search-circle","75","108022","0.0-14.0-0.0-1.30","5ec37264194de71cb7b82637","619531dcf66c91622fa1b861","6195955fbf4fafe98e790751","926.4000000059605","","s","false","[[0,310],[121,540],[376,589],[574,420],[565,160],[356,5],[104,72]]","true","7","main_T2_Trial","d","img/Fire_Up_Target.gif","[""img/Fire_Down_Distractor.gif"",""img/Fire_Down_Distractor.gif"",""img/Fire_Down_Distractor.gif"",""img/Fire_Down_Distractor.gif"",""img/Fire_Down_Distractor.gif"",""img/Fire_Down_Distractor.gif"",""img/Fire_Down_Distractor.gif"",""img/Fire_Down_Distractor.gif"",""img/Fire_Down_Distractor.gif"",""img/Fire_Down_Distractor.gif"",""img/Fire_Down_Distractor.gif"",""img/Fire_Down_Distractor.gif""]","7","targetUp_distractorsDown"
"","","","","","html-keyboard-response","76","108026","0.0-14.0-0.0-0.31","5ec37264194de71cb7b82637","619531dcf66c91622fa1b861","6195955fbf4fafe98e790751","null","","null","","","","","main_T1_ITI","","","","",""
"","","","","","visual-search-circle","77","109961","0.0-14.0-0.0-1.31","5ec37264194de71cb7b82637","619531dcf66c91622fa1b861","6195955fbf4fafe98e790751","924.3000000119209","","d","true","[[115,536],[336,597],[536,484],[597,263],[484,63],[263,2],[63,115],[2,336]]","true","8","main_T2_Trial","d","img/Fire_Down_Target.gif","[""img/Fire_Up_Distractor.gif"",""img/Fire_Up_Distractor.gif"",""img/Fire_Up_Distractor.gif"",""img/Fire_Up_Distractor.gif"",""img/Fire_Up_Distractor.gif"",""img/Fire_Up_Distractor.gif"",""img/Fire_Up_Distractor.gif"",""img/Fire_Up_Distractor.gif"",""img/Fire_Up_Distractor.gif"",""img/Fire_Up_Distractor.gif"",""img/Fire_Up_Distractor.gif"",""img/Fire_Up_Distractor.gif""]","8","targetDown_distractorsUp"
"","","","","","html-keyboard-response","78","109963","0.0-14.0-0.0-0.32","5ec37264194de71cb7b82637","619531dcf66c91622fa1b861","6195955fbf4fafe98e790751","null","","null","","","","","main_T1_ITI","","","","",""
"","","","","","visual-search-circle","79","111710","0.0-14.0-0.0-1.32","5ec37264194de71cb7b82637","619531dcf66c91622fa1b861","6195955fbf4fafe98e790751","735.7000000178814","","s","false","[[508,84],[294,0],[84,91],[0,305],[91,515],[305,599],[515,508],[599,294]]","true","8","main_T2_Trial","d","img/Fire_Up_Target.gif","[""img/Fire_Down_Distractor.gif"",""img/Fire_Down_Distractor.gif"",""img/Fire_Down_Distractor.gif"",""img/Fire_Down_Distractor.gif"",""img/Fire_Down_Distractor.gif"",""img/Fire_Down_Distractor.gif"",""img/Fire_Down_Distractor.gif"",""img/Fire_Down_Distractor.gif"",""img/Fire_Down_Distractor.gif"",""img/Fire_Down_Distractor.gif"",""img/Fire_Down_Distractor.gif"",""img/Fire_Down_Distractor.gif""]","8","targetUp_distractorsDown"
"","","","","","html-keyboard-response","80","111714","0.0-14.0-0.0-0.33","5ec37264194de71cb7b82637","619531dcf66c91622fa1b861","6195955fbf4fafe98e790751","null","","null","","","","","main_T1_ITI","","","","",""
"","","","","","visual-search-circle","81","113633","0.0-14.0-0.0-1.33","5ec37264194de71cb7b82637","619531dcf66c91622fa1b861","6195955fbf4fafe98e790751","913.2999999821186","","d","true","[[336,597],[597,263],[263,2],[2,336]]","true","4","main_T2_Trial","d","img/Fire_Up_Target.gif","[""img/Fire_Down_Distractor.gif"",""img/Fire_Down_Distractor.gif"",""img/Fire_Down_Distractor.gif"",""img/Fire_Down_Distractor.gif"",""img/Fire_Down_Distractor.gif"",""img/Fire_Down_Distractor.gif"",""img/Fire_Down_Distractor.gif"",""img/Fire_Down_Distractor.gif"",""img/Fire_Down_Distractor.gif"",""img/Fire_Down_Distractor.gif"",""img/Fire_Down_Distractor.gif"",""img/Fire_Down_Distractor.gif""]","4","targetUp_distractorsDown"
"","","","","","html-keyboard-response","82","113637","0.0-14.0-0.0-0.34","5ec37264194de71cb7b82637","619531dcf66c91622fa1b861","6195955fbf4fafe98e790751","null","","null","","","","","main_T1_ITI","","","","",""
"","","","","","visual-search-circle","83","115405","0.0-14.0-0.0-1.34","5ec37264194de71cb7b82637","619531dcf66c91622fa1b861","6195955fbf4fafe98e790751","762.3000000119209","","s","true","[[19,192],[25,422],[192,580],[422,574],[580,407],[574,177],[407,19],[177,25]]","false","8","main_T2_Trial","s","img/Fire_Down_Target.gif","[""img/Fire_Up_Distractor.gif"",""img/Fire_Up_Distractor.gif"",""img/Fire_Up_Distractor.gif"",""img/Fire_Up_Distractor.gif"",""img/Fire_Up_Distractor.gif"",""img/Fire_Up_Distractor.gif"",""img/Fire_Up_Distractor.gif"",""img/Fire_Up_Distractor.gif"",""img/Fire_Up_Distractor.gif"",""img/Fire_Up_Distractor.gif"",""img/Fire_Up_Distractor.gif"",""img/Fire_Up_Distractor.gif""]","8","targetDown_distractorsUp"
"","","","","","html-keyboard-response","84","115406","0.0-14.0-0.0-0.35","5ec37264194de71cb7b82637","619531dcf66c91622fa1b861","6195955fbf4fafe98e790751","null","","null","","","","","main_T1_ITI","","","","",""
"","","","","","visual-search-circle","85","117168","0.0-14.0-0.0-1.35","5ec37264194de71cb7b82637","619531dcf66c91622fa1b861","6195955fbf4fafe98e790751","751.4000000059605","","d","true","[[11,217],[132,548],[484,536],[581,197],[289,0]]","true","5","main_T2_Trial","d","img/Fire_Down_Target.gif","[""img/Fire_Up_Distractor.gif"",""img/Fire_Up_Distractor.gif"",""img/Fire_Up_Distractor.gif"",""img/Fire_Up_Distractor.gif"",""img/Fire_Up_Distractor.gif"",""img/Fire_Up_Distractor.gif"",""img/Fire_Up_Distractor.gif"",""img/Fire_Up_Distractor.gif"",""img/Fire_Up_Distractor.gif"",""img/Fire_Up_Distractor.gif"",""img/Fire_Up_Distractor.gif"",""img/Fire_Up_Distractor.gif""]","5","targetDown_distractorsUp"
"","","","","","html-keyboard-response","86","117171","0.0-14.0-0.0-0.36","5ec37264194de71cb7b82637","619531dcf66c91622fa1b861","6195955fbf4fafe98e790751","null","","null","","","","","main_T1_ITI","","","","",""
"","","","","","visual-search-circle","87","118924","0.0-14.0-0.0-1.36","5ec37264194de71cb7b82637","619531dcf66c91622fa1b861","6195955fbf4fafe98e790751","744.1999999880791","","d","true","[[202,583],[539,480],[545,127],[212,13],[0,294]]","true","5","main_T2_Trial","d","img/Fire_Down_Target.gif","[""img/Fire_Up_Distractor.gif"",""img/Fire_Up_Distractor.gif"",""img/Fire_Up_Distractor.gif"",""img/Fire_Up_Distractor.gif"",""img/Fire_Up_Distractor.gif"",""img/Fire_Up_Distractor.gif"",""img/Fire_Up_Distractor.gif"",""img/Fire_Up_Distractor.gif"",""img/Fire_Up_Distractor.gif"",""img/Fire_Up_Distractor.gif"",""img/Fire_Up_Distractor.gif"",""img/Fire_Up_Distractor.gif""]","5","targetDown_distractorsUp"
"","","","","","html-keyboard-response","88","118932","0.0-14.0-0.0-0.37","5ec37264194de71cb7b82637","619531dcf66c91622fa1b861","6195955fbf4fafe98e790751","null","","null","","","","","main_T1_ITI","","","","",""
"","","","","","visual-search-circle","89","120737","0.0-14.0-0.0-1.37","5ec37264194de71cb7b82637","619531dcf66c91622fa1b861","6195955fbf4fafe98e790751","795.9000000059605","","s","true","[[331,598],[574,422],[542,123],[268,1],[25,177],[57,476]]","false","6","main_T2_Trial","s","img/Fire_Down_Target.gif","[""img/Fire_Up_Distractor.gif"",""img/Fire_Up_Distractor.gif"",""img/Fire_Up_Distractor.gif"",""img/Fire_Up_Distractor.gif"",""img/Fire_Up_Distractor.gif"",""img/Fire_Up_Distractor.gif"",""img/Fire_Up_Distractor.gif"",""img/Fire_Up_Distractor.gif"",""img/Fire_Up_Distractor.gif"",""img/Fire_Up_Distractor.gif"",""img/Fire_Up_Distractor.gif"",""img/Fire_Up_Distractor.gif""]","6","targetDown_distractorsUp"
"","","","","","html-keyboard-response","90","120739","0.0-14.0-0.0-0.38","5ec37264194de71cb7b82637","619531dcf66c91622fa1b861","6195955fbf4fafe98e790751","null","","null","","","","","main_T1_ITI","","","","",""
"","","","","","visual-search-circle","91","122560","0.0-14.0-0.0-1.38","5ec37264194de71cb7b82637","619531dcf66c91622fa1b861","6195955fbf4fafe98e790751","813.3000000119209","","d","true","[[402,18],[18,197],[197,581],[581,402]]","true","4","main_T2_Trial","d","img/Fire_Down_Target.gif","[""img/Fire_Up_Distractor.gif"",""img/Fire_Up_Distractor.gif"",""img/Fire_Up_Distractor.gif"",""img/Fire_Up_Distractor.gif"",""img/Fire_Up_Distractor.gif"",""img/Fire_Up_Distractor.gif"",""img/Fire_Up_Distractor.gif"",""img/Fire_Up_Distractor.gif"",""img/Fire_Up_Distractor.gif"",""img/Fire_Up_Distractor.gif"",""img/Fire_Up_Distractor.gif"",""img/Fire_Up_Distractor.gif""]","4","targetDown_distractorsUp"
"","","","","","html-keyboard-response","92","123808","0.0-14.0-0.0-0.39","5ec37264194de71cb7b82637","619531dcf66c91622fa1b861","6195955fbf4fafe98e790751","1247.5999999940395","Wow! You've completed 40 out of 160 trials! </p> <p>  </p><p> Take a quick break, then press any key when you're ready to continue."," ","","","","","main_T1_ITI","","","","",""
"","","","","","visual-search-circle","93","125887","0.0-14.0-0.0-1.39","5ec37264194de71cb7b82637","619531dcf66c91622fa1b861","6195955fbf4fafe98e790751","1068.5","","s","true","[[40,450],[450,559],[559,150],[150,40]]","false","4","main_T2_Trial","s","img/Fire_Up_Target.gif","[""img/Fire_Down_Distractor.gif"",""img/Fire_Down_Distractor.gif"",""img/Fire_Down_Distractor.gif"",""img/Fire_Down_Distractor.gif"",""img/Fire_Down_Distractor.gif"",""img/Fire_Down_Distractor.gif"",""img/Fire_Down_Distractor.gif"",""img/Fire_Down_Distractor.gif"",""img/Fire_Down_Distractor.gif"",""img/Fire_Down_Distractor.gif"",""img/Fire_Down_Distractor.gif"",""img/Fire_Down_Distractor.gif""]","4","targetUp_distractorsDown"
"","","","","","html-keyboard-response","94","125889","0.0-14.0-0.0-0.40","5ec37264194de71cb7b82637","619531dcf66c91622fa1b861","6195955fbf4fafe98e790751","null","","null","","","","","main_T1_ITI","","","","",""
"","","","","","visual-search-circle","95","127771","0.0-14.0-0.0-1.40","5ec37264194de71cb7b82637","619531dcf66c91622fa1b861","6195955fbf4fafe98e790751","877.7999999821186","","d","true","[[154,37],[5,357],[263,597],[571,426],[504,80]]","true","5","main_T2_Trial","d","img/Fire_Up_Target.gif","[""img/Fire_Down_Distractor.gif"",""img/Fire_Down_Distractor.gif"",""img/Fire_Down_Distractor.gif"",""img/Fire_Down_Distractor.gif"",""img/Fire_Down_Distractor.gif"",""img/Fire_Down_Distractor.gif"",""img/Fire_Down_Distractor.gif"",""img/Fire_Down_Distractor.gif"",""img/Fire_Down_Distractor.gif"",""img/Fire_Down_Distractor.gif"",""img/Fire_Down_Distractor.gif"",""img/Fire_Down_Distractor.gif""]","5","targetUp_distractorsDown"
"","","","","","html-keyboard-response","96","127773","0.0-14.0-0.0-0.41","5ec37264194de71cb7b82637","619531dcf66c91622fa1b861","6195955fbf4fafe98e790751","null","","null","","","","","main_T1_ITI","","","","",""
"","","","","","visual-search-circle","97","129613","0.0-14.0-0.0-1.41","5ec37264194de71cb7b82637","619531dcf66c91622fa1b861","6195955fbf4fafe98e790751","833.4000000059605","","s","true","[[559,450],[559,150],[300,0],[40,150],[40,449],[299,600]]","false","6","main_T2_Trial","s","img/Fire_Down_Target.gif","[""img/Fire_Up_Distractor.gif"",""img/Fire_Up_Distractor.gif"",""img/Fire_Up_Distractor.gif"",""img/Fire_Up_Distractor.gif"",""img/Fire_Up_Distractor.gif"",""img/Fire_Up_Distractor.gif"",""img/Fire_Up_Distractor.gif"",""img/Fire_Up_Distractor.gif"",""img/Fire_Up_Distractor.gif"",""img/Fire_Up_Distractor.gif"",""img/Fire_Up_Distractor.gif"",""img/Fire_Up_Distractor.gif""]","6","targetDown_distractorsUp"
"","","","","","html-keyboard-response","98","129619","0.0-14.0-0.0-0.42","5ec37264194de71cb7b82637","619531dcf66c91622fa1b861","6195955fbf4fafe98e790751","null","","null","","","","","main_T1_ITI","","","","",""
"","","","","","visual-search-circle","99","131373","0.0-14.0-0.0-1.42","5ec37264194de71cb7b82637","619531dcf66c91622fa1b861","6195955fbf4fafe98e790751","744.0999999940395","","s","true","[[529,107],[247,4],[18,197],[70,492],[352,595],[581,402]]","false","6","main_T2_Trial","s","img/Fire_Down_Target.gif","[""img/Fire_Up_Distractor.gif"",""img/Fire_Up_Distractor.gif"",""img/Fire_Up_Distractor.gif"",""img/Fire_Up_Distractor.gif"",""img/Fire_Up_Distractor.gif"",""img/Fire_Up_Distractor.gif"",""img/Fire_Up_Distractor.gif"",""img/Fire_Up_Distractor.gif"",""img/Fire_Up_Distractor.gif"",""img/Fire_Up_Distractor.gif"",""img/Fire_Up_Distractor.gif"",""img/Fire_Up_Distractor.gif""]","6","targetDown_distractorsUp"
"","","","","","html-keyboard-response","100","131375","0.0-14.0-0.0-0.43","5ec37264194de71cb7b82637","619531dcf66c91622fa1b861","6195955fbf4fafe98e790751","null","","null","","","","","main_T1_ITI","","","","",""
"","","","","","visual-search-circle","101","133170","0.0-14.0-0.0-1.43","5ec37264194de71cb7b82637","619531dcf66c91622fa1b861","6195955fbf4fafe98e790751","784.9000000059605","","s","true","[[599,315],[499,75],[248,4],[36,155],[23,415],[218,588],[474,544]]","false","7","main_T2_Trial","s","img/Fire_Down_Target.gif","[""img/Fire_Up_Distractor.gif"",""img/Fire_Up_Distractor.gif"",""img/Fire_Up_Distractor.gif"",""img/Fire_Up_Distractor.gif"",""img/Fire_Up_Distractor.gif"",""img/Fire_Up_Distractor.gif"",""img/Fire_Up_Distractor.gif"",""img/Fire_Up_Distractor.gif"",""img/Fire_Up_Distractor.gif"",""img/Fire_Up_Distractor.gif"",""img/Fire_Up_Distractor.gif"",""img/Fire_Up_Distractor.gif""]","7","targetDown_distractorsUp"
"","","","","","html-keyboard-response","102","133171","0.0-14.0-0.0-0.44","5ec37264194de71cb7b82637","619531dcf66c91622fa1b861","6195955fbf4fafe98e790751","null","","null","","","","","main_T1_ITI","","","","",""
"","","","","","visual-search-circle","103","135383","0.0-14.0-0.0-1.44","5ec37264194de71cb7b82637","619531dcf66c91622fa1b861","6195955fbf4fafe98e790751","1199.4000000059605","","s","true","[[402,581],[571,426],[581,197],[426,28],[197,18],[28,173],[18,402],[173,571]]","false","8","main_T2_Trial","s","img/Fire_Up_Target.gif","[""img/Fire_Down_Distractor.gif"",""img/Fire_Down_Distractor.gif"",""img/Fire_Down_Distractor.gif"",""img/Fire_Down_Distractor.gif"",""img/Fire_Down_Distractor.gif"",""img/Fire_Down_Distractor.gif"",""img/Fire_Down_Distractor.gif"",""img/Fire_Down_Distractor.gif"",""img/Fire_Down_Distractor.gif"",""img/Fire_Down_Distractor.gif"",""img/Fire_Down_Distractor.gif"",""img/Fire_Down_Distractor.gif""]","8","targetUp_distractorsDown"
"","","","","","html-keyboard-response","104","135385","0.0-14.0-0.0-0.45","5ec37264194de71cb7b82637","619531dcf66c91622fa1b861","6195955fbf4fafe98e790751","null","","null","","","","","main_T1_ITI","","","","",""
"","","","","","visual-search-circle","105","137188","0.0-14.0-0.0-1.45","5ec37264194de71cb7b82637","619531dcf66c91622fa1b861","6195955fbf4fafe98e790751","792.2999999821186","","d","true","[[583,202],[400,17],[141,45],[2,264],[86,511],[332,598],[553,460]]","true","7","main_T2_Trial","d","img/Fire_Up_Target.gif","[""img/Fire_Down_Distractor.gif"",""img/Fire_Down_Distractor.gif"",""img/Fire_Down_Distractor.gif"",""img/Fire_Down_Distractor.gif"",""img/Fire_Down_Distractor.gif"",""img/Fire_Down_Distractor.gif"",""img/Fire_Down_Distractor.gif"",""img/Fire_Down_Distractor.gif"",""img/Fire_Down_Distractor.gif"",""img/Fire_Down_Distractor.gif"",""img/Fire_Down_Distractor.gif"",""img/Fire_Down_Distractor.gif""]","7","targetUp_distractorsDown"
"","","","","","html-keyboard-response","106","137190","0.0-14.0-0.0-0.46","5ec37264194de71cb7b82637","619531dcf66c91622fa1b861","6195955fbf4fafe98e790751","null","","null","","","","","main_T1_ITI","","","","",""
"","","","","","visual-search-circle","107","139074","0.0-14.0-0.0-1.46","5ec37264194de71cb7b82637","619531dcf66c91622fa1b861","6195955fbf4fafe98e790751","877.3000000119209","","s","true","[[163,567],[567,436],[436,32],[32,163]]","false","4","main_T2_Trial","s","img/Fire_Down_Target.gif","[""img/Fire_Up_Distractor.gif"",""img/Fire_Up_Distractor.gif"",""img/Fire_Up_Distractor.gif"",""img/Fire_Up_Distractor.gif"",""img/Fire_Up_Distractor.gif"",""img/Fire_Up_Distractor.gif"",""img/Fire_Up_Distractor.gif"",""img/Fire_Up_Distractor.gif"",""img/Fire_Up_Distractor.gif"",""img/Fire_Up_Distractor.gif"",""img/Fire_Up_Distractor.gif"",""img/Fire_Up_Distractor.gif""]","4","targetDown_distractorsUp"
"","","","","","html-keyboard-response","108","139076","0.0-14.0-0.0-0.47","5ec37264194de71cb7b82637","619531dcf66c91622fa1b861","6195955fbf4fafe98e790751","null","","null","","","","","main_T1_ITI","","","","",""
"","","","","","visual-search-circle","109","140995","0.0-14.0-0.0-1.47","5ec37264194de71cb7b82637","619531dcf66c91622fa1b861","6195955fbf4fafe98e790751","912.1999999880791","","s","true","[[346,596],[596,253],[253,3],[3,346]]","false","4","main_T2_Trial","s","img/Fire_Down_Target.gif","[""img/Fire_Up_Distractor.gif"",""img/Fire_Up_Distractor.gif"",""img/Fire_Up_Distractor.gif"",""img/Fire_Up_Distractor.gif"",""img/Fire_Up_Distractor.gif"",""img/Fire_Up_Distractor.gif"",""img/Fire_Up_Distractor.gif"",""img/Fire_Up_Distractor.gif"",""img/Fire_Up_Distractor.gif"",""img/Fire_Up_Distractor.gif"",""img/Fire_Up_Distractor.gif"",""img/Fire_Up_Distractor.gif""]","4","targetDown_distractorsUp"
"","","","","","html-keyboard-response","110","140997","0.0-14.0-0.0-0.48","5ec37264194de71cb7b82637","619531dcf66c91622fa1b861","6195955fbf4fafe98e790751","null","","null","","","","","main_T1_ITI","","","","",""
"","","","","","visual-search-circle","111","144031","0.0-14.0-0.0-1.48","5ec37264194de71cb7b82637","619531dcf66c91622fa1b861","6195955fbf4fafe98e790751","2024.300000011921","","s","true","[[18,197],[44,456],[262,597],[509,514],[598,270],[462,47],[204,15]]","false","7","main_T2_Trial","s","img/Fire_Up_Target.gif","[""img/Fire_Down_Distractor.gif"",""img/Fire_Down_Distractor.gif"",""img/Fire_Down_Distractor.gif"",""img/Fire_Down_Distractor.gif"",""img/Fire_Down_Distractor.gif"",""img/Fire_Down_Distractor.gif"",""img/Fire_Down_Distractor.gif"",""img/Fire_Down_Distractor.gif"",""img/Fire_Down_Distractor.gif"",""img/Fire_Down_Distractor.gif"",""img/Fire_Down_Distractor.gif"",""img/Fire_Down_Distractor.gif""]","7","targetUp_distractorsDown"
"","","","","","html-keyboard-response","112","144033","0.0-14.0-0.0-0.49","5ec37264194de71cb7b82637","619531dcf66c91622fa1b861","6195955fbf4fafe98e790751","null","","null","","","","","main_T1_ITI","","","","",""
"","","","","","visual-search-circle","113","146049","0.0-14.0-0.0-1.49","5ec37264194de71cb7b82637","619531dcf66c91622fa1b861","6195955fbf4fafe98e790751","1002.8000000119209","","s","true","[[87,512],[333,598],[554,459],[583,200],[399,16],[140,45],[1,266]]","false","7","main_T2_Trial","s","img/Fire_Up_Target.gif","[""img/Fire_Down_Distractor.gif"",""img/Fire_Down_Distractor.gif"",""img/Fire_Down_Distractor.gif"",""img/Fire_Down_Distractor.gif"",""img/Fire_Down_Distractor.gif"",""img/Fire_Down_Distractor.gif"",""img/Fire_Down_Distractor.gif"",""img/Fire_Down_Distractor.gif"",""img/Fire_Down_Distractor.gif"",""img/Fire_Down_Distractor.gif"",""img/Fire_Down_Distractor.gif"",""img/Fire_Down_Distractor.gif""]","7","targetUp_distractorsDown"
"","","","","","html-keyboard-response","114","146051","0.0-14.0-0.0-0.50","5ec37264194de71cb7b82637","619531dcf66c91622fa1b861","6195955fbf4fafe98e790751","null","","null","","","","","main_T1_ITI","","","","",""
"","","","","","visual-search-circle","115","147764","0.0-14.0-0.0-1.50","5ec37264194de71cb7b82637","619531dcf66c91622fa1b861","6195955fbf4fafe98e790751","705.8000000119209","","d","true","[[512,512],[512,87],[87,87],[87,512]]","true","4","main_T2_Trial","d","img/Fire_Down_Target.gif","[""img/Fire_Up_Distractor.gif"",""img/Fire_Up_Distractor.gif"",""img/Fire_Up_Distractor.gif"",""img/Fire_Up_Distractor.gif"",""img/Fire_Up_Distractor.gif"",""img/Fire_Up_Distractor.gif"",""img/Fire_Up_Distractor.gif"",""img/Fire_Up_Distractor.gif"",""img/Fire_Up_Distractor.gif"",""img/Fire_Up_Distractor.gif"",""img/Fire_Up_Distractor.gif"",""img/Fire_Up_Distractor.gif""]","4","targetDown_distractorsUp"
"","","","","","html-keyboard-response","116","147767","0.0-14.0-0.0-0.51","5ec37264194de71cb7b82637","619531dcf66c91622fa1b861","6195955fbf4fafe98e790751","null","","null","","","","","main_T1_ITI","","","","",""
"","","","","","visual-search-circle","117","149523","0.0-14.0-0.0-1.51","5ec37264194de71cb7b82637","619531dcf66c91622fa1b861","6195955fbf4fafe98e790751","746","","d","true","[[212,586],[545,472],[539,119],[202,16],[0,305]]","true","5","main_T2_Trial","d","img/Fire_Down_Target.gif","[""img/Fire_Up_Distractor.gif"",""img/Fire_Up_Distractor.gif"",""img/Fire_Up_Distractor.gif"",""img/Fire_Up_Distractor.gif"",""img/Fire_Up_Distractor.gif"",""img/Fire_Up_Distractor.gif"",""img/Fire_Up_Distractor.gif"",""img/Fire_Up_Distractor.gif"",""img/Fire_Up_Distractor.gif"",""img/Fire_Up_Distractor.gif"",""img/Fire_Up_Distractor.gif"",""img/Fire_Up_Distractor.gif""]","5","targetDown_distractorsUp"
"","","","","","html-keyboard-response","118","149525","0.0-14.0-0.0-0.52","5ec37264194de71cb7b82637","619531dcf66c91622fa1b861","6195955fbf4fafe98e790751","null","","null","","","","","main_T1_ITI","","","","",""
"","","","","","visual-search-circle","119","151241","0.0-14.0-0.0-1.52","5ec37264194de71cb7b82637","619531dcf66c91622fa1b861","6195955fbf4fafe98e790751","708.1999999880791","","s","true","[[299,600],[559,450],[559,150],[300,0],[40,150],[40,449]]","false","6","main_T2_Trial","s","img/Fire_Down_Target.gif","[""img/Fire_Up_Distractor.gif"",""img/Fire_Up_Distractor.gif"",""img/Fire_Up_Distractor.gif"",""img/Fire_Up_Distractor.gif"",""img/Fire_Up_Distractor.gif"",""img/Fire_Up_Distractor.gif"",""img/Fire_Up_Distractor.gif"",""img/Fire_Up_Distractor.gif"",""img/Fire_Up_Distractor.gif"",""img/Fire_Up_Distractor.gif"",""img/Fire_Up_Distractor.gif"",""img/Fire_Up_Distractor.gif""]","6","targetDown_distractorsUp"
"","","","","","html-keyboard-response","120","151243","0.0-14.0-0.0-0.53","5ec37264194de71cb7b82637","619531dcf66c91622fa1b861","6195955fbf4fafe98e790751","null","","null","","","","","main_T1_ITI","","","","",""
"","","","","","visual-search-circle","121","153061","0.0-14.0-0.0-1.53","5ec37264194de71cb7b82637","619531dcf66c91622fa1b861","6195955fbf4fafe98e790751","809.6999999880791","","d","true","[[294,0],[62,117],[8,371],[174,572],[434,567],[593,361],[531,108]]","true","7","main_T2_Trial","d","img/Fire_Down_Target.gif","[""img/Fire_Up_Distractor.gif"",""img/Fire_Up_Distractor.gif"",""img/Fire_Up_Distractor.gif"",""img/Fire_Up_Distractor.gif"",""img/Fire_Up_Distractor.gif"",""img/Fire_Up_Distractor.gif"",""img/Fire_Up_Distractor.gif"",""img/Fire_Up_Distractor.gif"",""img/Fire_Up_Distractor.gif"",""img/Fire_Up_Distractor.gif"",""img/Fire_Up_Distractor.gif"",""img/Fire_Up_Distractor.gif""]","7","targetDown_distractorsUp"
"","","","","","html-keyboard-response","122","153063","0.0-14.0-0.0-0.54","5ec37264194de71cb7b82637","619531dcf66c91622fa1b861","6195955fbf4fafe98e790751","null","","null","","","","","main_T1_ITI","","","","",""
"","","","","","visual-search-circle","123","155347","0.0-14.0-0.0-1.54","5ec37264194de71cb7b82637","619531dcf66c91622fa1b861","6195955fbf4fafe98e790751","1274.5999999940395","","s","true","[[25,177],[57,476],[331,598],[574,422],[542,123],[268,1]]","false","6","main_T2_Trial","s","img/Fire_Up_Target.gif","[""img/Fire_Down_Distractor.gif"",""img/Fire_Down_Distractor.gif"",""img/Fire_Down_Distractor.gif"",""img/Fire_Down_Distractor.gif"",""img/Fire_Down_Distractor.gif"",""img/Fire_Down_Distractor.gif"",""img/Fire_Down_Distractor.gif"",""img/Fire_Down_Distractor.gif"",""img/Fire_Down_Distractor.gif"",""img/Fire_Down_Distractor.gif"",""img/Fire_Down_Distractor.gif"",""img/Fire_Down_Distractor.gif""]","6","targetUp_distractorsDown"
"","","","","","html-keyboard-response","124","155348","0.0-14.0-0.0-0.55","5ec37264194de71cb7b82637","619531dcf66c91622fa1b861","6195955fbf4fafe98e790751","null","","null","","","","","main_T1_ITI","","","","",""
"","","","","","visual-search-circle","125","157238","0.0-14.0-0.0-1.55","5ec37264194de71cb7b82637","619531dcf66c91622fa1b861","6195955fbf4fafe98e790751","882","","s","true","[[576,417],[496,73],[145,42],[7,367],[273,598]]","false","5","main_T2_Trial","s","img/Fire_Up_Target.gif","[""img/Fire_Down_Distractor.gif"",""img/Fire_Down_Distractor.gif"",""img/Fire_Down_Distractor.gif"",""img/Fire_Down_Distractor.gif"",""img/Fire_Down_Distractor.gif"",""img/Fire_Down_Distractor.gif"",""img/Fire_Down_Distractor.gif"",""img/Fire_Down_Distractor.gif"",""img/Fire_Down_Distractor.gif"",""img/Fire_Down_Distractor.gif"",""img/Fire_Down_Distractor.gif"",""img/Fire_Down_Distractor.gif""]","5","targetUp_distractorsDown"
"","","","","","html-keyboard-response","126","157240","0.0-14.0-0.0-0.56","5ec37264194de71cb7b82637","619531dcf66c91622fa1b861","6195955fbf4fafe98e790751","null","","null","","","","","main_T1_ITI","","","","",""
"","","","","","visual-search-circle","127","159043","0.0-14.0-0.0-1.56","5ec37264194de71cb7b82637","619531dcf66c91622fa1b861","6195955fbf4fafe98e790751","790.1999999880791","","s","true","[[192,580],[422,574],[580,407],[574,177],[407,19],[177,25],[19,192],[25,422]]","false","8","main_T2_Trial","s","img/Fire_Down_Target.gif","[""img/Fire_Up_Distractor.gif"",""img/Fire_Up_Distractor.gif"",""img/Fire_Up_Distractor.gif"",""img/Fire_Up_Distractor.gif"",""img/Fire_Up_Distractor.gif"",""img/Fire_Up_Distractor.gif"",""img/Fire_Up_Distractor.gif"",""img/Fire_Up_Distractor.gif"",""img/Fire_Up_Distractor.gif"",""img/Fire_Up_Distractor.gif"",""img/Fire_Up_Distractor.gif"",""img/Fire_Up_Distractor.gif""]","8","targetDown_distractorsUp"
"","","","","","html-keyboard-response","128","159045","0.0-14.0-0.0-0.57","5ec37264194de71cb7b82637","619531dcf66c91622fa1b861","6195955fbf4fafe98e790751","null","","null","","","","","main_T1_ITI","","","","",""
"","","","","","visual-search-circle","129","161023","0.0-14.0-0.0-1.57","5ec37264194de71cb7b82637","619531dcf66c91622fa1b861","6195955fbf4fafe98e790751","968.2999999821186","","s","true","[[599,289],[504,80],[289,0],[80,95],[0,310],[95,519],[310,599],[519,504]]","false","8","main_T2_Trial","s","img/Fire_Down_Target.gif","[""img/Fire_Up_Distractor.gif"",""img/Fire_Up_Distractor.gif"",""img/Fire_Up_Distractor.gif"",""img/Fire_Up_Distractor.gif"",""img/Fire_Up_Distractor.gif"",""img/Fire_Up_Distractor.gif"",""img/Fire_Up_Distractor.gif"",""img/Fire_Up_Distractor.gif"",""img/Fire_Up_Distractor.gif"",""img/Fire_Up_Distractor.gif"",""img/Fire_Up_Distractor.gif"",""img/Fire_Up_Distractor.gif""]","8","targetDown_distractorsUp"
"","","","","","html-keyboard-response","130","161026","0.0-14.0-0.0-0.58","5ec37264194de71cb7b82637","619531dcf66c91622fa1b861","6195955fbf4fafe98e790751","null","","null","","","","","main_T1_ITI","","","","",""
"","","","","","visual-search-circle","131","162915","0.0-14.0-0.0-1.58","5ec37264194de71cb7b82637","619531dcf66c91622fa1b861","6195955fbf4fafe98e790751","878.8000000119209","","d","true","[[32,436],[346,596],[596,346],[436,32],[87,87]]","true","5","main_T2_Trial","d","img/Fire_Up_Target.gif","[""img/Fire_Down_Distractor.gif"",""img/Fire_Down_Distractor.gif"",""img/Fire_Down_Distractor.gif"",""img/Fire_Down_Distractor.gif"",""img/Fire_Down_Distractor.gif"",""img/Fire_Down_Distractor.gif"",""img/Fire_Down_Distractor.gif"",""img/Fire_Down_Distractor.gif"",""img/Fire_Down_Distractor.gif"",""img/Fire_Down_Distractor.gif"",""img/Fire_Down_Distractor.gif"",""img/Fire_Down_Distractor.gif""]","5","targetUp_distractorsDown"
"","","","","","html-keyboard-response","132","163908","0.0-14.0-0.0-0.59","5ec37264194de71cb7b82637","619531dcf66c91622fa1b861","6195955fbf4fafe98e790751","992.8000000119209","Wow! You've completed 60 out of 160 trials! </p> <p>  </p><p> Take a quick break, then press any key when you're ready to continue.","d","","","","","main_T1_ITI","","","","",""
"","","","","","visual-search-circle","133","165730","0.0-14.0-0.0-1.59","5ec37264194de71cb7b82637","619531dcf66c91622fa1b861","6195955fbf4fafe98e790751","809.6999999880791","","s","false","[[597,341],[517,93],[274,1],[50,133],[14,391],[193,580],[452,558]]","true","7","main_T2_Trial","d","img/Fire_Down_Target.gif","[""img/Fire_Up_Distractor.gif"",""img/Fire_Up_Distractor.gif"",""img/Fire_Up_Distractor.gif"",""img/Fire_Up_Distractor.gif"",""img/Fire_Up_Distractor.gif"",""img/Fire_Up_Distractor.gif"",""img/Fire_Up_Distractor.gif"",""img/Fire_Up_Distractor.gif"",""img/Fire_Up_Distractor.gif"",""img/Fire_Up_Distractor.gif"",""img/Fire_Up_Distractor.gif"",""img/Fire_Up_Distractor.gif""]","7","targetDown_distractorsUp"
"","","","","","html-keyboard-response","134","165731","0.0-14.0-0.0-0.60","5ec37264194de71cb7b82637","619531dcf66c91622fa1b861","6195955fbf4fafe98e790751","null","","null","","","","","main_T1_ITI","","","","",""
"","","","","","visual-search-circle","135","167551","0.0-14.0-0.0-1.60","5ec37264194de71cb7b82637","619531dcf66c91622fa1b861","6195955fbf4fafe98e790751","812.7000000178814","","d","true","[[402,18],[18,197],[197,581],[581,402]]","true","4","main_T2_Trial","d","img/Fire_Up_Target.gif","[""img/Fire_Down_Distractor.gif"",""img/Fire_Down_Distractor.gif"",""img/Fire_Down_Distractor.gif"",""img/Fire_Down_Distractor.gif"",""img/Fire_Down_Distractor.gif"",""img/Fire_Down_Distractor.gif"",""img/Fire_Down_Distractor.gif"",""img/Fire_Down_Distractor.gif"",""img/Fire_Down_Distractor.gif"",""img/Fire_Down_Distractor.gif"",""img/Fire_Down_Distractor.gif"",""img/Fire_Down_Distractor.gif""]","4","targetUp_distractorsDown"
"","","","","","html-keyboard-response","136","167555","0.0-14.0-0.0-0.61","5ec37264194de71cb7b82637","619531dcf66c91622fa1b861","6195955fbf4fafe98e790751","null","","null","","","","","main_T1_ITI","","","","",""
"","","","","","visual-search-circle","137","169492","0.0-14.0-0.0-1.61","5ec37264194de71cb7b82637","619531dcf66c91622fa1b861","6195955fbf4fafe98e790751","926.5","","s","true","[[51,467],[276,599],[518,505],[596,256],[451,40],[191,20],[13,210]]","false","7","main_T2_Trial","s","img/Fire_Up_Target.gif","[""img/Fire_Down_Distractor.gif"",""img/Fire_Down_Distractor.gif"",""img/Fire_Down_Distractor.gif"",""img/Fire_Down_Distractor.gif"",""img/Fire_Down_Distractor.gif"",""img/Fire_Down_Distractor.gif"",""img/Fire_Down_Distractor.gif"",""img/Fire_Down_Distractor.gif"",""img/Fire_Down_Distractor.gif"",""img/Fire_Down_Distractor.gif"",""img/Fire_Down_Distractor.gif"",""img/Fire_Down_Distractor.gif""]","7","targetUp_distractorsDown"
"","","","","","html-keyboard-response","138","169494","0.0-14.0-0.0-0.62","5ec37264194de71cb7b82637","619531dcf66c91622fa1b861","6195955fbf4fafe98e790751","null","","null","","","","","main_T1_ITI","","","","",""
"","","","","","visual-search-circle","139","171387","0.0-14.0-0.0-1.62","5ec37264194de71cb7b82637","619531dcf66c91622fa1b861","6195955fbf4fafe98e790751","887.0999999940395","","s","true","[[42,454],[367,592],[598,326],[417,23],[73,103]]","false","5","main_T2_Trial","s","img/Fire_Down_Target.gif","[""img/Fire_Up_Distractor.gif"",""img/Fire_Up_Distractor.gif"",""img/Fire_Up_Distractor.gif"",""img/Fire_Up_Distractor.gif"",""img/Fire_Up_Distractor.gif"",""img/Fire_Up_Distractor.gif"",""img/Fire_Up_Distractor.gif"",""img/Fire_Up_Distractor.gif"",""img/Fire_Up_Distractor.gif"",""img/Fire_Up_Distractor.gif"",""img/Fire_Up_Distractor.gif"",""img/Fire_Up_Distractor.gif""]","5","targetDown_distractorsUp"
"","","","","","html-keyboard-response","140","171389","0.0-14.0-0.0-0.63","5ec37264194de71cb7b82637","619531dcf66c91622fa1b861","6195955fbf4fafe98e790751","null","","null","","","","","main_T1_ITI","","","","",""
"","","","","","visual-search-circle","141","173319","0.0-14.0-0.0-1.63","5ec37264194de71cb7b82637","619531dcf66c91622fa1b861","6195955fbf4fafe98e790751","920.3999999761581","","s","true","[[1,268],[123,542],[422,574],[598,331],[476,57],[177,25]]","false","6","main_T2_Trial","s","img/Fire_Up_Target.gif","[""img/Fire_Down_Distractor.gif"",""img/Fire_Down_Distractor.gif"",""img/Fire_Down_Distractor.gif"",""img/Fire_Down_Distractor.gif"",""img/Fire_Down_Distractor.gif"",""img/Fire_Down_Distractor.gif"",""img/Fire_Down_Distractor.gif"",""img/Fire_Down_Distractor.gif"",""img/Fire_Down_Distractor.gif"",""img/Fire_Down_Distractor.gif"",""img/Fire_Down_Distractor.gif"",""img/Fire_Down_Distractor.gif""]","6","targetUp_distractorsDown"
"","","","","","html-keyboard-response","142","173320","0.0-14.0-0.0-0.64","5ec37264194de71cb7b82637","619531dcf66c91622fa1b861","6195955fbf4fafe98e790751","null","","null","","","","","main_T1_ITI","","","","",""
"","","","","","visual-search-circle","143","175149","0.0-14.0-0.0-1.64","5ec37264194de71cb7b82637","619531dcf66c91622fa1b861","6195955fbf4fafe98e790751","816.0999999940395","","d","true","[[289,0],[80,95],[0,310],[95,519],[310,599],[519,504],[599,289],[504,80]]","true","8","main_T2_Trial","d","img/Fire_Down_Target.gif","[""img/Fire_Up_Distractor.gif"",""img/Fire_Up_Distractor.gif"",""img/Fire_Up_Distractor.gif"",""img/Fire_Up_Distractor.gif"",""img/Fire_Up_Distractor.gif"",""img/Fire_Up_Distractor.gif"",""img/Fire_Up_Distractor.gif"",""img/Fire_Up_Distractor.gif"",""img/Fire_Up_Distractor.gif"",""img/Fire_Up_Distractor.gif"",""img/Fire_Up_Distractor.gif"",""img/Fire_Up_Distractor.gif""]","8","targetDown_distractorsUp"
"","","","","","html-keyboard-response","144","175150","0.0-14.0-0.0-0.65","5ec37264194de71cb7b82637","619531dcf66c91622fa1b861","6195955fbf4fafe98e790751","null","","null","","","","","main_T1_ITI","","","","",""
"","","","","","visual-search-circle","145","177184","0.0-14.0-0.0-1.65","5ec37264194de71cb7b82637","619531dcf66c91622fa1b861","6195955fbf4fafe98e790751","1026.2000000178814","","s","true","[[45,141],[141,554],[554,458],[458,45]]","false","4","main_T2_Trial","s","img/Fire_Up_Target.gif","[""img/Fire_Down_Distractor.gif"",""img/Fire_Down_Distractor.gif"",""img/Fire_Down_Distractor.gif"",""img/Fire_Down_Distractor.gif"",""img/Fire_Down_Distractor.gif"",""img/Fire_Down_Distractor.gif"",""img/Fire_Down_Distractor.gif"",""img/Fire_Down_Distractor.gif"",""img/Fire_Down_Distractor.gif"",""img/Fire_Down_Distractor.gif"",""img/Fire_Down_Distractor.gif"",""img/Fire_Down_Distractor.gif""]","4","targetUp_distractorsDown"
"","","","","","html-keyboard-response","146","177186","0.0-14.0-0.0-0.66","5ec37264194de71cb7b82637","619531dcf66c91622fa1b861","6195955fbf4fafe98e790751","null","","null","","","","","main_T1_ITI","","","","",""
"","","","","","visual-search-circle","147","179191","0.0-14.0-0.0-1.66","5ec37264194de71cb7b82637","619531dcf66c91622fa1b861","6195955fbf4fafe98e790751","994.4000000059605","","d","true","[[480,539],[597,263],[417,23],[119,60],[2,336],[182,576]]","true","6","main_T2_Trial","d","img/Fire_Up_Target.gif","[""img/Fire_Down_Distractor.gif"",""img/Fire_Down_Distractor.gif"",""img/Fire_Down_Distractor.gif"",""img/Fire_Down_Distractor.gif"",""img/Fire_Down_Distractor.gif"",""img/Fire_Down_Distractor.gif"",""img/Fire_Down_Distractor.gif"",""img/Fire_Down_Distractor.gif"",""img/Fire_Down_Distractor.gif"",""img/Fire_Down_Distractor.gif"",""img/Fire_Down_Distractor.gif"",""img/Fire_Down_Distractor.gif""]","6","targetUp_distractorsDown"
"","","","","","html-keyboard-response","148","179206","0.0-14.0-0.0-0.67","5ec37264194de71cb7b82637","619531dcf66c91622fa1b861","6195955fbf4fafe98e790751","null","","null","","","","","main_T1_ITI","","","","",""
"","","","","","visual-search-circle","149","181926","0.0-14.0-0.0-1.67","5ec37264194de71cb7b82637","619531dcf66c91622fa1b861","6195955fbf4fafe98e790751","1710.300000011921","","d","true","[[3,253],[57,476],[253,596],[476,542],[596,346],[542,123],[346,3],[123,57]]","true","8","main_T2_Trial","d","img/Fire_Up_Target.gif","[""img/Fire_Down_Distractor.gif"",""img/Fire_Down_Distractor.gif"",""img/Fire_Down_Distractor.gif"",""img/Fire_Down_Distractor.gif"",""img/Fire_Down_Distractor.gif"",""img/Fire_Down_Distractor.gif"",""img/Fire_Down_Distractor.gif"",""img/Fire_Down_Distractor.gif"",""img/Fire_Down_Distractor.gif"",""img/Fire_Down_Distractor.gif"",""img/Fire_Down_Distractor.gif"",""img/Fire_Down_Distractor.gif""]","8","targetUp_distractorsDown"
"","","","","","html-keyboard-response","150","181928","0.0-14.0-0.0-0.68","5ec37264194de71cb7b82637","619531dcf66c91622fa1b861","6195955fbf4fafe98e790751","null","","null","","","","","main_T1_ITI","","","","",""
"","","","","","visual-search-circle","151","183830","0.0-14.0-0.0-1.68","5ec37264194de71cb7b82637","619531dcf66c91622fa1b861","6195955fbf4fafe98e790751","890.7000000178814","","s","true","[[25,422],[224,590],[479,540],[599,308],[493,71],[242,5],[33,161]]","false","7","main_T2_Trial","s","img/Fire_Down_Target.gif","[""img/Fire_Up_Distractor.gif"",""img/Fire_Up_Distractor.gif"",""img/Fire_Up_Distractor.gif"",""img/Fire_Up_Distractor.gif"",""img/Fire_Up_Distractor.gif"",""img/Fire_Up_Distractor.gif"",""img/Fire_Up_Distractor.gif"",""img/Fire_Up_Distractor.gif"",""img/Fire_Up_Distractor.gif"",""img/Fire_Up_Distractor.gif"",""img/Fire_Up_Distractor.gif"",""img/Fire_Up_Distractor.gif""]","7","targetDown_distractorsUp"
"","","","","","html-keyboard-response","152","183832","0.0-14.0-0.0-0.69","5ec37264194de71cb7b82637","619531dcf66c91622fa1b861","6195955fbf4fafe98e790751","null","","null","","","","","main_T1_ITI","","","","",""
"","","","","","visual-search-circle","153","185846","0.0-14.0-0.0-1.69","5ec37264194de71cb7b82637","619531dcf66c91622fa1b861","6195955fbf4fafe98e790751","1006.6999999880791","","s","true","[[484,63],[63,115],[115,536],[536,484]]","false","4","main_T2_Trial","s","img/Fire_Up_Target.gif","[""img/Fire_Down_Distractor.gif"",""img/Fire_Down_Distractor.gif"",""img/Fire_Down_Distractor.gif"",""img/Fire_Down_Distractor.gif"",""img/Fire_Down_Distractor.gif"",""img/Fire_Down_Distractor.gif"",""img/Fire_Down_Distractor.gif"",""img/Fire_Down_Distractor.gif"",""img/Fire_Down_Distractor.gif"",""img/Fire_Down_Distractor.gif"",""img/Fire_Down_Distractor.gif"",""img/Fire_Down_Distractor.gif""]","4","targetUp_distractorsDown"
"","","","","","html-keyboard-response","154","185849","0.0-14.0-0.0-0.70","5ec37264194de71cb7b82637","619531dcf66c91622fa1b861","6195955fbf4fafe98e790751","null","","null","","","","","main_T1_ITI","","","","",""
"","","","","","visual-search-circle","155","189426","0.0-14.0-0.0-1.70","5ec37264194de71cb7b82637","619531dcf66c91622fa1b861","6195955fbf4fafe98e790751","2568.2999999821186","","s","true","[[13,387],[189,578],[449,560],[596,345],[520,96],[278,0],[52,130]]","false","7","main_T2_Trial","s","img/Fire_Up_Target.gif","[""img/Fire_Down_Distractor.gif"",""img/Fire_Down_Distractor.gif"",""img/Fire_Down_Distractor.gif"",""img/Fire_Down_Distractor.gif"",""img/Fire_Down_Distractor.gif"",""img/Fire_Down_Distractor.gif"",""img/Fire_Down_Distractor.gif"",""img/Fire_Down_Distractor.gif"",""img/Fire_Down_Distractor.gif"",""img/Fire_Down_Distractor.gif"",""img/Fire_Down_Distractor.gif"",""img/Fire_Down_Distractor.gif""]","7","targetUp_distractorsDown"
"","","","","","html-keyboard-response","156","189431","0.0-14.0-0.0-0.71","5ec37264194de71cb7b82637","619531dcf66c91622fa1b861","6195955fbf4fafe98e790751","null","","null","","","","","main_T1_ITI","","","","",""
"","","","","","visual-search-circle","157","191535","0.0-14.0-0.0-1.71","5ec37264194de71cb7b82637","619531dcf66c91622fa1b861","6195955fbf4fafe98e790751","1097","","s","true","[[32,436],[436,567],[567,163],[163,32]]","false","4","main_T2_Trial","s","img/Fire_Up_Target.gif","[""img/Fire_Down_Distractor.gif"",""img/Fire_Down_Distractor.gif"",""img/Fire_Down_Distractor.gif"",""img/Fire_Down_Distractor.gif"",""img/Fire_Down_Distractor.gif"",""img/Fire_Down_Distractor.gif"",""img/Fire_Down_Distractor.gif"",""img/Fire_Down_Distractor.gif"",""img/Fire_Down_Distractor.gif"",""img/Fire_Down_Distractor.gif"",""img/Fire_Down_Distractor.gif"",""img/Fire_Down_Distractor.gif""]","4","targetUp_distractorsDown"
"","","","","","html-keyboard-response","158","191536","0.0-14.0-0.0-0.72","5ec37264194de71cb7b82637","619531dcf66c91622fa1b861","6195955fbf4fafe98e790751","null","","null","","","","","main_T1_ITI","","","","",""
"","","","","","visual-search-circle","159","194167","0.0-14.0-0.0-1.72","5ec37264194de71cb7b82637","619531dcf66c91622fa1b861","6195955fbf4fafe98e790751","1618.699999988079","","s","true","[[336,2],[89,85],[1,330],[137,552],[396,584],[582,401],[555,142]]","false","7","main_T2_Trial","s","img/Fire_Down_Target.gif","[""img/Fire_Up_Distractor.gif"",""img/Fire_Up_Distractor.gif"",""img/Fire_Up_Distractor.gif"",""img/Fire_Up_Distractor.gif"",""img/Fire_Up_Distractor.gif"",""img/Fire_Up_Distractor.gif"",""img/Fire_Up_Distractor.gif"",""img/Fire_Up_Distractor.gif"",""img/Fire_Up_Distractor.gif"",""img/Fire_Up_Distractor.gif"",""img/Fire_Up_Distractor.gif"",""img/Fire_Up_Distractor.gif""]","7","targetDown_distractorsUp"
"","","","","","html-keyboard-response","160","194168","0.0-14.0-0.0-0.73","5ec37264194de71cb7b82637","619531dcf66c91622fa1b861","6195955fbf4fafe98e790751","null","","null","","","","","main_T1_ITI","","","","",""
"","","","","","visual-search-circle","161","195977","0.0-14.0-0.0-1.73","5ec37264194de71cb7b82637","619531dcf66c91622fa1b861","6195955fbf4fafe98e790751","797","","d","true","[[598,326],[506,82],[258,2],[42,146],[19,406],[208,585],[465,549]]","true","7","main_T2_Trial","d","img/Fire_Down_Target.gif","[""img/Fire_Up_Distractor.gif"",""img/Fire_Up_Distractor.gif"",""img/Fire_Up_Distractor.gif"",""img/Fire_Up_Distractor.gif"",""img/Fire_Up_Distractor.gif"",""img/Fire_Up_Distractor.gif"",""img/Fire_Up_Distractor.gif"",""img/Fire_Up_Distractor.gif"",""img/Fire_Up_Distractor.gif"",""img/Fire_Up_Distractor.gif"",""img/Fire_Up_Distractor.gif"",""img/Fire_Up_Distractor.gif""]","7","targetDown_distractorsUp"
"","","","","","html-keyboard-response","162","195979","0.0-14.0-0.0-0.74","5ec37264194de71cb7b82637","619531dcf66c91622fa1b861","6195955fbf4fafe98e790751","null","","null","","","","","main_T1_ITI","","","","",""
"","","","","","visual-search-circle","163","198063","0.0-14.0-0.0-1.74","5ec37264194de71cb7b82637","619531dcf66c91622fa1b861","6195955fbf4fafe98e790751","1076","","d","true","[[320,0],[51,132],[30,431],[279,599],[548,467],[569,168]]","true","6","main_T2_Trial","d","img/Fire_Down_Target.gif","[""img/Fire_Up_Distractor.gif"",""img/Fire_Up_Distractor.gif"",""img/Fire_Up_Distractor.gif"",""img/Fire_Up_Distractor.gif"",""img/Fire_Up_Distractor.gif"",""img/Fire_Up_Distractor.gif"",""img/Fire_Up_Distractor.gif"",""img/Fire_Up_Distractor.gif"",""img/Fire_Up_Distractor.gif"",""img/Fire_Up_Distractor.gif"",""img/Fire_Up_Distractor.gif"",""img/Fire_Up_Distractor.gif""]","6","targetDown_distractorsUp"
"","","","","","html-keyboard-response","164","198064","0.0-14.0-0.0-0.75","5ec37264194de71cb7b82637","619531dcf66c91622fa1b861","6195955fbf4fafe98e790751","null","","null","","","","","main_T1_ITI","","","","",""
"","","","","","visual-search-circle","165","200860","0.0-14.0-0.0-1.75","5ec37264194de71cb7b82637","619531dcf66c91622fa1b861","6195955fbf4fafe98e790751","1783.699999988079","","s","true","[[377,589],[599,315],[407,19],[66,111],[48,463]]","false","5","main_T2_Trial","s","img/Fire_Up_Target.gif","[""img/Fire_Down_Distractor.gif"",""img/Fire_Down_Distractor.gif"",""img/Fire_Down_Distractor.gif"",""img/Fire_Down_Distractor.gif"",""img/Fire_Down_Distractor.gif"",""img/Fire_Down_Distractor.gif"",""img/Fire_Down_Distractor.gif"",""img/Fire_Down_Distractor.gif"",""img/Fire_Down_Distractor.gif"",""img/Fire_Down_Distractor.gif"",""img/Fire_Down_Distractor.gif"",""img/Fire_Down_Distractor.gif""]","5","targetUp_distractorsDown"
"","","","","","html-keyboard-response","166","200862","0.0-14.0-0.0-0.76","5ec37264194de71cb7b82637","619531dcf66c91622fa1b861","6195955fbf4fafe98e790751","null","","null","","","","","main_T1_ITI","","","","",""
"","","","","","visual-search-circle","167","202847","0.0-14.0-0.0-1.76","5ec37264194de71cb7b82637","619531dcf66c91622fa1b861","6195955fbf4fafe98e790751","971.9000000059605","","d","true","[[574,422],[580,192],[422,25],[192,19],[25,177],[19,407],[177,574],[407,580]]","true","8","main_T2_Trial","d","img/Fire_Up_Target.gif","[""img/Fire_Down_Distractor.gif"",""img/Fire_Down_Distractor.gif"",""img/Fire_Down_Distractor.gif"",""img/Fire_Down_Distractor.gif"",""img/Fire_Down_Distractor.gif"",""img/Fire_Down_Distractor.gif"",""img/Fire_Down_Distractor.gif"",""img/Fire_Down_Distractor.gif"",""img/Fire_Down_Distractor.gif"",""img/Fire_Down_Distractor.gif"",""img/Fire_Down_Distractor.gif"",""img/Fire_Down_Distractor.gif""]","8","targetUp_distractorsDown"
"","","","","","html-keyboard-response","168","202850","0.0-14.0-0.0-0.77","5ec37264194de71cb7b82637","619531dcf66c91622fa1b861","6195955fbf4fafe98e790751","null","","null","","","","","main_T1_ITI","","","","",""
"","","","","","visual-search-circle","169","208816","0.0-14.0-0.0-1.77","5ec37264194de71cb7b82637","619531dcf66c91622fa1b861","6195955fbf4fafe98e790751","4957.5999999940395","","d","true","[[591,227],[227,8],[8,372],[372,591]]","true","4","main_T2_Trial","d","img/Fire_Up_Target.gif","[""img/Fire_Down_Distractor.gif"",""img/Fire_Down_Distractor.gif"",""img/Fire_Down_Distractor.gif"",""img/Fire_Down_Distractor.gif"",""img/Fire_Down_Distractor.gif"",""img/Fire_Down_Distractor.gif"",""img/Fire_Down_Distractor.gif"",""img/Fire_Down_Distractor.gif"",""img/Fire_Down_Distractor.gif"",""img/Fire_Down_Distractor.gif"",""img/Fire_Down_Distractor.gif"",""img/Fire_Down_Distractor.gif""]","4","targetUp_distractorsDown"
"","","","","","html-keyboard-response","170","208824","0.0-14.0-0.0-0.78","5ec37264194de71cb7b82637","619531dcf66c91622fa1b861","6195955fbf4fafe98e790751","null","","null","","","","","main_T1_ITI","","","","",""
"","","","","","visual-search-circle","171","210827","0.0-14.0-0.0-1.78","5ec37264194de71cb7b82637","619531dcf66c91622fa1b861","6195955fbf4fafe98e790751","996","","d","true","[[48,136],[15,394],[196,581],[455,556],[597,338],[515,91],[270,1]]","true","7","main_T2_Trial","d","img/Fire_Down_Target.gif","[""img/Fire_Up_Distractor.gif"",""img/Fire_Up_Distractor.gif"",""img/Fire_Up_Distractor.gif"",""img/Fire_Up_Distractor.gif"",""img/Fire_Up_Distractor.gif"",""img/Fire_Up_Distractor.gif"",""img/Fire_Up_Distractor.gif"",""img/Fire_Up_Distractor.gif"",""img/Fire_Up_Distractor.gif"",""img/Fire_Up_Distractor.gif"",""img/Fire_Up_Distractor.gif"",""img/Fire_Up_Distractor.gif""]","7","targetDown_distractorsUp"
"","","","","","html-keyboard-response","172","211755","0.0-14.0-0.0-0.79","5ec37264194de71cb7b82637","619531dcf66c91622fa1b861","6195955fbf4fafe98e790751","927.4000000059605","Wow! You've completed 80 out of 160 trials! </p> <p>  </p><p> Take a quick break, then press any key when you're ready to continue."," ","","","","","main_T1_ITI","","","","",""
"","","","","","visual-search-circle","173","213590","0.0-14.0-0.0-1.79","5ec37264194de71cb7b82637","619531dcf66c91622fa1b861","6195955fbf4fafe98e790751","823.0999999940395","","d","true","[[173,28],[2,336],[242,594],[562,445],[519,95]]","true","5","main_T2_Trial","d","img/Fire_Up_Target.gif","[""img/Fire_Down_Distractor.gif"",""img/Fire_Down_Distractor.gif"",""img/Fire_Down_Distractor.gif"",""img/Fire_Down_Distractor.gif"",""img/Fire_Down_Distractor.gif"",""img/Fire_Down_Distractor.gif"",""img/Fire_Down_Distractor.gif"",""img/Fire_Down_Distractor.gif"",""img/Fire_Down_Distractor.gif"",""img/Fire_Down_Distractor.gif"",""img/Fire_Down_Distractor.gif"",""img/Fire_Down_Distractor.gif""]","5","targetUp_distractorsDown"
"","","","","","html-keyboard-response","174","213591","0.0-14.0-0.0-0.80","5ec37264194de71cb7b82637","619531dcf66c91622fa1b861","6195955fbf4fafe98e790751","null","","null","","","","","main_T1_ITI","","","","",""
"","","","","","visual-search-circle","175","215701","0.0-14.0-0.0-1.80","5ec37264194de71cb7b82637","619531dcf66c91622fa1b861","6195955fbf4fafe98e790751","1100.0999999940395","","s","true","[[500,522],[574,177],[268,1],[6,237],[150,559]]","false","5","main_T2_Trial","s","img/Fire_Up_Target.gif","[""img/Fire_Down_Distractor.gif"",""img/Fire_Down_Distractor.gif"",""img/Fire_Down_Distractor.gif"",""img/Fire_Down_Distractor.gif"",""img/Fire_Down_Distractor.gif"",""img/Fire_Down_Distractor.gif"",""img/Fire_Down_Distractor.gif"",""img/Fire_Down_Distractor.gif"",""img/Fire_Down_Distractor.gif"",""img/Fire_Down_Distractor.gif"",""img/Fire_Down_Distractor.gif"",""img/Fire_Down_Distractor.gif""]","5","targetUp_distractorsDown"
"","","","","","html-keyboard-response","176","215703","0.0-14.0-0.0-0.81","5ec37264194de71cb7b82637","619531dcf66c91622fa1b861","6195955fbf4fafe98e790751","null","","null","","","","","main_T1_ITI","","","","",""
"","","","","","visual-search-circle","177","217453","0.0-14.0-0.0-1.81","5ec37264194de71cb7b82637","619531dcf66c91622fa1b861","6195955fbf4fafe98e790751","740.6999999880791","","s","true","[[463,551],[551,136],[136,48],[48,463]]","false","4","main_T2_Trial","s","img/Fire_Up_Target.gif","[""img/Fire_Down_Distractor.gif"",""img/Fire_Down_Distractor.gif"",""img/Fire_Down_Distractor.gif"",""img/Fire_Down_Distractor.gif"",""img/Fire_Down_Distractor.gif"",""img/Fire_Down_Distractor.gif"",""img/Fire_Down_Distractor.gif"",""img/Fire_Down_Distractor.gif"",""img/Fire_Down_Distractor.gif"",""img/Fire_Down_Distractor.gif"",""img/Fire_Down_Distractor.gif"",""img/Fire_Down_Distractor.gif""]","4","targetUp_distractorsDown"
"","","","","","html-keyboard-response","178","217455","0.0-14.0-0.0-0.82","5ec37264194de71cb7b82637","619531dcf66c91622fa1b861","6195955fbf4fafe98e790751","null","","null","","","","","main_T1_ITI","","","","",""
"","","","","","visual-search-circle","179","219422","0.0-14.0-0.0-1.82","5ec37264194de71cb7b82637","619531dcf66c91622fa1b861","6195955fbf4fafe98e790751","956","","s","true","[[0,289],[80,504],[289,599],[504,519],[599,310],[519,95],[310,0],[95,80]]","false","8","main_T2_Trial","s","img/Fire_Down_Target.gif","[""img/Fire_Up_Distractor.gif"",""img/Fire_Up_Distractor.gif"",""img/Fire_Up_Distractor.gif"",""img/Fire_Up_Distractor.gif"",""img/Fire_Up_Distractor.gif"",""img/Fire_Up_Distractor.gif"",""img/Fire_Up_Distractor.gif"",""img/Fire_Up_Distractor.gif"",""img/Fire_Up_Distractor.gif"",""img/Fire_Up_Distractor.gif"",""img/Fire_Up_Distractor.gif"",""img/Fire_Up_Distractor.gif""]","8","targetDown_distractorsUp"
"","","","","","html-keyboard-response","180","219424","0.0-14.0-0.0-0.83","5ec37264194de71cb7b82637","619531dcf66c91622fa1b861","6195955fbf4fafe98e790751","null","","null","","","","","main_T1_ITI","","","","",""
"","","","","","visual-search-circle","181","221289","0.0-14.0-0.0-1.83","5ec37264194de71cb7b82637","619531dcf66c91622fa1b861","6195955fbf4fafe98e790751","859.1999999880791","","d","true","[[168,569],[569,431],[431,30],[30,168]]","true","4","main_T2_Trial","d","img/Fire_Down_Target.gif","[""img/Fire_Up_Distractor.gif"",""img/Fire_Up_Distractor.gif"",""img/Fire_Up_Distractor.gif"",""img/Fire_Up_Distractor.gif"",""img/Fire_Up_Distractor.gif"",""img/Fire_Up_Distractor.gif"",""img/Fire_Up_Distractor.gif"",""img/Fire_Up_Distractor.gif"",""img/Fire_Up_Distractor.gif"",""img/Fire_Up_Distractor.gif"",""img/Fire_Up_Distractor.gif"",""img/Fire_Up_Distractor.gif""]","4","targetDown_distractorsUp"
"","","","","","html-keyboard-response","182","221290","0.0-14.0-0.0-0.84","5ec37264194de71cb7b82637","619531dcf66c91622fa1b861","6195955fbf4fafe98e790751","null","","null","","","","","main_T1_ITI","","","","",""
"","","","","","visual-search-circle","183","222975","0.0-14.0-0.0-1.84","5ec37264194de71cb7b82637","619531dcf66c91622fa1b861","6195955fbf4fafe98e790751","672.8999999761581","","d","true","[[145,42],[42,454],[454,557],[557,145]]","true","4","main_T2_Trial","d","img/Fire_Down_Target.gif","[""img/Fire_Up_Distractor.gif"",""img/Fire_Up_Distractor.gif"",""img/Fire_Up_Distractor.gif"",""img/Fire_Up_Distractor.gif"",""img/Fire_Up_Distractor.gif"",""img/Fire_Up_Distractor.gif"",""img/Fire_Up_Distractor.gif"",""img/Fire_Up_Distractor.gif"",""img/Fire_Up_Distractor.gif"",""img/Fire_Up_Distractor.gif"",""img/Fire_Up_Distractor.gif"",""img/Fire_Up_Distractor.gif""]","4","targetDown_distractorsUp"
"","","","","","html-keyboard-response","184","222977","0.0-14.0-0.0-0.85","5ec37264194de71cb7b82637","619531dcf66c91622fa1b861","6195955fbf4fafe98e790751","null","","null","","","","","main_T1_ITI","","","","",""
"","","","","","visual-search-circle","185","224654","0.0-14.0-0.0-1.85","5ec37264194de71cb7b82637","619531dcf66c91622fa1b861","6195955fbf4fafe98e790751","667.5","","s","true","[[559,150],[150,40],[40,450],[450,559]]","false","4","main_T2_Trial","s","img/Fire_Down_Target.gif","[""img/Fire_Up_Distractor.gif"",""img/Fire_Up_Distractor.gif"",""img/Fire_Up_Distractor.gif"",""img/Fire_Up_Distractor.gif"",""img/Fire_Up_Distractor.gif"",""img/Fire_Up_Distractor.gif"",""img/Fire_Up_Distractor.gif"",""img/Fire_Up_Distractor.gif"",""img/Fire_Up_Distractor.gif"",""img/Fire_Up_Distractor.gif"",""img/Fire_Up_Distractor.gif"",""img/Fire_Up_Distractor.gif""]","4","targetDown_distractorsUp"
"","","","","","html-keyboard-response","186","224656","0.0-14.0-0.0-0.86","5ec37264194de71cb7b82637","619531dcf66c91622fa1b861","6195955fbf4fafe98e790751","null","","null","","","","","main_T1_ITI","","","","",""
"","","","","","visual-search-circle","187","226350","0.0-14.0-0.0-1.86","5ec37264194de71cb7b82637","619531dcf66c91622fa1b861","6195955fbf4fafe98e790751","689.4000000059605","","s","true","[[402,581],[581,197],[197,18],[18,402]]","false","4","main_T2_Trial","s","img/Fire_Down_Target.gif","[""img/Fire_Up_Distractor.gif"",""img/Fire_Up_Distractor.gif"",""img/Fire_Up_Distractor.gif"",""img/Fire_Up_Distractor.gif"",""img/Fire_Up_Distractor.gif"",""img/Fire_Up_Distractor.gif"",""img/Fire_Up_Distractor.gif"",""img/Fire_Up_Distractor.gif"",""img/Fire_Up_Distractor.gif"",""img/Fire_Up_Distractor.gif"",""img/Fire_Up_Distractor.gif"",""img/Fire_Up_Distractor.gif""]","4","targetDown_distractorsUp"
"","","","","","html-keyboard-response","188","226352","0.0-14.0-0.0-0.87","5ec37264194de71cb7b82637","619531dcf66c91622fa1b861","6195955fbf4fafe98e790751","null","","null","","","","","main_T1_ITI","","","","",""
"","","","","","visual-search-circle","189","228098","0.0-14.0-0.0-1.87","5ec37264194de71cb7b82637","619531dcf66c91622fa1b861","6195955fbf4fafe98e790751","736.5999999940395","","d","true","[[115,63],[18,402],[310,599],[588,382],[467,51]]","true","5","main_T2_Trial","d","img/Fire_Up_Target.gif","[""img/Fire_Down_Distractor.gif"",""img/Fire_Down_Distractor.gif"",""img/Fire_Down_Distractor.gif"",""img/Fire_Down_Distractor.gif"",""img/Fire_Down_Distractor.gif"",""img/Fire_Down_Distractor.gif"",""img/Fire_Down_Distractor.gif"",""img/Fire_Down_Distractor.gif"",""img/Fire_Down_Distractor.gif"",""img/Fire_Down_Distractor.gif"",""img/Fire_Down_Distractor.gif"",""img/Fire_Down_Distractor.gif""]","5","targetUp_distractorsDown"
"","","","","","html-keyboard-response","190","228100","0.0-14.0-0.0-0.88","5ec37264194de71cb7b82637","619531dcf66c91622fa1b861","6195955fbf4fafe98e790751","null","","null","","","","","main_T1_ITI","","","","",""
"","","","","","visual-search-circle","191","230159","0.0-14.0-0.0-1.88","5ec37264194de71cb7b82637","619531dcf66c91622fa1b861","6195955fbf4fafe98e790751","1050.5","","d","true","[[578,412],[536,115],[258,2],[21,187],[63,484],[341,597]]","true","6","main_T2_Trial","d","img/Fire_Up_Target.gif","[""img/Fire_Down_Distractor.gif"",""img/Fire_Down_Distractor.gif"",""img/Fire_Down_Distractor.gif"",""img/Fire_Down_Distractor.gif"",""img/Fire_Down_Distractor.gif"",""img/Fire_Down_Distractor.gif"",""img/Fire_Down_Distractor.gif"",""img/Fire_Down_Distractor.gif"",""img/Fire_Down_Distractor.gif"",""img/Fire_Down_Distractor.gif"",""img/Fire_Down_Distractor.gif"",""img/Fire_Down_Distractor.gif""]","6","targetUp_distractorsDown"
"","","","","","html-keyboard-response","192","230161","0.0-14.0-0.0-0.89","5ec37264194de71cb7b82637","619531dcf66c91622fa1b861","6195955fbf4fafe98e790751","null","","null","","","","","main_T1_ITI","","","","",""
"","","","","","visual-search-circle","193","232545","0.0-14.0-0.0-1.89","5ec37264194de71cb7b82637","619531dcf66c91622fa1b861","6195955fbf4fafe98e790751","1373.300000011921","","d","true","[[1,326],[173,571],[472,545],[598,273],[426,28],[127,54]]","true","6","main_T2_Trial","d","img/Fire_Up_Target.gif","[""img/Fire_Down_Distractor.gif"",""img/Fire_Down_Distractor.gif"",""img/Fire_Down_Distractor.gif"",""img/Fire_Down_Distractor.gif"",""img/Fire_Down_Distractor.gif"",""img/Fire_Down_Distractor.gif"",""img/Fire_Down_Distractor.gif"",""img/Fire_Down_Distractor.gif"",""img/Fire_Down_Distractor.gif"",""img/Fire_Down_Distractor.gif"",""img/Fire_Down_Distractor.gif"",""img/Fire_Down_Distractor.gif""]","6","targetUp_distractorsDown"
"","","","","","html-keyboard-response","194","232547","0.0-14.0-0.0-0.90","5ec37264194de71cb7b82637","619531dcf66c91622fa1b861","6195955fbf4fafe98e790751","null","","null","","","","","main_T1_ITI","","","","",""
"","","","","","visual-search-circle","195","234357","0.0-14.0-0.0-1.90","5ec37264194de71cb7b82637","619531dcf66c91622fa1b861","6195955fbf4fafe98e790751","804.5","","d","true","[[202,583],[539,480],[545,127],[212,13],[0,294]]","true","5","main_T2_Trial","d","img/Fire_Up_Target.gif","[""img/Fire_Down_Distractor.gif"",""img/Fire_Down_Distractor.gif"",""img/Fire_Down_Distractor.gif"",""img/Fire_Down_Distractor.gif"",""img/Fire_Down_Distractor.gif"",""img/Fire_Down_Distractor.gif"",""img/Fire_Down_Distractor.gif"",""img/Fire_Down_Distractor.gif"",""img/Fire_Down_Distractor.gif"",""img/Fire_Down_Distractor.gif"",""img/Fire_Down_Distractor.gif"",""img/Fire_Down_Distractor.gif""]","5","targetUp_distractorsDown"
"","","","","","html-keyboard-response","196","234359","0.0-14.0-0.0-0.91","5ec37264194de71cb7b82637","619531dcf66c91622fa1b861","6195955fbf4fafe98e790751","null","","null","","","","","main_T1_ITI","","","","",""
"","","","","","visual-search-circle","197","236161","0.0-14.0-0.0-1.91","5ec37264194de71cb7b82637","619531dcf66c91622fa1b861","6195955fbf4fafe98e790751","788.0999999940395","","s","true","[[467,548],[594,357],[548,132],[357,5],[132,51],[5,242],[51,467],[242,594]]","false","8","main_T2_Trial","s","img/Fire_Down_Target.gif","[""img/Fire_Up_Distractor.gif"",""img/Fire_Up_Distractor.gif"",""img/Fire_Up_Distractor.gif"",""img/Fire_Up_Distractor.gif"",""img/Fire_Up_Distractor.gif"",""img/Fire_Up_Distractor.gif"",""img/Fire_Up_Distractor.gif"",""img/Fire_Up_Distractor.gif"",""img/Fire_Up_Distractor.gif"",""img/Fire_Up_Distractor.gif"",""img/Fire_Up_Distractor.gif"",""img/Fire_Up_Distractor.gif""]","8","targetDown_distractorsUp"
"","","","","","html-keyboard-response","198","236163","0.0-14.0-0.0-0.92","5ec37264194de71cb7b82637","619531dcf66c91622fa1b861","6195955fbf4fafe98e790751","null","","null","","","","","main_T1_ITI","","","","",""
"","","","","","visual-search-circle","199","238046","0.0-14.0-0.0-1.92","5ec37264194de71cb7b82637","619531dcf66c91622fa1b861","6195955fbf4fafe98e790751","871.5999999940395","","d","true","[[145,557],[404,581],[585,393],[550,135],[327,1],[83,92],[2,339]]","true","7","main_T2_Trial","d","img/Fire_Down_Target.gif","[""img/Fire_Up_Distractor.gif"",""img/Fire_Up_Distractor.gif"",""img/Fire_Up_Distractor.gif"",""img/Fire_Up_Distractor.gif"",""img/Fire_Up_Distractor.gif"",""img/Fire_Up_Distractor.gif"",""img/Fire_Up_Distractor.gif"",""img/Fire_Up_Distractor.gif"",""img/Fire_Up_Distractor.gif"",""img/Fire_Up_Distractor.gif"",""img/Fire_Up_Distractor.gif"",""img/Fire_Up_Distractor.gif""]","7","targetDown_distractorsUp"
"","","","","","html-keyboard-response","200","238047","0.0-14.0-0.0-0.93","5ec37264194de71cb7b82637","619531dcf66c91622fa1b861","6195955fbf4fafe98e790751","null","","null","","","","","main_T1_ITI","","","","",""
"","","","","","visual-search-circle","201","239927","0.0-14.0-0.0-1.93","5ec37264194de71cb7b82637","619531dcf66c91622fa1b861","6195955fbf4fafe98e790751","864.9000000059605","","d","true","[[529,492],[598,273],[492,70],[273,1],[70,107],[1,326],[107,529],[326,598]]","true","8","main_T2_Trial","d","img/Fire_Down_Target.gif","[""img/Fire_Up_Distractor.gif"",""img/Fire_Up_Distractor.gif"",""img/Fire_Up_Distractor.gif"",""img/Fire_Up_Distractor.gif"",""img/Fire_Up_Distractor.gif"",""img/Fire_Up_Distractor.gif"",""img/Fire_Up_Distractor.gif"",""img/Fire_Up_Distractor.gif"",""img/Fire_Up_Distractor.gif"",""img/Fire_Up_Distractor.gif"",""img/Fire_Up_Distractor.gif"",""img/Fire_Up_Distractor.gif""]","8","targetDown_distractorsUp"
"","","","","","html-keyboard-response","202","239928","0.0-14.0-0.0-0.94","5ec37264194de71cb7b82637","619531dcf66c91622fa1b861","6195955fbf4fafe98e790751","null","","null","","","","","main_T1_ITI","","","","",""
"","","","","","visual-search-circle","203","242130","0.0-14.0-0.0-1.94","5ec37264194de71cb7b82637","619531dcf66c91622fa1b861","6195955fbf4fafe98e790751","1194","","s","true","[[258,597],[597,341],[341,2],[2,258]]","false","4","main_T2_Trial","s","img/Fire_Up_Target.gif","[""img/Fire_Down_Distractor.gif"",""img/Fire_Down_Distractor.gif"",""img/Fire_Down_Distractor.gif"",""img/Fire_Down_Distractor.gif"",""img/Fire_Down_Distractor.gif"",""img/Fire_Down_Distractor.gif"",""img/Fire_Down_Distractor.gif"",""img/Fire_Down_Distractor.gif"",""img/Fire_Down_Distractor.gif"",""img/Fire_Down_Distractor.gif"",""img/Fire_Down_Distractor.gif"",""img/Fire_Down_Distractor.gif""]","4","targetUp_distractorsDown"
"","","","","","html-keyboard-response","204","242134","0.0-14.0-0.0-0.95","5ec37264194de71cb7b82637","619531dcf66c91622fa1b861","6195955fbf4fafe98e790751","null","","null","","","","","main_T1_ITI","","","","",""
"","","","","","visual-search-circle","205","243893","0.0-14.0-0.0-1.95","5ec37264194de71cb7b82637","619531dcf66c91622fa1b861","6195955fbf4fafe98e790751","746.3999999761581","","d","true","[[289,0],[35,159],[45,458],[310,599],[564,440],[554,141]]","true","6","main_T2_Trial","d","img/Fire_Down_Target.gif","[""img/Fire_Up_Distractor.gif"",""img/Fire_Up_Distractor.gif"",""img/Fire_Up_Distractor.gif"",""img/Fire_Up_Distractor.gif"",""img/Fire_Up_Distractor.gif"",""img/Fire_Up_Distractor.gif"",""img/Fire_Up_Distractor.gif"",""img/Fire_Up_Distractor.gif"",""img/Fire_Up_Distractor.gif"",""img/Fire_Up_Distractor.gif"",""img/Fire_Up_Distractor.gif"",""img/Fire_Up_Distractor.gif""]","6","targetDown_distractorsUp"
"","","","","","html-keyboard-response","206","243897","0.0-14.0-0.0-0.96","5ec37264194de71cb7b82637","619531dcf66c91622fa1b861","6195955fbf4fafe98e790751","null","","null","","","","","main_T1_ITI","","","","",""
"","","","","","visual-search-circle","207","245589","0.0-14.0-0.0-1.96","5ec37264194de71cb7b82637","619531dcf66c91622fa1b861","6195955fbf4fafe98e790751","687.2000000178814","","s","true","[[202,16],[5,242],[103,526],[397,583],[594,357],[496,73]]","false","6","main_T2_Trial","s","img/Fire_Up_Target.gif","[""img/Fire_Down_Distractor.gif"",""img/Fire_Down_Distractor.gif"",""img/Fire_Down_Distractor.gif"",""img/Fire_Down_Distractor.gif"",""img/Fire_Down_Distractor.gif"",""img/Fire_Down_Distractor.gif"",""img/Fire_Down_Distractor.gif"",""img/Fire_Down_Distractor.gif"",""img/Fire_Down_Distractor.gif"",""img/Fire_Down_Distractor.gif"",""img/Fire_Down_Distractor.gif"",""img/Fire_Down_Distractor.gif""]","6","targetUp_distractorsDown"
"","","","","","html-keyboard-response","208","245591","0.0-14.0-0.0-0.97","5ec37264194de71cb7b82637","619531dcf66c91622fa1b861","6195955fbf4fafe98e790751","null","","null","","","","","main_T1_ITI","","","","",""
"","","","","","visual-search-circle","209","247588","0.0-14.0-0.0-1.97","5ec37264194de71cb7b82637","619531dcf66c91622fa1b861","6195955fbf4fafe98e790751","985.5999999940395","","d","true","[[377,589],[589,377],[512,87],[222,10],[10,222],[87,512]]","true","6","main_T2_Trial","d","img/Fire_Up_Target.gif","[""img/Fire_Down_Distractor.gif"",""img/Fire_Down_Distractor.gif"",""img/Fire_Down_Distractor.gif"",""img/Fire_Down_Distractor.gif"",""img/Fire_Down_Distractor.gif"",""img/Fire_Down_Distractor.gif"",""img/Fire_Down_Distractor.gif"",""img/Fire_Down_Distractor.gif"",""img/Fire_Down_Distractor.gif"",""img/Fire_Down_Distractor.gif"",""img/Fire_Down_Distractor.gif"",""img/Fire_Down_Distractor.gif""]","6","targetUp_distractorsDown"
"","","","","","html-keyboard-response","210","247589","0.0-14.0-0.0-0.98","5ec37264194de71cb7b82637","619531dcf66c91622fa1b861","6195955fbf4fafe98e790751","null","","null","","","","","main_T1_ITI","","","","",""
"","","","","","visual-search-circle","211","249493","0.0-14.0-0.0-1.98","5ec37264194de71cb7b82637","619531dcf66c91622fa1b861","6195955fbf4fafe98e790751","898.8000000119209","","d","true","[[187,21],[21,412],[412,578],[578,187]]","true","4","main_T2_Trial","d","img/Fire_Down_Target.gif","[""img/Fire_Up_Distractor.gif"",""img/Fire_Up_Distractor.gif"",""img/Fire_Up_Distractor.gif"",""img/Fire_Up_Distractor.gif"",""img/Fire_Up_Distractor.gif"",""img/Fire_Up_Distractor.gif"",""img/Fire_Up_Distractor.gif"",""img/Fire_Up_Distractor.gif"",""img/Fire_Up_Distractor.gif"",""img/Fire_Up_Distractor.gif"",""img/Fire_Up_Distractor.gif"",""img/Fire_Up_Distractor.gif""]","4","targetDown_distractorsUp"
"","","","","","html-keyboard-response","212","250430","0.0-14.0-0.0-0.99","5ec37264194de71cb7b82637","619531dcf66c91622fa1b861","6195955fbf4fafe98e790751","936.0999999940395","Wow! You've completed 100 out of 160 trials! </p> <p>  </p><p> Take a quick break, then press any key when you're ready to continue.","d","","","","","main_T1_ITI","","","","",""
"","","","","","visual-search-circle","213","252148","0.0-14.0-0.0-1.99","5ec37264194de71cb7b82637","619531dcf66c91622fa1b861","6195955fbf4fafe98e790751","707.3000000119209","","s","true","[[70,492],[307,599],[539,481],[590,225],[423,26],[163,33],[5,240]]","false","7","main_T2_Trial","s","img/Fire_Down_Target.gif","[""img/Fire_Up_Distractor.gif"",""img/Fire_Up_Distractor.gif"",""img/Fire_Up_Distractor.gif"",""img/Fire_Up_Distractor.gif"",""img/Fire_Up_Distractor.gif"",""img/Fire_Up_Distractor.gif"",""img/Fire_Up_Distractor.gif"",""img/Fire_Up_Distractor.gif"",""img/Fire_Up_Distractor.gif"",""img/Fire_Up_Distractor.gif"",""img/Fire_Up_Distractor.gif"",""img/Fire_Up_Distractor.gif""]","7","targetDown_distractorsUp"
"","","","","","html-keyboard-response","214","252150","0.0-14.0-0.0-0.100","5ec37264194de71cb7b82637","619531dcf66c91622fa1b861","6195955fbf4fafe98e790751","null","","null","","","","","main_T1_ITI","","","","",""
"","","","","","visual-search-circle","215","253942","0.0-14.0-0.0-1.100","5ec37264194de71cb7b82637","619531dcf66c91622fa1b861","6195955fbf4fafe98e790751","779.2999999821186","","d","true","[[28,426],[273,598],[545,472],[571,173],[326,1],[54,127]]","true","6","main_T2_Trial","d","img/Fire_Up_Target.gif","[""img/Fire_Down_Distractor.gif"",""img/Fire_Down_Distractor.gif"",""img/Fire_Down_Distractor.gif"",""img/Fire_Down_Distractor.gif"",""img/Fire_Down_Distractor.gif"",""img/Fire_Down_Distractor.gif"",""img/Fire_Down_Distractor.gif"",""img/Fire_Down_Distractor.gif"",""img/Fire_Down_Distractor.gif"",""img/Fire_Down_Distractor.gif"",""img/Fire_Down_Distractor.gif"",""img/Fire_Down_Distractor.gif""]","6","targetUp_distractorsDown"
"","","","","","html-keyboard-response","216","253943","0.0-14.0-0.0-0.101","5ec37264194de71cb7b82637","619531dcf66c91622fa1b861","6195955fbf4fafe98e790751","null","","null","","","","","main_T1_ITI","","","","",""
