"success","timeout","failed_images","failed_audio","failed_video","trial_type","trial_index","time_elapsed","internal_node_id","subject_id","study_id","session_id","rt","stimulus","response","correct","locations","target_present","set_size","task","correct_response","target","foilCM","setSizeCM","searchCondition"
"true","false","[]","[]","[]","preload","0","33912","0.0-0.0","5f0fac152f7b751b09b4c384","619531dcf66c91622fa1b861","619595e6ab4d5bc273fe5330","","","","","","","","","","","","",""
"true","","","","","fullscreen","1","45839","0.0-1.0","5f0fac152f7b751b09b4c384","619531dcf66c91622fa1b861","619595e6ab4d5bc273fe5330","","","","","","","","","","","","",""
"","","","","","html-keyboard-response","2","61648","0.0-2.0","5f0fac152f7b751b09b4c384","619531dcf66c91622fa1b861","619595e6ab4d5bc273fe5330","15808.200000017881","What a beautiful Thursday to do some awesome science! </p> <p>  </p><p> </p>
    By completing this survey or questionnaire, you are consenting to be in this research study. </p>
    Your participation is voluntary and you can stop at any time.
    <p> [Press any key to continue.] </p>
    
    "," ","","","","","","","","","",""
"","","","","","video-keyboard-response","3","105188","0.0-3.0","5f0fac152f7b751b09b4c384","619531dcf66c91622fa1b861","619595e6ab4d5bc273fe5330","43538","[""video/TaskInstructions.mp4""]"," ","","","","","","","","","",""
"","","","","","html-keyboard-response","4","108410","0.0-4.0","5f0fac152f7b751b09b4c384","619531dcf66c91622fa1b861","619595e6ab4d5bc273fe5330","3221.7000000178814","
    <p>First, we're going to do a few practice trials to make sure you understand the task. You will recieve feedback on each trial. </p>
    <p>[Press any key to begin the familiarization phase.]</p>
    "," ","","","","","","","","","",""
"","","","","","visual-search-circle","5","113627","0.0-5.0-0.0","5f0fac152f7b751b09b4c384","619531dcf66c91622fa1b861","619595e6ab4d5bc273fe5330","4153.5999999940395","","d","true","[[397,583],[583,202],[202,16],[16,397]]","true","4","training","d","","","",""
"","","","","","html-keyboard-response","6","114852","0.0-6.0","5f0fac152f7b751b09b4c384","619531dcf66c91622fa1b861","619595e6ab4d5bc273fe5330","1224"," <div style='float: center; '><img src='img/feedbackRight.png'></img> </div> "," ","","","","","","","","","",""
"","","","","","visual-search-circle","7","117950","0.0-7.0-0.0","5f0fac152f7b751b09b4c384","619531dcf66c91622fa1b861","619595e6ab4d5bc273fe5330","2088","","s","true","[[519,504],[504,80],[80,95],[95,519]]","false","4","training","s","","","",""
"","","","","","html-keyboard-response","8","118585","0.0-8.0","5f0fac152f7b751b09b4c384","619531dcf66c91622fa1b861","619595e6ab4d5bc273fe5330","634.1000000238419"," <div style='float: center; '><img src='img/feedbackRight.png'></img> </div> "," ","","","","","","","","","",""
"","","","","","visual-search-circle","9","122114","0.0-9.0-0.0","5f0fac152f7b751b09b4c384","619531dcf66c91622fa1b861","619595e6ab4d5bc273fe5330","2515.5","","s","true","[[192,580],[488,533],[596,253],[407,19],[111,66],[3,346]]","false","6","training","s","","","",""
"","","","","","html-keyboard-response","10","122634","0.0-10.0","5f0fac152f7b751b09b4c384","619531dcf66c91622fa1b861","619595e6ab4d5bc273fe5330","519.4000000059605"," <div style='float: center; '><img src='img/feedbackRight.png'></img> </div> "," ","","","","","","","","","",""
"","","","","","visual-search-circle","11","124919","0.0-11.0-0.0","5f0fac152f7b751b09b4c384","619531dcf66c91622fa1b861","619595e6ab4d5bc273fe5330","1267.699999988079","","d","true","[[341,597],[539,480],[597,258],[480,60],[258,2],[60,119],[2,341],[119,539]]","true","8","training","d","","","",""
"","","","","","html-keyboard-response","12","125339","0.0-12.0","5f0fac152f7b751b09b4c384","619531dcf66c91622fa1b861","619595e6ab4d5bc273fe5330","419.59999999403954"," <div style='float: center; '><img src='img/feedbackRight.png'></img> </div> "," ","","","","","","","","","",""
"","","","","","video-keyboard-response","13","131319","0.0-13.0","5f0fac152f7b751b09b4c384","619531dcf66c91622fa1b861","619595e6ab4d5bc273fe5330","5978.9000000059605","[""video/endTraining.mp4""]"," ","","","","","","","","","",""
"","","","","","html-keyboard-response","14","131321","0.0-14.0-0.0-0.0","5f0fac152f7b751b09b4c384","619531dcf66c91622fa1b861","619595e6ab4d5bc273fe5330","null","","null","","","","","main_T1_ITI","","","","",""
"","","","","","visual-search-circle","15","133607","0.0-14.0-0.0-1.0","5f0fac152f7b751b09b4c384","619531dcf66c91622fa1b861","619595e6ab4d5bc273fe5330","1272.9000000059605","","d","false","[[2,263],[85,510],[330,598],[552,462],[584,203],[401,17],[142,44]]","false","7","main_T2_Trial","s","img/Fire_Down_Target.gif","[""img/Fire_Up_Distractor.gif"",""img/Fire_Up_Distractor.gif"",""img/Fire_Up_Distractor.gif"",""img/Fire_Up_Distractor.gif"",""img/Fire_Up_Distractor.gif"",""img/Fire_Up_Distractor.gif"",""img/Fire_Up_Distractor.gif"",""img/Fire_Up_Distractor.gif"",""img/Fire_Up_Distractor.gif"",""img/Fire_Up_Distractor.gif"",""img/Fire_Up_Distractor.gif"",""img/Fire_Up_Distractor.gif""]","7","targetDown_distractorsUp"
"","","","","","html-keyboard-response","16","133613","0.0-14.0-0.0-0.1","5f0fac152f7b751b09b4c384","619531dcf66c91622fa1b861","619595e6ab4d5bc273fe5330","null","","null","","","","","main_T1_ITI","","","","",""
"","","","","","visual-search-circle","17","136914","0.0-14.0-0.0-1.1","5f0fac152f7b751b09b4c384","619531dcf66c91622fa1b861","619595e6ab4d5bc273fe5330","2297.5","","s","true","[[397,583],[582,400],[554,141],[335,2],[88,86],[1,332],[139,553]]","false","7","main_T2_Trial","s","img/Fire_Up_Target.gif","[""img/Fire_Down_Distractor.gif"",""img/Fire_Down_Distractor.gif"",""img/Fire_Down_Distractor.gif"",""img/Fire_Down_Distractor.gif"",""img/Fire_Down_Distractor.gif"",""img/Fire_Down_Distractor.gif"",""img/Fire_Down_Distractor.gif"",""img/Fire_Down_Distractor.gif"",""img/Fire_Down_Distractor.gif"",""img/Fire_Down_Distractor.gif"",""img/Fire_Down_Distractor.gif"",""img/Fire_Down_Distractor.gif""]","7","targetUp_distractorsDown"
"","","","","","html-keyboard-response","18","136920","0.0-14.0-0.0-0.2","5f0fac152f7b751b09b4c384","619531dcf66c91622fa1b861","619595e6ab4d5bc273fe5330","null","","null","","","","","main_T1_ITI","","","","",""
"","","","","","visual-search-circle","19","140187","0.0-14.0-0.0-1.2","5f0fac152f7b751b09b4c384","619531dcf66c91622fa1b861","619595e6ab4d5bc273fe5330","2263.9000000059605","","s","true","[[500,522],[599,282],[472,54],[215,12],[22,186],[37,446],[250,595]]","false","7","main_T2_Trial","s","img/Fire_Down_Target.gif","[""img/Fire_Up_Distractor.gif"",""img/Fire_Up_Distractor.gif"",""img/Fire_Up_Distractor.gif"",""img/Fire_Up_Distractor.gif"",""img/Fire_Up_Distractor.gif"",""img/Fire_Up_Distractor.gif"",""img/Fire_Up_Distractor.gif"",""img/Fire_Up_Distractor.gif"",""img/Fire_Up_Distractor.gif"",""img/Fire_Up_Distractor.gif"",""img/Fire_Up_Distractor.gif"",""img/Fire_Up_Distractor.gif""]","7","targetDown_distractorsUp"
"","","","","","html-keyboard-response","20","140189","0.0-14.0-0.0-0.3","5f0fac152f7b751b09b4c384","619531dcf66c91622fa1b861","619595e6ab4d5bc273fe5330","null","","null","","","","","main_T1_ITI","","","","",""
"","","","","","visual-search-circle","21","144765","0.0-14.0-0.0-1.3","5f0fac152f7b751b09b4c384","619531dcf66c91622fa1b861","619595e6ab4d5bc273fe5330","3573.199999988079","","s","true","[[232,592],[557,454],[526,103],[182,23],[1,326]]","false","5","main_T2_Trial","s","img/Fire_Up_Target.gif","[""img/Fire_Down_Distractor.gif"",""img/Fire_Down_Distractor.gif"",""img/Fire_Down_Distractor.gif"",""img/Fire_Down_Distractor.gif"",""img/Fire_Down_Distractor.gif"",""img/Fire_Down_Distractor.gif"",""img/Fire_Down_Distractor.gif"",""img/Fire_Down_Distractor.gif"",""img/Fire_Down_Distractor.gif"",""img/Fire_Down_Distractor.gif"",""img/Fire_Down_Distractor.gif"",""img/Fire_Down_Distractor.gif""]","5","targetUp_distractorsDown"
"","","","","","html-keyboard-response","22","144766","0.0-14.0-0.0-0.4","5f0fac152f7b751b09b4c384","619531dcf66c91622fa1b861","619595e6ab4d5bc273fe5330","null","","null","","","","","main_T1_ITI","","","","",""
"","","","","","visual-search-circle","23","149328","0.0-14.0-0.0-1.4","5f0fac152f7b751b09b4c384","619531dcf66c91622fa1b861","619595e6ab4d5bc273fe5330","3552.5999999940395","","s","true","[[232,7],[7,367],[367,592],[592,232]]","false","4","main_T2_Trial","s","img/Fire_Down_Target.gif","[""img/Fire_Up_Distractor.gif"",""img/Fire_Up_Distractor.gif"",""img/Fire_Up_Distractor.gif"",""img/Fire_Up_Distractor.gif"",""img/Fire_Up_Distractor.gif"",""img/Fire_Up_Distractor.gif"",""img/Fire_Up_Distractor.gif"",""img/Fire_Up_Distractor.gif"",""img/Fire_Up_Distractor.gif"",""img/Fire_Up_Distractor.gif"",""img/Fire_Up_Distractor.gif"",""img/Fire_Up_Distractor.gif""]","4","targetDown_distractorsUp"
"","","","","","html-keyboard-response","24","149330","0.0-14.0-0.0-0.5","5f0fac152f7b751b09b4c384","619531dcf66c91622fa1b861","619595e6ab4d5bc273fe5330","null","","null","","","","","main_T1_ITI","","","","",""
"","","","","","visual-search-circle","25","154814","0.0-14.0-0.0-1.5","5f0fac152f7b751b09b4c384","619531dcf66c91622fa1b861","619595e6ab4d5bc273fe5330","4473.5999999940395","","s","true","[[63,484],[484,536],[536,115],[115,63]]","false","4","main_T2_Trial","s","img/Fire_Down_Target.gif","[""img/Fire_Up_Distractor.gif"",""img/Fire_Up_Distractor.gif"",""img/Fire_Up_Distractor.gif"",""img/Fire_Up_Distractor.gif"",""img/Fire_Up_Distractor.gif"",""img/Fire_Up_Distractor.gif"",""img/Fire_Up_Distractor.gif"",""img/Fire_Up_Distractor.gif"",""img/Fire_Up_Distractor.gif"",""img/Fire_Up_Distractor.gif"",""img/Fire_Up_Distractor.gif"",""img/Fire_Up_Distractor.gif""]","4","targetDown_distractorsUp"
"","","","","","html-keyboard-response","26","154816","0.0-14.0-0.0-0.6","5f0fac152f7b751b09b4c384","619531dcf66c91622fa1b861","619595e6ab4d5bc273fe5330","null","","null","","","","","main_T1_ITI","","","","",""
"","","","","","visual-search-circle","27","156985","0.0-14.0-0.0-1.6","5f0fac152f7b751b09b4c384","619531dcf66c91622fa1b861","619595e6ab4d5bc273fe5330","1165.0999999940395","","d","true","[[467,51],[242,5],[51,132],[5,357],[132,548],[357,594],[548,467],[594,242]]","true","8","main_T2_Trial","d","img/Fire_Up_Target.gif","[""img/Fire_Down_Distractor.gif"",""img/Fire_Down_Distractor.gif"",""img/Fire_Down_Distractor.gif"",""img/Fire_Down_Distractor.gif"",""img/Fire_Down_Distractor.gif"",""img/Fire_Down_Distractor.gif"",""img/Fire_Down_Distractor.gif"",""img/Fire_Down_Distractor.gif"",""img/Fire_Down_Distractor.gif"",""img/Fire_Down_Distractor.gif"",""img/Fire_Down_Distractor.gif"",""img/Fire_Down_Distractor.gif""]","8","targetUp_distractorsDown"
"","","","","","html-keyboard-response","28","156987","0.0-14.0-0.0-0.7","5f0fac152f7b751b09b4c384","619531dcf66c91622fa1b861","619595e6ab4d5bc273fe5330","null","","null","","","","","main_T1_ITI","","","","",""
"","","","","","visual-search-circle","29","160925","0.0-14.0-0.0-1.7","5f0fac152f7b751b09b4c384","619531dcf66c91622fa1b861","619595e6ab4d5bc273fe5330","2925.5","","s","true","[[422,574],[574,177],[177,25],[25,422]]","false","4","main_T2_Trial","s","img/Fire_Up_Target.gif","[""img/Fire_Down_Distractor.gif"",""img/Fire_Down_Distractor.gif"",""img/Fire_Down_Distractor.gif"",""img/Fire_Down_Distractor.gif"",""img/Fire_Down_Distractor.gif"",""img/Fire_Down_Distractor.gif"",""img/Fire_Down_Distractor.gif"",""img/Fire_Down_Distractor.gif"",""img/Fire_Down_Distractor.gif"",""img/Fire_Down_Distractor.gif"",""img/Fire_Down_Distractor.gif"",""img/Fire_Down_Distractor.gif""]","4","targetUp_distractorsDown"
"","","","","","html-keyboard-response","30","160929","0.0-14.0-0.0-0.8","5f0fac152f7b751b09b4c384","619531dcf66c91622fa1b861","619595e6ab4d5bc273fe5330","null","","null","","","","","main_T1_ITI","","","","",""
"","","","","","visual-search-circle","31","163121","0.0-14.0-0.0-1.8","5f0fac152f7b751b09b4c384","619531dcf66c91622fa1b861","619595e6ab4d5bc273fe5330","1174.9000000059605","","d","true","[[519,504],[586,212],[367,7],[80,95],[13,387],[232,592]]","true","6","main_T2_Trial","d","img/Fire_Down_Target.gif","[""img/Fire_Up_Distractor.gif"",""img/Fire_Up_Distractor.gif"",""img/Fire_Up_Distractor.gif"",""img/Fire_Up_Distractor.gif"",""img/Fire_Up_Distractor.gif"",""img/Fire_Up_Distractor.gif"",""img/Fire_Up_Distractor.gif"",""img/Fire_Up_Distractor.gif"",""img/Fire_Up_Distractor.gif"",""img/Fire_Up_Distractor.gif"",""img/Fire_Up_Distractor.gif"",""img/Fire_Up_Distractor.gif""]","6","targetDown_distractorsUp"
"","","","","","html-keyboard-response","32","163122","0.0-14.0-0.0-0.9","5f0fac152f7b751b09b4c384","619531dcf66c91622fa1b861","619595e6ab4d5bc273fe5330","null","","null","","","","","main_T1_ITI","","","","",""
"","","","","","visual-search-circle","33","166356","0.0-14.0-0.0-1.9","5f0fac152f7b751b09b4c384","619531dcf66c91622fa1b861","619595e6ab4d5bc273fe5330","2223.0999999940395","","s","true","[[480,539],[597,341],[539,119],[341,2],[119,60],[2,258],[60,480],[258,597]]","false","8","main_T2_Trial","s","img/Fire_Down_Target.gif","[""img/Fire_Up_Distractor.gif"",""img/Fire_Up_Distractor.gif"",""img/Fire_Up_Distractor.gif"",""img/Fire_Up_Distractor.gif"",""img/Fire_Up_Distractor.gif"",""img/Fire_Up_Distractor.gif"",""img/Fire_Up_Distractor.gif"",""img/Fire_Up_Distractor.gif"",""img/Fire_Up_Distractor.gif"",""img/Fire_Up_Distractor.gif"",""img/Fire_Up_Distractor.gif"",""img/Fire_Up_Distractor.gif""]","8","targetDown_distractorsUp"
"","","","","","html-keyboard-response","34","166359","0.0-14.0-0.0-0.10","5f0fac152f7b751b09b4c384","619531dcf66c91622fa1b861","619595e6ab4d5bc273fe5330","null","","null","","","","","main_T1_ITI","","","","",""
"","","","","","visual-search-circle","35","169578","0.0-14.0-0.0-1.10","5f0fac152f7b751b09b4c384","619531dcf66c91622fa1b861","619595e6ab4d5bc273fe5330","2210.9000000059605","","s","true","[[592,367],[554,141],[367,7],[141,45],[7,232],[45,458],[232,592],[458,554]]","false","8","main_T2_Trial","s","img/Fire_Up_Target.gif","[""img/Fire_Down_Distractor.gif"",""img/Fire_Down_Distractor.gif"",""img/Fire_Down_Distractor.gif"",""img/Fire_Down_Distractor.gif"",""img/Fire_Down_Distractor.gif"",""img/Fire_Down_Distractor.gif"",""img/Fire_Down_Distractor.gif"",""img/Fire_Down_Distractor.gif"",""img/Fire_Down_Distractor.gif"",""img/Fire_Down_Distractor.gif"",""img/Fire_Down_Distractor.gif"",""img/Fire_Down_Distractor.gif""]","8","targetUp_distractorsDown"
"","","","","","html-keyboard-response","36","169580","0.0-14.0-0.0-0.11","5f0fac152f7b751b09b4c384","619531dcf66c91622fa1b861","619595e6ab4d5bc273fe5330","null","","null","","","","","main_T1_ITI","","","","",""
"","","","","","visual-search-circle","37","172936","0.0-14.0-0.0-1.11","5f0fac152f7b751b09b4c384","619531dcf66c91622fa1b861","619595e6ab4d5bc273fe5330","2348.300000011921","","d","true","[[159,564],[564,440],[440,35],[35,159]]","true","4","main_T2_Trial","d","img/Fire_Down_Target.gif","[""img/Fire_Up_Distractor.gif"",""img/Fire_Up_Distractor.gif"",""img/Fire_Up_Distractor.gif"",""img/Fire_Up_Distractor.gif"",""img/Fire_Up_Distractor.gif"",""img/Fire_Up_Distractor.gif"",""img/Fire_Up_Distractor.gif"",""img/Fire_Up_Distractor.gif"",""img/Fire_Up_Distractor.gif"",""img/Fire_Up_Distractor.gif"",""img/Fire_Up_Distractor.gif"",""img/Fire_Up_Distractor.gif""]","4","targetDown_distractorsUp"
"","","","","","html-keyboard-response","38","172938","0.0-14.0-0.0-0.12","5f0fac152f7b751b09b4c384","619531dcf66c91622fa1b861","619595e6ab4d5bc273fe5330","null","","null","","","","","main_T1_ITI","","","","",""
"","","","","","visual-search-circle","39","176257","0.0-14.0-0.0-1.12","5f0fac152f7b751b09b4c384","619531dcf66c91622fa1b861","619595e6ab4d5bc273fe5330","2307.4000000059605","","d","true","[[84,508],[328,598],[551,464],[584,205],[404,18],[144,43],[2,261]]","true","7","main_T2_Trial","d","img/Fire_Down_Target.gif","[""img/Fire_Up_Distractor.gif"",""img/Fire_Up_Distractor.gif"",""img/Fire_Up_Distractor.gif"",""img/Fire_Up_Distractor.gif"",""img/Fire_Up_Distractor.gif"",""img/Fire_Up_Distractor.gif"",""img/Fire_Up_Distractor.gif"",""img/Fire_Up_Distractor.gif"",""img/Fire_Up_Distractor.gif"",""img/Fire_Up_Distractor.gif"",""img/Fire_Up_Distractor.gif"",""img/Fire_Up_Distractor.gif""]","7","targetDown_distractorsUp"
"","","","","","html-keyboard-response","40","176263","0.0-14.0-0.0-0.13","5f0fac152f7b751b09b4c384","619531dcf66c91622fa1b861","619595e6ab4d5bc273fe5330","null","","null","","","","","main_T1_ITI","","","","",""
"","","","","","visual-search-circle","41","183019","0.0-14.0-0.0-1.13","5f0fac152f7b751b09b4c384","619531dcf66c91622fa1b861","619595e6ab4d5bc273fe5330","5741.5999999940395","","s","false","[[352,4],[127,54],[4,247],[54,472],[247,595],[472,545],[595,352],[545,127]]","true","8","main_T2_Trial","d","img/Fire_Up_Target.gif","[""img/Fire_Down_Distractor.gif"",""img/Fire_Down_Distractor.gif"",""img/Fire_Down_Distractor.gif"",""img/Fire_Down_Distractor.gif"",""img/Fire_Down_Distractor.gif"",""img/Fire_Down_Distractor.gif"",""img/Fire_Down_Distractor.gif"",""img/Fire_Down_Distractor.gif"",""img/Fire_Down_Distractor.gif"",""img/Fire_Down_Distractor.gif"",""img/Fire_Down_Distractor.gif"",""img/Fire_Down_Distractor.gif""]","8","targetUp_distractorsDown"
"","","","","","html-keyboard-response","42","183021","0.0-14.0-0.0-0.14","5f0fac152f7b751b09b4c384","619531dcf66c91622fa1b861","619595e6ab4d5bc273fe5330","null","","null","","","","","main_T1_ITI","","","","",""
"","","","","","visual-search-circle","43","185685","0.0-14.0-0.0-1.14","5f0fac152f7b751b09b4c384","619531dcf66c91622fa1b861","619595e6ab4d5bc273fe5330","1645.9000000059605","","d","true","[[222,10],[0,284],[192,580],[533,488],[551,136]]","true","5","main_T2_Trial","d","img/Fire_Up_Target.gif","[""img/Fire_Down_Distractor.gif"",""img/Fire_Down_Distractor.gif"",""img/Fire_Down_Distractor.gif"",""img/Fire_Down_Distractor.gif"",""img/Fire_Down_Distractor.gif"",""img/Fire_Down_Distractor.gif"",""img/Fire_Down_Distractor.gif"",""img/Fire_Down_Distractor.gif"",""img/Fire_Down_Distractor.gif"",""img/Fire_Down_Distractor.gif"",""img/Fire_Down_Distractor.gif"",""img/Fire_Down_Distractor.gif""]","5","targetUp_distractorsDown"
"","","","","","html-keyboard-response","44","185688","0.0-14.0-0.0-0.15","5f0fac152f7b751b09b4c384","619531dcf66c91622fa1b861","619595e6ab4d5bc273fe5330","null","","null","","","","","main_T1_ITI","","","","",""
"","","","","","visual-search-circle","45","189552","0.0-14.0-0.0-1.15","5f0fac152f7b751b09b4c384","619531dcf66c91622fa1b861","619595e6ab4d5bc273fe5330","2849.9000000059605","","s","true","[[103,73],[23,417],[326,598],[592,367],[454,42]]","false","5","main_T2_Trial","s","img/Fire_Up_Target.gif","[""img/Fire_Down_Distractor.gif"",""img/Fire_Down_Distractor.gif"",""img/Fire_Down_Distractor.gif"",""img/Fire_Down_Distractor.gif"",""img/Fire_Down_Distractor.gif"",""img/Fire_Down_Distractor.gif"",""img/Fire_Down_Distractor.gif"",""img/Fire_Down_Distractor.gif"",""img/Fire_Down_Distractor.gif"",""img/Fire_Down_Distractor.gif"",""img/Fire_Down_Distractor.gif"",""img/Fire_Down_Distractor.gif""]","5","targetUp_distractorsDown"
"","","","","","html-keyboard-response","46","189554","0.0-14.0-0.0-0.16","5f0fac152f7b751b09b4c384","619531dcf66c91622fa1b861","619595e6ab4d5bc273fe5330","null","","null","","","","","main_T1_ITI","","","","",""
"","","","","","visual-search-circle","47","193352","0.0-14.0-0.0-1.16","5f0fac152f7b751b09b4c384","619531dcf66c91622fa1b861","619595e6ab4d5bc273fe5330","2791.5","","s","true","[[600,300],[487,65],[233,7],[29,169],[29,430],[233,592],[487,534]]","false","7","main_T2_Trial","s","img/Fire_Down_Target.gif","[""img/Fire_Up_Distractor.gif"",""img/Fire_Up_Distractor.gif"",""img/Fire_Up_Distractor.gif"",""img/Fire_Up_Distractor.gif"",""img/Fire_Up_Distractor.gif"",""img/Fire_Up_Distractor.gif"",""img/Fire_Up_Distractor.gif"",""img/Fire_Up_Distractor.gif"",""img/Fire_Up_Distractor.gif"",""img/Fire_Up_Distractor.gif"",""img/Fire_Up_Distractor.gif"",""img/Fire_Up_Distractor.gif""]","7","targetDown_distractorsUp"
"","","","","","html-keyboard-response","48","193354","0.0-14.0-0.0-0.17","5f0fac152f7b751b09b4c384","619531dcf66c91622fa1b861","619595e6ab4d5bc273fe5330","null","","null","","","","","main_T1_ITI","","","","",""
"","","","","","visual-search-circle","49","196972","0.0-14.0-0.0-1.17","5f0fac152f7b751b09b4c384","619531dcf66c91622fa1b861","619595e6ab4d5bc273fe5330","2607.800000011921","","s","true","[[45,141],[35,440],[289,599],[554,458],[564,159],[310,0]]","false","6","main_T2_Trial","s","img/Fire_Up_Target.gif","[""img/Fire_Down_Distractor.gif"",""img/Fire_Down_Distractor.gif"",""img/Fire_Down_Distractor.gif"",""img/Fire_Down_Distractor.gif"",""img/Fire_Down_Distractor.gif"",""img/Fire_Down_Distractor.gif"",""img/Fire_Down_Distractor.gif"",""img/Fire_Down_Distractor.gif"",""img/Fire_Down_Distractor.gif"",""img/Fire_Down_Distractor.gif"",""img/Fire_Down_Distractor.gif"",""img/Fire_Down_Distractor.gif""]","6","targetUp_distractorsDown"
"","","","","","html-keyboard-response","50","196974","0.0-14.0-0.0-0.18","5f0fac152f7b751b09b4c384","619531dcf66c91622fa1b861","619595e6ab4d5bc273fe5330","null","","null","","","","","main_T1_ITI","","","","",""
"","","","","","visual-search-circle","51","199373","0.0-14.0-0.0-1.18","5f0fac152f7b751b09b4c384","619531dcf66c91622fa1b861","619595e6ab4d5bc273fe5330","1393.0999999940395","","d","true","[[123,57],[57,476],[476,542],[542,123]]","true","4","main_T2_Trial","d","img/Fire_Down_Target.gif","[""img/Fire_Up_Distractor.gif"",""img/Fire_Up_Distractor.gif"",""img/Fire_Up_Distractor.gif"",""img/Fire_Up_Distractor.gif"",""img/Fire_Up_Distractor.gif"",""img/Fire_Up_Distractor.gif"",""img/Fire_Up_Distractor.gif"",""img/Fire_Up_Distractor.gif"",""img/Fire_Up_Distractor.gif"",""img/Fire_Up_Distractor.gif"",""img/Fire_Up_Distractor.gif"",""img/Fire_Up_Distractor.gif""]","4","targetDown_distractorsUp"
"","","","","","html-keyboard-response","52","216516","0.0-14.0-0.0-0.19","5f0fac152f7b751b09b4c384","619531dcf66c91622fa1b861","619595e6ab4d5bc273fe5330","17142.899999976158","Wow! You've completed 20 out of 160 trials! </p> <p>  </p><p> Take a quick break, then press any key when you're ready to continue."," ","","","","","main_T1_ITI","","","","",""
"","","","","","visual-search-circle","53","220374","0.0-14.0-0.0-1.19","5f0fac152f7b751b09b4c384","619531dcf66c91622fa1b861","619595e6ab4d5bc273fe5330","2844.5999999940395","","s","true","[[91,515],[515,508],[508,84],[84,91]]","false","4","main_T2_Trial","s","img/Fire_Up_Target.gif","[""img/Fire_Down_Distractor.gif"",""img/Fire_Down_Distractor.gif"",""img/Fire_Down_Distractor.gif"",""img/Fire_Down_Distractor.gif"",""img/Fire_Down_Distractor.gif"",""img/Fire_Down_Distractor.gif"",""img/Fire_Down_Distractor.gif"",""img/Fire_Down_Distractor.gif"",""img/Fire_Down_Distractor.gif"",""img/Fire_Down_Distractor.gif"",""img/Fire_Down_Distractor.gif"",""img/Fire_Down_Distractor.gif""]","4","targetUp_distractorsDown"
"","","","","","html-keyboard-response","54","220376","0.0-14.0-0.0-0.20","5f0fac152f7b751b09b4c384","619531dcf66c91622fa1b861","619595e6ab4d5bc273fe5330","null","","null","","","","","main_T1_ITI","","","","",""
"","","","","","visual-search-circle","55","222242","0.0-14.0-0.0-1.20","5f0fac152f7b751b09b4c384","619531dcf66c91622fa1b861","619595e6ab4d5bc273fe5330","850.0999999940395","","d","true","[[37,445],[217,588],[445,562],[588,382],[562,154],[382,11],[154,37],[11,217]]","true","8","main_T2_Trial","d","img/Fire_Down_Target.gif","[""img/Fire_Up_Distractor.gif"",""img/Fire_Up_Distractor.gif"",""img/Fire_Up_Distractor.gif"",""img/Fire_Up_Distractor.gif"",""img/Fire_Up_Distractor.gif"",""img/Fire_Up_Distractor.gif"",""img/Fire_Up_Distractor.gif"",""img/Fire_Up_Distractor.gif"",""img/Fire_Up_Distractor.gif"",""img/Fire_Up_Distractor.gif"",""img/Fire_Up_Distractor.gif"",""img/Fire_Up_Distractor.gif""]","8","targetDown_distractorsUp"
"","","","","","html-keyboard-response","56","222244","0.0-14.0-0.0-0.21","5f0fac152f7b751b09b4c384","619531dcf66c91622fa1b861","619595e6ab4d5bc273fe5330","null","","null","","","","","main_T1_ITI","","","","",""
"","","","","","visual-search-circle","57","224492","0.0-14.0-0.0-1.21","5f0fac152f7b751b09b4c384","619531dcf66c91622fa1b861","619595e6ab4d5bc273fe5330","1234.4000000059605","","d","false","[[32,436],[346,596],[596,346],[436,32],[87,87]]","false","5","main_T2_Trial","s","img/Fire_Down_Target.gif","[""img/Fire_Up_Distractor.gif"",""img/Fire_Up_Distractor.gif"",""img/Fire_Up_Distractor.gif"",""img/Fire_Up_Distractor.gif"",""img/Fire_Up_Distractor.gif"",""img/Fire_Up_Distractor.gif"",""img/Fire_Up_Distractor.gif"",""img/Fire_Up_Distractor.gif"",""img/Fire_Up_Distractor.gif"",""img/Fire_Up_Distractor.gif"",""img/Fire_Up_Distractor.gif"",""img/Fire_Up_Distractor.gif""]","5","targetDown_distractorsUp"
"","","","","","html-keyboard-response","58","224493","0.0-14.0-0.0-0.22","5f0fac152f7b751b09b4c384","619531dcf66c91622fa1b861","619595e6ab4d5bc273fe5330","null","","null","","","","","main_T1_ITI","","","","",""
"","","","","","visual-search-circle","59","228055","0.0-14.0-0.0-1.22","5f0fac152f7b751b09b4c384","619531dcf66c91622fa1b861","619595e6ab4d5bc273fe5330","2558","","d","true","[[594,242],[438,34],[178,25],[9,223],[59,479],[290,599],[528,494]]","true","7","main_T2_Trial","d","img/Fire_Up_Target.gif","[""img/Fire_Down_Distractor.gif"",""img/Fire_Down_Distractor.gif"",""img/Fire_Down_Distractor.gif"",""img/Fire_Down_Distractor.gif"",""img/Fire_Down_Distractor.gif"",""img/Fire_Down_Distractor.gif"",""img/Fire_Down_Distractor.gif"",""img/Fire_Down_Distractor.gif"",""img/Fire_Down_Distractor.gif"",""img/Fire_Down_Distractor.gif"",""img/Fire_Down_Distractor.gif"",""img/Fire_Down_Distractor.gif""]","7","targetUp_distractorsDown"
"","","","","","html-keyboard-response","60","228057","0.0-14.0-0.0-0.23","5f0fac152f7b751b09b4c384","619531dcf66c91622fa1b861","619595e6ab4d5bc273fe5330","null","","null","","","","","main_T1_ITI","","","","",""
"","","","","","visual-search-circle","61","230740","0.0-14.0-0.0-1.23","5f0fac152f7b751b09b4c384","619531dcf66c91622fa1b861","619595e6ab4d5bc273fe5330","1671.5999999940395","","s","true","[[1,273],[70,492],[273,598],[492,529],[598,326],[529,107],[326,1],[107,70]]","false","8","main_T2_Trial","s","img/Fire_Up_Target.gif","[""img/Fire_Down_Distractor.gif"",""img/Fire_Down_Distractor.gif"",""img/Fire_Down_Distractor.gif"",""img/Fire_Down_Distractor.gif"",""img/Fire_Down_Distractor.gif"",""img/Fire_Down_Distractor.gif"",""img/Fire_Down_Distractor.gif"",""img/Fire_Down_Distractor.gif"",""img/Fire_Down_Distractor.gif"",""img/Fire_Down_Distractor.gif"",""img/Fire_Down_Distractor.gif"",""img/Fire_Down_Distractor.gif""]","8","targetUp_distractorsDown"
"","","","","","html-keyboard-response","62","230741","0.0-14.0-0.0-0.24","5f0fac152f7b751b09b4c384","619531dcf66c91622fa1b861","619595e6ab4d5bc273fe5330","null","","null","","","","","main_T1_ITI","","","","",""
"","","","","","visual-search-circle","63","233642","0.0-14.0-0.0-1.24","5f0fac152f7b751b09b4c384","619531dcf66c91622fa1b861","619595e6ab4d5bc273fe5330","1895.7000000178814","","s","true","[[192,19],[25,177],[19,407],[177,574],[407,580],[574,422],[580,192],[422,25]]","false","8","main_T2_Trial","s","img/Fire_Up_Target.gif","[""img/Fire_Down_Distractor.gif"",""img/Fire_Down_Distractor.gif"",""img/Fire_Down_Distractor.gif"",""img/Fire_Down_Distractor.gif"",""img/Fire_Down_Distractor.gif"",""img/Fire_Down_Distractor.gif"",""img/Fire_Down_Distractor.gif"",""img/Fire_Down_Distractor.gif"",""img/Fire_Down_Distractor.gif"",""img/Fire_Down_Distractor.gif"",""img/Fire_Down_Distractor.gif"",""img/Fire_Down_Distractor.gif""]","8","targetUp_distractorsDown"
"","","","","","html-keyboard-response","64","233644","0.0-14.0-0.0-0.25","5f0fac152f7b751b09b4c384","619531dcf66c91622fa1b861","619595e6ab4d5bc273fe5330","null","","null","","","","","main_T1_ITI","","","","",""
"","","","","","visual-search-circle","65","236757","0.0-14.0-0.0-1.25","5f0fac152f7b751b09b4c384","619531dcf66c91622fa1b861","619595e6ab4d5bc273fe5330","2101.699999988079","","s","true","[[310,599],[519,504],[599,289],[504,80],[289,0],[80,95],[0,310],[95,519]]","false","8","main_T2_Trial","s","img/Fire_Up_Target.gif","[""img/Fire_Down_Distractor.gif"",""img/Fire_Down_Distractor.gif"",""img/Fire_Down_Distractor.gif"",""img/Fire_Down_Distractor.gif"",""img/Fire_Down_Distractor.gif"",""img/Fire_Down_Distractor.gif"",""img/Fire_Down_Distractor.gif"",""img/Fire_Down_Distractor.gif"",""img/Fire_Down_Distractor.gif"",""img/Fire_Down_Distractor.gif"",""img/Fire_Down_Distractor.gif"",""img/Fire_Down_Distractor.gif""]","8","targetUp_distractorsDown"
"","","","","","html-keyboard-response","66","236759","0.0-14.0-0.0-0.26","5f0fac152f7b751b09b4c384","619531dcf66c91622fa1b861","619595e6ab4d5bc273fe5330","null","","null","","","","","main_T1_ITI","","","","",""
"","","","","","visual-search-circle","67","238728","0.0-14.0-0.0-1.26","5f0fac152f7b751b09b4c384","619531dcf66c91622fa1b861","619595e6ab4d5bc273fe5330","966.7999999821186","","d","true","[[436,32],[87,87],[32,436],[346,596],[596,346]]","true","5","main_T2_Trial","d","img/Fire_Up_Target.gif","[""img/Fire_Down_Distractor.gif"",""img/Fire_Down_Distractor.gif"",""img/Fire_Down_Distractor.gif"",""img/Fire_Down_Distractor.gif"",""img/Fire_Down_Distractor.gif"",""img/Fire_Down_Distractor.gif"",""img/Fire_Down_Distractor.gif"",""img/Fire_Down_Distractor.gif"",""img/Fire_Down_Distractor.gif"",""img/Fire_Down_Distractor.gif"",""img/Fire_Down_Distractor.gif"",""img/Fire_Down_Distractor.gif""]","5","targetUp_distractorsDown"
"","","","","","html-keyboard-response","68","238730","0.0-14.0-0.0-0.27","5f0fac152f7b751b09b4c384","619531dcf66c91622fa1b861","619595e6ab4d5bc273fe5330","null","","null","","","","","main_T1_ITI","","","","",""
"","","","","","visual-search-circle","69","242578","0.0-14.0-0.0-1.27","5f0fac152f7b751b09b4c384","619531dcf66c91622fa1b861","619595e6ab4d5bc273fe5330","2841","","s","true","[[504,519],[571,173],[263,2],[5,242],[154,562]]","false","5","main_T2_Trial","s","img/Fire_Down_Target.gif","[""img/Fire_Up_Distractor.gif"",""img/Fire_Up_Distractor.gif"",""img/Fire_Up_Distractor.gif"",""img/Fire_Up_Distractor.gif"",""img/Fire_Up_Distractor.gif"",""img/Fire_Up_Distractor.gif"",""img/Fire_Up_Distractor.gif"",""img/Fire_Up_Distractor.gif"",""img/Fire_Up_Distractor.gif"",""img/Fire_Up_Distractor.gif"",""img/Fire_Up_Distractor.gif"",""img/Fire_Up_Distractor.gif""]","5","targetDown_distractorsUp"
"","","","","","html-keyboard-response","70","242581","0.0-14.0-0.0-0.28","5f0fac152f7b751b09b4c384","619531dcf66c91622fa1b861","619595e6ab4d5bc273fe5330","null","","null","","","","","main_T1_ITI","","","","",""
"","","","","","visual-search-circle","71","244634","0.0-14.0-0.0-1.28","5f0fac152f7b751b09b4c384","619531dcf66c91622fa1b861","619595e6ab4d5bc273fe5330","1036.5999999940395","","s","true","[[458,45],[159,35],[0,289],[141,554],[440,564],[599,310]]","false","6","main_T2_Trial","s","img/Fire_Up_Target.gif","[""img/Fire_Down_Distractor.gif"",""img/Fire_Down_Distractor.gif"",""img/Fire_Down_Distractor.gif"",""img/Fire_Down_Distractor.gif"",""img/Fire_Down_Distractor.gif"",""img/Fire_Down_Distractor.gif"",""img/Fire_Down_Distractor.gif"",""img/Fire_Down_Distractor.gif"",""img/Fire_Down_Distractor.gif"",""img/Fire_Down_Distractor.gif"",""img/Fire_Down_Distractor.gif"",""img/Fire_Down_Distractor.gif""]","6","targetUp_distractorsDown"
"","","","","","html-keyboard-response","72","244636","0.0-14.0-0.0-0.29","5f0fac152f7b751b09b4c384","619531dcf66c91622fa1b861","619595e6ab4d5bc273fe5330","null","","null","","","","","main_T1_ITI","","","","",""
"","","","","","visual-search-circle","73","247480","0.0-14.0-0.0-1.29","5f0fac152f7b751b09b4c384","619531dcf66c91622fa1b861","619595e6ab4d5bc273fe5330","1828.5","","s","true","[[168,569],[467,548],[599,279],[431,30],[132,51],[0,320]]","false","6","main_T2_Trial","s","img/Fire_Up_Target.gif","[""img/Fire_Down_Distractor.gif"",""img/Fire_Down_Distractor.gif"",""img/Fire_Down_Distractor.gif"",""img/Fire_Down_Distractor.gif"",""img/Fire_Down_Distractor.gif"",""img/Fire_Down_Distractor.gif"",""img/Fire_Down_Distractor.gif"",""img/Fire_Down_Distractor.gif"",""img/Fire_Down_Distractor.gif"",""img/Fire_Down_Distractor.gif"",""img/Fire_Down_Distractor.gif"",""img/Fire_Down_Distractor.gif""]","6","targetUp_distractorsDown"
"","","","","","html-keyboard-response","74","247482","0.0-14.0-0.0-0.30","5f0fac152f7b751b09b4c384","619531dcf66c91622fa1b861","619595e6ab4d5bc273fe5330","null","","null","","","","","main_T1_ITI","","","","",""
"","","","","","visual-search-circle","75","250327","0.0-14.0-0.0-1.30","5f0fac152f7b751b09b4c384","619531dcf66c91622fa1b861","619595e6ab4d5bc273fe5330","1834.5999999940395","","s","true","[[163,567],[567,436],[436,32],[32,163]]","false","4","main_T2_Trial","s","img/Fire_Up_Target.gif","[""img/Fire_Down_Distractor.gif"",""img/Fire_Down_Distractor.gif"",""img/Fire_Down_Distractor.gif"",""img/Fire_Down_Distractor.gif"",""img/Fire_Down_Distractor.gif"",""img/Fire_Down_Distractor.gif"",""img/Fire_Down_Distractor.gif"",""img/Fire_Down_Distractor.gif"",""img/Fire_Down_Distractor.gif"",""img/Fire_Down_Distractor.gif"",""img/Fire_Down_Distractor.gif"",""img/Fire_Down_Distractor.gif""]","4","targetUp_distractorsDown"
"","","","","","html-keyboard-response","76","250330","0.0-14.0-0.0-0.31","5f0fac152f7b751b09b4c384","619531dcf66c91622fa1b861","619595e6ab4d5bc273fe5330","null","","null","","","","","main_T1_ITI","","","","",""
"","","","","","visual-search-circle","77","252442","0.0-14.0-0.0-1.31","5f0fac152f7b751b09b4c384","619531dcf66c91622fa1b861","619595e6ab4d5bc273fe5330","1096.9000000059605","","d","true","[[279,599],[496,526],[599,320],[526,103],[320,0],[103,73],[0,279],[73,496]]","true","8","main_T2_Trial","d","img/Fire_Down_Target.gif","[""img/Fire_Up_Distractor.gif"",""img/Fire_Up_Distractor.gif"",""img/Fire_Up_Distractor.gif"",""img/Fire_Up_Distractor.gif"",""img/Fire_Up_Distractor.gif"",""img/Fire_Up_Distractor.gif"",""img/Fire_Up_Distractor.gif"",""img/Fire_Up_Distractor.gif"",""img/Fire_Up_Distractor.gif"",""img/Fire_Up_Distractor.gif"",""img/Fire_Up_Distractor.gif"",""img/Fire_Up_Distractor.gif""]","8","targetDown_distractorsUp"
"","","","","","html-keyboard-response","78","252444","0.0-14.0-0.0-0.32","5f0fac152f7b751b09b4c384","619531dcf66c91622fa1b861","619595e6ab4d5bc273fe5330","null","","null","","","","","main_T1_ITI","","","","",""
"","","","","","visual-search-circle","79","257812","0.0-14.0-0.0-1.32","5f0fac152f7b751b09b4c384","619531dcf66c91622fa1b861","619595e6ab4d5bc273fe5330","4363.9000000059605","","s","true","[[551,463],[567,163],[315,0],[48,136],[32,436],[284,599]]","false","6","main_T2_Trial","s","img/Fire_Down_Target.gif","[""img/Fire_Up_Distractor.gif"",""img/Fire_Up_Distractor.gif"",""img/Fire_Up_Distractor.gif"",""img/Fire_Up_Distractor.gif"",""img/Fire_Up_Distractor.gif"",""img/Fire_Up_Distractor.gif"",""img/Fire_Up_Distractor.gif"",""img/Fire_Up_Distractor.gif"",""img/Fire_Up_Distractor.gif"",""img/Fire_Up_Distractor.gif"",""img/Fire_Up_Distractor.gif"",""img/Fire_Up_Distractor.gif""]","6","targetDown_distractorsUp"
"","","","","","html-keyboard-response","80","257814","0.0-14.0-0.0-0.33","5f0fac152f7b751b09b4c384","619531dcf66c91622fa1b861","619595e6ab4d5bc273fe5330","null","","null","","","","","main_T1_ITI","","","","",""
"","","","","","visual-search-circle","81","261455","0.0-14.0-0.0-1.33","5f0fac152f7b751b09b4c384","619531dcf66c91622fa1b861","619595e6ab4d5bc273fe5330","2638.399999976158","","s","true","[[66,488],[488,533],[533,111],[111,66]]","false","4","main_T2_Trial","s","img/Fire_Up_Target.gif","[""img/Fire_Down_Distractor.gif"",""img/Fire_Down_Distractor.gif"",""img/Fire_Down_Distractor.gif"",""img/Fire_Down_Distractor.gif"",""img/Fire_Down_Distractor.gif"",""img/Fire_Down_Distractor.gif"",""img/Fire_Down_Distractor.gif"",""img/Fire_Down_Distractor.gif"",""img/Fire_Down_Distractor.gif"",""img/Fire_Down_Distractor.gif"",""img/Fire_Down_Distractor.gif"",""img/Fire_Down_Distractor.gif""]","4","targetUp_distractorsDown"
"","","","","","html-keyboard-response","82","261457","0.0-14.0-0.0-0.34","5f0fac152f7b751b09b4c384","619531dcf66c91622fa1b861","619595e6ab4d5bc273fe5330","null","","null","","","","","main_T1_ITI","","","","",""
"","","","","","visual-search-circle","83","263488","0.0-14.0-0.0-1.34","5f0fac152f7b751b09b4c384","619531dcf66c91622fa1b861","619595e6ab4d5bc273fe5330","1018.7999999821186","","d","true","[[202,16],[16,397],[397,583],[583,202]]","true","4","main_T2_Trial","d","img/Fire_Down_Target.gif","[""img/Fire_Up_Distractor.gif"",""img/Fire_Up_Distractor.gif"",""img/Fire_Up_Distractor.gif"",""img/Fire_Up_Distractor.gif"",""img/Fire_Up_Distractor.gif"",""img/Fire_Up_Distractor.gif"",""img/Fire_Up_Distractor.gif"",""img/Fire_Up_Distractor.gif"",""img/Fire_Up_Distractor.gif"",""img/Fire_Up_Distractor.gif"",""img/Fire_Up_Distractor.gif"",""img/Fire_Up_Distractor.gif""]","4","targetDown_distractorsUp"
"","","","","","html-keyboard-response","84","263491","0.0-14.0-0.0-0.35","5f0fac152f7b751b09b4c384","619531dcf66c91622fa1b861","619595e6ab4d5bc273fe5330","null","","null","","","","","main_T1_ITI","","","","",""
"","","","","","visual-search-circle","85","265419","0.0-14.0-0.0-1.35","5f0fac152f7b751b09b4c384","619531dcf66c91622fa1b861","619595e6ab4d5bc273fe5330","922.0999999940395","","d","true","[[66,111],[1,331],[111,533],[331,598],[533,488],[598,268],[488,66],[268,1]]","true","8","main_T2_Trial","d","img/Fire_Up_Target.gif","[""img/Fire_Down_Distractor.gif"",""img/Fire_Down_Distractor.gif"",""img/Fire_Down_Distractor.gif"",""img/Fire_Down_Distractor.gif"",""img/Fire_Down_Distractor.gif"",""img/Fire_Down_Distractor.gif"",""img/Fire_Down_Distractor.gif"",""img/Fire_Down_Distractor.gif"",""img/Fire_Down_Distractor.gif"",""img/Fire_Down_Distractor.gif"",""img/Fire_Down_Distractor.gif"",""img/Fire_Down_Distractor.gif""]","8","targetUp_distractorsDown"
"","","","","","html-keyboard-response","86","265422","0.0-14.0-0.0-0.36","5f0fac152f7b751b09b4c384","619531dcf66c91622fa1b861","619595e6ab4d5bc273fe5330","null","","null","","","","","main_T1_ITI","","","","",""
"","","","","","visual-search-circle","87","268819","0.0-14.0-0.0-1.36","5f0fac152f7b751b09b4c384","619531dcf66c91622fa1b861","619595e6ab4d5bc273fe5330","2388.199999988079","","s","true","[[37,154],[154,562],[562,445],[445,37]]","false","4","main_T2_Trial","s","img/Fire_Down_Target.gif","[""img/Fire_Up_Distractor.gif"",""img/Fire_Up_Distractor.gif"",""img/Fire_Up_Distractor.gif"",""img/Fire_Up_Distractor.gif"",""img/Fire_Up_Distractor.gif"",""img/Fire_Up_Distractor.gif"",""img/Fire_Up_Distractor.gif"",""img/Fire_Up_Distractor.gif"",""img/Fire_Up_Distractor.gif"",""img/Fire_Up_Distractor.gif"",""img/Fire_Up_Distractor.gif"",""img/Fire_Up_Distractor.gif""]","4","targetDown_distractorsUp"
"","","","","","html-keyboard-response","88","268821","0.0-14.0-0.0-0.37","5f0fac152f7b751b09b4c384","619531dcf66c91622fa1b861","619595e6ab4d5bc273fe5330","null","","null","","","","","main_T1_ITI","","","","",""
"","","","","","visual-search-circle","89","270959","0.0-14.0-0.0-1.37","5f0fac152f7b751b09b4c384","619531dcf66c91622fa1b861","619595e6ab4d5bc273fe5330","1123.5","","d","true","[[554,458],[458,45],[45,141],[141,554]]","true","4","main_T2_Trial","d","img/Fire_Down_Target.gif","[""img/Fire_Up_Distractor.gif"",""img/Fire_Up_Distractor.gif"",""img/Fire_Up_Distractor.gif"",""img/Fire_Up_Distractor.gif"",""img/Fire_Up_Distractor.gif"",""img/Fire_Up_Distractor.gif"",""img/Fire_Up_Distractor.gif"",""img/Fire_Up_Distractor.gif"",""img/Fire_Up_Distractor.gif"",""img/Fire_Up_Distractor.gif"",""img/Fire_Up_Distractor.gif"",""img/Fire_Up_Distractor.gif""]","4","targetDown_distractorsUp"
"","","","","","html-keyboard-response","90","270961","0.0-14.0-0.0-0.38","5f0fac152f7b751b09b4c384","619531dcf66c91622fa1b861","619595e6ab4d5bc273fe5330","null","","null","","","","","main_T1_ITI","","","","",""
"","","","","","visual-search-circle","91","276601","0.0-14.0-0.0-1.38","5f0fac152f7b751b09b4c384","619531dcf66c91622fa1b861","619595e6ab4d5bc273fe5330","4625.199999988079","","s","true","[[412,21],[182,23],[21,187],[23,417],[187,578],[417,576],[578,412],[576,182]]","false","8","main_T2_Trial","s","img/Fire_Down_Target.gif","[""img/Fire_Up_Distractor.gif"",""img/Fire_Up_Distractor.gif"",""img/Fire_Up_Distractor.gif"",""img/Fire_Up_Distractor.gif"",""img/Fire_Up_Distractor.gif"",""img/Fire_Up_Distractor.gif"",""img/Fire_Up_Distractor.gif"",""img/Fire_Up_Distractor.gif"",""img/Fire_Up_Distractor.gif"",""img/Fire_Up_Distractor.gif"",""img/Fire_Up_Distractor.gif"",""img/Fire_Up_Distractor.gif""]","8","targetDown_distractorsUp"
"","","","","","html-keyboard-response","92","277930","0.0-14.0-0.0-0.39","5f0fac152f7b751b09b4c384","619531dcf66c91622fa1b861","619595e6ab4d5bc273fe5330","1328.5999999940395","Wow! You've completed 40 out of 160 trials! </p> <p>  </p><p> Take a quick break, then press any key when you're ready to continue."," ","","","","","main_T1_ITI","","","","",""
"","","","","","visual-search-circle","93","280263","0.0-14.0-0.0-1.39","5f0fac152f7b751b09b4c384","619531dcf66c91622fa1b861","619595e6ab4d5bc273fe5330","1321.9000000059605","","d","true","[[197,18],[15,204],[47,462],[270,598],[514,509],[597,262],[456,44]]","true","7","main_T2_Trial","d","img/Fire_Down_Target.gif","[""img/Fire_Up_Distractor.gif"",""img/Fire_Up_Distractor.gif"",""img/Fire_Up_Distractor.gif"",""img/Fire_Up_Distractor.gif"",""img/Fire_Up_Distractor.gif"",""img/Fire_Up_Distractor.gif"",""img/Fire_Up_Distractor.gif"",""img/Fire_Up_Distractor.gif"",""img/Fire_Up_Distractor.gif"",""img/Fire_Up_Distractor.gif"",""img/Fire_Up_Distractor.gif"",""img/Fire_Up_Distractor.gif""]","7","targetDown_distractorsUp"
"","","","","","html-keyboard-response","94","280265","0.0-14.0-0.0-0.40","5f0fac152f7b751b09b4c384","619531dcf66c91622fa1b861","619595e6ab4d5bc273fe5330","null","","null","","","","","main_T1_ITI","","","","",""
"","","","","","visual-search-circle","95","282511","0.0-14.0-0.0-1.40","5f0fac152f7b751b09b4c384","619531dcf66c91622fa1b861","619595e6ab4d5bc273fe5330","1236.0999999940395","","d","true","[[163,567],[424,573],[590,373],[538,118],[306,0],[69,107],[6,360]]","true","7","main_T2_Trial","d","img/Fire_Down_Target.gif","[""img/Fire_Up_Distractor.gif"",""img/Fire_Up_Distractor.gif"",""img/Fire_Up_Distractor.gif"",""img/Fire_Up_Distractor.gif"",""img/Fire_Up_Distractor.gif"",""img/Fire_Up_Distractor.gif"",""img/Fire_Up_Distractor.gif"",""img/Fire_Up_Distractor.gif"",""img/Fire_Up_Distractor.gif"",""img/Fire_Up_Distractor.gif"",""img/Fire_Up_Distractor.gif"",""img/Fire_Up_Distractor.gif""]","7","targetDown_distractorsUp"
"","","","","","html-keyboard-response","96","282513","0.0-14.0-0.0-0.41","5f0fac152f7b751b09b4c384","619531dcf66c91622fa1b861","619595e6ab4d5bc273fe5330","null","","null","","","","","main_T1_ITI","","","","",""
"","","","","","visual-search-circle","97","284959","0.0-14.0-0.0-1.41","5f0fac152f7b751b09b4c384","619531dcf66c91622fa1b861","619595e6ab4d5bc273fe5330","1441.9000000059605","","s","true","[[87,87],[0,299],[87,512],[299,600],[512,512],[600,300],[512,87],[300,0]]","false","8","main_T2_Trial","s","img/Fire_Down_Target.gif","[""img/Fire_Up_Distractor.gif"",""img/Fire_Up_Distractor.gif"",""img/Fire_Up_Distractor.gif"",""img/Fire_Up_Distractor.gif"",""img/Fire_Up_Distractor.gif"",""img/Fire_Up_Distractor.gif"",""img/Fire_Up_Distractor.gif"",""img/Fire_Up_Distractor.gif"",""img/Fire_Up_Distractor.gif"",""img/Fire_Up_Distractor.gif"",""img/Fire_Up_Distractor.gif"",""img/Fire_Up_Distractor.gif""]","8","targetDown_distractorsUp"
"","","","","","html-keyboard-response","98","284962","0.0-14.0-0.0-0.42","5f0fac152f7b751b09b4c384","619531dcf66c91622fa1b861","619595e6ab4d5bc273fe5330","null","","null","","","","","main_T1_ITI","","","","",""
"","","","","","visual-search-circle","99","287122","0.0-14.0-0.0-1.42","5f0fac152f7b751b09b4c384","619531dcf66c91622fa1b861","619595e6ab4d5bc273fe5330","1148.199999988079","","d","true","[[30,431],[341,597],[595,352],[440,35],[91,84]]","true","5","main_T2_Trial","d","img/Fire_Up_Target.gif","[""img/Fire_Down_Distractor.gif"",""img/Fire_Down_Distractor.gif"",""img/Fire_Down_Distractor.gif"",""img/Fire_Down_Distractor.gif"",""img/Fire_Down_Distractor.gif"",""img/Fire_Down_Distractor.gif"",""img/Fire_Down_Distractor.gif"",""img/Fire_Down_Distractor.gif"",""img/Fire_Down_Distractor.gif"",""img/Fire_Down_Distractor.gif"",""img/Fire_Down_Distractor.gif"",""img/Fire_Down_Distractor.gif""]","5","targetUp_distractorsDown"
"","","","","","html-keyboard-response","100","287125","0.0-14.0-0.0-0.43","5f0fac152f7b751b09b4c384","619531dcf66c91622fa1b861","619595e6ab4d5bc273fe5330","null","","null","","","","","main_T1_ITI","","","","",""
"","","","","","visual-search-circle","101","289284","0.0-14.0-0.0-1.43","5f0fac152f7b751b09b4c384","619531dcf66c91622fa1b861","619595e6ab4d5bc273fe5330","1149","","d","true","[[445,562],[588,382],[562,154],[382,11],[154,37],[11,217],[37,445],[217,588]]","true","8","main_T2_Trial","d","img/Fire_Down_Target.gif","[""img/Fire_Up_Distractor.gif"",""img/Fire_Up_Distractor.gif"",""img/Fire_Up_Distractor.gif"",""img/Fire_Up_Distractor.gif"",""img/Fire_Up_Distractor.gif"",""img/Fire_Up_Distractor.gif"",""img/Fire_Up_Distractor.gif"",""img/Fire_Up_Distractor.gif"",""img/Fire_Up_Distractor.gif"",""img/Fire_Up_Distractor.gif"",""img/Fire_Up_Distractor.gif"",""img/Fire_Up_Distractor.gif""]","8","targetDown_distractorsUp"
"","","","","","html-keyboard-response","102","289286","0.0-14.0-0.0-0.44","5f0fac152f7b751b09b4c384","619531dcf66c91622fa1b861","619595e6ab4d5bc273fe5330","null","","null","","","","","main_T1_ITI","","","","",""
"","","","","","visual-search-circle","103","292095","0.0-14.0-0.0-1.44","5f0fac152f7b751b09b4c384","619531dcf66c91622fa1b861","619595e6ab4d5bc273fe5330","1791.0999999940395","","s","true","[[480,539],[597,341],[539,119],[341,2],[119,60],[2,258],[60,480],[258,597]]","false","8","main_T2_Trial","s","img/Fire_Up_Target.gif","[""img/Fire_Down_Distractor.gif"",""img/Fire_Down_Distractor.gif"",""img/Fire_Down_Distractor.gif"",""img/Fire_Down_Distractor.gif"",""img/Fire_Down_Distractor.gif"",""img/Fire_Down_Distractor.gif"",""img/Fire_Down_Distractor.gif"",""img/Fire_Down_Distractor.gif"",""img/Fire_Down_Distractor.gif"",""img/Fire_Down_Distractor.gif"",""img/Fire_Down_Distractor.gif"",""img/Fire_Down_Distractor.gif""]","8","targetUp_distractorsDown"
"","","","","","html-keyboard-response","104","292097","0.0-14.0-0.0-0.45","5f0fac152f7b751b09b4c384","619531dcf66c91622fa1b861","619595e6ab4d5bc273fe5330","null","","null","","","","","main_T1_ITI","","","","",""
"","","","","","visual-search-circle","105","294411","0.0-14.0-0.0-1.45","5f0fac152f7b751b09b4c384","619531dcf66c91622fa1b861","619595e6ab4d5bc273fe5330","1312","","d","true","[[496,526],[526,103],[103,73],[73,496]]","true","4","main_T2_Trial","d","img/Fire_Down_Target.gif","[""img/Fire_Up_Distractor.gif"",""img/Fire_Up_Distractor.gif"",""img/Fire_Up_Distractor.gif"",""img/Fire_Up_Distractor.gif"",""img/Fire_Up_Distractor.gif"",""img/Fire_Up_Distractor.gif"",""img/Fire_Up_Distractor.gif"",""img/Fire_Up_Distractor.gif"",""img/Fire_Up_Distractor.gif"",""img/Fire_Up_Distractor.gif"",""img/Fire_Up_Distractor.gif"",""img/Fire_Up_Distractor.gif""]","4","targetDown_distractorsUp"
"","","","","","html-keyboard-response","106","294413","0.0-14.0-0.0-0.46","5f0fac152f7b751b09b4c384","619531dcf66c91622fa1b861","619595e6ab4d5bc273fe5330","null","","null","","","","","main_T1_ITI","","","","",""
"","","","","","visual-search-circle","107","297359","0.0-14.0-0.0-1.46","5f0fac152f7b751b09b4c384","619531dcf66c91622fa1b861","619595e6ab4d5bc273fe5330","1930.5999999940395","","s","true","[[397,583],[599,294],[387,13],[54,127],[60,480]]","false","5","main_T2_Trial","s","img/Fire_Down_Target.gif","[""img/Fire_Up_Distractor.gif"",""img/Fire_Up_Distractor.gif"",""img/Fire_Up_Distractor.gif"",""img/Fire_Up_Distractor.gif"",""img/Fire_Up_Distractor.gif"",""img/Fire_Up_Distractor.gif"",""img/Fire_Up_Distractor.gif"",""img/Fire_Up_Distractor.gif"",""img/Fire_Up_Distractor.gif"",""img/Fire_Up_Distractor.gif"",""img/Fire_Up_Distractor.gif"",""img/Fire_Up_Distractor.gif""]","5","targetDown_distractorsUp"
"","","","","","html-keyboard-response","108","297363","0.0-14.0-0.0-0.47","5f0fac152f7b751b09b4c384","619531dcf66c91622fa1b861","619595e6ab4d5bc273fe5330","null","","null","","","","","main_T1_ITI","","","","",""
"","","","","","visual-search-circle","109","300043","0.0-14.0-0.0-1.47","5f0fac152f7b751b09b4c384","619531dcf66c91622fa1b861","619595e6ab4d5bc273fe5330","1667.4000000059605","","s","true","[[123,542],[379,589],[575,417],[564,157],[353,4],[102,74],[0,313]]","false","7","main_T2_Trial","s","img/Fire_Down_Target.gif","[""img/Fire_Up_Distractor.gif"",""img/Fire_Up_Distractor.gif"",""img/Fire_Up_Distractor.gif"",""img/Fire_Up_Distractor.gif"",""img/Fire_Up_Distractor.gif"",""img/Fire_Up_Distractor.gif"",""img/Fire_Up_Distractor.gif"",""img/Fire_Up_Distractor.gif"",""img/Fire_Up_Distractor.gif"",""img/Fire_Up_Distractor.gif"",""img/Fire_Up_Distractor.gif"",""img/Fire_Up_Distractor.gif""]","7","targetDown_distractorsUp"
"","","","","","html-keyboard-response","110","300046","0.0-14.0-0.0-0.48","5f0fac152f7b751b09b4c384","619531dcf66c91622fa1b861","619595e6ab4d5bc273fe5330","null","","null","","","","","main_T1_ITI","","","","",""
"","","","","","visual-search-circle","111","302204","0.0-14.0-0.0-1.48","5f0fac152f7b751b09b4c384","619531dcf66c91622fa1b861","619595e6ab4d5bc273fe5330","1152.9000000059605","","s","true","[[545,472],[472,54],[54,127],[127,545]]","false","4","main_T2_Trial","s","img/Fire_Down_Target.gif","[""img/Fire_Up_Distractor.gif"",""img/Fire_Up_Distractor.gif"",""img/Fire_Up_Distractor.gif"",""img/Fire_Up_Distractor.gif"",""img/Fire_Up_Distractor.gif"",""img/Fire_Up_Distractor.gif"",""img/Fire_Up_Distractor.gif"",""img/Fire_Up_Distractor.gif"",""img/Fire_Up_Distractor.gif"",""img/Fire_Up_Distractor.gif"",""img/Fire_Up_Distractor.gif"",""img/Fire_Up_Distractor.gif""]","4","targetDown_distractorsUp"
"","","","","","html-keyboard-response","112","302205","0.0-14.0-0.0-0.49","5f0fac152f7b751b09b4c384","619531dcf66c91622fa1b861","619595e6ab4d5bc273fe5330","null","","null","","","","","main_T1_ITI","","","","",""
"","","","","","visual-search-circle","113","304668","0.0-14.0-0.0-1.49","5f0fac152f7b751b09b4c384","619531dcf66c91622fa1b861","619595e6ab4d5bc273fe5330","1452.8999999761581","","s","false","[[51,467],[242,594],[467,548],[594,357],[548,132],[357,5],[132,51],[5,242]]","true","8","main_T2_Trial","d","img/Fire_Up_Target.gif","[""img/Fire_Down_Distractor.gif"",""img/Fire_Down_Distractor.gif"",""img/Fire_Down_Distractor.gif"",""img/Fire_Down_Distractor.gif"",""img/Fire_Down_Distractor.gif"",""img/Fire_Down_Distractor.gif"",""img/Fire_Down_Distractor.gif"",""img/Fire_Down_Distractor.gif"",""img/Fire_Down_Distractor.gif"",""img/Fire_Down_Distractor.gif"",""img/Fire_Down_Distractor.gif"",""img/Fire_Down_Distractor.gif""]","8","targetUp_distractorsDown"
"","","","","","html-keyboard-response","114","304670","0.0-14.0-0.0-0.50","5f0fac152f7b751b09b4c384","619531dcf66c91622fa1b861","619595e6ab4d5bc273fe5330","null","","null","","","","","main_T1_ITI","","","","",""
"","","","","","visual-search-circle","115","306752","0.0-14.0-0.0-1.50","5f0fac152f7b751b09b4c384","619531dcf66c91622fa1b861","619595e6ab4d5bc273fe5330","1073.2999999821186","","d","true","[[426,571],[591,370],[536,115],[303,0],[67,110],[6,363],[166,568]]","true","7","main_T2_Trial","d","img/Fire_Up_Target.gif","[""img/Fire_Down_Distractor.gif"",""img/Fire_Down_Distractor.gif"",""img/Fire_Down_Distractor.gif"",""img/Fire_Down_Distractor.gif"",""img/Fire_Down_Distractor.gif"",""img/Fire_Down_Distractor.gif"",""img/Fire_Down_Distractor.gif"",""img/Fire_Down_Distractor.gif"",""img/Fire_Down_Distractor.gif"",""img/Fire_Down_Distractor.gif"",""img/Fire_Down_Distractor.gif"",""img/Fire_Down_Distractor.gif""]","7","targetUp_distractorsDown"
"","","","","","html-keyboard-response","116","306754","0.0-14.0-0.0-0.51","5f0fac152f7b751b09b4c384","619531dcf66c91622fa1b861","619595e6ab4d5bc273fe5330","null","","null","","","","","main_T1_ITI","","","","",""
"","","","","","visual-search-circle","117","308882","0.0-14.0-0.0-1.51","5f0fac152f7b751b09b4c384","619531dcf66c91622fa1b861","619595e6ab4d5bc273fe5330","1123.699999988079","","d","true","[[533,111],[331,1],[111,66],[1,268],[66,488],[268,598],[488,533],[598,331]]","true","8","main_T2_Trial","d","img/Fire_Up_Target.gif","[""img/Fire_Down_Distractor.gif"",""img/Fire_Down_Distractor.gif"",""img/Fire_Down_Distractor.gif"",""img/Fire_Down_Distractor.gif"",""img/Fire_Down_Distractor.gif"",""img/Fire_Down_Distractor.gif"",""img/Fire_Down_Distractor.gif"",""img/Fire_Down_Distractor.gif"",""img/Fire_Down_Distractor.gif"",""img/Fire_Down_Distractor.gif"",""img/Fire_Down_Distractor.gif"",""img/Fire_Down_Distractor.gif""]","8","targetUp_distractorsDown"
"","","","","","html-keyboard-response","118","308884","0.0-14.0-0.0-0.52","5f0fac152f7b751b09b4c384","619531dcf66c91622fa1b861","619595e6ab4d5bc273fe5330","null","","null","","","","","main_T1_ITI","","","","",""
"","","","","","visual-search-circle","119","311957","0.0-14.0-0.0-1.52","5f0fac152f7b751b09b4c384","619531dcf66c91622fa1b861","619595e6ab4d5bc273fe5330","2066.300000011921","","d","true","[[222,10],[25,180],[34,440],[244,594],[495,527],[599,288],[478,58]]","true","7","main_T2_Trial","d","img/Fire_Up_Target.gif","[""img/Fire_Down_Distractor.gif"",""img/Fire_Down_Distractor.gif"",""img/Fire_Down_Distractor.gif"",""img/Fire_Down_Distractor.gif"",""img/Fire_Down_Distractor.gif"",""img/Fire_Down_Distractor.gif"",""img/Fire_Down_Distractor.gif"",""img/Fire_Down_Distractor.gif"",""img/Fire_Down_Distractor.gif"",""img/Fire_Down_Distractor.gif"",""img/Fire_Down_Distractor.gif"",""img/Fire_Down_Distractor.gif""]","7","targetUp_distractorsDown"
"","","","","","html-keyboard-response","120","311963","0.0-14.0-0.0-0.53","5f0fac152f7b751b09b4c384","619531dcf66c91622fa1b861","619595e6ab4d5bc273fe5330","null","","null","","","","","main_T1_ITI","","","","",""
"","","","","","visual-search-circle","121","317131","0.0-14.0-0.0-1.53","5f0fac152f7b751b09b4c384","619531dcf66c91622fa1b861","619595e6ab4d5bc273fe5330","4153.799999982119","","s","true","[[300,0],[14,207],[123,542],[476,542],[585,207]]","false","5","main_T2_Trial","s","img/Fire_Down_Target.gif","[""img/Fire_Up_Distractor.gif"",""img/Fire_Up_Distractor.gif"",""img/Fire_Up_Distractor.gif"",""img/Fire_Up_Distractor.gif"",""img/Fire_Up_Distractor.gif"",""img/Fire_Up_Distractor.gif"",""img/Fire_Up_Distractor.gif"",""img/Fire_Up_Distractor.gif"",""img/Fire_Up_Distractor.gif"",""img/Fire_Up_Distractor.gif"",""img/Fire_Up_Distractor.gif"",""img/Fire_Up_Distractor.gif""]","5","targetDown_distractorsUp"
"","","","","","html-keyboard-response","122","317133","0.0-14.0-0.0-0.54","5f0fac152f7b751b09b4c384","619531dcf66c91622fa1b861","619595e6ab4d5bc273fe5330","null","","null","","","","","main_T1_ITI","","","","",""
"","","","","","visual-search-circle","123","319563","0.0-14.0-0.0-1.54","5f0fac152f7b751b09b4c384","619531dcf66c91622fa1b861","619595e6ab4d5bc273fe5330","1418.2000000178814","","s","true","[[440,35],[141,45],[0,310],[159,564],[458,554],[599,289]]","false","6","main_T2_Trial","s","img/Fire_Up_Target.gif","[""img/Fire_Down_Distractor.gif"",""img/Fire_Down_Distractor.gif"",""img/Fire_Down_Distractor.gif"",""img/Fire_Down_Distractor.gif"",""img/Fire_Down_Distractor.gif"",""img/Fire_Down_Distractor.gif"",""img/Fire_Down_Distractor.gif"",""img/Fire_Down_Distractor.gif"",""img/Fire_Down_Distractor.gif"",""img/Fire_Down_Distractor.gif"",""img/Fire_Down_Distractor.gif"",""img/Fire_Down_Distractor.gif""]","6","targetUp_distractorsDown"
"","","","","","html-keyboard-response","124","319565","0.0-14.0-0.0-0.55","5f0fac152f7b751b09b4c384","619531dcf66c91622fa1b861","619595e6ab4d5bc273fe5330","null","","null","","","","","main_T1_ITI","","","","",""
"","","","","","visual-search-circle","125","321896","0.0-14.0-0.0-1.55","5f0fac152f7b751b09b4c384","619531dcf66c91622fa1b861","619595e6ab4d5bc273fe5330","1328","","s","true","[[352,4],[70,107],[18,402],[247,595],[529,492],[581,197]]","false","6","main_T2_Trial","s","img/Fire_Down_Target.gif","[""img/Fire_Up_Distractor.gif"",""img/Fire_Up_Distractor.gif"",""img/Fire_Up_Distractor.gif"",""img/Fire_Up_Distractor.gif"",""img/Fire_Up_Distractor.gif"",""img/Fire_Up_Distractor.gif"",""img/Fire_Up_Distractor.gif"",""img/Fire_Up_Distractor.gif"",""img/Fire_Up_Distractor.gif"",""img/Fire_Up_Distractor.gif"",""img/Fire_Up_Distractor.gif"",""img/Fire_Up_Distractor.gif""]","6","targetDown_distractorsUp"
"","","","","","html-keyboard-response","126","321898","0.0-14.0-0.0-0.56","5f0fac152f7b751b09b4c384","619531dcf66c91622fa1b861","619595e6ab4d5bc273fe5330","null","","null","","","","","main_T1_ITI","","","","",""
"","","","","","visual-search-circle","127","323835","0.0-14.0-0.0-1.56","5f0fac152f7b751b09b4c384","619531dcf66c91622fa1b861","619595e6ab4d5bc273fe5330","920","","d","true","[[598,273],[367,7],[42,145],[73,496],[417,576]]","true","5","main_T2_Trial","d","img/Fire_Down_Target.gif","[""img/Fire_Up_Distractor.gif"",""img/Fire_Up_Distractor.gif"",""img/Fire_Up_Distractor.gif"",""img/Fire_Up_Distractor.gif"",""img/Fire_Up_Distractor.gif"",""img/Fire_Up_Distractor.gif"",""img/Fire_Up_Distractor.gif"",""img/Fire_Up_Distractor.gif"",""img/Fire_Up_Distractor.gif"",""img/Fire_Up_Distractor.gif"",""img/Fire_Up_Distractor.gif"",""img/Fire_Up_Distractor.gif""]","5","targetDown_distractorsUp"
"","","","","","html-keyboard-response","128","323837","0.0-14.0-0.0-0.57","5f0fac152f7b751b09b4c384","619531dcf66c91622fa1b861","619595e6ab4d5bc273fe5330","null","","null","","","","","main_T1_ITI","","","","",""
"","","","","","visual-search-circle","129","325989","0.0-14.0-0.0-1.57","5f0fac152f7b751b09b4c384","619531dcf66c91622fa1b861","619595e6ab4d5bc273fe5330","1136.199999988079","","d","true","[[315,599],[544,474],[588,218],[415,23],[155,36],[4,248],[75,499]]","true","7","main_T2_Trial","d","img/Fire_Up_Target.gif","[""img/Fire_Down_Distractor.gif"",""img/Fire_Down_Distractor.gif"",""img/Fire_Down_Distractor.gif"",""img/Fire_Down_Distractor.gif"",""img/Fire_Down_Distractor.gif"",""img/Fire_Down_Distractor.gif"",""img/Fire_Down_Distractor.gif"",""img/Fire_Down_Distractor.gif"",""img/Fire_Down_Distractor.gif"",""img/Fire_Down_Distractor.gif"",""img/Fire_Down_Distractor.gif"",""img/Fire_Down_Distractor.gif""]","7","targetUp_distractorsDown"
"","","","","","html-keyboard-response","130","325997","0.0-14.0-0.0-0.58","5f0fac152f7b751b09b4c384","619531dcf66c91622fa1b861","619595e6ab4d5bc273fe5330","null","","null","","","","","main_T1_ITI","","","","",""
"","","","","","visual-search-circle","131","327679","0.0-14.0-0.0-1.58","5f0fac152f7b751b09b4c384","619531dcf66c91622fa1b861","619595e6ab4d5bc273fe5330","677.0999999940395","","d","true","[[341,597],[595,352],[440,35],[91,84],[30,431]]","true","5","main_T2_Trial","d","img/Fire_Up_Target.gif","[""img/Fire_Down_Distractor.gif"",""img/Fire_Down_Distractor.gif"",""img/Fire_Down_Distractor.gif"",""img/Fire_Down_Distractor.gif"",""img/Fire_Down_Distractor.gif"",""img/Fire_Down_Distractor.gif"",""img/Fire_Down_Distractor.gif"",""img/Fire_Down_Distractor.gif"",""img/Fire_Down_Distractor.gif"",""img/Fire_Down_Distractor.gif"",""img/Fire_Down_Distractor.gif"",""img/Fire_Down_Distractor.gif""]","5","targetUp_distractorsDown"
"","","","","","html-keyboard-response","132","328493","0.0-14.0-0.0-0.59","5f0fac152f7b751b09b4c384","619531dcf66c91622fa1b861","619595e6ab4d5bc273fe5330","813.0999999940395","Wow! You've completed 60 out of 160 trials! </p> <p>  </p><p> Take a quick break, then press any key when you're ready to continue."," ","","","","","main_T1_ITI","","","","",""
"","","","","","visual-search-circle","133","330911","0.0-14.0-0.0-1.59","5f0fac152f7b751b09b4c384","619531dcf66c91622fa1b861","619595e6ab4d5bc273fe5330","1402.699999988079","","s","true","[[567,436],[585,207],[436,32],[207,14],[32,163],[14,392],[163,567],[392,585]]","false","8","main_T2_Trial","s","img/Fire_Down_Target.gif","[""img/Fire_Up_Distractor.gif"",""img/Fire_Up_Distractor.gif"",""img/Fire_Up_Distractor.gif"",""img/Fire_Up_Distractor.gif"",""img/Fire_Up_Distractor.gif"",""img/Fire_Up_Distractor.gif"",""img/Fire_Up_Distractor.gif"",""img/Fire_Up_Distractor.gif"",""img/Fire_Up_Distractor.gif"",""img/Fire_Up_Distractor.gif"",""img/Fire_Up_Distractor.gif"",""img/Fire_Up_Distractor.gif""]","8","targetDown_distractorsUp"
"","","","","","html-keyboard-response","134","330913","0.0-14.0-0.0-0.60","5f0fac152f7b751b09b4c384","619531dcf66c91622fa1b861","619595e6ab4d5bc273fe5330","null","","null","","","","","main_T1_ITI","","","","",""
"","","","","","visual-search-circle","135","332959","0.0-14.0-0.0-1.60","5f0fac152f7b751b09b4c384","619531dcf66c91622fa1b861","619595e6ab4d5bc273fe5330","1038.5999999940395","","s","true","[[2,258],[115,536],[412,578],[597,341],[484,63],[187,21]]","false","6","main_T2_Trial","s","img/Fire_Up_Target.gif","[""img/Fire_Down_Distractor.gif"",""img/Fire_Down_Distractor.gif"",""img/Fire_Down_Distractor.gif"",""img/Fire_Down_Distractor.gif"",""img/Fire_Down_Distractor.gif"",""img/Fire_Down_Distractor.gif"",""img/Fire_Down_Distractor.gif"",""img/Fire_Down_Distractor.gif"",""img/Fire_Down_Distractor.gif"",""img/Fire_Down_Distractor.gif"",""img/Fire_Down_Distractor.gif"",""img/Fire_Down_Distractor.gif""]","6","targetUp_distractorsDown"
"","","","","","html-keyboard-response","136","332963","0.0-14.0-0.0-0.61","5f0fac152f7b751b09b4c384","619531dcf66c91622fa1b861","619595e6ab4d5bc273fe5330","null","","null","","","","","main_T1_ITI","","","","",""
"","","","","","visual-search-circle","137","335167","0.0-14.0-0.0-1.61","5f0fac152f7b751b09b4c384","619531dcf66c91622fa1b861","619595e6ab4d5bc273fe5330","1198.699999988079","","d","true","[[484,63],[63,115],[115,536],[536,484]]","true","4","main_T2_Trial","d","img/Fire_Down_Target.gif","[""img/Fire_Up_Distractor.gif"",""img/Fire_Up_Distractor.gif"",""img/Fire_Up_Distractor.gif"",""img/Fire_Up_Distractor.gif"",""img/Fire_Up_Distractor.gif"",""img/Fire_Up_Distractor.gif"",""img/Fire_Up_Distractor.gif"",""img/Fire_Up_Distractor.gif"",""img/Fire_Up_Distractor.gif"",""img/Fire_Up_Distractor.gif"",""img/Fire_Up_Distractor.gif"",""img/Fire_Up_Distractor.gif""]","4","targetDown_distractorsUp"
"","","","","","html-keyboard-response","138","335169","0.0-14.0-0.0-0.62","5f0fac152f7b751b09b4c384","619531dcf66c91622fa1b861","619595e6ab4d5bc273fe5330","null","","null","","","","","main_T1_ITI","","","","",""
"","","","","","visual-search-circle","139","336976","0.0-14.0-0.0-1.62","5f0fac152f7b751b09b4c384","619531dcf66c91622fa1b861","619595e6ab4d5bc273fe5330","803.5999999940395","","d","true","[[168,569],[515,508],[564,159],[247,4],[2,258]]","true","5","main_T2_Trial","d","img/Fire_Up_Target.gif","[""img/Fire_Down_Distractor.gif"",""img/Fire_Down_Distractor.gif"",""img/Fire_Down_Distractor.gif"",""img/Fire_Down_Distractor.gif"",""img/Fire_Down_Distractor.gif"",""img/Fire_Down_Distractor.gif"",""img/Fire_Down_Distractor.gif"",""img/Fire_Down_Distractor.gif"",""img/Fire_Down_Distractor.gif"",""img/Fire_Down_Distractor.gif"",""img/Fire_Down_Distractor.gif"",""img/Fire_Down_Distractor.gif""]","5","targetUp_distractorsDown"
"","","","","","html-keyboard-response","140","336978","0.0-14.0-0.0-0.63","5f0fac152f7b751b09b4c384","619531dcf66c91622fa1b861","619595e6ab4d5bc273fe5330","null","","null","","","","","main_T1_ITI","","","","",""
"","","","","","visual-search-circle","141","339057","0.0-14.0-0.0-1.63","5f0fac152f7b751b09b4c384","619531dcf66c91622fa1b861","619595e6ab4d5bc273fe5330","1071.300000011921","","d","true","[[548,467],[569,168],[320,0],[51,132],[30,431],[279,599]]","true","6","main_T2_Trial","d","img/Fire_Up_Target.gif","[""img/Fire_Down_Distractor.gif"",""img/Fire_Down_Distractor.gif"",""img/Fire_Down_Distractor.gif"",""img/Fire_Down_Distractor.gif"",""img/Fire_Down_Distractor.gif"",""img/Fire_Down_Distractor.gif"",""img/Fire_Down_Distractor.gif"",""img/Fire_Down_Distractor.gif"",""img/Fire_Down_Distractor.gif"",""img/Fire_Down_Distractor.gif"",""img/Fire_Down_Distractor.gif"",""img/Fire_Down_Distractor.gif""]","6","targetUp_distractorsDown"
"","","","","","html-keyboard-response","142","339060","0.0-14.0-0.0-0.64","5f0fac152f7b751b09b4c384","619531dcf66c91622fa1b861","619595e6ab4d5bc273fe5330","null","","null","","","","","main_T1_ITI","","","","",""
"","","","","","visual-search-circle","143","340894","0.0-14.0-0.0-1.64","5f0fac152f7b751b09b4c384","619531dcf66c91622fa1b861","619595e6ab4d5bc273fe5330","822.8000000119209","","s","true","[[10,222],[87,512],[377,589],[589,377],[512,87],[222,10]]","false","6","main_T2_Trial","s","img/Fire_Down_Target.gif","[""img/Fire_Up_Distractor.gif"",""img/Fire_Up_Distractor.gif"",""img/Fire_Up_Distractor.gif"",""img/Fire_Up_Distractor.gif"",""img/Fire_Up_Distractor.gif"",""img/Fire_Up_Distractor.gif"",""img/Fire_Up_Distractor.gif"",""img/Fire_Up_Distractor.gif"",""img/Fire_Up_Distractor.gif"",""img/Fire_Up_Distractor.gif"",""img/Fire_Up_Distractor.gif"",""img/Fire_Up_Distractor.gif""]","6","targetDown_distractorsUp"
"","","","","","html-keyboard-response","144","340897","0.0-14.0-0.0-0.65","5f0fac152f7b751b09b4c384","619531dcf66c91622fa1b861","619595e6ab4d5bc273fe5330","null","","null","","","","","main_T1_ITI","","","","",""
"","","","","","visual-search-circle","145","342483","0.0-14.0-0.0-1.65","5f0fac152f7b751b09b4c384","619531dcf66c91622fa1b861","619595e6ab4d5bc273fe5330","575.1999999880791","","s","true","[[539,119],[263,2],[23,182],[60,480],[336,597],[576,417]]","false","6","main_T2_Trial","s","img/Fire_Down_Target.gif","[""img/Fire_Up_Distractor.gif"",""img/Fire_Up_Distractor.gif"",""img/Fire_Up_Distractor.gif"",""img/Fire_Up_Distractor.gif"",""img/Fire_Up_Distractor.gif"",""img/Fire_Up_Distractor.gif"",""img/Fire_Up_Distractor.gif"",""img/Fire_Up_Distractor.gif"",""img/Fire_Up_Distractor.gif"",""img/Fire_Up_Distractor.gif"",""img/Fire_Up_Distractor.gif"",""img/Fire_Up_Distractor.gif""]","6","targetDown_distractorsUp"
"","","","","","html-keyboard-response","146","342485","0.0-14.0-0.0-0.66","5f0fac152f7b751b09b4c384","619531dcf66c91622fa1b861","619595e6ab4d5bc273fe5330","null","","null","","","","","main_T1_ITI","","","","",""
"","","","","","visual-search-circle","147","344269","0.0-14.0-0.0-1.66","5f0fac152f7b751b09b4c384","619531dcf66c91622fa1b861","619595e6ab4d5bc273fe5330","769.0999999940395","","d","true","[[594,357],[357,5],[5,242],[242,594]]","true","4","main_T2_Trial","d","img/Fire_Down_Target.gif","[""img/Fire_Up_Distractor.gif"",""img/Fire_Up_Distractor.gif"",""img/Fire_Up_Distractor.gif"",""img/Fire_Up_Distractor.gif"",""img/Fire_Up_Distractor.gif"",""img/Fire_Up_Distractor.gif"",""img/Fire_Up_Distractor.gif"",""img/Fire_Up_Distractor.gif"",""img/Fire_Up_Distractor.gif"",""img/Fire_Up_Distractor.gif"",""img/Fire_Up_Distractor.gif"",""img/Fire_Up_Distractor.gif""]","4","targetDown_distractorsUp"
"","","","","","html-keyboard-response","148","344271","0.0-14.0-0.0-0.67","5f0fac152f7b751b09b4c384","619531dcf66c91622fa1b861","619595e6ab4d5bc273fe5330","null","","null","","","","","main_T1_ITI","","","","",""
"","","","","","visual-search-circle","149","346821","0.0-14.0-0.0-1.67","5f0fac152f7b751b09b4c384","619531dcf66c91622fa1b861","619595e6ab4d5bc273fe5330","1546.2999999821186","","d","true","[[392,14],[57,123],[57,476],[392,585],[600,300]]","true","5","main_T2_Trial","d","img/Fire_Down_Target.gif","[""img/Fire_Up_Distractor.gif"",""img/Fire_Up_Distractor.gif"",""img/Fire_Up_Distractor.gif"",""img/Fire_Up_Distractor.gif"",""img/Fire_Up_Distractor.gif"",""img/Fire_Up_Distractor.gif"",""img/Fire_Up_Distractor.gif"",""img/Fire_Up_Distractor.gif"",""img/Fire_Up_Distractor.gif"",""img/Fire_Up_Distractor.gif"",""img/Fire_Up_Distractor.gif"",""img/Fire_Up_Distractor.gif""]","5","targetDown_distractorsUp"
"","","","","","html-keyboard-response","150","346823","0.0-14.0-0.0-0.68","5f0fac152f7b751b09b4c384","619531dcf66c91622fa1b861","619595e6ab4d5bc273fe5330","null","","null","","","","","main_T1_ITI","","","","",""
"","","","","","visual-search-circle","151","349015","0.0-14.0-0.0-1.68","5f0fac152f7b751b09b4c384","619531dcf66c91622fa1b861","619595e6ab4d5bc273fe5330","1187.4000000059605","","d","false","[[551,136],[136,48],[48,463],[463,551]]","false","4","main_T2_Trial","s","img/Fire_Down_Target.gif","[""img/Fire_Up_Distractor.gif"",""img/Fire_Up_Distractor.gif"",""img/Fire_Up_Distractor.gif"",""img/Fire_Up_Distractor.gif"",""img/Fire_Up_Distractor.gif"",""img/Fire_Up_Distractor.gif"",""img/Fire_Up_Distractor.gif"",""img/Fire_Up_Distractor.gif"",""img/Fire_Up_Distractor.gif"",""img/Fire_Up_Distractor.gif"",""img/Fire_Up_Distractor.gif"",""img/Fire_Up_Distractor.gif""]","4","targetDown_distractorsUp"
"","","","","","html-keyboard-response","152","349017","0.0-14.0-0.0-0.69","5f0fac152f7b751b09b4c384","619531dcf66c91622fa1b861","619595e6ab4d5bc273fe5330","null","","null","","","","","main_T1_ITI","","","","",""
"","","","","","visual-search-circle","153","351044","0.0-14.0-0.0-1.69","5f0fac152f7b751b09b4c384","619531dcf66c91622fa1b861","619595e6ab4d5bc273fe5330","1022.6999999880791","","s","true","[[1,331],[111,533],[331,598],[533,488],[598,268],[488,66],[268,1],[66,111]]","false","8","main_T2_Trial","s","img/Fire_Down_Target.gif","[""img/Fire_Up_Distractor.gif"",""img/Fire_Up_Distractor.gif"",""img/Fire_Up_Distractor.gif"",""img/Fire_Up_Distractor.gif"",""img/Fire_Up_Distractor.gif"",""img/Fire_Up_Distractor.gif"",""img/Fire_Up_Distractor.gif"",""img/Fire_Up_Distractor.gif"",""img/Fire_Up_Distractor.gif"",""img/Fire_Up_Distractor.gif"",""img/Fire_Up_Distractor.gif"",""img/Fire_Up_Distractor.gif""]","8","targetDown_distractorsUp"
"","","","","","html-keyboard-response","154","351047","0.0-14.0-0.0-0.70","5f0fac152f7b751b09b4c384","619531dcf66c91622fa1b861","619595e6ab4d5bc273fe5330","null","","null","","","","","main_T1_ITI","","","","",""
"","","","","","visual-search-circle","155","353351","0.0-14.0-0.0-1.70","5f0fac152f7b751b09b4c384","619531dcf66c91622fa1b861","619595e6ab4d5bc273fe5330","1295.699999988079","","s","true","[[2,263],[173,571],[519,504],[562,154],[242,5]]","false","5","main_T2_Trial","s","img/Fire_Up_Target.gif","[""img/Fire_Down_Distractor.gif"",""img/Fire_Down_Distractor.gif"",""img/Fire_Down_Distractor.gif"",""img/Fire_Down_Distractor.gif"",""img/Fire_Down_Distractor.gif"",""img/Fire_Down_Distractor.gif"",""img/Fire_Down_Distractor.gif"",""img/Fire_Down_Distractor.gif"",""img/Fire_Down_Distractor.gif"",""img/Fire_Down_Distractor.gif"",""img/Fire_Down_Distractor.gif"",""img/Fire_Down_Distractor.gif""]","5","targetUp_distractorsDown"
"","","","","","html-keyboard-response","156","353353","0.0-14.0-0.0-0.71","5f0fac152f7b751b09b4c384","619531dcf66c91622fa1b861","619595e6ab4d5bc273fe5330","null","","null","","","","","main_T1_ITI","","","","",""
"","","","","","visual-search-circle","157","355547","0.0-14.0-0.0-1.71","5f0fac152f7b751b09b4c384","619531dcf66c91622fa1b861","619595e6ab4d5bc273fe5330","1184.3999999761581","","s","true","[[212,586],[469,547],[599,321],[503,79],[254,3],[39,150],[21,410]]","false","7","main_T2_Trial","s","img/Fire_Up_Target.gif","[""img/Fire_Down_Distractor.gif"",""img/Fire_Down_Distractor.gif"",""img/Fire_Down_Distractor.gif"",""img/Fire_Down_Distractor.gif"",""img/Fire_Down_Distractor.gif"",""img/Fire_Down_Distractor.gif"",""img/Fire_Down_Distractor.gif"",""img/Fire_Down_Distractor.gif"",""img/Fire_Down_Distractor.gif"",""img/Fire_Down_Distractor.gif"",""img/Fire_Down_Distractor.gif"",""img/Fire_Down_Distractor.gif""]","7","targetUp_distractorsDown"
"","","","","","html-keyboard-response","158","355549","0.0-14.0-0.0-0.72","5f0fac152f7b751b09b4c384","619531dcf66c91622fa1b861","619595e6ab4d5bc273fe5330","null","","null","","","","","main_T1_ITI","","","","",""
"","","","","","visual-search-circle","159","357606","0.0-14.0-0.0-1.72","5f0fac152f7b751b09b4c384","619531dcf66c91622fa1b861","619595e6ab4d5bc273fe5330","1048.0999999940395","","d","true","[[596,346],[436,32],[87,87],[32,436],[346,596]]","true","5","main_T2_Trial","d","img/Fire_Down_Target.gif","[""img/Fire_Up_Distractor.gif"",""img/Fire_Up_Distractor.gif"",""img/Fire_Up_Distractor.gif"",""img/Fire_Up_Distractor.gif"",""img/Fire_Up_Distractor.gif"",""img/Fire_Up_Distractor.gif"",""img/Fire_Up_Distractor.gif"",""img/Fire_Up_Distractor.gif"",""img/Fire_Up_Distractor.gif"",""img/Fire_Up_Distractor.gif"",""img/Fire_Up_Distractor.gif"",""img/Fire_Up_Distractor.gif""]","5","targetDown_distractorsUp"
"","","","","","html-keyboard-response","160","357609","0.0-14.0-0.0-0.73","5f0fac152f7b751b09b4c384","619531dcf66c91622fa1b861","619595e6ab4d5bc273fe5330","null","","null","","","","","main_T1_ITI","","","","",""
"","","","","","visual-search-circle","161","360638","0.0-14.0-0.0-1.73","5f0fac152f7b751b09b4c384","619531dcf66c91622fa1b861","619595e6ab4d5bc273fe5330","2015.5999999940395","","d","true","[[564,440],[575,180],[378,10],[122,58],[0,288],[103,526],[355,594]]","true","7","main_T2_Trial","d","img/Fire_Up_Target.gif","[""img/Fire_Down_Distractor.gif"",""img/Fire_Down_Distractor.gif"",""img/Fire_Down_Distractor.gif"",""img/Fire_Down_Distractor.gif"",""img/Fire_Down_Distractor.gif"",""img/Fire_Down_Distractor.gif"",""img/Fire_Down_Distractor.gif"",""img/Fire_Down_Distractor.gif"",""img/Fire_Down_Distractor.gif"",""img/Fire_Down_Distractor.gif"",""img/Fire_Down_Distractor.gif"",""img/Fire_Down_Distractor.gif""]","7","targetUp_distractorsDown"
"","","","","","html-keyboard-response","162","360640","0.0-14.0-0.0-0.74","5f0fac152f7b751b09b4c384","619531dcf66c91622fa1b861","619595e6ab4d5bc273fe5330","null","","null","","","","","main_T1_ITI","","","","",""
"","","","","","visual-search-circle","163","362814","0.0-14.0-0.0-1.74","5f0fac152f7b751b09b4c384","619531dcf66c91622fa1b861","619595e6ab4d5bc273fe5330","1166.0999999940395","","s","true","[[232,7],[45,141],[7,367],[141,554],[367,592],[554,458],[592,232],[458,45]]","false","8","main_T2_Trial","s","img/Fire_Down_Target.gif","[""img/Fire_Up_Distractor.gif"",""img/Fire_Up_Distractor.gif"",""img/Fire_Up_Distractor.gif"",""img/Fire_Up_Distractor.gif"",""img/Fire_Up_Distractor.gif"",""img/Fire_Up_Distractor.gif"",""img/Fire_Up_Distractor.gif"",""img/Fire_Up_Distractor.gif"",""img/Fire_Up_Distractor.gif"",""img/Fire_Up_Distractor.gif"",""img/Fire_Up_Distractor.gif"",""img/Fire_Up_Distractor.gif""]","8","targetDown_distractorsUp"
"","","","","","html-keyboard-response","164","362816","0.0-14.0-0.0-0.75","5f0fac152f7b751b09b4c384","619531dcf66c91622fa1b861","619595e6ab4d5bc273fe5330","null","","null","","","","","main_T1_ITI","","","","",""
"","","","","","visual-search-circle","165","365357","0.0-14.0-0.0-1.75","5f0fac152f7b751b09b4c384","619531dcf66c91622fa1b861","619595e6ab4d5bc273fe5330","1533","","d","true","[[51,467],[242,594],[467,548],[594,357],[548,132],[357,5],[132,51],[5,242]]","true","8","main_T2_Trial","d","img/Fire_Down_Target.gif","[""img/Fire_Up_Distractor.gif"",""img/Fire_Up_Distractor.gif"",""img/Fire_Up_Distractor.gif"",""img/Fire_Up_Distractor.gif"",""img/Fire_Up_Distractor.gif"",""img/Fire_Up_Distractor.gif"",""img/Fire_Up_Distractor.gif"",""img/Fire_Up_Distractor.gif"",""img/Fire_Up_Distractor.gif"",""img/Fire_Up_Distractor.gif"",""img/Fire_Up_Distractor.gif"",""img/Fire_Up_Distractor.gif""]","8","targetDown_distractorsUp"
"","","","","","html-keyboard-response","166","365364","0.0-14.0-0.0-0.76","5f0fac152f7b751b09b4c384","619531dcf66c91622fa1b861","619595e6ab4d5bc273fe5330","null","","null","","","","","main_T1_ITI","","","","",""
"","","","","","visual-search-circle","167","367711","0.0-14.0-0.0-1.76","5f0fac152f7b751b09b4c384","619531dcf66c91622fa1b861","619595e6ab4d5bc273fe5330","1335.4000000059605","","s","true","[[99,522],[349,595],[562,446],[577,186],[384,12],[127,54],[0,282]]","false","7","main_T2_Trial","s","img/Fire_Up_Target.gif","[""img/Fire_Down_Distractor.gif"",""img/Fire_Down_Distractor.gif"",""img/Fire_Down_Distractor.gif"",""img/Fire_Down_Distractor.gif"",""img/Fire_Down_Distractor.gif"",""img/Fire_Down_Distractor.gif"",""img/Fire_Down_Distractor.gif"",""img/Fire_Down_Distractor.gif"",""img/Fire_Down_Distractor.gif"",""img/Fire_Down_Distractor.gif"",""img/Fire_Down_Distractor.gif"",""img/Fire_Down_Distractor.gif""]","7","targetUp_distractorsDown"
"","","","","","html-keyboard-response","168","367713","0.0-14.0-0.0-0.77","5f0fac152f7b751b09b4c384","619531dcf66c91622fa1b861","619595e6ab4d5bc273fe5330","null","","null","","","","","main_T1_ITI","","","","",""
"","","","","","visual-search-circle","169","369910","0.0-14.0-0.0-1.77","5f0fac152f7b751b09b4c384","619531dcf66c91622fa1b861","619595e6ab4d5bc273fe5330","1186.9000000059605","","d","true","[[145,42],[42,454],[454,557],[557,145]]","true","4","main_T2_Trial","d","img/Fire_Up_Target.gif","[""img/Fire_Down_Distractor.gif"",""img/Fire_Down_Distractor.gif"",""img/Fire_Down_Distractor.gif"",""img/Fire_Down_Distractor.gif"",""img/Fire_Down_Distractor.gif"",""img/Fire_Down_Distractor.gif"",""img/Fire_Down_Distractor.gif"",""img/Fire_Down_Distractor.gif"",""img/Fire_Down_Distractor.gif"",""img/Fire_Down_Distractor.gif"",""img/Fire_Down_Distractor.gif"",""img/Fire_Down_Distractor.gif""]","4","targetUp_distractorsDown"
"","","","","","html-keyboard-response","170","369912","0.0-14.0-0.0-0.78","5f0fac152f7b751b09b4c384","619531dcf66c91622fa1b861","619595e6ab4d5bc273fe5330","null","","null","","","","","main_T1_ITI","","","","",""
"","","","","","visual-search-circle","171","372281","0.0-14.0-0.0-1.78","5f0fac152f7b751b09b4c384","619531dcf66c91622fa1b861","619595e6ab4d5bc273fe5330","1364.8999999761581","","d","true","[[597,341],[484,63],[187,21],[2,258],[115,536],[412,578]]","true","6","main_T2_Trial","d","img/Fire_Up_Target.gif","[""img/Fire_Down_Distractor.gif"",""img/Fire_Down_Distractor.gif"",""img/Fire_Down_Distractor.gif"",""img/Fire_Down_Distractor.gif"",""img/Fire_Down_Distractor.gif"",""img/Fire_Down_Distractor.gif"",""img/Fire_Down_Distractor.gif"",""img/Fire_Down_Distractor.gif"",""img/Fire_Down_Distractor.gif"",""img/Fire_Down_Distractor.gif"",""img/Fire_Down_Distractor.gif"",""img/Fire_Down_Distractor.gif""]","6","targetUp_distractorsDown"
"","","","","","html-keyboard-response","172","395281","0.0-14.0-0.0-0.79","5f0fac152f7b751b09b4c384","619531dcf66c91622fa1b861","619595e6ab4d5bc273fe5330","22999.90000000596","Wow! You've completed 80 out of 160 trials! </p> <p>  </p><p> Take a quick break, then press any key when you're ready to continue."," ","","","","","main_T1_ITI","","","","",""
"","","","","","visual-search-circle","173","397526","0.0-14.0-0.0-1.79","5f0fac152f7b751b09b4c384","619531dcf66c91622fa1b861","619595e6ab4d5bc273fe5330","1228","","s","true","[[300,0],[65,112],[7,366],[169,570],[430,570],[592,366],[534,112]]","false","7","main_T2_Trial","s","img/Fire_Up_Target.gif","[""img/Fire_Down_Distractor.gif"",""img/Fire_Down_Distractor.gif"",""img/Fire_Down_Distractor.gif"",""img/Fire_Down_Distractor.gif"",""img/Fire_Down_Distractor.gif"",""img/Fire_Down_Distractor.gif"",""img/Fire_Down_Distractor.gif"",""img/Fire_Down_Distractor.gif"",""img/Fire_Down_Distractor.gif"",""img/Fire_Down_Distractor.gif"",""img/Fire_Down_Distractor.gif"",""img/Fire_Down_Distractor.gif""]","7","targetUp_distractorsDown"
"","","","","","html-keyboard-response","174","397530","0.0-14.0-0.0-0.80","5f0fac152f7b751b09b4c384","619531dcf66c91622fa1b861","619595e6ab4d5bc273fe5330","null","","null","","","","","main_T1_ITI","","","","",""
"","","","","","visual-search-circle","175","399372","0.0-14.0-0.0-1.80","5f0fac152f7b751b09b4c384","619531dcf66c91622fa1b861","619595e6ab4d5bc273fe5330","823.6999999880791","","d","true","[[66,488],[268,598],[488,533],[598,331],[533,111],[331,1],[111,66],[1,268]]","true","8","main_T2_Trial","d","img/Fire_Down_Target.gif","[""img/Fire_Up_Distractor.gif"",""img/Fire_Up_Distractor.gif"",""img/Fire_Up_Distractor.gif"",""img/Fire_Up_Distractor.gif"",""img/Fire_Up_Distractor.gif"",""img/Fire_Up_Distractor.gif"",""img/Fire_Up_Distractor.gif"",""img/Fire_Up_Distractor.gif"",""img/Fire_Up_Distractor.gif"",""img/Fire_Up_Distractor.gif"",""img/Fire_Up_Distractor.gif"",""img/Fire_Up_Distractor.gif""]","8","targetDown_distractorsUp"
"","","","","","html-keyboard-response","176","399374","0.0-14.0-0.0-0.81","5f0fac152f7b751b09b4c384","619531dcf66c91622fa1b861","619595e6ab4d5bc273fe5330","null","","null","","","","","main_T1_ITI","","","","",""
"","","","","","visual-search-circle","177","401171","0.0-14.0-0.0-1.81","5f0fac152f7b751b09b4c384","619531dcf66c91622fa1b861","619595e6ab4d5bc273fe5330","782.2999999821186","","d","true","[[589,222],[377,10],[87,87],[10,377],[222,589],[512,512]]","true","6","main_T2_Trial","d","img/Fire_Down_Target.gif","[""img/Fire_Up_Distractor.gif"",""img/Fire_Up_Distractor.gif"",""img/Fire_Up_Distractor.gif"",""img/Fire_Up_Distractor.gif"",""img/Fire_Up_Distractor.gif"",""img/Fire_Up_Distractor.gif"",""img/Fire_Up_Distractor.gif"",""img/Fire_Up_Distractor.gif"",""img/Fire_Up_Distractor.gif"",""img/Fire_Up_Distractor.gif"",""img/Fire_Up_Distractor.gif"",""img/Fire_Up_Distractor.gif""]","6","targetDown_distractorsUp"
"","","","","","html-keyboard-response","178","401173","0.0-14.0-0.0-0.82","5f0fac152f7b751b09b4c384","619531dcf66c91622fa1b861","619595e6ab4d5bc273fe5330","null","","null","","","","","main_T1_ITI","","","","",""
"","","","","","visual-search-circle","179","402833","0.0-14.0-0.0-1.82","5f0fac152f7b751b09b4c384","619531dcf66c91622fa1b861","619595e6ab4d5bc273fe5330","650.2999999821186","","d","true","[[168,30],[2,341],[247,595],[564,440],[515,91]]","true","5","main_T2_Trial","d","img/Fire_Up_Target.gif","[""img/Fire_Down_Distractor.gif"",""img/Fire_Down_Distractor.gif"",""img/Fire_Down_Distractor.gif"",""img/Fire_Down_Distractor.gif"",""img/Fire_Down_Distractor.gif"",""img/Fire_Down_Distractor.gif"",""img/Fire_Down_Distractor.gif"",""img/Fire_Down_Distractor.gif"",""img/Fire_Down_Distractor.gif"",""img/Fire_Down_Distractor.gif"",""img/Fire_Down_Distractor.gif"",""img/Fire_Down_Distractor.gif""]","5","targetUp_distractorsDown"
"","","","","","html-keyboard-response","180","402835","0.0-14.0-0.0-0.83","5f0fac152f7b751b09b4c384","619531dcf66c91622fa1b861","619595e6ab4d5bc273fe5330","null","","null","","","","","main_T1_ITI","","","","",""
"","","","","","visual-search-circle","181","404521","0.0-14.0-0.0-1.83","5f0fac152f7b751b09b4c384","619531dcf66c91622fa1b861","619595e6ab4d5bc273fe5330","676","","d","true","[[472,545],[595,352],[545,127],[352,4],[127,54],[4,247],[54,472],[247,595]]","true","8","main_T2_Trial","d","img/Fire_Down_Target.gif","[""img/Fire_Up_Distractor.gif"",""img/Fire_Up_Distractor.gif"",""img/Fire_Up_Distractor.gif"",""img/Fire_Up_Distractor.gif"",""img/Fire_Up_Distractor.gif"",""img/Fire_Up_Distractor.gif"",""img/Fire_Up_Distractor.gif"",""img/Fire_Up_Distractor.gif"",""img/Fire_Up_Distractor.gif"",""img/Fire_Up_Distractor.gif"",""img/Fire_Up_Distractor.gif"",""img/Fire_Up_Distractor.gif""]","8","targetDown_distractorsUp"
"","","","","","html-keyboard-response","182","404523","0.0-14.0-0.0-0.84","5f0fac152f7b751b09b4c384","619531dcf66c91622fa1b861","619595e6ab4d5bc273fe5330","null","","null","","","","","main_T1_ITI","","","","",""
"","","","","","visual-search-circle","183","406498","0.0-14.0-0.0-1.84","5f0fac152f7b751b09b4c384","619531dcf66c91622fa1b861","619595e6ab4d5bc273fe5330","971.3000000119209","","s","true","[[202,583],[431,569],[583,397],[569,168],[397,16],[168,30],[16,202],[30,431]]","false","8","main_T2_Trial","s","img/Fire_Up_Target.gif","[""img/Fire_Down_Distractor.gif"",""img/Fire_Down_Distractor.gif"",""img/Fire_Down_Distractor.gif"",""img/Fire_Down_Distractor.gif"",""img/Fire_Down_Distractor.gif"",""img/Fire_Down_Distractor.gif"",""img/Fire_Down_Distractor.gif"",""img/Fire_Down_Distractor.gif"",""img/Fire_Down_Distractor.gif"",""img/Fire_Down_Distractor.gif"",""img/Fire_Down_Distractor.gif"",""img/Fire_Down_Distractor.gif""]","8","targetUp_distractorsDown"
"","","","","","html-keyboard-response","184","406500","0.0-14.0-0.0-0.85","5f0fac152f7b751b09b4c384","619531dcf66c91622fa1b861","619595e6ab4d5bc273fe5330","null","","null","","","","","main_T1_ITI","","","","",""
"","","","","","visual-search-circle","185","408186","0.0-14.0-0.0-1.85","5f0fac152f7b751b09b4c384","619531dcf66c91622fa1b861","619595e6ab4d5bc273fe5330","674.6000000238419","","d","true","[[326,598],[529,492],[598,273],[492,70],[273,1],[70,107],[1,326],[107,529]]","true","8","main_T2_Trial","d","img/Fire_Up_Target.gif","[""img/Fire_Down_Distractor.gif"",""img/Fire_Down_Distractor.gif"",""img/Fire_Down_Distractor.gif"",""img/Fire_Down_Distractor.gif"",""img/Fire_Down_Distractor.gif"",""img/Fire_Down_Distractor.gif"",""img/Fire_Down_Distractor.gif"",""img/Fire_Down_Distractor.gif"",""img/Fire_Down_Distractor.gif"",""img/Fire_Down_Distractor.gif"",""img/Fire_Down_Distractor.gif"",""img/Fire_Down_Distractor.gif""]","8","targetUp_distractorsDown"
"","","","","","html-keyboard-response","186","408188","0.0-14.0-0.0-0.86","5f0fac152f7b751b09b4c384","619531dcf66c91622fa1b861","619595e6ab4d5bc273fe5330","null","","null","","","","","main_T1_ITI","","","","",""
"","","","","","visual-search-circle","187","410122","0.0-14.0-0.0-1.86","5f0fac152f7b751b09b4c384","619531dcf66c91622fa1b861","619595e6ab4d5bc273fe5330","919.1999999880791","","d","true","[[19,407],[253,596],[533,488],[580,192],[346,3],[66,111]]","true","6","main_T2_Trial","d","img/Fire_Down_Target.gif","[""img/Fire_Up_Distractor.gif"",""img/Fire_Up_Distractor.gif"",""img/Fire_Up_Distractor.gif"",""img/Fire_Up_Distractor.gif"",""img/Fire_Up_Distractor.gif"",""img/Fire_Up_Distractor.gif"",""img/Fire_Up_Distractor.gif"",""img/Fire_Up_Distractor.gif"",""img/Fire_Up_Distractor.gif"",""img/Fire_Up_Distractor.gif"",""img/Fire_Up_Distractor.gif"",""img/Fire_Up_Distractor.gif""]","6","targetDown_distractorsUp"
"","","","","","html-keyboard-response","188","410123","0.0-14.0-0.0-0.87","5f0fac152f7b751b09b4c384","619531dcf66c91622fa1b861","619595e6ab4d5bc273fe5330","null","","null","","","","","main_T1_ITI","","","","",""
"","","","","","visual-search-circle","189","413718","0.0-14.0-0.0-1.87","5f0fac152f7b751b09b4c384","619531dcf66c91622fa1b861","619595e6ab4d5bc273fe5330","2592","","d","true","[[0,305],[154,562],[454,557],[599,294],[445,37],[145,42]]","true","6","main_T2_Trial","d","img/Fire_Down_Target.gif","[""img/Fire_Up_Distractor.gif"",""img/Fire_Up_Distractor.gif"",""img/Fire_Up_Distractor.gif"",""img/Fire_Up_Distractor.gif"",""img/Fire_Up_Distractor.gif"",""img/Fire_Up_Distractor.gif"",""img/Fire_Up_Distractor.gif"",""img/Fire_Up_Distractor.gif"",""img/Fire_Up_Distractor.gif"",""img/Fire_Up_Distractor.gif"",""img/Fire_Up_Distractor.gif"",""img/Fire_Up_Distractor.gif""]","6","targetDown_distractorsUp"
"","","","","","html-keyboard-response","190","413720","0.0-14.0-0.0-0.88","5f0fac152f7b751b09b4c384","619531dcf66c91622fa1b861","619595e6ab4d5bc273fe5330","null","","null","","","","","main_T1_ITI","","","","",""
"","","","","","visual-search-circle","191","415496","0.0-14.0-0.0-1.88","5f0fac152f7b751b09b4c384","619531dcf66c91622fa1b861","619595e6ab4d5bc273fe5330","763.3999999761581","","d","true","[[377,10],[48,136],[66,488],[407,580],[599,284]]","true","5","main_T2_Trial","d","img/Fire_Up_Target.gif","[""img/Fire_Down_Distractor.gif"",""img/Fire_Down_Distractor.gif"",""img/Fire_Down_Distractor.gif"",""img/Fire_Down_Distractor.gif"",""img/Fire_Down_Distractor.gif"",""img/Fire_Down_Distractor.gif"",""img/Fire_Down_Distractor.gif"",""img/Fire_Down_Distractor.gif"",""img/Fire_Down_Distractor.gif"",""img/Fire_Down_Distractor.gif"",""img/Fire_Down_Distractor.gif"",""img/Fire_Down_Distractor.gif""]","5","targetUp_distractorsDown"
"","","","","","html-keyboard-response","192","415497","0.0-14.0-0.0-0.89","5f0fac152f7b751b09b4c384","619531dcf66c91622fa1b861","619595e6ab4d5bc273fe5330","null","","null","","","","","main_T1_ITI","","","","",""
"","","","","","visual-search-circle","193","417365","0.0-14.0-0.0-1.89","5f0fac152f7b751b09b4c384","619531dcf66c91622fa1b861","619595e6ab4d5bc273fe5330","865.1999999880791","","d","true","[[1,331],[177,574],[476,542],[598,268],[422,25],[123,57]]","true","6","main_T2_Trial","d","img/Fire_Up_Target.gif","[""img/Fire_Down_Distractor.gif"",""img/Fire_Down_Distractor.gif"",""img/Fire_Down_Distractor.gif"",""img/Fire_Down_Distractor.gif"",""img/Fire_Down_Distractor.gif"",""img/Fire_Down_Distractor.gif"",""img/Fire_Down_Distractor.gif"",""img/Fire_Down_Distractor.gif"",""img/Fire_Down_Distractor.gif"",""img/Fire_Down_Distractor.gif"",""img/Fire_Down_Distractor.gif"",""img/Fire_Down_Distractor.gif""]","6","targetUp_distractorsDown"
"","","","","","html-keyboard-response","194","417368","0.0-14.0-0.0-0.90","5f0fac152f7b751b09b4c384","619531dcf66c91622fa1b861","619595e6ab4d5bc273fe5330","null","","null","","","","","main_T1_ITI","","","","",""
"","","","","","visual-search-circle","195","421411","0.0-14.0-0.0-1.90","5f0fac152f7b751b09b4c384","619531dcf66c91622fa1b861","619595e6ab4d5bc273fe5330","3034.199999988079","","s","false","[[571,426],[426,28],[28,173],[173,571]]","true","4","main_T2_Trial","d","img/Fire_Up_Target.gif","[""img/Fire_Down_Distractor.gif"",""img/Fire_Down_Distractor.gif"",""img/Fire_Down_Distractor.gif"",""img/Fire_Down_Distractor.gif"",""img/Fire_Down_Distractor.gif"",""img/Fire_Down_Distractor.gif"",""img/Fire_Down_Distractor.gif"",""img/Fire_Down_Distractor.gif"",""img/Fire_Down_Distractor.gif"",""img/Fire_Down_Distractor.gif"",""img/Fire_Down_Distractor.gif"",""img/Fire_Down_Distractor.gif""]","4","targetUp_distractorsDown"
"","","","","","html-keyboard-response","196","421413","0.0-14.0-0.0-0.91","5f0fac152f7b751b09b4c384","619531dcf66c91622fa1b861","619595e6ab4d5bc273fe5330","null","","null","","","","","main_T1_ITI","","","","",""
"","","","","","visual-search-circle","197","423754","0.0-14.0-0.0-1.91","5f0fac152f7b751b09b4c384","619531dcf66c91622fa1b861","619595e6ab4d5bc273fe5330","1331.5999999940395","","s","false","[[581,197],[395,15],[137,47],[1,270],[90,514],[337,597],[555,456]]","true","7","main_T2_Trial","d","img/Fire_Down_Target.gif","[""img/Fire_Up_Distractor.gif"",""img/Fire_Up_Distractor.gif"",""img/Fire_Up_Distractor.gif"",""img/Fire_Up_Distractor.gif"",""img/Fire_Up_Distractor.gif"",""img/Fire_Up_Distractor.gif"",""img/Fire_Up_Distractor.gif"",""img/Fire_Up_Distractor.gif"",""img/Fire_Up_Distractor.gif"",""img/Fire_Up_Distractor.gif"",""img/Fire_Up_Distractor.gif"",""img/Fire_Up_Distractor.gif""]","7","targetDown_distractorsUp"
"","","","","","html-keyboard-response","198","423756","0.0-14.0-0.0-0.92","5f0fac152f7b751b09b4c384","619531dcf66c91622fa1b861","619595e6ab4d5bc273fe5330","null","","null","","","","","main_T1_ITI","","","","",""
"","","","","","visual-search-circle","199","425905","0.0-14.0-0.0-1.92","5f0fac152f7b751b09b4c384","619531dcf66c91622fa1b861","619595e6ab4d5bc273fe5330","1145.6000000238419","","s","true","[[91,515],[338,597],[556,455],[581,195],[394,15],[135,48],[1,271]]","false","7","main_T2_Trial","s","img/Fire_Down_Target.gif","[""img/Fire_Up_Distractor.gif"",""img/Fire_Up_Distractor.gif"",""img/Fire_Up_Distractor.gif"",""img/Fire_Up_Distractor.gif"",""img/Fire_Up_Distractor.gif"",""img/Fire_Up_Distractor.gif"",""img/Fire_Up_Distractor.gif"",""img/Fire_Up_Distractor.gif"",""img/Fire_Up_Distractor.gif"",""img/Fire_Up_Distractor.gif"",""img/Fire_Up_Distractor.gif"",""img/Fire_Up_Distractor.gif""]","7","targetDown_distractorsUp"
"","","","","","html-keyboard-response","200","425907","0.0-14.0-0.0-0.93","5f0fac152f7b751b09b4c384","619531dcf66c91622fa1b861","619595e6ab4d5bc273fe5330","null","","null","","","","","main_T1_ITI","","","","",""
"","","","","","visual-search-circle","201","428114","0.0-14.0-0.0-1.93","5f0fac152f7b751b09b4c384","619531dcf66c91622fa1b861","619595e6ab4d5bc273fe5330","1196.800000011921","","s","true","[[32,436],[346,596],[596,346],[436,32],[87,87]]","false","5","main_T2_Trial","s","img/Fire_Up_Target.gif","[""img/Fire_Down_Distractor.gif"",""img/Fire_Down_Distractor.gif"",""img/Fire_Down_Distractor.gif"",""img/Fire_Down_Distractor.gif"",""img/Fire_Down_Distractor.gif"",""img/Fire_Down_Distractor.gif"",""img/Fire_Down_Distractor.gif"",""img/Fire_Down_Distractor.gif"",""img/Fire_Down_Distractor.gif"",""img/Fire_Down_Distractor.gif"",""img/Fire_Down_Distractor.gif"",""img/Fire_Down_Distractor.gif""]","5","targetUp_distractorsDown"
"","","","","","html-keyboard-response","202","428117","0.0-14.0-0.0-0.94","5f0fac152f7b751b09b4c384","619531dcf66c91622fa1b861","619595e6ab4d5bc273fe5330","null","","null","","","","","main_T1_ITI","","","","",""
"","","","","","visual-search-circle","203","429846","0.0-14.0-0.0-1.94","5f0fac152f7b751b09b4c384","619531dcf66c91622fa1b861","619595e6ab4d5bc273fe5330","719.0999999940395","","d","true","[[542,123],[346,3],[123,57],[3,253],[57,476],[253,596],[476,542],[596,346]]","true","8","main_T2_Trial","d","img/Fire_Up_Target.gif","[""img/Fire_Down_Distractor.gif"",""img/Fire_Down_Distractor.gif"",""img/Fire_Down_Distractor.gif"",""img/Fire_Down_Distractor.gif"",""img/Fire_Down_Distractor.gif"",""img/Fire_Down_Distractor.gif"",""img/Fire_Down_Distractor.gif"",""img/Fire_Down_Distractor.gif"",""img/Fire_Down_Distractor.gif"",""img/Fire_Down_Distractor.gif"",""img/Fire_Down_Distractor.gif"",""img/Fire_Down_Distractor.gif""]","8","targetUp_distractorsDown"
"","","","","","html-keyboard-response","204","429848","0.0-14.0-0.0-0.95","5f0fac152f7b751b09b4c384","619531dcf66c91622fa1b861","619595e6ab4d5bc273fe5330","null","","null","","","","","main_T1_ITI","","","","",""
"","","","","","visual-search-circle","205","432263","0.0-14.0-0.0-1.95","5f0fac152f7b751b09b4c384","619531dcf66c91622fa1b861","619595e6ab4d5bc273fe5330","1401.699999988079","","d","true","[[57,476],[476,542],[542,123],[123,57]]","true","4","main_T2_Trial","d","img/Fire_Up_Target.gif","[""img/Fire_Down_Distractor.gif"",""img/Fire_Down_Distractor.gif"",""img/Fire_Down_Distractor.gif"",""img/Fire_Down_Distractor.gif"",""img/Fire_Down_Distractor.gif"",""img/Fire_Down_Distractor.gif"",""img/Fire_Down_Distractor.gif"",""img/Fire_Down_Distractor.gif"",""img/Fire_Down_Distractor.gif"",""img/Fire_Down_Distractor.gif"",""img/Fire_Down_Distractor.gif"",""img/Fire_Down_Distractor.gif""]","4","targetUp_distractorsDown"
"","","","","","html-keyboard-response","206","432265","0.0-14.0-0.0-0.96","5f0fac152f7b751b09b4c384","619531dcf66c91622fa1b861","619595e6ab4d5bc273fe5330","null","","null","","","","","main_T1_ITI","","","","",""
"","","","","","visual-search-circle","207","434453","0.0-14.0-0.0-1.96","5f0fac152f7b751b09b4c384","619531dcf66c91622fa1b861","619595e6ab4d5bc273fe5330","1179.9000000059605","","s","true","[[57,123],[10,379],[182,575],[442,564],[595,353],[525,102],[286,0]]","false","7","main_T2_Trial","s","img/Fire_Down_Target.gif","[""img/Fire_Up_Distractor.gif"",""img/Fire_Up_Distractor.gif"",""img/Fire_Up_Distractor.gif"",""img/Fire_Up_Distractor.gif"",""img/Fire_Up_Distractor.gif"",""img/Fire_Up_Distractor.gif"",""img/Fire_Up_Distractor.gif"",""img/Fire_Up_Distractor.gif"",""img/Fire_Up_Distractor.gif"",""img/Fire_Up_Distractor.gif"",""img/Fire_Up_Distractor.gif"",""img/Fire_Up_Distractor.gif""]","7","targetDown_distractorsUp"
"","","","","","html-keyboard-response","208","434455","0.0-14.0-0.0-0.97","5f0fac152f7b751b09b4c384","619531dcf66c91622fa1b861","619595e6ab4d5bc273fe5330","null","","null","","","","","main_T1_ITI","","","","",""
"","","","","","visual-search-circle","209","440033","0.0-14.0-0.0-1.97","5f0fac152f7b751b09b4c384","619531dcf66c91622fa1b861","619595e6ab4d5bc273fe5330","4564.5999999940395","","s","false","[[177,574],[438,566],[594,357],[528,106],[291,0],[59,120],[9,375]]","true","7","main_T2_Trial","d","img/Fire_Down_Target.gif","[""img/Fire_Up_Distractor.gif"",""img/Fire_Up_Distractor.gif"",""img/Fire_Up_Distractor.gif"",""img/Fire_Up_Distractor.gif"",""img/Fire_Up_Distractor.gif"",""img/Fire_Up_Distractor.gif"",""img/Fire_Up_Distractor.gif"",""img/Fire_Up_Distractor.gif"",""img/Fire_Up_Distractor.gif"",""img/Fire_Up_Distractor.gif"",""img/Fire_Up_Distractor.gif"",""img/Fire_Up_Distractor.gif""]","7","targetDown_distractorsUp"
"","","","","","html-keyboard-response","210","440036","0.0-14.0-0.0-0.98","5f0fac152f7b751b09b4c384","619531dcf66c91622fa1b861","619595e6ab4d5bc273fe5330","null","","null","","","","","main_T1_ITI","","","","",""
"","","","","","visual-search-circle","211","442927","0.0-14.0-0.0-1.98","5f0fac152f7b751b09b4c384","619531dcf66c91622fa1b861","619595e6ab4d5bc273fe5330","1876.0999999940395","","d","true","[[19,192],[192,580],[580,407],[407,19]]","true","4","main_T2_Trial","d","img/Fire_Up_Target.gif","[""img/Fire_Down_Distractor.gif"",""img/Fire_Down_Distractor.gif"",""img/Fire_Down_Distractor.gif"",""img/Fire_Down_Distractor.gif"",""img/Fire_Down_Distractor.gif"",""img/Fire_Down_Distractor.gif"",""img/Fire_Down_Distractor.gif"",""img/Fire_Down_Distractor.gif"",""img/Fire_Down_Distractor.gif"",""img/Fire_Down_Distractor.gif"",""img/Fire_Down_Distractor.gif"",""img/Fire_Down_Distractor.gif""]","4","targetUp_distractorsDown"
"","","","","","html-keyboard-response","212","443998","0.0-14.0-0.0-0.99","5f0fac152f7b751b09b4c384","619531dcf66c91622fa1b861","619595e6ab4d5bc273fe5330","1070.699999988079","Wow! You've completed 100 out of 160 trials! </p> <p>  </p><p> Take a quick break, then press any key when you're ready to continue."," ","","","","","main_T1_ITI","","","","",""
"","","","","","visual-search-circle","213","445741","0.0-14.0-0.0-1.99","5f0fac152f7b751b09b4c384","619531dcf66c91622fa1b861","619595e6ab4d5bc273fe5330","733.7999999821186","","d","true","[[0,284],[77,500],[284,599],[500,522],[599,315],[522,99],[315,0],[99,77]]","true","8","main_T2_Trial","d","img/Fire_Down_Target.gif","[""img/Fire_Up_Distractor.gif"",""img/Fire_Up_Distractor.gif"",""img/Fire_Up_Distractor.gif"",""img/Fire_Up_Distractor.gif"",""img/Fire_Up_Distractor.gif"",""img/Fire_Up_Distractor.gif"",""img/Fire_Up_Distractor.gif"",""img/Fire_Up_Distractor.gif"",""img/Fire_Up_Distractor.gif"",""img/Fire_Up_Distractor.gif"",""img/Fire_Up_Distractor.gif"",""img/Fire_Up_Distractor.gif""]","8","targetDown_distractorsUp"
"","","","","","html-keyboard-response","214","445743","0.0-14.0-0.0-0.100","5f0fac152f7b751b09b4c384","619531dcf66c91622fa1b861","619595e6ab4d5bc273fe5330","null","","null","","","","","main_T1_ITI","","","","",""
"","","","","","visual-search-circle","215","447959","0.0-14.0-0.0-1.100","5f0fac152f7b751b09b4c384","619531dcf66c91622fa1b861","619595e6ab4d5bc273fe5330","1200.2000000178814","","d","true","[[504,519],[592,232],[387,13],[95,80],[7,367],[212,586]]","true","6","main_T2_Trial","d","img/Fire_Up_Target.gif","[""img/Fire_Down_Distractor.gif"",""img/Fire_Down_Distractor.gif"",""img/Fire_Down_Distractor.gif"",""img/Fire_Down_Distractor.gif"",""img/Fire_Down_Distractor.gif"",""img/Fire_Down_Distractor.gif"",""img/Fire_Down_Distractor.gif"",""img/Fire_Down_Distractor.gif"",""img/Fire_Down_Distractor.gif"",""img/Fire_Down_Distractor.gif"",""img/Fire_Down_Distractor.gif"",""img/Fire_Down_Distractor.gif""]","6","targetUp_distractorsDown"
