"success","timeout","failed_images","failed_audio","failed_video","trial_type","trial_index","time_elapsed","internal_node_id","subject_id","study_id","session_id","rt","stimulus","response","correct","locations","target_present","set_size","task","correct_response","target","foilCM","setSizeCM","searchCondition"
"true","false","[]","[]","[]","preload","0","6337","0.0-0.0","5f14cff323b6b655cbc821c3","619531dcf66c91622fa1b861","619595b69a6ee8c18f053d30","","","","","","","","","","","","",""
"true","","","","","fullscreen","1","9823","0.0-1.0","5f14cff323b6b655cbc821c3","619531dcf66c91622fa1b861","619595b69a6ee8c18f053d30","","","","","","","","","","","","",""
"","","","","","html-keyboard-response","2","18597","0.0-2.0","5f14cff323b6b655cbc821c3","619531dcf66c91622fa1b861","619595b69a6ee8c18f053d30","8771.79999999702","What a beautiful Wednesday to do some awesome science! </p> <p>  </p><p> </p>
    By completing this survey or questionnaire, you are consenting to be in this research study. </p>
    Your participation is voluntary and you can stop at any time.
    <p> [Press any key to continue.] </p>
    
    "," ","","","","","","","","","",""
"","","","","","video-keyboard-response","3","54875","0.0-3.0","5f14cff323b6b655cbc821c3","619531dcf66c91622fa1b861","619595b69a6ee8c18f053d30","36270.70000000298","[""video/TaskInstructions.mp4""]","d","","","","","","","","","",""
"","","","","","html-keyboard-response","4","57128","0.0-4.0","5f14cff323b6b655cbc821c3","619531dcf66c91622fa1b861","619595b69a6ee8c18f053d30","2252.0999999940395","
    <p>First, we're going to do a few practice trials to make sure you understand the task. You will recieve feedback on each trial. </p>
    <p>[Press any key to begin the familiarization phase.]</p>
    ","s","","","","","","","","","",""
"","","","","","visual-search-circle","5","60963","0.0-5.0-0.0","5f14cff323b6b655cbc821c3","619531dcf66c91622fa1b861","619595b69a6ee8c18f053d30","2769.7999999970198","","d","true","[[45,141],[141,554],[554,458],[458,45]]","true","4","training","d","","","",""
"","","","","","html-keyboard-response","6","63140","0.0-6.0","5f14cff323b6b655cbc821c3","619531dcf66c91622fa1b861","619595b69a6ee8c18f053d30","2175.5"," <div style='float: center; '><img src='img/feedbackRight.png'></img> </div> "," ","","","","","","","","","",""
"","","","","","visual-search-circle","7","65154","0.0-7.0-0.0","5f14cff323b6b655cbc821c3","619531dcf66c91622fa1b861","619595b69a6ee8c18f053d30","1003.7000000029802","","s","true","[[154,562],[562,445],[445,37],[37,154]]","false","4","training","s","","","",""
"","","","","","html-keyboard-response","8","66178","0.0-8.0","5f14cff323b6b655cbc821c3","619531dcf66c91622fa1b861","619595b69a6ee8c18f053d30","1022.7999999970198"," <div style='float: center; '><img src='img/feedbackRight.png'></img> </div> "," ","","","","","","","","","",""
"","","","","","visual-search-circle","9","69218","0.0-9.0-0.0","5f14cff323b6b655cbc821c3","619531dcf66c91622fa1b861","619595b69a6ee8c18f053d30","2029.4000000059605","","s","true","[[263,597],[539,480],[576,182],[336,2],[60,119],[23,417]]","false","6","training","s","","","",""
"","","","","","html-keyboard-response","10","69794","0.0-10.0","5f14cff323b6b655cbc821c3","619531dcf66c91622fa1b861","619595b69a6ee8c18f053d30","574.6000000089407"," <div style='float: center; '><img src='img/feedbackRight.png'></img> </div> "," ","","","","","","","","","",""
"","","","","","visual-search-circle","11","71953","0.0-11.0-0.0","5f14cff323b6b655cbc821c3","619531dcf66c91622fa1b861","619595b69a6ee8c18f053d30","1143.2000000029802","","d","true","[[310,0],[95,80],[0,289],[80,504],[289,599],[504,519],[599,310],[519,95]]","true","8","training","d","","","",""
"","","","","","html-keyboard-response","12","72783","0.0-12.0","5f14cff323b6b655cbc821c3","619531dcf66c91622fa1b861","619595b69a6ee8c18f053d30","829.5"," <div style='float: center; '><img src='img/feedbackRight.png'></img> </div> "," ","","","","","","","","","",""
"","","","","","video-keyboard-response","13","78290","0.0-13.0","5f14cff323b6b655cbc821c3","619531dcf66c91622fa1b861","619595b69a6ee8c18f053d30","5504.100000008941","[""video/endTraining.mp4""]","s","","","","","","","","","",""
"","","","","","html-keyboard-response","14","78292","0.0-14.0-0.0-0.0","5f14cff323b6b655cbc821c3","619531dcf66c91622fa1b861","619595b69a6ee8c18f053d30","null","","null","","","","","main_T1_ITI","","","","",""
"","","","","","visual-search-circle","15","82371","0.0-14.0-0.0-1.0","5f14cff323b6b655cbc821c3","619531dcf66c91622fa1b861","619595b69a6ee8c18f053d30","3069.2999999970198","","d","false","[[377,10],[48,136],[66,488],[407,580],[599,284]]","false","5","main_T2_Trial","s","img/Fire_Up_Target.gif","[""img/Fire_Down_Distractor.gif"",""img/Fire_Down_Distractor.gif"",""img/Fire_Down_Distractor.gif"",""img/Fire_Down_Distractor.gif"",""img/Fire_Down_Distractor.gif"",""img/Fire_Down_Distractor.gif"",""img/Fire_Down_Distractor.gif"",""img/Fire_Down_Distractor.gif"",""img/Fire_Down_Distractor.gif"",""img/Fire_Down_Distractor.gif"",""img/Fire_Down_Distractor.gif"",""img/Fire_Down_Distractor.gif""]","5","targetUp_distractorsDown"
"","","","","","html-keyboard-response","16","82375","0.0-14.0-0.0-0.1","5f14cff323b6b655cbc821c3","619531dcf66c91622fa1b861","619595b69a6ee8c18f053d30","null","","null","","","","","main_T1_ITI","","","","",""
"","","","","","visual-search-circle","17","86589","0.0-14.0-0.0-1.1","5f14cff323b6b655cbc821c3","619531dcf66c91622fa1b861","619595b69a6ee8c18f053d30","3205.2999999970198","","s","true","[[149,559],[409,579],[586,388],[547,131],[322,0],[80,95],[3,344]]","false","7","main_T2_Trial","s","img/Fire_Up_Target.gif","[""img/Fire_Down_Distractor.gif"",""img/Fire_Down_Distractor.gif"",""img/Fire_Down_Distractor.gif"",""img/Fire_Down_Distractor.gif"",""img/Fire_Down_Distractor.gif"",""img/Fire_Down_Distractor.gif"",""img/Fire_Down_Distractor.gif"",""img/Fire_Down_Distractor.gif"",""img/Fire_Down_Distractor.gif"",""img/Fire_Down_Distractor.gif"",""img/Fire_Down_Distractor.gif"",""img/Fire_Down_Distractor.gif""]","7","targetUp_distractorsDown"
"","","","","","html-keyboard-response","18","86591","0.0-14.0-0.0-0.2","5f14cff323b6b655cbc821c3","619531dcf66c91622fa1b861","619595b69a6ee8c18f053d30","null","","null","","","","","main_T1_ITI","","","","",""
"","","","","","visual-search-circle","19","88769","0.0-14.0-0.0-1.2","5f14cff323b6b655cbc821c3","619531dcf66c91622fa1b861","619595b69a6ee8c18f053d30","1167.9000000059605","","d","true","[[450,559],[589,377],[559,150],[377,10],[150,40],[10,222],[40,449],[222,589]]","true","8","main_T2_Trial","d","img/Fire_Down_Target.gif","[""img/Fire_Up_Distractor.gif"",""img/Fire_Up_Distractor.gif"",""img/Fire_Up_Distractor.gif"",""img/Fire_Up_Distractor.gif"",""img/Fire_Up_Distractor.gif"",""img/Fire_Up_Distractor.gif"",""img/Fire_Up_Distractor.gif"",""img/Fire_Up_Distractor.gif"",""img/Fire_Up_Distractor.gif"",""img/Fire_Up_Distractor.gif"",""img/Fire_Up_Distractor.gif"",""img/Fire_Up_Distractor.gif""]","8","targetDown_distractorsUp"
"","","","","","html-keyboard-response","20","88778","0.0-14.0-0.0-0.3","5f14cff323b6b655cbc821c3","619531dcf66c91622fa1b861","619595b69a6ee8c18f053d30","null","","null","","","","","main_T1_ITI","","","","",""
"","","","","","visual-search-circle","21","90850","0.0-14.0-0.0-1.3","5f14cff323b6b655cbc821c3","619531dcf66c91622fa1b861","619595b69a6ee8c18f053d30","1056.5","","s","true","[[562,445],[577,185],[383,11],[126,55],[0,282],[99,523],[349,595]]","false","7","main_T2_Trial","s","img/Fire_Down_Target.gif","[""img/Fire_Up_Distractor.gif"",""img/Fire_Up_Distractor.gif"",""img/Fire_Up_Distractor.gif"",""img/Fire_Up_Distractor.gif"",""img/Fire_Up_Distractor.gif"",""img/Fire_Up_Distractor.gif"",""img/Fire_Up_Distractor.gif"",""img/Fire_Up_Distractor.gif"",""img/Fire_Up_Distractor.gif"",""img/Fire_Up_Distractor.gif"",""img/Fire_Up_Distractor.gif"",""img/Fire_Up_Distractor.gif""]","7","targetDown_distractorsUp"
"","","","","","html-keyboard-response","22","90857","0.0-14.0-0.0-0.4","5f14cff323b6b655cbc821c3","619531dcf66c91622fa1b861","619595b69a6ee8c18f053d30","null","","null","","","","","main_T1_ITI","","","","",""
"","","","","","visual-search-circle","23","94082","0.0-14.0-0.0-1.4","5f14cff323b6b655cbc821c3","619531dcf66c91622fa1b861","619595b69a6ee8c18f053d30","2219.3999999910593","","s","true","[[536,484],[484,63],[63,115],[115,536]]","false","4","main_T2_Trial","s","img/Fire_Up_Target.gif","[""img/Fire_Down_Distractor.gif"",""img/Fire_Down_Distractor.gif"",""img/Fire_Down_Distractor.gif"",""img/Fire_Down_Distractor.gif"",""img/Fire_Down_Distractor.gif"",""img/Fire_Down_Distractor.gif"",""img/Fire_Down_Distractor.gif"",""img/Fire_Down_Distractor.gif"",""img/Fire_Down_Distractor.gif"",""img/Fire_Down_Distractor.gif"",""img/Fire_Down_Distractor.gif"",""img/Fire_Down_Distractor.gif""]","4","targetUp_distractorsDown"
"","","","","","html-keyboard-response","24","94084","0.0-14.0-0.0-0.5","5f14cff323b6b655cbc821c3","619531dcf66c91622fa1b861","619595b69a6ee8c18f053d30","null","","null","","","","","main_T1_ITI","","","","",""
"","","","","","visual-search-circle","25","104109","0.0-14.0-0.0-1.5","5f14cff323b6b655cbc821c3","619531dcf66c91622fa1b861","619595b69a6ee8c18f053d30","9011.59999999404","","s","true","[[407,19],[111,66],[3,346],[192,580],[488,533],[596,253]]","false","6","main_T2_Trial","s","img/Fire_Up_Target.gif","[""img/Fire_Down_Distractor.gif"",""img/Fire_Down_Distractor.gif"",""img/Fire_Down_Distractor.gif"",""img/Fire_Down_Distractor.gif"",""img/Fire_Down_Distractor.gif"",""img/Fire_Down_Distractor.gif"",""img/Fire_Down_Distractor.gif"",""img/Fire_Down_Distractor.gif"",""img/Fire_Down_Distractor.gif"",""img/Fire_Down_Distractor.gif"",""img/Fire_Down_Distractor.gif"",""img/Fire_Down_Distractor.gif""]","6","targetUp_distractorsDown"
"","","","","","html-keyboard-response","26","104116","0.0-14.0-0.0-0.6","5f14cff323b6b655cbc821c3","619531dcf66c91622fa1b861","619595b69a6ee8c18f053d30","null","","null","","","","","main_T1_ITI","","","","",""
"","","","","","visual-search-circle","27","106657","0.0-14.0-0.0-1.6","5f14cff323b6b655cbc821c3","619531dcf66c91622fa1b861","619595b69a6ee8c18f053d30","1533.3999999910593","","s","true","[[599,289],[382,11],[51,132],[63,484],[402,581]]","false","5","main_T2_Trial","s","img/Fire_Up_Target.gif","[""img/Fire_Down_Distractor.gif"",""img/Fire_Down_Distractor.gif"",""img/Fire_Down_Distractor.gif"",""img/Fire_Down_Distractor.gif"",""img/Fire_Down_Distractor.gif"",""img/Fire_Down_Distractor.gif"",""img/Fire_Down_Distractor.gif"",""img/Fire_Down_Distractor.gif"",""img/Fire_Down_Distractor.gif"",""img/Fire_Down_Distractor.gif"",""img/Fire_Down_Distractor.gif"",""img/Fire_Down_Distractor.gif""]","5","targetUp_distractorsDown"
"","","","","","html-keyboard-response","28","106662","0.0-14.0-0.0-0.7","5f14cff323b6b655cbc821c3","619531dcf66c91622fa1b861","619595b69a6ee8c18f053d30","null","","null","","","","","main_T1_ITI","","","","",""
"","","","","","visual-search-circle","29","112759","0.0-14.0-0.0-1.7","5f14cff323b6b655cbc821c3","619531dcf66c91622fa1b861","619595b69a6ee8c18f053d30","5084.29999999702","","s","true","[[60,119],[9,374],[177,573],[437,566],[594,358],[529,106],[291,0]]","false","7","main_T2_Trial","s","img/Fire_Down_Target.gif","[""img/Fire_Up_Distractor.gif"",""img/Fire_Up_Distractor.gif"",""img/Fire_Up_Distractor.gif"",""img/Fire_Up_Distractor.gif"",""img/Fire_Up_Distractor.gif"",""img/Fire_Up_Distractor.gif"",""img/Fire_Up_Distractor.gif"",""img/Fire_Up_Distractor.gif"",""img/Fire_Up_Distractor.gif"",""img/Fire_Up_Distractor.gif"",""img/Fire_Up_Distractor.gif"",""img/Fire_Up_Distractor.gif""]","7","targetDown_distractorsUp"
"","","","","","html-keyboard-response","30","112767","0.0-14.0-0.0-0.8","5f14cff323b6b655cbc821c3","619531dcf66c91622fa1b861","619595b69a6ee8c18f053d30","null","","null","","","","","main_T1_ITI","","","","",""
"","","","","","visual-search-circle","31","115962","0.0-14.0-0.0-1.8","5f14cff323b6b655cbc821c3","619531dcf66c91622fa1b861","619595b69a6ee8c18f053d30","2188.8999999910593","","d","true","[[336,2],[2,263],[263,597],[597,336]]","true","4","main_T2_Trial","d","img/Fire_Up_Target.gif","[""img/Fire_Down_Distractor.gif"",""img/Fire_Down_Distractor.gif"",""img/Fire_Down_Distractor.gif"",""img/Fire_Down_Distractor.gif"",""img/Fire_Down_Distractor.gif"",""img/Fire_Down_Distractor.gif"",""img/Fire_Down_Distractor.gif"",""img/Fire_Down_Distractor.gif"",""img/Fire_Down_Distractor.gif"",""img/Fire_Down_Distractor.gif"",""img/Fire_Down_Distractor.gif"",""img/Fire_Down_Distractor.gif""]","4","targetUp_distractorsDown"
"","","","","","html-keyboard-response","32","115964","0.0-14.0-0.0-0.9","5f14cff323b6b655cbc821c3","619531dcf66c91622fa1b861","619595b69a6ee8c18f053d30","null","","null","","","","","main_T1_ITI","","","","",""
"","","","","","visual-search-circle","33","118372","0.0-14.0-0.0-1.9","5f14cff323b6b655cbc821c3","619531dcf66c91622fa1b861","619595b69a6ee8c18f053d30","1399","","s","true","[[51,132],[132,548],[548,467],[467,51]]","false","4","main_T2_Trial","s","img/Fire_Up_Target.gif","[""img/Fire_Down_Distractor.gif"",""img/Fire_Down_Distractor.gif"",""img/Fire_Down_Distractor.gif"",""img/Fire_Down_Distractor.gif"",""img/Fire_Down_Distractor.gif"",""img/Fire_Down_Distractor.gif"",""img/Fire_Down_Distractor.gif"",""img/Fire_Down_Distractor.gif"",""img/Fire_Down_Distractor.gif"",""img/Fire_Down_Distractor.gif"",""img/Fire_Down_Distractor.gif"",""img/Fire_Down_Distractor.gif""]","4","targetUp_distractorsDown"
"","","","","","html-keyboard-response","34","118374","0.0-14.0-0.0-0.10","5f14cff323b6b655cbc821c3","619531dcf66c91622fa1b861","619595b69a6ee8c18f053d30","null","","null","","","","","main_T1_ITI","","","","",""
"","","","","","visual-search-circle","35","120313","0.0-14.0-0.0-1.10","5f14cff323b6b655cbc821c3","619531dcf66c91622fa1b861","619595b69a6ee8c18f053d30","928.7000000029802","","d","true","[[567,436],[551,136],[284,0],[32,163],[48,463],[315,599]]","true","6","main_T2_Trial","d","img/Fire_Down_Target.gif","[""img/Fire_Up_Distractor.gif"",""img/Fire_Up_Distractor.gif"",""img/Fire_Up_Distractor.gif"",""img/Fire_Up_Distractor.gif"",""img/Fire_Up_Distractor.gif"",""img/Fire_Up_Distractor.gif"",""img/Fire_Up_Distractor.gif"",""img/Fire_Up_Distractor.gif"",""img/Fire_Up_Distractor.gif"",""img/Fire_Up_Distractor.gif"",""img/Fire_Up_Distractor.gif"",""img/Fire_Up_Distractor.gif""]","6","targetDown_distractorsUp"
"","","","","","html-keyboard-response","36","120315","0.0-14.0-0.0-0.11","5f14cff323b6b655cbc821c3","619531dcf66c91622fa1b861","619595b69a6ee8c18f053d30","null","","null","","","","","main_T1_ITI","","","","",""
"","","","","","visual-search-circle","37","122342","0.0-14.0-0.0-1.11","5f14cff323b6b655cbc821c3","619531dcf66c91622fa1b861","619595b69a6ee8c18f053d30","1016.3000000119209","","d","true","[[472,545],[586,212],[305,0],[16,202],[119,539]]","true","5","main_T2_Trial","d","img/Fire_Down_Target.gif","[""img/Fire_Up_Distractor.gif"",""img/Fire_Up_Distractor.gif"",""img/Fire_Up_Distractor.gif"",""img/Fire_Up_Distractor.gif"",""img/Fire_Up_Distractor.gif"",""img/Fire_Up_Distractor.gif"",""img/Fire_Up_Distractor.gif"",""img/Fire_Up_Distractor.gif"",""img/Fire_Up_Distractor.gif"",""img/Fire_Up_Distractor.gif"",""img/Fire_Up_Distractor.gif"",""img/Fire_Up_Distractor.gif""]","5","targetDown_distractorsUp"
"","","","","","html-keyboard-response","38","122344","0.0-14.0-0.0-0.12","5f14cff323b6b655cbc821c3","619531dcf66c91622fa1b861","619595b69a6ee8c18f053d30","null","","null","","","","","main_T1_ITI","","","","",""
"","","","","","visual-search-circle","39","124320","0.0-14.0-0.0-1.12","5f14cff323b6b655cbc821c3","619531dcf66c91622fa1b861","619595b69a6ee8c18f053d30","959.2000000029802","","d","true","[[367,7],[141,45],[7,232],[45,458],[232,592],[458,554],[592,367],[554,141]]","true","8","main_T2_Trial","d","img/Fire_Down_Target.gif","[""img/Fire_Up_Distractor.gif"",""img/Fire_Up_Distractor.gif"",""img/Fire_Up_Distractor.gif"",""img/Fire_Up_Distractor.gif"",""img/Fire_Up_Distractor.gif"",""img/Fire_Up_Distractor.gif"",""img/Fire_Up_Distractor.gif"",""img/Fire_Up_Distractor.gif"",""img/Fire_Up_Distractor.gif"",""img/Fire_Up_Distractor.gif"",""img/Fire_Up_Distractor.gif"",""img/Fire_Up_Distractor.gif""]","8","targetDown_distractorsUp"
"","","","","","html-keyboard-response","40","124330","0.0-14.0-0.0-0.13","5f14cff323b6b655cbc821c3","619531dcf66c91622fa1b861","619595b69a6ee8c18f053d30","null","","null","","","","","main_T1_ITI","","","","",""
"","","","","","visual-search-circle","41","126197","0.0-14.0-0.0-1.13","5f14cff323b6b655cbc821c3","619531dcf66c91622fa1b861","619595b69a6ee8c18f053d30","853.4000000059605","","d","true","[[597,336],[514,89],[269,1],[47,137],[15,396],[198,582],[457,555]]","true","7","main_T2_Trial","d","img/Fire_Down_Target.gif","[""img/Fire_Up_Distractor.gif"",""img/Fire_Up_Distractor.gif"",""img/Fire_Up_Distractor.gif"",""img/Fire_Up_Distractor.gif"",""img/Fire_Up_Distractor.gif"",""img/Fire_Up_Distractor.gif"",""img/Fire_Up_Distractor.gif"",""img/Fire_Up_Distractor.gif"",""img/Fire_Up_Distractor.gif"",""img/Fire_Up_Distractor.gif"",""img/Fire_Up_Distractor.gif"",""img/Fire_Up_Distractor.gif""]","7","targetDown_distractorsUp"
"","","","","","html-keyboard-response","42","126199","0.0-14.0-0.0-0.14","5f14cff323b6b655cbc821c3","619531dcf66c91622fa1b861","619595b69a6ee8c18f053d30","null","","null","","","","","main_T1_ITI","","","","",""
"","","","","","visual-search-circle","43","128024","0.0-14.0-0.0-1.14","5f14cff323b6b655cbc821c3","619531dcf66c91622fa1b861","619595b69a6ee8c18f053d30","812.9000000059605","","d","true","[[515,91],[227,8],[11,217],[84,508],[372,591],[588,382]]","true","6","main_T2_Trial","d","img/Fire_Down_Target.gif","[""img/Fire_Up_Distractor.gif"",""img/Fire_Up_Distractor.gif"",""img/Fire_Up_Distractor.gif"",""img/Fire_Up_Distractor.gif"",""img/Fire_Up_Distractor.gif"",""img/Fire_Up_Distractor.gif"",""img/Fire_Up_Distractor.gif"",""img/Fire_Up_Distractor.gif"",""img/Fire_Up_Distractor.gif"",""img/Fire_Up_Distractor.gif"",""img/Fire_Up_Distractor.gif"",""img/Fire_Up_Distractor.gif""]","6","targetDown_distractorsUp"
"","","","","","html-keyboard-response","44","128034","0.0-14.0-0.0-0.15","5f14cff323b6b655cbc821c3","619531dcf66c91622fa1b861","619595b69a6ee8c18f053d30","null","","null","","","","","main_T1_ITI","","","","",""
"","","","","","visual-search-circle","45","129824","0.0-14.0-0.0-1.15","5f14cff323b6b655cbc821c3","619531dcf66c91622fa1b861","619595b69a6ee8c18f053d30","779.5","","s","true","[[141,45],[0,310],[159,564],[458,554],[599,289],[440,35]]","false","6","main_T2_Trial","s","img/Fire_Down_Target.gif","[""img/Fire_Up_Distractor.gif"",""img/Fire_Up_Distractor.gif"",""img/Fire_Up_Distractor.gif"",""img/Fire_Up_Distractor.gif"",""img/Fire_Up_Distractor.gif"",""img/Fire_Up_Distractor.gif"",""img/Fire_Up_Distractor.gif"",""img/Fire_Up_Distractor.gif"",""img/Fire_Up_Distractor.gif"",""img/Fire_Up_Distractor.gif"",""img/Fire_Up_Distractor.gif"",""img/Fire_Up_Distractor.gif""]","6","targetDown_distractorsUp"
"","","","","","html-keyboard-response","46","129826","0.0-14.0-0.0-0.16","5f14cff323b6b655cbc821c3","619531dcf66c91622fa1b861","619595b69a6ee8c18f053d30","null","","null","","","","","main_T1_ITI","","","","",""
"","","","","","visual-search-circle","47","131785","0.0-14.0-0.0-1.16","5f14cff323b6b655cbc821c3","619531dcf66c91622fa1b861","619595b69a6ee8c18f053d30","950.7000000029802","","s","true","[[28,173],[95,519],[445,562],[594,242],[336,2]]","false","5","main_T2_Trial","s","img/Fire_Down_Target.gif","[""img/Fire_Up_Distractor.gif"",""img/Fire_Up_Distractor.gif"",""img/Fire_Up_Distractor.gif"",""img/Fire_Up_Distractor.gif"",""img/Fire_Up_Distractor.gif"",""img/Fire_Up_Distractor.gif"",""img/Fire_Up_Distractor.gif"",""img/Fire_Up_Distractor.gif"",""img/Fire_Up_Distractor.gif"",""img/Fire_Up_Distractor.gif"",""img/Fire_Up_Distractor.gif"",""img/Fire_Up_Distractor.gif""]","5","targetDown_distractorsUp"
"","","","","","html-keyboard-response","48","131793","0.0-14.0-0.0-0.17","5f14cff323b6b655cbc821c3","619531dcf66c91622fa1b861","619595b69a6ee8c18f053d30","null","","null","","","","","main_T1_ITI","","","","",""
"","","","","","visual-search-circle","49","133582","0.0-14.0-0.0-1.17","5f14cff323b6b655cbc821c3","619531dcf66c91622fa1b861","619595b69a6ee8c18f053d30","780.5999999940395","","d","true","[[258,597],[536,484],[578,187],[341,2],[63,115],[21,412]]","true","6","main_T2_Trial","d","img/Fire_Down_Target.gif","[""img/Fire_Up_Distractor.gif"",""img/Fire_Up_Distractor.gif"",""img/Fire_Up_Distractor.gif"",""img/Fire_Up_Distractor.gif"",""img/Fire_Up_Distractor.gif"",""img/Fire_Up_Distractor.gif"",""img/Fire_Up_Distractor.gif"",""img/Fire_Up_Distractor.gif"",""img/Fire_Up_Distractor.gif"",""img/Fire_Up_Distractor.gif"",""img/Fire_Up_Distractor.gif"",""img/Fire_Up_Distractor.gif""]","6","targetDown_distractorsUp"
"","","","","","html-keyboard-response","50","133596","0.0-14.0-0.0-0.18","5f14cff323b6b655cbc821c3","619531dcf66c91622fa1b861","619595b69a6ee8c18f053d30","null","","null","","","","","main_T1_ITI","","","","",""
"","","","","","visual-search-circle","51","135825","0.0-14.0-0.0-1.18","5f14cff323b6b655cbc821c3","619531dcf66c91622fa1b861","619595b69a6ee8c18f053d30","1212.5","","s","true","[[431,569],[583,397],[569,168],[397,16],[168,30],[16,202],[30,431],[202,583]]","false","8","main_T2_Trial","s","img/Fire_Up_Target.gif","[""img/Fire_Down_Distractor.gif"",""img/Fire_Down_Distractor.gif"",""img/Fire_Down_Distractor.gif"",""img/Fire_Down_Distractor.gif"",""img/Fire_Down_Distractor.gif"",""img/Fire_Down_Distractor.gif"",""img/Fire_Down_Distractor.gif"",""img/Fire_Down_Distractor.gif"",""img/Fire_Down_Distractor.gif"",""img/Fire_Down_Distractor.gif"",""img/Fire_Down_Distractor.gif"",""img/Fire_Down_Distractor.gif""]","8","targetUp_distractorsDown"
"","","","","","html-keyboard-response","52","143891","0.0-14.0-0.0-0.19","5f14cff323b6b655cbc821c3","619531dcf66c91622fa1b861","619595b69a6ee8c18f053d30","8065.4000000059605","Wow! You've completed 20 out of 160 trials! </p> <p>  </p><p> Take a quick break, then press any key when you're ready to continue."," ","","","","","main_T1_ITI","","","","",""
"","","","","","visual-search-circle","53","145713","0.0-14.0-0.0-1.19","5f14cff323b6b655cbc821c3","619531dcf66c91622fa1b861","619595b69a6ee8c18f053d30","803.8999999910593","","d","true","[[500,77],[250,4],[37,153],[22,413],[215,587],[472,545],[599,317]]","true","7","main_T2_Trial","d","img/Fire_Up_Target.gif","[""img/Fire_Down_Distractor.gif"",""img/Fire_Down_Distractor.gif"",""img/Fire_Down_Distractor.gif"",""img/Fire_Down_Distractor.gif"",""img/Fire_Down_Distractor.gif"",""img/Fire_Down_Distractor.gif"",""img/Fire_Down_Distractor.gif"",""img/Fire_Down_Distractor.gif"",""img/Fire_Down_Distractor.gif"",""img/Fire_Down_Distractor.gif"",""img/Fire_Down_Distractor.gif"",""img/Fire_Down_Distractor.gif""]","7","targetUp_distractorsDown"
"","","","","","html-keyboard-response","54","145717","0.0-14.0-0.0-0.20","5f14cff323b6b655cbc821c3","619531dcf66c91622fa1b861","619595b69a6ee8c18f053d30","null","","null","","","","","main_T1_ITI","","","","",""
"","","","","","visual-search-circle","55","147502","0.0-14.0-0.0-1.20","5f14cff323b6b655cbc821c3","619531dcf66c91622fa1b861","619595b69a6ee8c18f053d30","776.5999999940395","","d","true","[[512,87],[87,87],[87,512],[512,512]]","true","4","main_T2_Trial","d","img/Fire_Down_Target.gif","[""img/Fire_Up_Distractor.gif"",""img/Fire_Up_Distractor.gif"",""img/Fire_Up_Distractor.gif"",""img/Fire_Up_Distractor.gif"",""img/Fire_Up_Distractor.gif"",""img/Fire_Up_Distractor.gif"",""img/Fire_Up_Distractor.gif"",""img/Fire_Up_Distractor.gif"",""img/Fire_Up_Distractor.gif"",""img/Fire_Up_Distractor.gif"",""img/Fire_Up_Distractor.gif"",""img/Fire_Up_Distractor.gif""]","4","targetDown_distractorsUp"
"","","","","","html-keyboard-response","56","147504","0.0-14.0-0.0-0.21","5f14cff323b6b655cbc821c3","619531dcf66c91622fa1b861","619595b69a6ee8c18f053d30","null","","null","","","","","main_T1_ITI","","","","",""
"","","","","","visual-search-circle","57","149855","0.0-14.0-0.0-1.21","5f14cff323b6b655cbc821c3","619531dcf66c91622fa1b861","619595b69a6ee8c18f053d30","1336.7000000029802","","s","false","[[35,440],[212,586],[440,564],[586,387],[564,159],[387,13],[159,35],[13,212]]","true","8","main_T2_Trial","d","img/Fire_Up_Target.gif","[""img/Fire_Down_Distractor.gif"",""img/Fire_Down_Distractor.gif"",""img/Fire_Down_Distractor.gif"",""img/Fire_Down_Distractor.gif"",""img/Fire_Down_Distractor.gif"",""img/Fire_Down_Distractor.gif"",""img/Fire_Down_Distractor.gif"",""img/Fire_Down_Distractor.gif"",""img/Fire_Down_Distractor.gif"",""img/Fire_Down_Distractor.gif"",""img/Fire_Down_Distractor.gif"",""img/Fire_Down_Distractor.gif""]","8","targetUp_distractorsDown"
"","","","","","html-keyboard-response","58","149858","0.0-14.0-0.0-0.22","5f14cff323b6b655cbc821c3","619531dcf66c91622fa1b861","619595b69a6ee8c18f053d30","null","","null","","","","","main_T1_ITI","","","","",""
"","","","","","visual-search-circle","59","151514","0.0-14.0-0.0-1.22","5f14cff323b6b655cbc821c3","619531dcf66c91622fa1b861","619595b69a6ee8c18f053d30","647.5","","d","true","[[136,48],[10,377],[284,599],[580,407],[488,66]]","true","5","main_T2_Trial","d","img/Fire_Up_Target.gif","[""img/Fire_Down_Distractor.gif"",""img/Fire_Down_Distractor.gif"",""img/Fire_Down_Distractor.gif"",""img/Fire_Down_Distractor.gif"",""img/Fire_Down_Distractor.gif"",""img/Fire_Down_Distractor.gif"",""img/Fire_Down_Distractor.gif"",""img/Fire_Down_Distractor.gif"",""img/Fire_Down_Distractor.gif"",""img/Fire_Down_Distractor.gif"",""img/Fire_Down_Distractor.gif"",""img/Fire_Down_Distractor.gif""]","5","targetUp_distractorsDown"
"","","","","","html-keyboard-response","60","151516","0.0-14.0-0.0-0.23","5f14cff323b6b655cbc821c3","619531dcf66c91622fa1b861","619595b69a6ee8c18f053d30","null","","null","","","","","main_T1_ITI","","","","",""
"","","","","","visual-search-circle","61","153280","0.0-14.0-0.0-1.23","5f14cff323b6b655cbc821c3","619531dcf66c91622fa1b861","619595b69a6ee8c18f053d30","758.9000000059605","","d","true","[[23,417],[417,576],[576,182],[182,23]]","true","4","main_T2_Trial","d","img/Fire_Up_Target.gif","[""img/Fire_Down_Distractor.gif"",""img/Fire_Down_Distractor.gif"",""img/Fire_Down_Distractor.gif"",""img/Fire_Down_Distractor.gif"",""img/Fire_Down_Distractor.gif"",""img/Fire_Down_Distractor.gif"",""img/Fire_Down_Distractor.gif"",""img/Fire_Down_Distractor.gif"",""img/Fire_Down_Distractor.gif"",""img/Fire_Down_Distractor.gif"",""img/Fire_Down_Distractor.gif"",""img/Fire_Down_Distractor.gif""]","4","targetUp_distractorsDown"
"","","","","","html-keyboard-response","62","153282","0.0-14.0-0.0-0.24","5f14cff323b6b655cbc821c3","619531dcf66c91622fa1b861","619595b69a6ee8c18f053d30","null","","null","","","","","main_T1_ITI","","","","",""
"","","","","","visual-search-circle","63","155146","0.0-14.0-0.0-1.24","5f14cff323b6b655cbc821c3","619531dcf66c91622fa1b861","619595b69a6ee8c18f053d30","853.3999999910593","","d","true","[[253,596],[596,346],[346,3],[3,253]]","true","4","main_T2_Trial","d","img/Fire_Down_Target.gif","[""img/Fire_Up_Distractor.gif"",""img/Fire_Up_Distractor.gif"",""img/Fire_Up_Distractor.gif"",""img/Fire_Up_Distractor.gif"",""img/Fire_Up_Distractor.gif"",""img/Fire_Up_Distractor.gif"",""img/Fire_Up_Distractor.gif"",""img/Fire_Up_Distractor.gif"",""img/Fire_Up_Distractor.gif"",""img/Fire_Up_Distractor.gif"",""img/Fire_Up_Distractor.gif"",""img/Fire_Up_Distractor.gif""]","4","targetDown_distractorsUp"
"","","","","","html-keyboard-response","64","155147","0.0-14.0-0.0-0.25","5f14cff323b6b655cbc821c3","619531dcf66c91622fa1b861","619595b69a6ee8c18f053d30","null","","null","","","","","main_T1_ITI","","","","",""
"","","","","","visual-search-circle","65","156888","0.0-14.0-0.0-1.25","5f14cff323b6b655cbc821c3","619531dcf66c91622fa1b861","619595b69a6ee8c18f053d30","733","","d","true","[[467,548],[548,132],[132,51],[51,467]]","true","4","main_T2_Trial","d","img/Fire_Down_Target.gif","[""img/Fire_Up_Distractor.gif"",""img/Fire_Up_Distractor.gif"",""img/Fire_Up_Distractor.gif"",""img/Fire_Up_Distractor.gif"",""img/Fire_Up_Distractor.gif"",""img/Fire_Up_Distractor.gif"",""img/Fire_Up_Distractor.gif"",""img/Fire_Up_Distractor.gif"",""img/Fire_Up_Distractor.gif"",""img/Fire_Up_Distractor.gif"",""img/Fire_Up_Distractor.gif"",""img/Fire_Up_Distractor.gif""]","4","targetDown_distractorsUp"
"","","","","","html-keyboard-response","66","156892","0.0-14.0-0.0-0.26","5f14cff323b6b655cbc821c3","619531dcf66c91622fa1b861","619595b69a6ee8c18f053d30","null","","null","","","","","main_T1_ITI","","","","",""
"","","","","","visual-search-circle","67","158992","0.0-14.0-0.0-1.26","5f14cff323b6b655cbc821c3","619531dcf66c91622fa1b861","619595b69a6ee8c18f053d30","1093.7999999970198","","s","true","[[16,202],[119,539],[472,545],[586,212],[305,0]]","false","5","main_T2_Trial","s","img/Fire_Down_Target.gif","[""img/Fire_Up_Distractor.gif"",""img/Fire_Up_Distractor.gif"",""img/Fire_Up_Distractor.gif"",""img/Fire_Up_Distractor.gif"",""img/Fire_Up_Distractor.gif"",""img/Fire_Up_Distractor.gif"",""img/Fire_Up_Distractor.gif"",""img/Fire_Up_Distractor.gif"",""img/Fire_Up_Distractor.gif"",""img/Fire_Up_Distractor.gif"",""img/Fire_Up_Distractor.gif"",""img/Fire_Up_Distractor.gif""]","5","targetDown_distractorsUp"
"","","","","","html-keyboard-response","68","158994","0.0-14.0-0.0-0.27","5f14cff323b6b655cbc821c3","619531dcf66c91622fa1b861","619595b69a6ee8c18f053d30","null","","null","","","","","main_T1_ITI","","","","",""
"","","","","","visual-search-circle","69","160997","0.0-14.0-0.0-1.27","5f14cff323b6b655cbc821c3","619531dcf66c91622fa1b861","619595b69a6ee8c18f053d30","996","","d","true","[[588,217],[310,0],[18,197],[115,536],[467,548]]","true","5","main_T2_Trial","d","img/Fire_Up_Target.gif","[""img/Fire_Down_Distractor.gif"",""img/Fire_Down_Distractor.gif"",""img/Fire_Down_Distractor.gif"",""img/Fire_Down_Distractor.gif"",""img/Fire_Down_Distractor.gif"",""img/Fire_Down_Distractor.gif"",""img/Fire_Down_Distractor.gif"",""img/Fire_Down_Distractor.gif"",""img/Fire_Down_Distractor.gif"",""img/Fire_Down_Distractor.gif"",""img/Fire_Down_Distractor.gif"",""img/Fire_Down_Distractor.gif""]","5","targetUp_distractorsDown"
"","","","","","html-keyboard-response","70","161003","0.0-14.0-0.0-0.28","5f14cff323b6b655cbc821c3","619531dcf66c91622fa1b861","619595b69a6ee8c18f053d30","null","","null","","","","","main_T1_ITI","","","","",""
"","","","","","visual-search-circle","71","163035","0.0-14.0-0.0-1.28","5f14cff323b6b655cbc821c3","619531dcf66c91622fa1b861","619595b69a6ee8c18f053d30","1025.7000000029802","","d","true","[[2,341],[247,595],[564,440],[515,91],[168,30]]","true","5","main_T2_Trial","d","img/Fire_Up_Target.gif","[""img/Fire_Down_Distractor.gif"",""img/Fire_Down_Distractor.gif"",""img/Fire_Down_Distractor.gif"",""img/Fire_Down_Distractor.gif"",""img/Fire_Down_Distractor.gif"",""img/Fire_Down_Distractor.gif"",""img/Fire_Down_Distractor.gif"",""img/Fire_Down_Distractor.gif"",""img/Fire_Down_Distractor.gif"",""img/Fire_Down_Distractor.gif"",""img/Fire_Down_Distractor.gif"",""img/Fire_Down_Distractor.gif""]","5","targetUp_distractorsDown"
"","","","","","html-keyboard-response","72","163038","0.0-14.0-0.0-0.29","5f14cff323b6b655cbc821c3","619531dcf66c91622fa1b861","619595b69a6ee8c18f053d30","null","","null","","","","","main_T1_ITI","","","","",""
"","","","","","visual-search-circle","73","164846","0.0-14.0-0.0-1.29","5f14cff323b6b655cbc821c3","619531dcf66c91622fa1b861","619595b69a6ee8c18f053d30","795.6999999880791","","s","true","[[598,326],[472,54],[173,28],[1,273],[127,545],[426,571]]","false","6","main_T2_Trial","s","img/Fire_Up_Target.gif","[""img/Fire_Down_Distractor.gif"",""img/Fire_Down_Distractor.gif"",""img/Fire_Down_Distractor.gif"",""img/Fire_Down_Distractor.gif"",""img/Fire_Down_Distractor.gif"",""img/Fire_Down_Distractor.gif"",""img/Fire_Down_Distractor.gif"",""img/Fire_Down_Distractor.gif"",""img/Fire_Down_Distractor.gif"",""img/Fire_Down_Distractor.gif"",""img/Fire_Down_Distractor.gif"",""img/Fire_Down_Distractor.gif""]","6","targetUp_distractorsDown"
"","","","","","html-keyboard-response","74","164856","0.0-14.0-0.0-0.30","5f14cff323b6b655cbc821c3","619531dcf66c91622fa1b861","619595b69a6ee8c18f053d30","null","","null","","","","","main_T1_ITI","","","","",""
"","","","","","visual-search-circle","75","166871","0.0-14.0-0.0-1.30","5f14cff323b6b655cbc821c3","619531dcf66c91622fa1b861","619595b69a6ee8c18f053d30","1003.5999999940395","","s","true","[[476,57],[123,57],[14,392],[299,600],[585,392]]","false","5","main_T2_Trial","s","img/Fire_Up_Target.gif","[""img/Fire_Down_Distractor.gif"",""img/Fire_Down_Distractor.gif"",""img/Fire_Down_Distractor.gif"",""img/Fire_Down_Distractor.gif"",""img/Fire_Down_Distractor.gif"",""img/Fire_Down_Distractor.gif"",""img/Fire_Down_Distractor.gif"",""img/Fire_Down_Distractor.gif"",""img/Fire_Down_Distractor.gif"",""img/Fire_Down_Distractor.gif"",""img/Fire_Down_Distractor.gif"",""img/Fire_Down_Distractor.gif""]","5","targetUp_distractorsDown"
"","","","","","html-keyboard-response","76","166879","0.0-14.0-0.0-0.31","5f14cff323b6b655cbc821c3","619531dcf66c91622fa1b861","619595b69a6ee8c18f053d30","null","","null","","","","","main_T1_ITI","","","","",""
"","","","","","visual-search-circle","77","168886","0.0-14.0-0.0-1.31","5f14cff323b6b655cbc821c3","619531dcf66c91622fa1b861","619595b69a6ee8c18f053d30","995.0999999940395","","d","true","[[305,0],[68,108],[6,361],[165,567],[425,572],[591,371],[537,117]]","true","7","main_T2_Trial","d","img/Fire_Down_Target.gif","[""img/Fire_Up_Distractor.gif"",""img/Fire_Up_Distractor.gif"",""img/Fire_Up_Distractor.gif"",""img/Fire_Up_Distractor.gif"",""img/Fire_Up_Distractor.gif"",""img/Fire_Up_Distractor.gif"",""img/Fire_Up_Distractor.gif"",""img/Fire_Up_Distractor.gif"",""img/Fire_Up_Distractor.gif"",""img/Fire_Up_Distractor.gif"",""img/Fire_Up_Distractor.gif"",""img/Fire_Up_Distractor.gif""]","7","targetDown_distractorsUp"
"","","","","","html-keyboard-response","78","168888","0.0-14.0-0.0-0.32","5f14cff323b6b655cbc821c3","619531dcf66c91622fa1b861","619595b69a6ee8c18f053d30","null","","null","","","","","main_T1_ITI","","","","",""
"","","","","","visual-search-circle","79","170659","0.0-14.0-0.0-1.32","5f14cff323b6b655cbc821c3","619531dcf66c91622fa1b861","619595b69a6ee8c18f053d30","760.9000000059605","","s","true","[[284,0],[10,222],[136,551],[488,533],[580,192]]","false","5","main_T2_Trial","s","img/Fire_Down_Target.gif","[""img/Fire_Up_Distractor.gif"",""img/Fire_Up_Distractor.gif"",""img/Fire_Up_Distractor.gif"",""img/Fire_Up_Distractor.gif"",""img/Fire_Up_Distractor.gif"",""img/Fire_Up_Distractor.gif"",""img/Fire_Up_Distractor.gif"",""img/Fire_Up_Distractor.gif"",""img/Fire_Up_Distractor.gif"",""img/Fire_Up_Distractor.gif"",""img/Fire_Up_Distractor.gif"",""img/Fire_Up_Distractor.gif""]","5","targetDown_distractorsUp"
"","","","","","html-keyboard-response","80","170663","0.0-14.0-0.0-0.33","5f14cff323b6b655cbc821c3","619531dcf66c91622fa1b861","619595b69a6ee8c18f053d30","null","","null","","","","","main_T1_ITI","","","","",""
"","","","","","visual-search-circle","81","172821","0.0-14.0-0.0-1.33","5f14cff323b6b655cbc821c3","619531dcf66c91622fa1b861","619595b69a6ee8c18f053d30","1147.3999999910593","","d","true","[[77,99],[4,349],[153,562],[413,577],[587,384],[545,127],[317,0]]","true","7","main_T2_Trial","d","img/Fire_Down_Target.gif","[""img/Fire_Up_Distractor.gif"",""img/Fire_Up_Distractor.gif"",""img/Fire_Up_Distractor.gif"",""img/Fire_Up_Distractor.gif"",""img/Fire_Up_Distractor.gif"",""img/Fire_Up_Distractor.gif"",""img/Fire_Up_Distractor.gif"",""img/Fire_Up_Distractor.gif"",""img/Fire_Up_Distractor.gif"",""img/Fire_Up_Distractor.gif"",""img/Fire_Up_Distractor.gif"",""img/Fire_Up_Distractor.gif""]","7","targetDown_distractorsUp"
"","","","","","html-keyboard-response","82","172932","0.0-14.0-0.0-0.34","5f14cff323b6b655cbc821c3","619531dcf66c91622fa1b861","619595b69a6ee8c18f053d30","null","","null","","","","","main_T1_ITI","","","","",""
"","","","","","visual-search-circle","83","175094","0.0-14.0-0.0-1.34","5f14cff323b6b655cbc821c3","619531dcf66c91622fa1b861","619595b69a6ee8c18f053d30","1149.0999999940395","","d","true","[[576,417],[539,119],[263,2],[23,182],[60,480],[336,597]]","true","6","main_T2_Trial","d","img/Fire_Up_Target.gif","[""img/Fire_Down_Distractor.gif"",""img/Fire_Down_Distractor.gif"",""img/Fire_Down_Distractor.gif"",""img/Fire_Down_Distractor.gif"",""img/Fire_Down_Distractor.gif"",""img/Fire_Down_Distractor.gif"",""img/Fire_Down_Distractor.gif"",""img/Fire_Down_Distractor.gif"",""img/Fire_Down_Distractor.gif"",""img/Fire_Down_Distractor.gif"",""img/Fire_Down_Distractor.gif"",""img/Fire_Down_Distractor.gif""]","6","targetUp_distractorsDown"
"","","","","","html-keyboard-response","84","175096","0.0-14.0-0.0-0.35","5f14cff323b6b655cbc821c3","619531dcf66c91622fa1b861","619595b69a6ee8c18f053d30","null","","null","","","","","main_T1_ITI","","","","",""
"","","","","","visual-search-circle","85","176856","0.0-14.0-0.0-1.35","5f14cff323b6b655cbc821c3","619531dcf66c91622fa1b861","619595b69a6ee8c18f053d30","744.6000000089407","","s","true","[[522,500],[599,284],[500,77],[284,0],[77,99],[0,315],[99,522],[315,599]]","false","8","main_T2_Trial","s","img/Fire_Down_Target.gif","[""img/Fire_Up_Distractor.gif"",""img/Fire_Up_Distractor.gif"",""img/Fire_Up_Distractor.gif"",""img/Fire_Up_Distractor.gif"",""img/Fire_Up_Distractor.gif"",""img/Fire_Up_Distractor.gif"",""img/Fire_Up_Distractor.gif"",""img/Fire_Up_Distractor.gif"",""img/Fire_Up_Distractor.gif"",""img/Fire_Up_Distractor.gif"",""img/Fire_Up_Distractor.gif"",""img/Fire_Up_Distractor.gif""]","8","targetDown_distractorsUp"
"","","","","","html-keyboard-response","86","176858","0.0-14.0-0.0-0.36","5f14cff323b6b655cbc821c3","619531dcf66c91622fa1b861","619595b69a6ee8c18f053d30","null","","null","","","","","main_T1_ITI","","","","",""
"","","","","","visual-search-circle","87","178818","0.0-14.0-0.0-1.36","5f14cff323b6b655cbc821c3","619531dcf66c91622fa1b861","619595b69a6ee8c18f053d30","945.7000000029802","","d","true","[[382,11],[126,55],[0,283],[100,523],[350,595],[562,444],[577,184]]","true","7","main_T2_Trial","d","img/Fire_Up_Target.gif","[""img/Fire_Down_Distractor.gif"",""img/Fire_Down_Distractor.gif"",""img/Fire_Down_Distractor.gif"",""img/Fire_Down_Distractor.gif"",""img/Fire_Down_Distractor.gif"",""img/Fire_Down_Distractor.gif"",""img/Fire_Down_Distractor.gif"",""img/Fire_Down_Distractor.gif"",""img/Fire_Down_Distractor.gif"",""img/Fire_Down_Distractor.gif"",""img/Fire_Down_Distractor.gif"",""img/Fire_Down_Distractor.gif""]","7","targetUp_distractorsDown"
"","","","","","html-keyboard-response","88","178821","0.0-14.0-0.0-0.37","5f14cff323b6b655cbc821c3","619531dcf66c91622fa1b861","619595b69a6ee8c18f053d30","null","","null","","","","","main_T1_ITI","","","","",""
"","","","","","visual-search-circle","89","180751","0.0-14.0-0.0-1.37","5f14cff323b6b655cbc821c3","619531dcf66c91622fa1b861","619595b69a6ee8c18f053d30","918.4000000059605","","s","true","[[289,599],[527,495],[594,243],[439,34],[179,25],[10,223],[59,478]]","false","7","main_T2_Trial","s","img/Fire_Down_Target.gif","[""img/Fire_Up_Distractor.gif"",""img/Fire_Up_Distractor.gif"",""img/Fire_Up_Distractor.gif"",""img/Fire_Up_Distractor.gif"",""img/Fire_Up_Distractor.gif"",""img/Fire_Up_Distractor.gif"",""img/Fire_Up_Distractor.gif"",""img/Fire_Up_Distractor.gif"",""img/Fire_Up_Distractor.gif"",""img/Fire_Up_Distractor.gif"",""img/Fire_Up_Distractor.gif"",""img/Fire_Up_Distractor.gif""]","7","targetDown_distractorsUp"
"","","","","","html-keyboard-response","90","180753","0.0-14.0-0.0-0.38","5f14cff323b6b655cbc821c3","619531dcf66c91622fa1b861","619595b69a6ee8c18f053d30","null","","null","","","","","main_T1_ITI","","","","",""
"","","","","","visual-search-circle","91","182654","0.0-14.0-0.0-1.38","5f14cff323b6b655cbc821c3","619531dcf66c91622fa1b861","619595b69a6ee8c18f053d30","888.2000000029802","","d","true","[[2,258],[115,536],[412,578],[597,341],[484,63],[187,21]]","true","6","main_T2_Trial","d","img/Fire_Down_Target.gif","[""img/Fire_Up_Distractor.gif"",""img/Fire_Up_Distractor.gif"",""img/Fire_Up_Distractor.gif"",""img/Fire_Up_Distractor.gif"",""img/Fire_Up_Distractor.gif"",""img/Fire_Up_Distractor.gif"",""img/Fire_Up_Distractor.gif"",""img/Fire_Up_Distractor.gif"",""img/Fire_Up_Distractor.gif"",""img/Fire_Up_Distractor.gif"",""img/Fire_Up_Distractor.gif"",""img/Fire_Up_Distractor.gif""]","6","targetDown_distractorsUp"
"","","","","","html-keyboard-response","92","184069","0.0-14.0-0.0-0.39","5f14cff323b6b655cbc821c3","619531dcf66c91622fa1b861","619595b69a6ee8c18f053d30","1411.9000000059605","Wow! You've completed 40 out of 160 trials! </p> <p>  </p><p> Take a quick break, then press any key when you're ready to continue."," ","","","","","main_T1_ITI","","","","",""
"","","","","","visual-search-circle","93","186013","0.0-14.0-0.0-1.39","5f14cff323b6b655cbc821c3","619531dcf66c91622fa1b861","619595b69a6ee8c18f053d30","936.8000000119209","","s","true","[[35,440],[440,564],[564,159],[159,35]]","false","4","main_T2_Trial","s","img/Fire_Down_Target.gif","[""img/Fire_Up_Distractor.gif"",""img/Fire_Up_Distractor.gif"",""img/Fire_Up_Distractor.gif"",""img/Fire_Up_Distractor.gif"",""img/Fire_Up_Distractor.gif"",""img/Fire_Up_Distractor.gif"",""img/Fire_Up_Distractor.gif"",""img/Fire_Up_Distractor.gif"",""img/Fire_Up_Distractor.gif"",""img/Fire_Up_Distractor.gif"",""img/Fire_Up_Distractor.gif"",""img/Fire_Up_Distractor.gif""]","4","targetDown_distractorsUp"
"","","","","","html-keyboard-response","94","186015","0.0-14.0-0.0-0.40","5f14cff323b6b655cbc821c3","619531dcf66c91622fa1b861","619595b69a6ee8c18f053d30","null","","null","","","","","main_T1_ITI","","","","",""
"","","","","","visual-search-circle","95","187764","0.0-14.0-0.0-1.40","5f14cff323b6b655cbc821c3","619531dcf66c91622fa1b861","619595b69a6ee8c18f053d30","736.5","","s","true","[[115,536],[336,597],[536,484],[597,263],[484,63],[263,2],[63,115],[2,336]]","false","8","main_T2_Trial","s","img/Fire_Down_Target.gif","[""img/Fire_Up_Distractor.gif"",""img/Fire_Up_Distractor.gif"",""img/Fire_Up_Distractor.gif"",""img/Fire_Up_Distractor.gif"",""img/Fire_Up_Distractor.gif"",""img/Fire_Up_Distractor.gif"",""img/Fire_Up_Distractor.gif"",""img/Fire_Up_Distractor.gif"",""img/Fire_Up_Distractor.gif"",""img/Fire_Up_Distractor.gif"",""img/Fire_Up_Distractor.gif"",""img/Fire_Up_Distractor.gif""]","8","targetDown_distractorsUp"
"","","","","","html-keyboard-response","96","187770","0.0-14.0-0.0-0.41","5f14cff323b6b655cbc821c3","619531dcf66c91622fa1b861","619595b69a6ee8c18f053d30","null","","null","","","","","main_T1_ITI","","","","",""
"","","","","","visual-search-circle","97","189548","0.0-14.0-0.0-1.41","5f14cff323b6b655cbc821c3","619531dcf66c91622fa1b861","619595b69a6ee8c18f053d30","768.2999999970198","","s","true","[[458,45],[45,141],[141,554],[554,458]]","false","4","main_T2_Trial","s","img/Fire_Down_Target.gif","[""img/Fire_Up_Distractor.gif"",""img/Fire_Up_Distractor.gif"",""img/Fire_Up_Distractor.gif"",""img/Fire_Up_Distractor.gif"",""img/Fire_Up_Distractor.gif"",""img/Fire_Up_Distractor.gif"",""img/Fire_Up_Distractor.gif"",""img/Fire_Up_Distractor.gif"",""img/Fire_Up_Distractor.gif"",""img/Fire_Up_Distractor.gif"",""img/Fire_Up_Distractor.gif"",""img/Fire_Up_Distractor.gif""]","4","targetDown_distractorsUp"
"","","","","","html-keyboard-response","98","189555","0.0-14.0-0.0-0.42","5f14cff323b6b655cbc821c3","619531dcf66c91622fa1b861","619595b69a6ee8c18f053d30","null","","null","","","","","main_T1_ITI","","","","",""
"","","","","","visual-search-circle","99","191372","0.0-14.0-0.0-1.42","5f14cff323b6b655cbc821c3","619531dcf66c91622fa1b861","619595b69a6ee8c18f053d30","805.9000000059605","","d","true","[[14,392],[299,600],[585,392],[476,57],[123,57]]","true","5","main_T2_Trial","d","img/Fire_Down_Target.gif","[""img/Fire_Up_Distractor.gif"",""img/Fire_Up_Distractor.gif"",""img/Fire_Up_Distractor.gif"",""img/Fire_Up_Distractor.gif"",""img/Fire_Up_Distractor.gif"",""img/Fire_Up_Distractor.gif"",""img/Fire_Up_Distractor.gif"",""img/Fire_Up_Distractor.gif"",""img/Fire_Up_Distractor.gif"",""img/Fire_Up_Distractor.gif"",""img/Fire_Up_Distractor.gif"",""img/Fire_Up_Distractor.gif""]","5","targetDown_distractorsUp"
"","","","","","html-keyboard-response","100","191383","0.0-14.0-0.0-0.43","5f14cff323b6b655cbc821c3","619531dcf66c91622fa1b861","619595b69a6ee8c18f053d30","null","","null","","","","","main_T1_ITI","","","","",""
"","","","","","visual-search-circle","101","193329","0.0-14.0-0.0-1.43","5f14cff323b6b655cbc821c3","619531dcf66c91622fa1b861","619595b69a6ee8c18f053d30","935.6000000089407","","s","true","[[159,35],[4,352],[258,597],[569,431],[508,84]]","false","5","main_T2_Trial","s","img/Fire_Up_Target.gif","[""img/Fire_Down_Distractor.gif"",""img/Fire_Down_Distractor.gif"",""img/Fire_Down_Distractor.gif"",""img/Fire_Down_Distractor.gif"",""img/Fire_Down_Distractor.gif"",""img/Fire_Down_Distractor.gif"",""img/Fire_Down_Distractor.gif"",""img/Fire_Down_Distractor.gif"",""img/Fire_Down_Distractor.gif"",""img/Fire_Down_Distractor.gif"",""img/Fire_Down_Distractor.gif"",""img/Fire_Down_Distractor.gif""]","5","targetUp_distractorsDown"
"","","","","","html-keyboard-response","102","193333","0.0-14.0-0.0-0.44","5f14cff323b6b655cbc821c3","619531dcf66c91622fa1b861","619595b69a6ee8c18f053d30","null","","null","","","","","main_T1_ITI","","","","",""
"","","","","","visual-search-circle","103","195080","0.0-14.0-0.0-1.44","5f14cff323b6b655cbc821c3","619531dcf66c91622fa1b861","619595b69a6ee8c18f053d30","734.0999999940395","","d","true","[[569,431],[583,202],[431,30],[202,16],[30,168],[16,397],[168,569],[397,583]]","true","8","main_T2_Trial","d","img/Fire_Down_Target.gif","[""img/Fire_Up_Distractor.gif"",""img/Fire_Up_Distractor.gif"",""img/Fire_Up_Distractor.gif"",""img/Fire_Up_Distractor.gif"",""img/Fire_Up_Distractor.gif"",""img/Fire_Up_Distractor.gif"",""img/Fire_Up_Distractor.gif"",""img/Fire_Up_Distractor.gif"",""img/Fire_Up_Distractor.gif"",""img/Fire_Up_Distractor.gif"",""img/Fire_Up_Distractor.gif"",""img/Fire_Up_Distractor.gif""]","8","targetDown_distractorsUp"
"","","","","","html-keyboard-response","104","195081","0.0-14.0-0.0-0.45","5f14cff323b6b655cbc821c3","619531dcf66c91622fa1b861","619595b69a6ee8c18f053d30","null","","null","","","","","main_T1_ITI","","","","",""
"","","","","","visual-search-circle","105","196826","0.0-14.0-0.0-1.45","5f14cff323b6b655cbc821c3","619531dcf66c91622fa1b861","619595b69a6ee8c18f053d30","733.0999999940395","","s","true","[[163,567],[392,585],[567,436],[585,207],[436,32],[207,14],[32,163],[14,392]]","false","8","main_T2_Trial","s","img/Fire_Up_Target.gif","[""img/Fire_Down_Distractor.gif"",""img/Fire_Down_Distractor.gif"",""img/Fire_Down_Distractor.gif"",""img/Fire_Down_Distractor.gif"",""img/Fire_Down_Distractor.gif"",""img/Fire_Down_Distractor.gif"",""img/Fire_Down_Distractor.gif"",""img/Fire_Down_Distractor.gif"",""img/Fire_Down_Distractor.gif"",""img/Fire_Down_Distractor.gif"",""img/Fire_Down_Distractor.gif"",""img/Fire_Down_Distractor.gif""]","8","targetUp_distractorsDown"
"","","","","","html-keyboard-response","106","196828","0.0-14.0-0.0-0.46","5f14cff323b6b655cbc821c3","619531dcf66c91622fa1b861","619595b69a6ee8c18f053d30","null","","null","","","","","main_T1_ITI","","","","",""
"","","","","","visual-search-circle","107","200162","0.0-14.0-0.0-1.46","5f14cff323b6b655cbc821c3","619531dcf66c91622fa1b861","619595b69a6ee8c18f053d30","2325","","d","false","[[600,300],[300,0],[0,299],[299,600]]","false","4","main_T2_Trial","s","img/Fire_Up_Target.gif","[""img/Fire_Down_Distractor.gif"",""img/Fire_Down_Distractor.gif"",""img/Fire_Down_Distractor.gif"",""img/Fire_Down_Distractor.gif"",""img/Fire_Down_Distractor.gif"",""img/Fire_Down_Distractor.gif"",""img/Fire_Down_Distractor.gif"",""img/Fire_Down_Distractor.gif"",""img/Fire_Down_Distractor.gif"",""img/Fire_Down_Distractor.gif"",""img/Fire_Down_Distractor.gif"",""img/Fire_Down_Distractor.gif""]","4","targetUp_distractorsDown"
"","","","","","html-keyboard-response","108","200163","0.0-14.0-0.0-0.47","5f14cff323b6b655cbc821c3","619531dcf66c91622fa1b861","619595b69a6ee8c18f053d30","null","","null","","","","","main_T1_ITI","","","","",""
"","","","","","visual-search-circle","109","202156","0.0-14.0-0.0-1.47","5f14cff323b6b655cbc821c3","619531dcf66c91622fa1b861","619595b69a6ee8c18f053d30","987.7999999970198","","s","true","[[123,57],[1,331],[177,574],[476,542],[598,268],[422,25]]","false","6","main_T2_Trial","s","img/Fire_Down_Target.gif","[""img/Fire_Up_Distractor.gif"",""img/Fire_Up_Distractor.gif"",""img/Fire_Up_Distractor.gif"",""img/Fire_Up_Distractor.gif"",""img/Fire_Up_Distractor.gif"",""img/Fire_Up_Distractor.gif"",""img/Fire_Up_Distractor.gif"",""img/Fire_Up_Distractor.gif"",""img/Fire_Up_Distractor.gif"",""img/Fire_Up_Distractor.gif"",""img/Fire_Up_Distractor.gif"",""img/Fire_Up_Distractor.gif""]","6","targetDown_distractorsUp"
"","","","","","html-keyboard-response","110","202158","0.0-14.0-0.0-0.48","5f14cff323b6b655cbc821c3","619531dcf66c91622fa1b861","619595b69a6ee8c18f053d30","null","","null","","","","","main_T1_ITI","","","","",""
"","","","","","visual-search-circle","111","204138","0.0-14.0-0.0-1.48","5f14cff323b6b655cbc821c3","619531dcf66c91622fa1b861","619595b69a6ee8c18f053d30","965.8999999910593","","d","true","[[25,422],[192,580],[422,574],[580,407],[574,177],[407,19],[177,25],[19,192]]","true","8","main_T2_Trial","d","img/Fire_Down_Target.gif","[""img/Fire_Up_Distractor.gif"",""img/Fire_Up_Distractor.gif"",""img/Fire_Up_Distractor.gif"",""img/Fire_Up_Distractor.gif"",""img/Fire_Up_Distractor.gif"",""img/Fire_Up_Distractor.gif"",""img/Fire_Up_Distractor.gif"",""img/Fire_Up_Distractor.gif"",""img/Fire_Up_Distractor.gif"",""img/Fire_Up_Distractor.gif"",""img/Fire_Up_Distractor.gif"",""img/Fire_Up_Distractor.gif""]","8","targetDown_distractorsUp"
"","","","","","html-keyboard-response","112","204139","0.0-14.0-0.0-0.49","5f14cff323b6b655cbc821c3","619531dcf66c91622fa1b861","619595b69a6ee8c18f053d30","null","","null","","","","","main_T1_ITI","","","","",""
"","","","","","visual-search-circle","113","206039","0.0-14.0-0.0-1.49","5f14cff323b6b655cbc821c3","619531dcf66c91622fa1b861","619595b69a6ee8c18f053d30","891.4000000059605","","d","true","[[163,32],[32,436],[436,567],[567,163]]","true","4","main_T2_Trial","d","img/Fire_Up_Target.gif","[""img/Fire_Down_Distractor.gif"",""img/Fire_Down_Distractor.gif"",""img/Fire_Down_Distractor.gif"",""img/Fire_Down_Distractor.gif"",""img/Fire_Down_Distractor.gif"",""img/Fire_Down_Distractor.gif"",""img/Fire_Down_Distractor.gif"",""img/Fire_Down_Distractor.gif"",""img/Fire_Down_Distractor.gif"",""img/Fire_Down_Distractor.gif"",""img/Fire_Down_Distractor.gif"",""img/Fire_Down_Distractor.gif""]","4","targetUp_distractorsDown"
"","","","","","html-keyboard-response","114","206041","0.0-14.0-0.0-0.50","5f14cff323b6b655cbc821c3","619531dcf66c91622fa1b861","619595b69a6ee8c18f053d30","null","","null","","","","","main_T1_ITI","","","","",""
"","","","","","visual-search-circle","115","207937","0.0-14.0-0.0-1.50","5f14cff323b6b655cbc821c3","619531dcf66c91622fa1b861","619595b69a6ee8c18f053d30","881.5","","d","true","[[123,542],[422,574],[598,331],[476,57],[177,25],[1,268]]","true","6","main_T2_Trial","d","img/Fire_Up_Target.gif","[""img/Fire_Down_Distractor.gif"",""img/Fire_Down_Distractor.gif"",""img/Fire_Down_Distractor.gif"",""img/Fire_Down_Distractor.gif"",""img/Fire_Down_Distractor.gif"",""img/Fire_Down_Distractor.gif"",""img/Fire_Down_Distractor.gif"",""img/Fire_Down_Distractor.gif"",""img/Fire_Down_Distractor.gif"",""img/Fire_Down_Distractor.gif"",""img/Fire_Down_Distractor.gif"",""img/Fire_Down_Distractor.gif""]","6","targetUp_distractorsDown"
"","","","","","html-keyboard-response","116","207942","0.0-14.0-0.0-0.51","5f14cff323b6b655cbc821c3","619531dcf66c91622fa1b861","619595b69a6ee8c18f053d30","null","","null","","","","","main_T1_ITI","","","","",""
"","","","","","visual-search-circle","117","210429","0.0-14.0-0.0-1.51","5f14cff323b6b655cbc821c3","619531dcf66c91622fa1b861","619595b69a6ee8c18f053d30","1479.5","","s","true","[[19,192],[111,533],[463,551],[589,222],[315,0]]","false","5","main_T2_Trial","s","img/Fire_Down_Target.gif","[""img/Fire_Up_Distractor.gif"",""img/Fire_Up_Distractor.gif"",""img/Fire_Up_Distractor.gif"",""img/Fire_Up_Distractor.gif"",""img/Fire_Up_Distractor.gif"",""img/Fire_Up_Distractor.gif"",""img/Fire_Up_Distractor.gif"",""img/Fire_Up_Distractor.gif"",""img/Fire_Up_Distractor.gif"",""img/Fire_Up_Distractor.gif"",""img/Fire_Up_Distractor.gif"",""img/Fire_Up_Distractor.gif""]","5","targetDown_distractorsUp"
"","","","","","html-keyboard-response","118","210431","0.0-14.0-0.0-0.52","5f14cff323b6b655cbc821c3","619531dcf66c91622fa1b861","619595b69a6ee8c18f053d30","null","","null","","","","","main_T1_ITI","","","","",""
"","","","","","visual-search-circle","119","212182","0.0-14.0-0.0-1.52","5f14cff323b6b655cbc821c3","619531dcf66c91622fa1b861","619595b69a6ee8c18f053d30","738.7000000029802","","s","true","[[436,567],[599,315],[463,48],[163,32],[0,284],[136,551]]","false","6","main_T2_Trial","s","img/Fire_Down_Target.gif","[""img/Fire_Up_Distractor.gif"",""img/Fire_Up_Distractor.gif"",""img/Fire_Up_Distractor.gif"",""img/Fire_Up_Distractor.gif"",""img/Fire_Up_Distractor.gif"",""img/Fire_Up_Distractor.gif"",""img/Fire_Up_Distractor.gif"",""img/Fire_Up_Distractor.gif"",""img/Fire_Up_Distractor.gif"",""img/Fire_Up_Distractor.gif"",""img/Fire_Up_Distractor.gif"",""img/Fire_Up_Distractor.gif""]","6","targetDown_distractorsUp"
"","","","","","html-keyboard-response","120","212184","0.0-14.0-0.0-0.53","5f14cff323b6b655cbc821c3","619531dcf66c91622fa1b861","619595b69a6ee8c18f053d30","null","","null","","","","","main_T1_ITI","","","","",""
"","","","","","visual-search-circle","121","214036","0.0-14.0-0.0-1.53","5f14cff323b6b655cbc821c3","619531dcf66c91622fa1b861","619595b69a6ee8c18f053d30","836.2000000029802","","d","true","[[372,591],[572,424],[567,164],[360,6],[108,69],[0,305],[117,538]]","true","7","main_T2_Trial","d","img/Fire_Down_Target.gif","[""img/Fire_Up_Distractor.gif"",""img/Fire_Up_Distractor.gif"",""img/Fire_Up_Distractor.gif"",""img/Fire_Up_Distractor.gif"",""img/Fire_Up_Distractor.gif"",""img/Fire_Up_Distractor.gif"",""img/Fire_Up_Distractor.gif"",""img/Fire_Up_Distractor.gif"",""img/Fire_Up_Distractor.gif"",""img/Fire_Up_Distractor.gif"",""img/Fire_Up_Distractor.gif"",""img/Fire_Up_Distractor.gif""]","7","targetDown_distractorsUp"
"","","","","","html-keyboard-response","122","214042","0.0-14.0-0.0-0.54","5f14cff323b6b655cbc821c3","619531dcf66c91622fa1b861","619595b69a6ee8c18f053d30","null","","null","","","","","main_T1_ITI","","","","",""
"","","","","","visual-search-circle","123","215688","0.0-14.0-0.0-1.54","5f14cff323b6b655cbc821c3","619531dcf66c91622fa1b861","619595b69a6ee8c18f053d30","638","","s","true","[[484,63],[132,51],[11,382],[289,599],[581,402]]","false","5","main_T2_Trial","s","img/Fire_Down_Target.gif","[""img/Fire_Up_Distractor.gif"",""img/Fire_Up_Distractor.gif"",""img/Fire_Up_Distractor.gif"",""img/Fire_Up_Distractor.gif"",""img/Fire_Up_Distractor.gif"",""img/Fire_Up_Distractor.gif"",""img/Fire_Up_Distractor.gif"",""img/Fire_Up_Distractor.gif"",""img/Fire_Up_Distractor.gif"",""img/Fire_Up_Distractor.gif"",""img/Fire_Up_Distractor.gif"",""img/Fire_Up_Distractor.gif""]","5","targetDown_distractorsUp"
"","","","","","html-keyboard-response","124","215690","0.0-14.0-0.0-0.55","5f14cff323b6b655cbc821c3","619531dcf66c91622fa1b861","619595b69a6ee8c18f053d30","null","","null","","","","","main_T1_ITI","","","","",""
"","","","","","visual-search-circle","125","217566","0.0-14.0-0.0-1.55","5f14cff323b6b655cbc821c3","619531dcf66c91622fa1b861","619595b69a6ee8c18f053d30","864.7000000029802","","d","true","[[177,574],[438,566],[594,357],[528,106],[291,0],[59,120],[9,375]]","true","7","main_T2_Trial","d","img/Fire_Up_Target.gif","[""img/Fire_Down_Distractor.gif"",""img/Fire_Down_Distractor.gif"",""img/Fire_Down_Distractor.gif"",""img/Fire_Down_Distractor.gif"",""img/Fire_Down_Distractor.gif"",""img/Fire_Down_Distractor.gif"",""img/Fire_Down_Distractor.gif"",""img/Fire_Down_Distractor.gif"",""img/Fire_Down_Distractor.gif"",""img/Fire_Down_Distractor.gif"",""img/Fire_Down_Distractor.gif"",""img/Fire_Down_Distractor.gif""]","7","targetUp_distractorsDown"
"","","","","","html-keyboard-response","126","217571","0.0-14.0-0.0-0.56","5f14cff323b6b655cbc821c3","619531dcf66c91622fa1b861","619595b69a6ee8c18f053d30","null","","null","","","","","main_T1_ITI","","","","",""
"","","","","","visual-search-circle","127","219369","0.0-14.0-0.0-1.56","5f14cff323b6b655cbc821c3","619531dcf66c91622fa1b861","619595b69a6ee8c18f053d30","782.5999999940395","","s","true","[[454,42],[227,8],[42,145],[8,372],[145,557],[372,591],[557,454],[591,227]]","false","8","main_T2_Trial","s","img/Fire_Down_Target.gif","[""img/Fire_Up_Distractor.gif"",""img/Fire_Up_Distractor.gif"",""img/Fire_Up_Distractor.gif"",""img/Fire_Up_Distractor.gif"",""img/Fire_Up_Distractor.gif"",""img/Fire_Up_Distractor.gif"",""img/Fire_Up_Distractor.gif"",""img/Fire_Up_Distractor.gif"",""img/Fire_Up_Distractor.gif"",""img/Fire_Up_Distractor.gif"",""img/Fire_Up_Distractor.gif"",""img/Fire_Up_Distractor.gif""]","8","targetDown_distractorsUp"
"","","","","","html-keyboard-response","128","219371","0.0-14.0-0.0-0.57","5f14cff323b6b655cbc821c3","619531dcf66c91622fa1b861","619595b69a6ee8c18f053d30","null","","null","","","","","main_T1_ITI","","","","",""
"","","","","","visual-search-circle","129","221222","0.0-14.0-0.0-1.57","5f14cff323b6b655cbc821c3","619531dcf66c91622fa1b861","619595b69a6ee8c18f053d30","837.2000000029802","","d","true","[[526,496],[595,245],[441,35],[181,24],[10,220],[57,476],[287,599]]","true","7","main_T2_Trial","d","img/Fire_Down_Target.gif","[""img/Fire_Up_Distractor.gif"",""img/Fire_Up_Distractor.gif"",""img/Fire_Up_Distractor.gif"",""img/Fire_Up_Distractor.gif"",""img/Fire_Up_Distractor.gif"",""img/Fire_Up_Distractor.gif"",""img/Fire_Up_Distractor.gif"",""img/Fire_Up_Distractor.gif"",""img/Fire_Up_Distractor.gif"",""img/Fire_Up_Distractor.gif"",""img/Fire_Up_Distractor.gif"",""img/Fire_Up_Distractor.gif""]","7","targetDown_distractorsUp"
"","","","","","html-keyboard-response","130","221224","0.0-14.0-0.0-0.58","5f14cff323b6b655cbc821c3","619531dcf66c91622fa1b861","619595b69a6ee8c18f053d30","null","","null","","","","","main_T1_ITI","","","","",""
"","","","","","visual-search-circle","131","223149","0.0-14.0-0.0-1.58","5f14cff323b6b655cbc821c3","619531dcf66c91622fa1b861","619595b69a6ee8c18f053d30","918.5999999940395","","d","true","[[585,207],[300,0],[14,207],[123,542],[476,542]]","true","5","main_T2_Trial","d","img/Fire_Up_Target.gif","[""img/Fire_Down_Distractor.gif"",""img/Fire_Down_Distractor.gif"",""img/Fire_Down_Distractor.gif"",""img/Fire_Down_Distractor.gif"",""img/Fire_Down_Distractor.gif"",""img/Fire_Down_Distractor.gif"",""img/Fire_Down_Distractor.gif"",""img/Fire_Down_Distractor.gif"",""img/Fire_Down_Distractor.gif"",""img/Fire_Down_Distractor.gif"",""img/Fire_Down_Distractor.gif"",""img/Fire_Down_Distractor.gif""]","5","targetUp_distractorsDown"
"","","","","","html-keyboard-response","132","233315","0.0-14.0-0.0-0.59","5f14cff323b6b655cbc821c3","619531dcf66c91622fa1b861","619595b69a6ee8c18f053d30","10165.39999999106","Wow! You've completed 60 out of 160 trials! </p> <p>  </p><p> Take a quick break, then press any key when you're ready to continue.","d","","","","","main_T1_ITI","","","","",""
"","","","","","visual-search-circle","133","235199","0.0-14.0-0.0-1.59","5f14cff323b6b655cbc821c3","619531dcf66c91622fa1b861","619595b69a6ee8c18f053d30","867.7000000029802","","d","true","[[598,331],[533,111],[331,1],[111,66],[1,268],[66,488],[268,598],[488,533]]","true","8","main_T2_Trial","d","img/Fire_Up_Target.gif","[""img/Fire_Down_Distractor.gif"",""img/Fire_Down_Distractor.gif"",""img/Fire_Down_Distractor.gif"",""img/Fire_Down_Distractor.gif"",""img/Fire_Down_Distractor.gif"",""img/Fire_Down_Distractor.gif"",""img/Fire_Down_Distractor.gif"",""img/Fire_Down_Distractor.gif"",""img/Fire_Down_Distractor.gif"",""img/Fire_Down_Distractor.gif"",""img/Fire_Down_Distractor.gif"",""img/Fire_Down_Distractor.gif""]","8","targetUp_distractorsDown"
"","","","","","html-keyboard-response","134","235206","0.0-14.0-0.0-0.60","5f14cff323b6b655cbc821c3","619531dcf66c91622fa1b861","619595b69a6ee8c18f053d30","null","","null","","","","","main_T1_ITI","","","","",""
"","","","","","visual-search-circle","135","237115","0.0-14.0-0.0-1.60","5f14cff323b6b655cbc821c3","619531dcf66c91622fa1b861","619595b69a6ee8c18f053d30","897.6000000089407","","s","true","[[592,367],[367,7],[7,232],[232,592]]","false","4","main_T2_Trial","s","img/Fire_Up_Target.gif","[""img/Fire_Down_Distractor.gif"",""img/Fire_Down_Distractor.gif"",""img/Fire_Down_Distractor.gif"",""img/Fire_Down_Distractor.gif"",""img/Fire_Down_Distractor.gif"",""img/Fire_Down_Distractor.gif"",""img/Fire_Down_Distractor.gif"",""img/Fire_Down_Distractor.gif"",""img/Fire_Down_Distractor.gif"",""img/Fire_Down_Distractor.gif"",""img/Fire_Down_Distractor.gif"",""img/Fire_Down_Distractor.gif""]","4","targetUp_distractorsDown"
"","","","","","html-keyboard-response","136","237119","0.0-14.0-0.0-0.61","5f14cff323b6b655cbc821c3","619531dcf66c91622fa1b861","619595b69a6ee8c18f053d30","null","","null","","","","","main_T1_ITI","","","","",""
"","","","","","visual-search-circle","137","239345","0.0-14.0-0.0-1.61","5f14cff323b6b655cbc821c3","619531dcf66c91622fa1b861","619595b69a6ee8c18f053d30","1214.5","","s","true","[[599,294],[482,62],[228,8],[27,174],[32,434],[238,593],[491,531]]","false","7","main_T2_Trial","s","img/Fire_Up_Target.gif","[""img/Fire_Down_Distractor.gif"",""img/Fire_Down_Distractor.gif"",""img/Fire_Down_Distractor.gif"",""img/Fire_Down_Distractor.gif"",""img/Fire_Down_Distractor.gif"",""img/Fire_Down_Distractor.gif"",""img/Fire_Down_Distractor.gif"",""img/Fire_Down_Distractor.gif"",""img/Fire_Down_Distractor.gif"",""img/Fire_Down_Distractor.gif"",""img/Fire_Down_Distractor.gif"",""img/Fire_Down_Distractor.gif""]","7","targetUp_distractorsDown"
"","","","","","html-keyboard-response","138","239347","0.0-14.0-0.0-0.62","5f14cff323b6b655cbc821c3","619531dcf66c91622fa1b861","619595b69a6ee8c18f053d30","null","","null","","","","","main_T1_ITI","","","","",""
"","","","","","visual-search-circle","139","241201","0.0-14.0-0.0-1.62","5f14cff323b6b655cbc821c3","619531dcf66c91622fa1b861","619595b69a6ee8c18f053d30","834.9000000059605","","s","true","[[341,597],[539,480],[597,258],[480,60],[258,2],[60,119],[2,341],[119,539]]","false","8","main_T2_Trial","s","img/Fire_Down_Target.gif","[""img/Fire_Up_Distractor.gif"",""img/Fire_Up_Distractor.gif"",""img/Fire_Up_Distractor.gif"",""img/Fire_Up_Distractor.gif"",""img/Fire_Up_Distractor.gif"",""img/Fire_Up_Distractor.gif"",""img/Fire_Up_Distractor.gif"",""img/Fire_Up_Distractor.gif"",""img/Fire_Up_Distractor.gif"",""img/Fire_Up_Distractor.gif"",""img/Fire_Up_Distractor.gif"",""img/Fire_Up_Distractor.gif""]","8","targetDown_distractorsUp"
"","","","","","html-keyboard-response","140","241205","0.0-14.0-0.0-0.63","5f14cff323b6b655cbc821c3","619531dcf66c91622fa1b861","619595b69a6ee8c18f053d30","null","","null","","","","","main_T1_ITI","","","","",""
"","","","","","visual-search-circle","141","243857","0.0-14.0-0.0-1.63","5f14cff323b6b655cbc821c3","619531dcf66c91622fa1b861","619595b69a6ee8c18f053d30","1644.3999999910593","","s","true","[[11,217],[132,548],[484,536],[581,197],[289,0]]","false","5","main_T2_Trial","s","img/Fire_Down_Target.gif","[""img/Fire_Up_Distractor.gif"",""img/Fire_Up_Distractor.gif"",""img/Fire_Up_Distractor.gif"",""img/Fire_Up_Distractor.gif"",""img/Fire_Up_Distractor.gif"",""img/Fire_Up_Distractor.gif"",""img/Fire_Up_Distractor.gif"",""img/Fire_Up_Distractor.gif"",""img/Fire_Up_Distractor.gif"",""img/Fire_Up_Distractor.gif"",""img/Fire_Up_Distractor.gif"",""img/Fire_Up_Distractor.gif""]","5","targetDown_distractorsUp"
"","","","","","html-keyboard-response","142","243859","0.0-14.0-0.0-0.64","5f14cff323b6b655cbc821c3","619531dcf66c91622fa1b861","619595b69a6ee8c18f053d30","null","","null","","","","","main_T1_ITI","","","","",""
"","","","","","visual-search-circle","143","245611","0.0-14.0-0.0-1.64","5f14cff323b6b655cbc821c3","619531dcf66c91622fa1b861","619595b69a6ee8c18f053d30","739.5","","d","true","[[417,576],[598,273],[367,7],[42,145],[73,496]]","true","5","main_T2_Trial","d","img/Fire_Down_Target.gif","[""img/Fire_Up_Distractor.gif"",""img/Fire_Up_Distractor.gif"",""img/Fire_Up_Distractor.gif"",""img/Fire_Up_Distractor.gif"",""img/Fire_Up_Distractor.gif"",""img/Fire_Up_Distractor.gif"",""img/Fire_Up_Distractor.gif"",""img/Fire_Up_Distractor.gif"",""img/Fire_Up_Distractor.gif"",""img/Fire_Up_Distractor.gif"",""img/Fire_Up_Distractor.gif"",""img/Fire_Up_Distractor.gif""]","5","targetDown_distractorsUp"
"","","","","","html-keyboard-response","144","245615","0.0-14.0-0.0-0.65","5f14cff323b6b655cbc821c3","619531dcf66c91622fa1b861","619595b69a6ee8c18f053d30","null","","null","","","","","main_T1_ITI","","","","",""
"","","","","","visual-search-circle","145","247787","0.0-14.0-0.0-1.65","5f14cff323b6b655cbc821c3","619531dcf66c91622fa1b861","619595b69a6ee8c18f053d30","1158.199999988079","","s","true","[[279,0],[52,129],[12,386],[189,578],[448,560],[596,346],[520,97]]","false","7","main_T2_Trial","s","img/Fire_Up_Target.gif","[""img/Fire_Down_Distractor.gif"",""img/Fire_Down_Distractor.gif"",""img/Fire_Down_Distractor.gif"",""img/Fire_Down_Distractor.gif"",""img/Fire_Down_Distractor.gif"",""img/Fire_Down_Distractor.gif"",""img/Fire_Down_Distractor.gif"",""img/Fire_Down_Distractor.gif"",""img/Fire_Down_Distractor.gif"",""img/Fire_Down_Distractor.gif"",""img/Fire_Down_Distractor.gif"",""img/Fire_Down_Distractor.gif""]","7","targetUp_distractorsDown"
"","","","","","html-keyboard-response","146","247792","0.0-14.0-0.0-0.66","5f14cff323b6b655cbc821c3","619531dcf66c91622fa1b861","619595b69a6ee8c18f053d30","null","","null","","","","","main_T1_ITI","","","","",""
"","","","","","visual-search-circle","147","249864","0.0-14.0-0.0-1.66","5f14cff323b6b655cbc821c3","619531dcf66c91622fa1b861","619595b69a6ee8c18f053d30","1061.4000000059605","","s","true","[[533,111],[297,0],[64,114],[8,368],[171,571],[432,569],[592,364]]","false","7","main_T2_Trial","s","img/Fire_Down_Target.gif","[""img/Fire_Up_Distractor.gif"",""img/Fire_Up_Distractor.gif"",""img/Fire_Up_Distractor.gif"",""img/Fire_Up_Distractor.gif"",""img/Fire_Up_Distractor.gif"",""img/Fire_Up_Distractor.gif"",""img/Fire_Up_Distractor.gif"",""img/Fire_Up_Distractor.gif"",""img/Fire_Up_Distractor.gif"",""img/Fire_Up_Distractor.gif"",""img/Fire_Up_Distractor.gif"",""img/Fire_Up_Distractor.gif""]","7","targetDown_distractorsUp"
"","","","","","html-keyboard-response","148","249865","0.0-14.0-0.0-0.67","5f14cff323b6b655cbc821c3","619531dcf66c91622fa1b861","619595b69a6ee8c18f053d30","null","","null","","","","","main_T1_ITI","","","","",""
"","","","","","visual-search-circle","149","251940","0.0-14.0-0.0-1.67","5f14cff323b6b655cbc821c3","619531dcf66c91622fa1b861","619595b69a6ee8c18f053d30","1065.5999999940395","","d","true","[[37,445],[294,599],[557,454],[562,154],[305,0],[42,145]]","true","6","main_T2_Trial","d","img/Fire_Up_Target.gif","[""img/Fire_Down_Distractor.gif"",""img/Fire_Down_Distractor.gif"",""img/Fire_Down_Distractor.gif"",""img/Fire_Down_Distractor.gif"",""img/Fire_Down_Distractor.gif"",""img/Fire_Down_Distractor.gif"",""img/Fire_Down_Distractor.gif"",""img/Fire_Down_Distractor.gif"",""img/Fire_Down_Distractor.gif"",""img/Fire_Down_Distractor.gif"",""img/Fire_Down_Distractor.gif"",""img/Fire_Down_Distractor.gif""]","6","targetUp_distractorsDown"
"","","","","","html-keyboard-response","150","251942","0.0-14.0-0.0-0.68","5f14cff323b6b655cbc821c3","619531dcf66c91622fa1b861","619595b69a6ee8c18f053d30","null","","null","","","","","main_T1_ITI","","","","",""
"","","","","","visual-search-circle","151","254245","0.0-14.0-0.0-1.68","5f14cff323b6b655cbc821c3","619531dcf66c91622fa1b861","619595b69a6ee8c18f053d30","1292.2999999970198","","d","true","[[136,551],[436,567],[599,315],[463,48],[163,32],[0,284]]","true","6","main_T2_Trial","d","img/Fire_Up_Target.gif","[""img/Fire_Down_Distractor.gif"",""img/Fire_Down_Distractor.gif"",""img/Fire_Down_Distractor.gif"",""img/Fire_Down_Distractor.gif"",""img/Fire_Down_Distractor.gif"",""img/Fire_Down_Distractor.gif"",""img/Fire_Down_Distractor.gif"",""img/Fire_Down_Distractor.gif"",""img/Fire_Down_Distractor.gif"",""img/Fire_Down_Distractor.gif"",""img/Fire_Down_Distractor.gif"",""img/Fire_Down_Distractor.gif""]","6","targetUp_distractorsDown"
"","","","","","html-keyboard-response","152","254249","0.0-14.0-0.0-0.69","5f14cff323b6b655cbc821c3","619531dcf66c91622fa1b861","619595b69a6ee8c18f053d30","null","","null","","","","","main_T1_ITI","","","","",""
"","","","","","visual-search-circle","153","256201","0.0-14.0-0.0-1.69","5f14cff323b6b655cbc821c3","619531dcf66c91622fa1b861","619595b69a6ee8c18f053d30","940.7000000029802","","s","true","[[8,372],[372,591],[591,227],[227,8]]","false","4","main_T2_Trial","s","img/Fire_Up_Target.gif","[""img/Fire_Down_Distractor.gif"",""img/Fire_Down_Distractor.gif"",""img/Fire_Down_Distractor.gif"",""img/Fire_Down_Distractor.gif"",""img/Fire_Down_Distractor.gif"",""img/Fire_Down_Distractor.gif"",""img/Fire_Down_Distractor.gif"",""img/Fire_Down_Distractor.gif"",""img/Fire_Down_Distractor.gif"",""img/Fire_Down_Distractor.gif"",""img/Fire_Down_Distractor.gif"",""img/Fire_Down_Distractor.gif""]","4","targetUp_distractorsDown"
"","","","","","html-keyboard-response","154","256205","0.0-14.0-0.0-0.70","5f14cff323b6b655cbc821c3","619531dcf66c91622fa1b861","619595b69a6ee8c18f053d30","null","","null","","","","","main_T1_ITI","","","","",""
"","","","","","visual-search-circle","155","258440","0.0-14.0-0.0-1.70","5f14cff323b6b655cbc821c3","619531dcf66c91622fa1b861","619595b69a6ee8c18f053d30","1222.7999999970198","","s","true","[[0,289],[80,504],[289,599],[504,519],[599,310],[519,95],[310,0],[95,80]]","false","8","main_T2_Trial","s","img/Fire_Down_Target.gif","[""img/Fire_Up_Distractor.gif"",""img/Fire_Up_Distractor.gif"",""img/Fire_Up_Distractor.gif"",""img/Fire_Up_Distractor.gif"",""img/Fire_Up_Distractor.gif"",""img/Fire_Up_Distractor.gif"",""img/Fire_Up_Distractor.gif"",""img/Fire_Up_Distractor.gif"",""img/Fire_Up_Distractor.gif"",""img/Fire_Up_Distractor.gif"",""img/Fire_Up_Distractor.gif"",""img/Fire_Up_Distractor.gif""]","8","targetDown_distractorsUp"
"","","","","","html-keyboard-response","156","258442","0.0-14.0-0.0-0.71","5f14cff323b6b655cbc821c3","619531dcf66c91622fa1b861","619595b69a6ee8c18f053d30","null","","null","","","","","main_T1_ITI","","","","",""
"","","","","","visual-search-circle","157","260792","0.0-14.0-0.0-1.71","5f14cff323b6b655cbc821c3","619531dcf66c91622fa1b861","619595b69a6ee8c18f053d30","1337.7999999970198","","s","true","[[586,387],[564,159],[387,13],[159,35],[13,212],[35,440],[212,586],[440,564]]","false","8","main_T2_Trial","s","img/Fire_Up_Target.gif","[""img/Fire_Down_Distractor.gif"",""img/Fire_Down_Distractor.gif"",""img/Fire_Down_Distractor.gif"",""img/Fire_Down_Distractor.gif"",""img/Fire_Down_Distractor.gif"",""img/Fire_Down_Distractor.gif"",""img/Fire_Down_Distractor.gif"",""img/Fire_Down_Distractor.gif"",""img/Fire_Down_Distractor.gif"",""img/Fire_Down_Distractor.gif"",""img/Fire_Down_Distractor.gif"",""img/Fire_Down_Distractor.gif""]","8","targetUp_distractorsDown"
"","","","","","html-keyboard-response","158","260794","0.0-14.0-0.0-0.72","5f14cff323b6b655cbc821c3","619531dcf66c91622fa1b861","619595b69a6ee8c18f053d30","null","","null","","","","","main_T1_ITI","","","","",""
"","","","","","visual-search-circle","159","262491","0.0-14.0-0.0-1.72","5f14cff323b6b655cbc821c3","619531dcf66c91622fa1b861","619595b69a6ee8c18f053d30","690.2999999970198","","d","true","[[581,402],[484,63],[132,51],[11,382],[289,599]]","true","5","main_T2_Trial","d","img/Fire_Up_Target.gif","[""img/Fire_Down_Distractor.gif"",""img/Fire_Down_Distractor.gif"",""img/Fire_Down_Distractor.gif"",""img/Fire_Down_Distractor.gif"",""img/Fire_Down_Distractor.gif"",""img/Fire_Down_Distractor.gif"",""img/Fire_Down_Distractor.gif"",""img/Fire_Down_Distractor.gif"",""img/Fire_Down_Distractor.gif"",""img/Fire_Down_Distractor.gif"",""img/Fire_Down_Distractor.gif"",""img/Fire_Down_Distractor.gif""]","5","targetUp_distractorsDown"
"","","","","","html-keyboard-response","160","262494","0.0-14.0-0.0-0.73","5f14cff323b6b655cbc821c3","619531dcf66c91622fa1b861","619595b69a6ee8c18f053d30","null","","null","","","","","main_T1_ITI","","","","",""
"","","","","","visual-search-circle","161","264178","0.0-14.0-0.0-1.73","5f14cff323b6b655cbc821c3","619531dcf66c91622fa1b861","619595b69a6ee8c18f053d30","670.2000000029802","","d","true","[[588,217],[415,22],[155,37],[4,249],[76,499],[316,599],[544,473]]","true","7","main_T2_Trial","d","img/Fire_Up_Target.gif","[""img/Fire_Down_Distractor.gif"",""img/Fire_Down_Distractor.gif"",""img/Fire_Down_Distractor.gif"",""img/Fire_Down_Distractor.gif"",""img/Fire_Down_Distractor.gif"",""img/Fire_Down_Distractor.gif"",""img/Fire_Down_Distractor.gif"",""img/Fire_Down_Distractor.gif"",""img/Fire_Down_Distractor.gif"",""img/Fire_Down_Distractor.gif"",""img/Fire_Down_Distractor.gif"",""img/Fire_Down_Distractor.gif""]","7","targetUp_distractorsDown"
"","","","","","html-keyboard-response","162","264180","0.0-14.0-0.0-0.74","5f14cff323b6b655cbc821c3","619531dcf66c91622fa1b861","619595b69a6ee8c18f053d30","null","","null","","","","","main_T1_ITI","","","","",""
"","","","","","visual-search-circle","163","265805","0.0-14.0-0.0-1.74","5f14cff323b6b655cbc821c3","619531dcf66c91622fa1b861","619595b69a6ee8c18f053d30","616.6000000089407","","s","true","[[14,207],[123,542],[476,542],[585,207],[300,0]]","false","5","main_T2_Trial","s","img/Fire_Up_Target.gif","[""img/Fire_Down_Distractor.gif"",""img/Fire_Down_Distractor.gif"",""img/Fire_Down_Distractor.gif"",""img/Fire_Down_Distractor.gif"",""img/Fire_Down_Distractor.gif"",""img/Fire_Down_Distractor.gif"",""img/Fire_Down_Distractor.gif"",""img/Fire_Down_Distractor.gif"",""img/Fire_Down_Distractor.gif"",""img/Fire_Down_Distractor.gif"",""img/Fire_Down_Distractor.gif"",""img/Fire_Down_Distractor.gif""]","5","targetUp_distractorsDown"
"","","","","","html-keyboard-response","164","265809","0.0-14.0-0.0-0.75","5f14cff323b6b655cbc821c3","619531dcf66c91622fa1b861","619595b69a6ee8c18f053d30","null","","null","","","","","main_T1_ITI","","","","",""
"","","","","","visual-search-circle","165","267781","0.0-14.0-0.0-1.75","5f14cff323b6b655cbc821c3","619531dcf66c91622fa1b861","619595b69a6ee8c18f053d30","963.7000000029802","","s","true","[[492,529],[599,292],[481,60],[225,9],[26,176],[33,436],[240,594]]","false","7","main_T2_Trial","s","img/Fire_Down_Target.gif","[""img/Fire_Up_Distractor.gif"",""img/Fire_Up_Distractor.gif"",""img/Fire_Up_Distractor.gif"",""img/Fire_Up_Distractor.gif"",""img/Fire_Up_Distractor.gif"",""img/Fire_Up_Distractor.gif"",""img/Fire_Up_Distractor.gif"",""img/Fire_Up_Distractor.gif"",""img/Fire_Up_Distractor.gif"",""img/Fire_Up_Distractor.gif"",""img/Fire_Up_Distractor.gif"",""img/Fire_Up_Distractor.gif""]","7","targetDown_distractorsUp"
"","","","","","html-keyboard-response","166","267784","0.0-14.0-0.0-0.76","5f14cff323b6b655cbc821c3","619531dcf66c91622fa1b861","619595b69a6ee8c18f053d30","null","","null","","","","","main_T1_ITI","","","","",""
"","","","","","visual-search-circle","167","269694","0.0-14.0-0.0-1.76","5f14cff323b6b655cbc821c3","619531dcf66c91622fa1b861","619595b69a6ee8c18f053d30","900.2000000029802","","s","true","[[123,542],[379,589],[575,417],[564,157],[353,4],[102,74],[0,313]]","false","7","main_T2_Trial","s","img/Fire_Down_Target.gif","[""img/Fire_Up_Distractor.gif"",""img/Fire_Up_Distractor.gif"",""img/Fire_Up_Distractor.gif"",""img/Fire_Up_Distractor.gif"",""img/Fire_Up_Distractor.gif"",""img/Fire_Up_Distractor.gif"",""img/Fire_Up_Distractor.gif"",""img/Fire_Up_Distractor.gif"",""img/Fire_Up_Distractor.gif"",""img/Fire_Up_Distractor.gif"",""img/Fire_Up_Distractor.gif"",""img/Fire_Up_Distractor.gif""]","7","targetDown_distractorsUp"
"","","","","","html-keyboard-response","168","269695","0.0-14.0-0.0-0.77","5f14cff323b6b655cbc821c3","619531dcf66c91622fa1b861","619595b69a6ee8c18f053d30","null","","null","","","","","main_T1_ITI","","","","",""
"","","","","","visual-search-circle","169","271755","0.0-14.0-0.0-1.77","5f14cff323b6b655cbc821c3","619531dcf66c91622fa1b861","619595b69a6ee8c18f053d30","1049.2999999970198","","s","true","[[417,23],[157,36],[4,247],[74,497],[314,599],[543,475],[588,219]]","false","7","main_T2_Trial","s","img/Fire_Down_Target.gif","[""img/Fire_Up_Distractor.gif"",""img/Fire_Up_Distractor.gif"",""img/Fire_Up_Distractor.gif"",""img/Fire_Up_Distractor.gif"",""img/Fire_Up_Distractor.gif"",""img/Fire_Up_Distractor.gif"",""img/Fire_Up_Distractor.gif"",""img/Fire_Up_Distractor.gif"",""img/Fire_Up_Distractor.gif"",""img/Fire_Up_Distractor.gif"",""img/Fire_Up_Distractor.gif"",""img/Fire_Up_Distractor.gif""]","7","targetDown_distractorsUp"
"","","","","","html-keyboard-response","170","271756","0.0-14.0-0.0-0.78","5f14cff323b6b655cbc821c3","619531dcf66c91622fa1b861","619595b69a6ee8c18f053d30","null","","null","","","","","main_T1_ITI","","","","",""
"","","","","","visual-search-circle","171","273681","0.0-14.0-0.0-1.78","5f14cff323b6b655cbc821c3","619531dcf66c91622fa1b861","619595b69a6ee8c18f053d30","909.0999999940395","","d","true","[[597,263],[484,63],[263,2],[63,115],[2,336],[115,536],[336,597],[536,484]]","true","8","main_T2_Trial","d","img/Fire_Up_Target.gif","[""img/Fire_Down_Distractor.gif"",""img/Fire_Down_Distractor.gif"",""img/Fire_Down_Distractor.gif"",""img/Fire_Down_Distractor.gif"",""img/Fire_Down_Distractor.gif"",""img/Fire_Down_Distractor.gif"",""img/Fire_Down_Distractor.gif"",""img/Fire_Down_Distractor.gif"",""img/Fire_Down_Distractor.gif"",""img/Fire_Down_Distractor.gif"",""img/Fire_Down_Distractor.gif"",""img/Fire_Down_Distractor.gif""]","8","targetUp_distractorsDown"
"","","","","","html-keyboard-response","172","275234","0.0-14.0-0.0-0.79","5f14cff323b6b655cbc821c3","619531dcf66c91622fa1b861","619595b69a6ee8c18f053d30","1551.8999999910593","Wow! You've completed 80 out of 160 trials! </p> <p>  </p><p> Take a quick break, then press any key when you're ready to continue.","d","","","","","main_T1_ITI","","","","",""
"","","","","","visual-search-circle","173","277090","0.0-14.0-0.0-1.79","5f14cff323b6b655cbc821c3","619531dcf66c91622fa1b861","619595b69a6ee8c18f053d30","844","","d","true","[[492,70],[273,1],[70,107],[1,326],[107,529],[326,598],[529,492],[598,273]]","true","8","main_T2_Trial","d","img/Fire_Up_Target.gif","[""img/Fire_Down_Distractor.gif"",""img/Fire_Down_Distractor.gif"",""img/Fire_Down_Distractor.gif"",""img/Fire_Down_Distractor.gif"",""img/Fire_Down_Distractor.gif"",""img/Fire_Down_Distractor.gif"",""img/Fire_Down_Distractor.gif"",""img/Fire_Down_Distractor.gif"",""img/Fire_Down_Distractor.gif"",""img/Fire_Down_Distractor.gif"",""img/Fire_Down_Distractor.gif"",""img/Fire_Down_Distractor.gif""]","8","targetUp_distractorsDown"
"","","","","","html-keyboard-response","174","277092","0.0-14.0-0.0-0.80","5f14cff323b6b655cbc821c3","619531dcf66c91622fa1b861","619595b69a6ee8c18f053d30","null","","null","","","","","main_T1_ITI","","","","",""
"","","","","","visual-search-circle","175","279576","0.0-14.0-0.0-1.80","5f14cff323b6b655cbc821c3","619531dcf66c91622fa1b861","619595b69a6ee8c18f053d30","1466.5","","d","true","[[115,63],[0,297],[110,532],[363,593],[568,432],[571,172],[369,8]]","true","7","main_T2_Trial","d","img/Fire_Down_Target.gif","[""img/Fire_Up_Distractor.gif"",""img/Fire_Up_Distractor.gif"",""img/Fire_Up_Distractor.gif"",""img/Fire_Up_Distractor.gif"",""img/Fire_Up_Distractor.gif"",""img/Fire_Up_Distractor.gif"",""img/Fire_Up_Distractor.gif"",""img/Fire_Up_Distractor.gif"",""img/Fire_Up_Distractor.gif"",""img/Fire_Up_Distractor.gif"",""img/Fire_Up_Distractor.gif"",""img/Fire_Up_Distractor.gif""]","7","targetDown_distractorsUp"
"","","","","","html-keyboard-response","176","279582","0.0-14.0-0.0-0.81","5f14cff323b6b655cbc821c3","619531dcf66c91622fa1b861","619595b69a6ee8c18f053d30","null","","null","","","","","main_T1_ITI","","","","",""
"","","","","","visual-search-circle","177","281588","0.0-14.0-0.0-1.81","5f14cff323b6b655cbc821c3","619531dcf66c91622fa1b861","619595b69a6ee8c18f053d30","999.1000000089407","","d","true","[[91,84],[84,508],[508,515],[515,91]]","true","4","main_T2_Trial","d","img/Fire_Up_Target.gif","[""img/Fire_Down_Distractor.gif"",""img/Fire_Down_Distractor.gif"",""img/Fire_Down_Distractor.gif"",""img/Fire_Down_Distractor.gif"",""img/Fire_Down_Distractor.gif"",""img/Fire_Down_Distractor.gif"",""img/Fire_Down_Distractor.gif"",""img/Fire_Down_Distractor.gif"",""img/Fire_Down_Distractor.gif"",""img/Fire_Down_Distractor.gif"",""img/Fire_Down_Distractor.gif"",""img/Fire_Down_Distractor.gif""]","4","targetUp_distractorsDown"
"","","","","","html-keyboard-response","178","281590","0.0-14.0-0.0-0.82","5f14cff323b6b655cbc821c3","619531dcf66c91622fa1b861","619595b69a6ee8c18f053d30","null","","null","","","","","main_T1_ITI","","","","",""
"","","","","","visual-search-circle","179","283359","0.0-14.0-0.0-1.82","5f14cff323b6b655cbc821c3","619531dcf66c91622fa1b861","619595b69a6ee8c18f053d30","757.8999999910593","","d","true","[[596,253],[346,3],[32,163],[87,512],[436,567]]","true","5","main_T2_Trial","d","img/Fire_Down_Target.gif","[""img/Fire_Up_Distractor.gif"",""img/Fire_Up_Distractor.gif"",""img/Fire_Up_Distractor.gif"",""img/Fire_Up_Distractor.gif"",""img/Fire_Up_Distractor.gif"",""img/Fire_Up_Distractor.gif"",""img/Fire_Up_Distractor.gif"",""img/Fire_Up_Distractor.gif"",""img/Fire_Up_Distractor.gif"",""img/Fire_Up_Distractor.gif"",""img/Fire_Up_Distractor.gif"",""img/Fire_Up_Distractor.gif""]","5","targetDown_distractorsUp"
"","","","","","html-keyboard-response","180","283361","0.0-14.0-0.0-0.83","5f14cff323b6b655cbc821c3","619531dcf66c91622fa1b861","619595b69a6ee8c18f053d30","null","","null","","","","","main_T1_ITI","","","","",""
"","","","","","visual-search-circle","181","285582","0.0-14.0-0.0-1.83","5f14cff323b6b655cbc821c3","619531dcf66c91622fa1b861","619595b69a6ee8c18f053d30","1205.4000000059605","","s","true","[[586,212],[440,35],[212,13],[35,159],[13,387],[159,564],[387,586],[564,440]]","false","8","main_T2_Trial","s","img/Fire_Up_Target.gif","[""img/Fire_Down_Distractor.gif"",""img/Fire_Down_Distractor.gif"",""img/Fire_Down_Distractor.gif"",""img/Fire_Down_Distractor.gif"",""img/Fire_Down_Distractor.gif"",""img/Fire_Down_Distractor.gif"",""img/Fire_Down_Distractor.gif"",""img/Fire_Down_Distractor.gif"",""img/Fire_Down_Distractor.gif"",""img/Fire_Down_Distractor.gif"",""img/Fire_Down_Distractor.gif"",""img/Fire_Down_Distractor.gif""]","8","targetUp_distractorsDown"
"","","","","","html-keyboard-response","182","285583","0.0-14.0-0.0-0.84","5f14cff323b6b655cbc821c3","619531dcf66c91622fa1b861","619595b69a6ee8c18f053d30","null","","null","","","","","main_T1_ITI","","","","",""
"","","","","","visual-search-circle","183","287854","0.0-14.0-0.0-1.84","5f14cff323b6b655cbc821c3","619531dcf66c91622fa1b861","619595b69a6ee8c18f053d30","1260.199999988079","","s","true","[[576,182],[182,23],[23,417],[417,576]]","false","4","main_T2_Trial","s","img/Fire_Down_Target.gif","[""img/Fire_Up_Distractor.gif"",""img/Fire_Up_Distractor.gif"",""img/Fire_Up_Distractor.gif"",""img/Fire_Up_Distractor.gif"",""img/Fire_Up_Distractor.gif"",""img/Fire_Up_Distractor.gif"",""img/Fire_Up_Distractor.gif"",""img/Fire_Up_Distractor.gif"",""img/Fire_Up_Distractor.gif"",""img/Fire_Up_Distractor.gif"",""img/Fire_Up_Distractor.gif"",""img/Fire_Up_Distractor.gif""]","4","targetDown_distractorsUp"
"","","","","","html-keyboard-response","184","287856","0.0-14.0-0.0-0.85","5f14cff323b6b655cbc821c3","619531dcf66c91622fa1b861","619595b69a6ee8c18f053d30","null","","null","","","","","main_T1_ITI","","","","",""
"","","","","","visual-search-circle","185","290205","0.0-14.0-0.0-1.85","5f14cff323b6b655cbc821c3","619531dcf66c91622fa1b861","619595b69a6ee8c18f053d30","1337.7999999970198","","d","true","[[13,387],[294,599],[583,397],[480,60],[127,54]]","true","5","main_T2_Trial","d","img/Fire_Down_Target.gif","[""img/Fire_Up_Distractor.gif"",""img/Fire_Up_Distractor.gif"",""img/Fire_Up_Distractor.gif"",""img/Fire_Up_Distractor.gif"",""img/Fire_Up_Distractor.gif"",""img/Fire_Up_Distractor.gif"",""img/Fire_Up_Distractor.gif"",""img/Fire_Up_Distractor.gif"",""img/Fire_Up_Distractor.gif"",""img/Fire_Up_Distractor.gif"",""img/Fire_Up_Distractor.gif"",""img/Fire_Up_Distractor.gif""]","5","targetDown_distractorsUp"
"","","","","","html-keyboard-response","186","290208","0.0-14.0-0.0-0.86","5f14cff323b6b655cbc821c3","619531dcf66c91622fa1b861","619595b69a6ee8c18f053d30","null","","null","","","","","main_T1_ITI","","","","",""
"","","","","","visual-search-circle","187","291987","0.0-14.0-0.0-1.86","5f14cff323b6b655cbc821c3","619531dcf66c91622fa1b861","619595b69a6ee8c18f053d30","771","","d","true","[[372,591],[591,227],[227,8],[8,372]]","true","4","main_T2_Trial","d","img/Fire_Up_Target.gif","[""img/Fire_Down_Distractor.gif"",""img/Fire_Down_Distractor.gif"",""img/Fire_Down_Distractor.gif"",""img/Fire_Down_Distractor.gif"",""img/Fire_Down_Distractor.gif"",""img/Fire_Down_Distractor.gif"",""img/Fire_Down_Distractor.gif"",""img/Fire_Down_Distractor.gif"",""img/Fire_Down_Distractor.gif"",""img/Fire_Down_Distractor.gif"",""img/Fire_Down_Distractor.gif"",""img/Fire_Down_Distractor.gif""]","4","targetUp_distractorsDown"
"","","","","","html-keyboard-response","188","291989","0.0-14.0-0.0-0.87","5f14cff323b6b655cbc821c3","619531dcf66c91622fa1b861","619595b69a6ee8c18f053d30","null","","null","","","","","main_T1_ITI","","","","",""
"","","","","","visual-search-circle","189","293797","0.0-14.0-0.0-1.87","5f14cff323b6b655cbc821c3","619531dcf66c91622fa1b861","619595b69a6ee8c18f053d30","795.5","","d","true","[[367,7],[42,145],[73,496],[417,576],[598,273]]","true","5","main_T2_Trial","d","img/Fire_Down_Target.gif","[""img/Fire_Up_Distractor.gif"",""img/Fire_Up_Distractor.gif"",""img/Fire_Up_Distractor.gif"",""img/Fire_Up_Distractor.gif"",""img/Fire_Up_Distractor.gif"",""img/Fire_Up_Distractor.gif"",""img/Fire_Up_Distractor.gif"",""img/Fire_Up_Distractor.gif"",""img/Fire_Up_Distractor.gif"",""img/Fire_Up_Distractor.gif"",""img/Fire_Up_Distractor.gif"",""img/Fire_Up_Distractor.gif""]","5","targetDown_distractorsUp"
"","","","","","html-keyboard-response","190","293799","0.0-14.0-0.0-0.88","5f14cff323b6b655cbc821c3","619531dcf66c91622fa1b861","619595b69a6ee8c18f053d30","null","","null","","","","","main_T1_ITI","","","","",""
"","","","","","visual-search-circle","191","295535","0.0-14.0-0.0-1.88","5f14cff323b6b655cbc821c3","619531dcf66c91622fa1b861","619595b69a6ee8c18f053d30","717.1999999880791","","d","true","[[600,300],[512,87],[300,0],[87,87],[0,299],[87,512],[299,600],[512,512]]","true","8","main_T2_Trial","d","img/Fire_Up_Target.gif","[""img/Fire_Down_Distractor.gif"",""img/Fire_Down_Distractor.gif"",""img/Fire_Down_Distractor.gif"",""img/Fire_Down_Distractor.gif"",""img/Fire_Down_Distractor.gif"",""img/Fire_Down_Distractor.gif"",""img/Fire_Down_Distractor.gif"",""img/Fire_Down_Distractor.gif"",""img/Fire_Down_Distractor.gif"",""img/Fire_Down_Distractor.gif"",""img/Fire_Down_Distractor.gif"",""img/Fire_Down_Distractor.gif""]","8","targetUp_distractorsDown"
"","","","","","html-keyboard-response","192","295537","0.0-14.0-0.0-0.89","5f14cff323b6b655cbc821c3","619531dcf66c91622fa1b861","619595b69a6ee8c18f053d30","null","","null","","","","","main_T1_ITI","","","","",""
"","","","","","visual-search-circle","193","297357","0.0-14.0-0.0-1.89","5f14cff323b6b655cbc821c3","619531dcf66c91622fa1b861","619595b69a6ee8c18f053d30","801.7999999970198","","d","true","[[1,326],[107,529],[326,598],[529,492],[598,273],[492,70],[273,1],[70,107]]","true","8","main_T2_Trial","d","img/Fire_Down_Target.gif","[""img/Fire_Up_Distractor.gif"",""img/Fire_Up_Distractor.gif"",""img/Fire_Up_Distractor.gif"",""img/Fire_Up_Distractor.gif"",""img/Fire_Up_Distractor.gif"",""img/Fire_Up_Distractor.gif"",""img/Fire_Up_Distractor.gif"",""img/Fire_Up_Distractor.gif"",""img/Fire_Up_Distractor.gif"",""img/Fire_Up_Distractor.gif"",""img/Fire_Up_Distractor.gif"",""img/Fire_Up_Distractor.gif""]","8","targetDown_distractorsUp"
"","","","","","html-keyboard-response","194","297363","0.0-14.0-0.0-0.90","5f14cff323b6b655cbc821c3","619531dcf66c91622fa1b861","619595b69a6ee8c18f053d30","null","","null","","","","","main_T1_ITI","","","","",""
"","","","","","visual-search-circle","195","299336","0.0-14.0-0.0-1.90","5f14cff323b6b655cbc821c3","619531dcf66c91622fa1b861","619595b69a6ee8c18f053d30","963.7999999970198","","d","true","[[173,571],[472,545],[598,273],[426,28],[127,54],[1,326]]","true","6","main_T2_Trial","d","img/Fire_Up_Target.gif","[""img/Fire_Down_Distractor.gif"",""img/Fire_Down_Distractor.gif"",""img/Fire_Down_Distractor.gif"",""img/Fire_Down_Distractor.gif"",""img/Fire_Down_Distractor.gif"",""img/Fire_Down_Distractor.gif"",""img/Fire_Down_Distractor.gif"",""img/Fire_Down_Distractor.gif"",""img/Fire_Down_Distractor.gif"",""img/Fire_Down_Distractor.gif"",""img/Fire_Down_Distractor.gif"",""img/Fire_Down_Distractor.gif""]","6","targetUp_distractorsDown"
"","","","","","html-keyboard-response","196","299347","0.0-14.0-0.0-0.91","5f14cff323b6b655cbc821c3","619531dcf66c91622fa1b861","619595b69a6ee8c18f053d30","null","","null","","","","","main_T1_ITI","","","","",""
"","","","","","visual-search-circle","197","301089","0.0-14.0-0.0-1.91","5f14cff323b6b655cbc821c3","619531dcf66c91622fa1b861","619595b69a6ee8c18f053d30","732.3999999910593","","s","true","[[500,522],[522,99],[99,77],[77,500]]","false","4","main_T2_Trial","s","img/Fire_Up_Target.gif","[""img/Fire_Down_Distractor.gif"",""img/Fire_Down_Distractor.gif"",""img/Fire_Down_Distractor.gif"",""img/Fire_Down_Distractor.gif"",""img/Fire_Down_Distractor.gif"",""img/Fire_Down_Distractor.gif"",""img/Fire_Down_Distractor.gif"",""img/Fire_Down_Distractor.gif"",""img/Fire_Down_Distractor.gif"",""img/Fire_Down_Distractor.gif"",""img/Fire_Down_Distractor.gif"",""img/Fire_Down_Distractor.gif""]","4","targetUp_distractorsDown"
"","","","","","html-keyboard-response","198","301091","0.0-14.0-0.0-0.92","5f14cff323b6b655cbc821c3","619531dcf66c91622fa1b861","619595b69a6ee8c18f053d30","null","","null","","","","","main_T1_ITI","","","","",""
"","","","","","visual-search-circle","199","302930","0.0-14.0-0.0-1.92","5f14cff323b6b655cbc821c3","619531dcf66c91622fa1b861","619595b69a6ee8c18f053d30","824.7000000029802","","d","true","[[377,589],[574,419],[565,159],[355,5],[104,72],[0,311],[121,541]]","true","7","main_T2_Trial","d","img/Fire_Down_Target.gif","[""img/Fire_Up_Distractor.gif"",""img/Fire_Up_Distractor.gif"",""img/Fire_Up_Distractor.gif"",""img/Fire_Up_Distractor.gif"",""img/Fire_Up_Distractor.gif"",""img/Fire_Up_Distractor.gif"",""img/Fire_Up_Distractor.gif"",""img/Fire_Up_Distractor.gif"",""img/Fire_Up_Distractor.gif"",""img/Fire_Up_Distractor.gif"",""img/Fire_Up_Distractor.gif"",""img/Fire_Up_Distractor.gif""]","7","targetDown_distractorsUp"
"","","","","","html-keyboard-response","200","302932","0.0-14.0-0.0-0.93","5f14cff323b6b655cbc821c3","619531dcf66c91622fa1b861","619595b69a6ee8c18f053d30","null","","null","","","","","main_T1_ITI","","","","",""
"","","","","","visual-search-circle","201","304810","0.0-14.0-0.0-1.93","5f14cff323b6b655cbc821c3","619531dcf66c91622fa1b861","619595b69a6ee8c18f053d30","868.9000000059605","","s","true","[[458,45],[45,141],[141,554],[554,458]]","false","4","main_T2_Trial","s","img/Fire_Down_Target.gif","[""img/Fire_Up_Distractor.gif"",""img/Fire_Up_Distractor.gif"",""img/Fire_Up_Distractor.gif"",""img/Fire_Up_Distractor.gif"",""img/Fire_Up_Distractor.gif"",""img/Fire_Up_Distractor.gif"",""img/Fire_Up_Distractor.gif"",""img/Fire_Up_Distractor.gif"",""img/Fire_Up_Distractor.gif"",""img/Fire_Up_Distractor.gif"",""img/Fire_Up_Distractor.gif"",""img/Fire_Up_Distractor.gif""]","4","targetDown_distractorsUp"
"","","","","","html-keyboard-response","202","304812","0.0-14.0-0.0-0.94","5f14cff323b6b655cbc821c3","619531dcf66c91622fa1b861","619595b69a6ee8c18f053d30","null","","null","","","","","main_T1_ITI","","","","",""
"","","","","","visual-search-circle","203","307542","0.0-14.0-0.0-1.94","5f14cff323b6b655cbc821c3","619531dcf66c91622fa1b861","619595b69a6ee8c18f053d30","1721.7999999970198","","d","true","[[25,422],[422,574],[574,177],[177,25]]","true","4","main_T2_Trial","d","img/Fire_Up_Target.gif","[""img/Fire_Down_Distractor.gif"",""img/Fire_Down_Distractor.gif"",""img/Fire_Down_Distractor.gif"",""img/Fire_Down_Distractor.gif"",""img/Fire_Down_Distractor.gif"",""img/Fire_Down_Distractor.gif"",""img/Fire_Down_Distractor.gif"",""img/Fire_Down_Distractor.gif"",""img/Fire_Down_Distractor.gif"",""img/Fire_Down_Distractor.gif"",""img/Fire_Down_Distractor.gif"",""img/Fire_Down_Distractor.gif""]","4","targetUp_distractorsDown"
"","","","","","html-keyboard-response","204","307544","0.0-14.0-0.0-0.95","5f14cff323b6b655cbc821c3","619531dcf66c91622fa1b861","619595b69a6ee8c18f053d30","null","","null","","","","","main_T1_ITI","","","","",""
"","","","","","visual-search-circle","205","309757","0.0-14.0-0.0-1.95","5f14cff323b6b655cbc821c3","619531dcf66c91622fa1b861","619595b69a6ee8c18f053d30","1201.3999999910593","","s","true","[[331,598],[593,362],[449,40],[99,77],[25,422]]","false","5","main_T2_Trial","s","img/Fire_Up_Target.gif","[""img/Fire_Down_Distractor.gif"",""img/Fire_Down_Distractor.gif"",""img/Fire_Down_Distractor.gif"",""img/Fire_Down_Distractor.gif"",""img/Fire_Down_Distractor.gif"",""img/Fire_Down_Distractor.gif"",""img/Fire_Down_Distractor.gif"",""img/Fire_Down_Distractor.gif"",""img/Fire_Down_Distractor.gif"",""img/Fire_Down_Distractor.gif"",""img/Fire_Down_Distractor.gif"",""img/Fire_Down_Distractor.gif""]","5","targetUp_distractorsDown"
"","","","","","html-keyboard-response","206","309758","0.0-14.0-0.0-0.96","5f14cff323b6b655cbc821c3","619531dcf66c91622fa1b861","619595b69a6ee8c18f053d30","null","","null","","","","","main_T1_ITI","","","","",""
"","","","","","visual-search-circle","207","311878","0.0-14.0-0.0-1.96","5f14cff323b6b655cbc821c3","619531dcf66c91622fa1b861","619595b69a6ee8c18f053d30","1101.2999999970198","","s","true","[[341,2],[119,60],[2,258],[60,480],[258,597],[480,539],[597,341],[539,119]]","false","8","main_T2_Trial","s","img/Fire_Up_Target.gif","[""img/Fire_Down_Distractor.gif"",""img/Fire_Down_Distractor.gif"",""img/Fire_Down_Distractor.gif"",""img/Fire_Down_Distractor.gif"",""img/Fire_Down_Distractor.gif"",""img/Fire_Down_Distractor.gif"",""img/Fire_Down_Distractor.gif"",""img/Fire_Down_Distractor.gif"",""img/Fire_Down_Distractor.gif"",""img/Fire_Down_Distractor.gif"",""img/Fire_Down_Distractor.gif"",""img/Fire_Down_Distractor.gif""]","8","targetUp_distractorsDown"
"","","","","","html-keyboard-response","208","311883","0.0-14.0-0.0-0.97","5f14cff323b6b655cbc821c3","619531dcf66c91622fa1b861","619595b69a6ee8c18f053d30","null","","null","","","","","main_T1_ITI","","","","",""
"","","","","","visual-search-circle","209","314744","0.0-14.0-0.0-1.97","5f14cff323b6b655cbc821c3","619531dcf66c91622fa1b861","619595b69a6ee8c18f053d30","1848.9000000059605","","d","true","[[168,30],[7,234],[66,488],[301,599],[535,485],[592,231],[428,29]]","true","7","main_T2_Trial","d","img/Fire_Up_Target.gif","[""img/Fire_Down_Distractor.gif"",""img/Fire_Down_Distractor.gif"",""img/Fire_Down_Distractor.gif"",""img/Fire_Down_Distractor.gif"",""img/Fire_Down_Distractor.gif"",""img/Fire_Down_Distractor.gif"",""img/Fire_Down_Distractor.gif"",""img/Fire_Down_Distractor.gif"",""img/Fire_Down_Distractor.gif"",""img/Fire_Down_Distractor.gif"",""img/Fire_Down_Distractor.gif"",""img/Fire_Down_Distractor.gif""]","7","targetUp_distractorsDown"
"","","","","","html-keyboard-response","210","314746","0.0-14.0-0.0-0.98","5f14cff323b6b655cbc821c3","619531dcf66c91622fa1b861","619595b69a6ee8c18f053d30","null","","null","","","","","main_T1_ITI","","","","",""
"","","","","","visual-search-circle","211","316825","0.0-14.0-0.0-1.98","5f14cff323b6b655cbc821c3","619531dcf66c91622fa1b861","619595b69a6ee8c18f053d30","1063.2999999970198","","d","true","[[578,412],[576,182],[412,21],[182,23],[21,187],[23,417],[187,578],[417,576]]","true","8","main_T2_Trial","d","img/Fire_Up_Target.gif","[""img/Fire_Down_Distractor.gif"",""img/Fire_Down_Distractor.gif"",""img/Fire_Down_Distractor.gif"",""img/Fire_Down_Distractor.gif"",""img/Fire_Down_Distractor.gif"",""img/Fire_Down_Distractor.gif"",""img/Fire_Down_Distractor.gif"",""img/Fire_Down_Distractor.gif"",""img/Fire_Down_Distractor.gif"",""img/Fire_Down_Distractor.gif"",""img/Fire_Down_Distractor.gif"",""img/Fire_Down_Distractor.gif""]","8","targetUp_distractorsDown"
"","","","","","html-keyboard-response","212","330775","0.0-14.0-0.0-0.99","5f14cff323b6b655cbc821c3","619531dcf66c91622fa1b861","619595b69a6ee8c18f053d30","13949.20000000298","Wow! You've completed 100 out of 160 trials! </p> <p>  </p><p> Take a quick break, then press any key when you're ready to continue.","d","","","","","main_T1_ITI","","","","",""
"","","","","","visual-search-circle","213","332663","0.0-14.0-0.0-1.99","5f14cff323b6b655cbc821c3","619531dcf66c91622fa1b861","619595b69a6ee8c18f053d30","877.4000000059605","","s","true","[[372,591],[588,382],[515,91],[227,8],[11,217],[84,508]]","false","6","main_T2_Trial","s","img/Fire_Down_Target.gif","[""img/Fire_Up_Distractor.gif"",""img/Fire_Up_Distractor.gif"",""img/Fire_Up_Distractor.gif"",""img/Fire_Up_Distractor.gif"",""img/Fire_Up_Distractor.gif"",""img/Fire_Up_Distractor.gif"",""img/Fire_Up_Distractor.gif"",""img/Fire_Up_Distractor.gif"",""img/Fire_Up_Distractor.gif"",""img/Fire_Up_Distractor.gif"",""img/Fire_Up_Distractor.gif"",""img/Fire_Up_Distractor.gif""]","6","targetDown_distractorsUp"
"","","","","","html-keyboard-response","214","332665","0.0-14.0-0.0-0.100","5f14cff323b6b655cbc821c3","619531dcf66c91622fa1b861","619595b69a6ee8c18f053d30","null","","null","","","","","main_T1_ITI","","","","",""
"","","","","","visual-search-circle","215","335725","0.0-14.0-0.0-1.100","5f14cff323b6b655cbc821c3","619531dcf66c91622fa1b861","619595b69a6ee8c18f053d30","2053.2000000029802","","s","true","[[187,578],[484,536],[597,258],[412,21],[115,63],[2,341]]","false","6","main_T2_Trial","s","img/Fire_Up_Target.gif","[""img/Fire_Down_Distractor.gif"",""img/Fire_Down_Distractor.gif"",""img/Fire_Down_Distractor.gif"",""img/Fire_Down_Distractor.gif"",""img/Fire_Down_Distractor.gif"",""img/Fire_Down_Distractor.gif"",""img/Fire_Down_Distractor.gif"",""img/Fire_Down_Distractor.gif"",""img/Fire_Down_Distractor.gif"",""img/Fire_Down_Distractor.gif"",""img/Fire_Down_Distractor.gif"",""img/Fire_Down_Distractor.gif""]","6","targetUp_distractorsDown"
"","","","","","html-keyboard-response","216","335730","0.0-14.0-0.0-0.101","5f14cff323b6b655cbc821c3","619531dcf66c91622fa1b861","619595b69a6ee8c18f053d30","null","","null","","","","","main_T1_ITI","","","","",""
