"success","timeout","failed_images","failed_audio","failed_video","trial_type","trial_index","time_elapsed","internal_node_id","subject_id","study_id","session_id","rt","stimulus","response","correct","locations","target_present","set_size","task","correct_response","target","foilCM","setSizeCM","searchCondition"
"true","false","[]","[]","[]","preload","0","54431","0.0-0.0","5f1c1014ad82c0460a0fbef5","619531dcf66c91622fa1b861","619596ecfb3c877bb8a4bf5a","","","","","","","","","","","","",""
"true","","","","","fullscreen","1","113795","0.0-1.0","5f1c1014ad82c0460a0fbef5","619531dcf66c91622fa1b861","619596ecfb3c877bb8a4bf5a","","","","","","","","","","","","",""
"","","","","","html-keyboard-response","2","124397","0.0-2.0","5f1c1014ad82c0460a0fbef5","619531dcf66c91622fa1b861","619596ecfb3c877bb8a4bf5a","10600","What a beautiful Thursday to do some awesome science! </p> <p>  </p><p> </p>
    By completing this survey or questionnaire, you are consenting to be in this research study. </p>
    Your participation is voluntary and you can stop at any time.
    <p> [Press any key to continue.] </p>
    
    "," ","","","","","","","","","",""
"","","","","","video-keyboard-response","3","154240","0.0-3.0","5f1c1014ad82c0460a0fbef5","619531dcf66c91622fa1b861","619596ecfb3c877bb8a4bf5a","29832","[""video/TaskInstructions.mp4""]","d","","","","","","","","","",""
"","","","","","html-keyboard-response","4","159441","0.0-4.0","5f1c1014ad82c0460a0fbef5","619531dcf66c91622fa1b861","619596ecfb3c877bb8a4bf5a","5199","
    <p>First, we're going to do a few practice trials to make sure you understand the task. You will recieve feedback on each trial. </p>
    <p>[Press any key to begin the familiarization phase.]</p>
    "," ","","","","","","","","","",""
"","","","","","visual-search-circle","5","164508","0.0-5.0-0.0","5f1c1014ad82c0460a0fbef5","619531dcf66c91622fa1b861","619596ecfb3c877bb8a4bf5a","4012","","d","true","[[592,367],[367,7],[7,232],[232,592]]","true","4","training","d","","","",""
"","","","","","html-keyboard-response","6","166847","0.0-6.0","5f1c1014ad82c0460a0fbef5","619531dcf66c91622fa1b861","619596ecfb3c877bb8a4bf5a","2337"," <div style='float: center; '><img src='img/feedbackRight.png'></img> </div> "," ","","","","","","","","","",""
"","","","","","visual-search-circle","7","170057","0.0-7.0-0.0","5f1c1014ad82c0460a0fbef5","619531dcf66c91622fa1b861","619596ecfb3c877bb8a4bf5a","2204","","s","true","[[294,0],[0,305],[305,599],[599,294]]","false","4","training","s","","","",""
"","","","","","html-keyboard-response","8","171008","0.0-8.0","5f1c1014ad82c0460a0fbef5","619531dcf66c91622fa1b861","619596ecfb3c877bb8a4bf5a","950"," <div style='float: center; '><img src='img/feedbackRight.png'></img> </div> "," ","","","","","","","","","",""
"","","","","","visual-search-circle","9","173640","0.0-9.0-0.0","5f1c1014ad82c0460a0fbef5","619531dcf66c91622fa1b861","619596ecfb3c877bb8a4bf5a","1625","","d","false","[[331,598],[574,422],[542,123],[268,1],[25,177],[57,476]]","false","6","training","s","","","",""
"","","","","","html-keyboard-response","10","175070","0.0-10.0","5f1c1014ad82c0460a0fbef5","619531dcf66c91622fa1b861","619596ecfb3c877bb8a4bf5a","1428"," <div style='float: center;'><img src='img/feedbackWrong.png'></img> </div> "," ","","","","","","","","","",""
"","","","","","visual-search-circle","11","177172","0.0-11.0-0.0","5f1c1014ad82c0460a0fbef5","619531dcf66c91622fa1b861","619596ecfb3c877bb8a4bf5a","1098","","d","true","[[66,111],[1,331],[111,533],[331,598],[533,488],[598,268],[488,66],[268,1]]","true","8","training","d","","","",""
"","","","","","html-keyboard-response","12","178049","0.0-12.0","5f1c1014ad82c0460a0fbef5","619531dcf66c91622fa1b861","619596ecfb3c877bb8a4bf5a","875"," <div style='float: center; '><img src='img/feedbackRight.png'></img> </div> "," ","","","","","","","","","",""
"","","","","","video-keyboard-response","13","179106","0.0-13.0","5f1c1014ad82c0460a0fbef5","619531dcf66c91622fa1b861","619596ecfb3c877bb8a4bf5a","1057","[""video/endTraining.mp4""]"," ","","","","","","","","","",""
"","","","","","html-keyboard-response","14","179107","0.0-14.0-0.0-0.0","5f1c1014ad82c0460a0fbef5","619531dcf66c91622fa1b861","619596ecfb3c877bb8a4bf5a","null","","null","","","","","main_T1_ITI","","","","",""
"","","","","","visual-search-circle","15","181846","0.0-14.0-0.0-1.0","5f1c1014ad82c0460a0fbef5","619531dcf66c91622fa1b861","619596ecfb3c877bb8a4bf5a","1736","","s","true","[[0,299],[299,600],[600,300],[300,0]]","false","4","main_T2_Trial","s","img/Fire_Up_Target.gif","[""img/Fire_Down_Distractor.gif"",""img/Fire_Down_Distractor.gif"",""img/Fire_Down_Distractor.gif"",""img/Fire_Down_Distractor.gif"",""img/Fire_Down_Distractor.gif"",""img/Fire_Down_Distractor.gif"",""img/Fire_Down_Distractor.gif"",""img/Fire_Down_Distractor.gif"",""img/Fire_Down_Distractor.gif"",""img/Fire_Down_Distractor.gif"",""img/Fire_Down_Distractor.gif"",""img/Fire_Down_Distractor.gif""]","4","targetUp_distractorsDown"
"","","","","","html-keyboard-response","16","181847","0.0-14.0-0.0-0.1","5f1c1014ad82c0460a0fbef5","619531dcf66c91622fa1b861","619596ecfb3c877bb8a4bf5a","null","","null","","","","","main_T1_ITI","","","","",""
"","","","","","visual-search-circle","17","184295","0.0-14.0-0.0-1.1","5f1c1014ad82c0460a0fbef5","619531dcf66c91622fa1b861","619596ecfb3c877bb8a4bf5a","1444","","s","true","[[599,289],[289,0],[0,310],[310,599]]","false","4","main_T2_Trial","s","img/Fire_Up_Target.gif","[""img/Fire_Down_Distractor.gif"",""img/Fire_Down_Distractor.gif"",""img/Fire_Down_Distractor.gif"",""img/Fire_Down_Distractor.gif"",""img/Fire_Down_Distractor.gif"",""img/Fire_Down_Distractor.gif"",""img/Fire_Down_Distractor.gif"",""img/Fire_Down_Distractor.gif"",""img/Fire_Down_Distractor.gif"",""img/Fire_Down_Distractor.gif"",""img/Fire_Down_Distractor.gif"",""img/Fire_Down_Distractor.gif""]","4","targetUp_distractorsDown"
"","","","","","html-keyboard-response","18","184295","0.0-14.0-0.0-0.2","5f1c1014ad82c0460a0fbef5","619531dcf66c91622fa1b861","619596ecfb3c877bb8a4bf5a","null","","null","","","","","main_T1_ITI","","","","",""
"","","","","","visual-search-circle","19","186371","0.0-14.0-0.0-1.2","5f1c1014ad82c0460a0fbef5","619531dcf66c91622fa1b861","619596ecfb3c877bb8a4bf5a","1074","","d","true","[[377,10],[87,87],[10,377],[222,589],[512,512],[589,222]]","true","6","main_T2_Trial","d","img/Fire_Up_Target.gif","[""img/Fire_Down_Distractor.gif"",""img/Fire_Down_Distractor.gif"",""img/Fire_Down_Distractor.gif"",""img/Fire_Down_Distractor.gif"",""img/Fire_Down_Distractor.gif"",""img/Fire_Down_Distractor.gif"",""img/Fire_Down_Distractor.gif"",""img/Fire_Down_Distractor.gif"",""img/Fire_Down_Distractor.gif"",""img/Fire_Down_Distractor.gif"",""img/Fire_Down_Distractor.gif"",""img/Fire_Down_Distractor.gif""]","6","targetUp_distractorsDown"
"","","","","","html-keyboard-response","20","186371","0.0-14.0-0.0-0.3","5f1c1014ad82c0460a0fbef5","619531dcf66c91622fa1b861","619596ecfb3c877bb8a4bf5a","null","","null","","","","","main_T1_ITI","","","","",""
"","","","","","visual-search-circle","21","189649","0.0-14.0-0.0-1.3","5f1c1014ad82c0460a0fbef5","619531dcf66c91622fa1b861","619596ecfb3c877bb8a4bf5a","2277","","s","true","[[80,504],[504,519],[519,95],[95,80]]","false","4","main_T2_Trial","s","img/Fire_Down_Target.gif","[""img/Fire_Up_Distractor.gif"",""img/Fire_Up_Distractor.gif"",""img/Fire_Up_Distractor.gif"",""img/Fire_Up_Distractor.gif"",""img/Fire_Up_Distractor.gif"",""img/Fire_Up_Distractor.gif"",""img/Fire_Up_Distractor.gif"",""img/Fire_Up_Distractor.gif"",""img/Fire_Up_Distractor.gif"",""img/Fire_Up_Distractor.gif"",""img/Fire_Up_Distractor.gif"",""img/Fire_Up_Distractor.gif""]","4","targetDown_distractorsUp"
"","","","","","html-keyboard-response","22","189651","0.0-14.0-0.0-0.4","5f1c1014ad82c0460a0fbef5","619531dcf66c91622fa1b861","619596ecfb3c877bb8a4bf5a","null","","null","","","","","main_T1_ITI","","","","",""
"","","","","","visual-search-circle","23","196108","0.0-14.0-0.0-1.4","5f1c1014ad82c0460a0fbef5","619531dcf66c91622fa1b861","619596ecfb3c877bb8a4bf5a","5456","","d","false","[[132,51],[51,467],[467,548],[548,132]]","false","4","main_T2_Trial","s","img/Fire_Down_Target.gif","[""img/Fire_Up_Distractor.gif"",""img/Fire_Up_Distractor.gif"",""img/Fire_Up_Distractor.gif"",""img/Fire_Up_Distractor.gif"",""img/Fire_Up_Distractor.gif"",""img/Fire_Up_Distractor.gif"",""img/Fire_Up_Distractor.gif"",""img/Fire_Up_Distractor.gif"",""img/Fire_Up_Distractor.gif"",""img/Fire_Up_Distractor.gif"",""img/Fire_Up_Distractor.gif"",""img/Fire_Up_Distractor.gif""]","4","targetDown_distractorsUp"
"","","","","","html-keyboard-response","24","196108","0.0-14.0-0.0-0.5","5f1c1014ad82c0460a0fbef5","619531dcf66c91622fa1b861","619596ecfb3c877bb8a4bf5a","null","","null","","","","","main_T1_ITI","","","","",""
"","","","","","visual-search-circle","25","198367","0.0-14.0-0.0-1.5","5f1c1014ad82c0460a0fbef5","619531dcf66c91622fa1b861","619596ecfb3c877bb8a4bf5a","1257","","d","true","[[173,28],[28,426],[426,571],[571,173]]","true","4","main_T2_Trial","d","img/Fire_Up_Target.gif","[""img/Fire_Down_Distractor.gif"",""img/Fire_Down_Distractor.gif"",""img/Fire_Down_Distractor.gif"",""img/Fire_Down_Distractor.gif"",""img/Fire_Down_Distractor.gif"",""img/Fire_Down_Distractor.gif"",""img/Fire_Down_Distractor.gif"",""img/Fire_Down_Distractor.gif"",""img/Fire_Down_Distractor.gif"",""img/Fire_Down_Distractor.gif"",""img/Fire_Down_Distractor.gif"",""img/Fire_Down_Distractor.gif""]","4","targetUp_distractorsDown"
"","","","","","html-keyboard-response","26","198368","0.0-14.0-0.0-0.6","5f1c1014ad82c0460a0fbef5","619531dcf66c91622fa1b861","619596ecfb3c877bb8a4bf5a","null","","null","","","","","main_T1_ITI","","","","",""
"","","","","","visual-search-circle","27","201542","0.0-14.0-0.0-1.6","5f1c1014ad82c0460a0fbef5","619531dcf66c91622fa1b861","619596ecfb3c877bb8a4bf5a","2169","","d","false","[[367,592],[554,458],[592,232],[458,45],[232,7],[45,141],[7,367],[141,554]]","false","8","main_T2_Trial","s","img/Fire_Up_Target.gif","[""img/Fire_Down_Distractor.gif"",""img/Fire_Down_Distractor.gif"",""img/Fire_Down_Distractor.gif"",""img/Fire_Down_Distractor.gif"",""img/Fire_Down_Distractor.gif"",""img/Fire_Down_Distractor.gif"",""img/Fire_Down_Distractor.gif"",""img/Fire_Down_Distractor.gif"",""img/Fire_Down_Distractor.gif"",""img/Fire_Down_Distractor.gif"",""img/Fire_Down_Distractor.gif"",""img/Fire_Down_Distractor.gif""]","8","targetUp_distractorsDown"
"","","","","","html-keyboard-response","28","201542","0.0-14.0-0.0-0.7","5f1c1014ad82c0460a0fbef5","619531dcf66c91622fa1b861","619596ecfb3c877bb8a4bf5a","null","","null","","","","","main_T1_ITI","","","","",""
"","","","","","visual-search-circle","29","203935","0.0-14.0-0.0-1.7","5f1c1014ad82c0460a0fbef5","619531dcf66c91622fa1b861","619596ecfb3c877bb8a4bf5a","1389","","d","false","[[294,599],[531,491],[593,238],[434,32],[174,27],[8,228],[62,482]]","false","7","main_T2_Trial","s","img/Fire_Down_Target.gif","[""img/Fire_Up_Distractor.gif"",""img/Fire_Up_Distractor.gif"",""img/Fire_Up_Distractor.gif"",""img/Fire_Up_Distractor.gif"",""img/Fire_Up_Distractor.gif"",""img/Fire_Up_Distractor.gif"",""img/Fire_Up_Distractor.gif"",""img/Fire_Up_Distractor.gif"",""img/Fire_Up_Distractor.gif"",""img/Fire_Up_Distractor.gif"",""img/Fire_Up_Distractor.gif"",""img/Fire_Up_Distractor.gif""]","7","targetDown_distractorsUp"
"","","","","","html-keyboard-response","30","203936","0.0-14.0-0.0-0.8","5f1c1014ad82c0460a0fbef5","619531dcf66c91622fa1b861","619596ecfb3c877bb8a4bf5a","null","","null","","","","","main_T1_ITI","","","","",""
"","","","","","visual-search-circle","31","208433","0.0-14.0-0.0-1.8","5f1c1014ad82c0460a0fbef5","619531dcf66c91622fa1b861","619596ecfb3c877bb8a4bf5a","3494","","d","true","[[11,217],[132,548],[484,536],[581,197],[289,0]]","true","5","main_T2_Trial","d","img/Fire_Up_Target.gif","[""img/Fire_Down_Distractor.gif"",""img/Fire_Down_Distractor.gif"",""img/Fire_Down_Distractor.gif"",""img/Fire_Down_Distractor.gif"",""img/Fire_Down_Distractor.gif"",""img/Fire_Down_Distractor.gif"",""img/Fire_Down_Distractor.gif"",""img/Fire_Down_Distractor.gif"",""img/Fire_Down_Distractor.gif"",""img/Fire_Down_Distractor.gif"",""img/Fire_Down_Distractor.gif"",""img/Fire_Down_Distractor.gif""]","5","targetUp_distractorsDown"
"","","","","","html-keyboard-response","32","208434","0.0-14.0-0.0-0.9","5f1c1014ad82c0460a0fbef5","619531dcf66c91622fa1b861","619596ecfb3c877bb8a4bf5a","null","","null","","","","","main_T1_ITI","","","","",""
"","","","","","visual-search-circle","33","210505","0.0-14.0-0.0-1.9","5f1c1014ad82c0460a0fbef5","619531dcf66c91622fa1b861","619596ecfb3c877bb8a4bf5a","1066","","d","true","[[268,598],[513,510],[597,264],[457,44],[198,17],[16,203],[47,461]]","true","7","main_T2_Trial","d","img/Fire_Down_Target.gif","[""img/Fire_Up_Distractor.gif"",""img/Fire_Up_Distractor.gif"",""img/Fire_Up_Distractor.gif"",""img/Fire_Up_Distractor.gif"",""img/Fire_Up_Distractor.gif"",""img/Fire_Up_Distractor.gif"",""img/Fire_Up_Distractor.gif"",""img/Fire_Up_Distractor.gif"",""img/Fire_Up_Distractor.gif"",""img/Fire_Up_Distractor.gif"",""img/Fire_Up_Distractor.gif"",""img/Fire_Up_Distractor.gif""]","7","targetDown_distractorsUp"
"","","","","","html-keyboard-response","34","210506","0.0-14.0-0.0-0.10","5f1c1014ad82c0460a0fbef5","619531dcf66c91622fa1b861","619596ecfb3c877bb8a4bf5a","null","","null","","","","","main_T1_ITI","","","","",""
"","","","","","visual-search-circle","35","217885","0.0-14.0-0.0-1.10","5f1c1014ad82c0460a0fbef5","619531dcf66c91622fa1b861","619596ecfb3c877bb8a4bf5a","6377","","d","false","[[173,28],[2,336],[242,594],[562,445],[519,95]]","false","5","main_T2_Trial","s","img/Fire_Down_Target.gif","[""img/Fire_Up_Distractor.gif"",""img/Fire_Up_Distractor.gif"",""img/Fire_Up_Distractor.gif"",""img/Fire_Up_Distractor.gif"",""img/Fire_Up_Distractor.gif"",""img/Fire_Up_Distractor.gif"",""img/Fire_Up_Distractor.gif"",""img/Fire_Up_Distractor.gif"",""img/Fire_Up_Distractor.gif"",""img/Fire_Up_Distractor.gif"",""img/Fire_Up_Distractor.gif"",""img/Fire_Up_Distractor.gif""]","5","targetDown_distractorsUp"
"","","","","","html-keyboard-response","36","217885","0.0-14.0-0.0-0.11","5f1c1014ad82c0460a0fbef5","619531dcf66c91622fa1b861","619596ecfb3c877bb8a4bf5a","null","","null","","","","","main_T1_ITI","","","","",""
"","","","","","visual-search-circle","37","219899","0.0-14.0-0.0-1.11","5f1c1014ad82c0460a0fbef5","619531dcf66c91622fa1b861","619596ecfb3c877bb8a4bf5a","1008","","d","true","[[436,32],[207,14],[32,163],[14,392],[163,567],[392,585],[567,436],[585,207]]","true","8","main_T2_Trial","d","img/Fire_Down_Target.gif","[""img/Fire_Up_Distractor.gif"",""img/Fire_Up_Distractor.gif"",""img/Fire_Up_Distractor.gif"",""img/Fire_Up_Distractor.gif"",""img/Fire_Up_Distractor.gif"",""img/Fire_Up_Distractor.gif"",""img/Fire_Up_Distractor.gif"",""img/Fire_Up_Distractor.gif"",""img/Fire_Up_Distractor.gif"",""img/Fire_Up_Distractor.gif"",""img/Fire_Up_Distractor.gif"",""img/Fire_Up_Distractor.gif""]","8","targetDown_distractorsUp"
"","","","","","html-keyboard-response","38","219899","0.0-14.0-0.0-0.12","5f1c1014ad82c0460a0fbef5","619531dcf66c91622fa1b861","619596ecfb3c877bb8a4bf5a","null","","null","","","","","main_T1_ITI","","","","",""
"","","","","","visual-search-circle","39","222390","0.0-14.0-0.0-1.12","5f1c1014ad82c0460a0fbef5","619531dcf66c91622fa1b861","619596ecfb3c877bb8a4bf5a","1485","","s","true","[[352,595],[563,443],[576,183],[381,11],[124,56],[0,285],[101,524]]","false","7","main_T2_Trial","s","img/Fire_Up_Target.gif","[""img/Fire_Down_Distractor.gif"",""img/Fire_Down_Distractor.gif"",""img/Fire_Down_Distractor.gif"",""img/Fire_Down_Distractor.gif"",""img/Fire_Down_Distractor.gif"",""img/Fire_Down_Distractor.gif"",""img/Fire_Down_Distractor.gif"",""img/Fire_Down_Distractor.gif"",""img/Fire_Down_Distractor.gif"",""img/Fire_Down_Distractor.gif"",""img/Fire_Down_Distractor.gif"",""img/Fire_Down_Distractor.gif""]","7","targetUp_distractorsDown"
"","","","","","html-keyboard-response","40","222390","0.0-14.0-0.0-0.13","5f1c1014ad82c0460a0fbef5","619531dcf66c91622fa1b861","619596ecfb3c877bb8a4bf5a","null","","null","","","","","main_T1_ITI","","","","",""
"","","","","","visual-search-circle","41","224469","0.0-14.0-0.0-1.13","5f1c1014ad82c0460a0fbef5","619531dcf66c91622fa1b861","619596ecfb3c877bb8a4bf5a","1074","","d","true","[[149,559],[377,589],[559,450],[589,222],[450,40],[222,10],[40,150],[10,377]]","true","8","main_T2_Trial","d","img/Fire_Up_Target.gif","[""img/Fire_Down_Distractor.gif"",""img/Fire_Down_Distractor.gif"",""img/Fire_Down_Distractor.gif"",""img/Fire_Down_Distractor.gif"",""img/Fire_Down_Distractor.gif"",""img/Fire_Down_Distractor.gif"",""img/Fire_Down_Distractor.gif"",""img/Fire_Down_Distractor.gif"",""img/Fire_Down_Distractor.gif"",""img/Fire_Down_Distractor.gif"",""img/Fire_Down_Distractor.gif"",""img/Fire_Down_Distractor.gif""]","8","targetUp_distractorsDown"
"","","","","","html-keyboard-response","42","224470","0.0-14.0-0.0-0.14","5f1c1014ad82c0460a0fbef5","619531dcf66c91622fa1b861","619596ecfb3c877bb8a4bf5a","null","","null","","","","","main_T1_ITI","","","","",""
"","","","","","visual-search-circle","43","227176","0.0-14.0-0.0-1.14","5f1c1014ad82c0460a0fbef5","619531dcf66c91622fa1b861","619596ecfb3c877bb8a4bf5a","1704","","d","true","[[212,13],[7,232],[95,519],[387,586],[592,367],[504,80]]","true","6","main_T2_Trial","d","img/Fire_Down_Target.gif","[""img/Fire_Up_Distractor.gif"",""img/Fire_Up_Distractor.gif"",""img/Fire_Up_Distractor.gif"",""img/Fire_Up_Distractor.gif"",""img/Fire_Up_Distractor.gif"",""img/Fire_Up_Distractor.gif"",""img/Fire_Up_Distractor.gif"",""img/Fire_Up_Distractor.gif"",""img/Fire_Up_Distractor.gif"",""img/Fire_Up_Distractor.gif"",""img/Fire_Up_Distractor.gif"",""img/Fire_Up_Distractor.gif""]","6","targetDown_distractorsUp"
"","","","","","html-keyboard-response","44","227176","0.0-14.0-0.0-0.15","5f1c1014ad82c0460a0fbef5","619531dcf66c91622fa1b861","619596ecfb3c877bb8a4bf5a","null","","null","","","","","main_T1_ITI","","","","",""
"","","","","","visual-search-circle","45","229651","0.0-14.0-0.0-1.15","5f1c1014ad82c0460a0fbef5","619531dcf66c91622fa1b861","619596ecfb3c877bb8a4bf5a","1472","","s","true","[[598,268],[461,47],[203,16],[17,198],[44,457],[264,597],[510,513]]","false","7","main_T2_Trial","s","img/Fire_Down_Target.gif","[""img/Fire_Up_Distractor.gif"",""img/Fire_Up_Distractor.gif"",""img/Fire_Up_Distractor.gif"",""img/Fire_Up_Distractor.gif"",""img/Fire_Up_Distractor.gif"",""img/Fire_Up_Distractor.gif"",""img/Fire_Up_Distractor.gif"",""img/Fire_Up_Distractor.gif"",""img/Fire_Up_Distractor.gif"",""img/Fire_Up_Distractor.gif"",""img/Fire_Up_Distractor.gif"",""img/Fire_Up_Distractor.gif""]","7","targetDown_distractorsUp"
"","","","","","html-keyboard-response","46","229652","0.0-14.0-0.0-0.16","5f1c1014ad82c0460a0fbef5","619531dcf66c91622fa1b861","619596ecfb3c877bb8a4bf5a","null","","null","","","","","main_T1_ITI","","","","",""
"","","","","","visual-search-circle","47","231679","0.0-14.0-0.0-1.16","5f1c1014ad82c0460a0fbef5","619531dcf66c91622fa1b861","619596ecfb3c877bb8a4bf5a","1023","","d","true","[[37,154],[42,454],[305,599],[562,445],[557,145],[294,0]]","true","6","main_T2_Trial","d","img/Fire_Down_Target.gif","[""img/Fire_Up_Distractor.gif"",""img/Fire_Up_Distractor.gif"",""img/Fire_Up_Distractor.gif"",""img/Fire_Up_Distractor.gif"",""img/Fire_Up_Distractor.gif"",""img/Fire_Up_Distractor.gif"",""img/Fire_Up_Distractor.gif"",""img/Fire_Up_Distractor.gif"",""img/Fire_Up_Distractor.gif"",""img/Fire_Up_Distractor.gif"",""img/Fire_Up_Distractor.gif"",""img/Fire_Up_Distractor.gif""]","6","targetDown_distractorsUp"
"","","","","","html-keyboard-response","48","231680","0.0-14.0-0.0-0.17","5f1c1014ad82c0460a0fbef5","619531dcf66c91622fa1b861","619596ecfb3c877bb8a4bf5a","null","","null","","","","","main_T1_ITI","","","","",""
"","","","","","visual-search-circle","49","233517","0.0-14.0-0.0-1.17","5f1c1014ad82c0460a0fbef5","619531dcf66c91622fa1b861","619596ecfb3c877bb8a4bf5a","834","","s","false","[[197,18],[0,310],[217,588],[548,467],[536,115]]","true","5","main_T2_Trial","d","img/Fire_Down_Target.gif","[""img/Fire_Up_Distractor.gif"",""img/Fire_Up_Distractor.gif"",""img/Fire_Up_Distractor.gif"",""img/Fire_Up_Distractor.gif"",""img/Fire_Up_Distractor.gif"",""img/Fire_Up_Distractor.gif"",""img/Fire_Up_Distractor.gif"",""img/Fire_Up_Distractor.gif"",""img/Fire_Up_Distractor.gif"",""img/Fire_Up_Distractor.gif"",""img/Fire_Up_Distractor.gif"",""img/Fire_Up_Distractor.gif""]","5","targetDown_distractorsUp"
"","","","","","html-keyboard-response","50","233518","0.0-14.0-0.0-0.18","5f1c1014ad82c0460a0fbef5","619531dcf66c91622fa1b861","619596ecfb3c877bb8a4bf5a","null","","null","","","","","main_T1_ITI","","","","",""
"","","","","","visual-search-circle","51","235719","0.0-14.0-0.0-1.18","5f1c1014ad82c0460a0fbef5","619531dcf66c91622fa1b861","619596ecfb3c877bb8a4bf5a","1197","","s","true","[[554,458],[592,232],[458,45],[232,7],[45,141],[7,367],[141,554],[367,592]]","false","8","main_T2_Trial","s","img/Fire_Down_Target.gif","[""img/Fire_Up_Distractor.gif"",""img/Fire_Up_Distractor.gif"",""img/Fire_Up_Distractor.gif"",""img/Fire_Up_Distractor.gif"",""img/Fire_Up_Distractor.gif"",""img/Fire_Up_Distractor.gif"",""img/Fire_Up_Distractor.gif"",""img/Fire_Up_Distractor.gif"",""img/Fire_Up_Distractor.gif"",""img/Fire_Up_Distractor.gif"",""img/Fire_Up_Distractor.gif"",""img/Fire_Up_Distractor.gif""]","8","targetDown_distractorsUp"
"","","","","","html-keyboard-response","52","240962","0.0-14.0-0.0-0.19","5f1c1014ad82c0460a0fbef5","619531dcf66c91622fa1b861","619596ecfb3c877bb8a4bf5a","5241","Wow! You've completed 20 out of 160 trials! </p> <p>  </p><p> Take a quick break, then press any key when you're ready to continue."," ","","","","","main_T1_ITI","","","","",""
"","","","","","visual-search-circle","53","243385","0.0-14.0-0.0-1.19","5f1c1014ad82c0460a0fbef5","619531dcf66c91622fa1b861","619596ecfb3c877bb8a4bf5a","1420","","d","true","[[559,450],[450,40],[40,150],[150,559]]","true","4","main_T2_Trial","d","img/Fire_Up_Target.gif","[""img/Fire_Down_Distractor.gif"",""img/Fire_Down_Distractor.gif"",""img/Fire_Down_Distractor.gif"",""img/Fire_Down_Distractor.gif"",""img/Fire_Down_Distractor.gif"",""img/Fire_Down_Distractor.gif"",""img/Fire_Down_Distractor.gif"",""img/Fire_Down_Distractor.gif"",""img/Fire_Down_Distractor.gif"",""img/Fire_Down_Distractor.gif"",""img/Fire_Down_Distractor.gif"",""img/Fire_Down_Distractor.gif""]","4","targetUp_distractorsDown"
"","","","","","html-keyboard-response","54","243385","0.0-14.0-0.0-0.20","5f1c1014ad82c0460a0fbef5","619531dcf66c91622fa1b861","619596ecfb3c877bb8a4bf5a","null","","null","","","","","main_T1_ITI","","","","",""
"","","","","","visual-search-circle","55","245378","0.0-14.0-0.0-1.20","5f1c1014ad82c0460a0fbef5","619531dcf66c91622fa1b861","619596ecfb3c877bb8a4bf5a","989","","s","true","[[66,111],[19,407],[253,596],[533,488],[580,192],[346,3]]","false","6","main_T2_Trial","s","img/Fire_Down_Target.gif","[""img/Fire_Up_Distractor.gif"",""img/Fire_Up_Distractor.gif"",""img/Fire_Up_Distractor.gif"",""img/Fire_Up_Distractor.gif"",""img/Fire_Up_Distractor.gif"",""img/Fire_Up_Distractor.gif"",""img/Fire_Up_Distractor.gif"",""img/Fire_Up_Distractor.gif"",""img/Fire_Up_Distractor.gif"",""img/Fire_Up_Distractor.gif"",""img/Fire_Up_Distractor.gif"",""img/Fire_Up_Distractor.gif""]","6","targetDown_distractorsUp"
"","","","","","html-keyboard-response","56","245378","0.0-14.0-0.0-0.21","5f1c1014ad82c0460a0fbef5","619531dcf66c91622fa1b861","619596ecfb3c877bb8a4bf5a","null","","null","","","","","main_T1_ITI","","","","",""
"","","","","","visual-search-circle","57","248096","0.0-14.0-0.0-1.21","5f1c1014ad82c0460a0fbef5","619531dcf66c91622fa1b861","619596ecfb3c877bb8a4bf5a","1715","","s","true","[[402,581],[571,426],[581,197],[426,28],[197,18],[28,173],[18,402],[173,571]]","false","8","main_T2_Trial","s","img/Fire_Down_Target.gif","[""img/Fire_Up_Distractor.gif"",""img/Fire_Up_Distractor.gif"",""img/Fire_Up_Distractor.gif"",""img/Fire_Up_Distractor.gif"",""img/Fire_Up_Distractor.gif"",""img/Fire_Up_Distractor.gif"",""img/Fire_Up_Distractor.gif"",""img/Fire_Up_Distractor.gif"",""img/Fire_Up_Distractor.gif"",""img/Fire_Up_Distractor.gif"",""img/Fire_Up_Distractor.gif"",""img/Fire_Up_Distractor.gif""]","8","targetDown_distractorsUp"
"","","","","","html-keyboard-response","58","248097","0.0-14.0-0.0-0.22","5f1c1014ad82c0460a0fbef5","619531dcf66c91622fa1b861","619596ecfb3c877bb8a4bf5a","null","","null","","","","","main_T1_ITI","","","","",""
"","","","","","visual-search-circle","59","250047","0.0-14.0-0.0-1.22","5f1c1014ad82c0460a0fbef5","619531dcf66c91622fa1b861","619596ecfb3c877bb8a4bf5a","947","","d","true","[[32,163],[14,392],[163,567],[392,585],[567,436],[585,207],[436,32],[207,14]]","true","8","main_T2_Trial","d","img/Fire_Up_Target.gif","[""img/Fire_Down_Distractor.gif"",""img/Fire_Down_Distractor.gif"",""img/Fire_Down_Distractor.gif"",""img/Fire_Down_Distractor.gif"",""img/Fire_Down_Distractor.gif"",""img/Fire_Down_Distractor.gif"",""img/Fire_Down_Distractor.gif"",""img/Fire_Down_Distractor.gif"",""img/Fire_Down_Distractor.gif"",""img/Fire_Down_Distractor.gif"",""img/Fire_Down_Distractor.gif"",""img/Fire_Down_Distractor.gif""]","8","targetUp_distractorsDown"
"","","","","","html-keyboard-response","60","250048","0.0-14.0-0.0-0.23","5f1c1014ad82c0460a0fbef5","619531dcf66c91622fa1b861","619596ecfb3c877bb8a4bf5a","null","","null","","","","","main_T1_ITI","","","","",""
"","","","","","visual-search-circle","61","252782","0.0-14.0-0.0-1.23","5f1c1014ad82c0460a0fbef5","619531dcf66c91622fa1b861","619596ecfb3c877bb8a4bf5a","1732","","d","true","[[583,202],[400,17],[141,45],[2,264],[86,511],[332,598],[553,460]]","true","7","main_T2_Trial","d","img/Fire_Down_Target.gif","[""img/Fire_Up_Distractor.gif"",""img/Fire_Up_Distractor.gif"",""img/Fire_Up_Distractor.gif"",""img/Fire_Up_Distractor.gif"",""img/Fire_Up_Distractor.gif"",""img/Fire_Up_Distractor.gif"",""img/Fire_Up_Distractor.gif"",""img/Fire_Up_Distractor.gif"",""img/Fire_Up_Distractor.gif"",""img/Fire_Up_Distractor.gif"",""img/Fire_Up_Distractor.gif"",""img/Fire_Up_Distractor.gif""]","7","targetDown_distractorsUp"
"","","","","","html-keyboard-response","62","252782","0.0-14.0-0.0-0.24","5f1c1014ad82c0460a0fbef5","619531dcf66c91622fa1b861","619596ecfb3c877bb8a4bf5a","null","","null","","","","","main_T1_ITI","","","","",""
"","","","","","visual-search-circle","63","254625","0.0-14.0-0.0-1.24","5f1c1014ad82c0460a0fbef5","619531dcf66c91622fa1b861","619596ecfb3c877bb8a4bf5a","838","","s","true","[[107,70],[1,273],[70,492],[273,598],[492,529],[598,326],[529,107],[326,1]]","false","8","main_T2_Trial","s","img/Fire_Down_Target.gif","[""img/Fire_Up_Distractor.gif"",""img/Fire_Up_Distractor.gif"",""img/Fire_Up_Distractor.gif"",""img/Fire_Up_Distractor.gif"",""img/Fire_Up_Distractor.gif"",""img/Fire_Up_Distractor.gif"",""img/Fire_Up_Distractor.gif"",""img/Fire_Up_Distractor.gif"",""img/Fire_Up_Distractor.gif"",""img/Fire_Up_Distractor.gif"",""img/Fire_Up_Distractor.gif"",""img/Fire_Up_Distractor.gif""]","8","targetDown_distractorsUp"
"","","","","","html-keyboard-response","64","254626","0.0-14.0-0.0-0.25","5f1c1014ad82c0460a0fbef5","619531dcf66c91622fa1b861","619596ecfb3c877bb8a4bf5a","null","","null","","","","","main_T1_ITI","","","","",""
"","","","","","visual-search-circle","65","256678","0.0-14.0-0.0-1.25","5f1c1014ad82c0460a0fbef5","619531dcf66c91622fa1b861","619596ecfb3c877bb8a4bf5a","1049","","d","true","[[599,284],[377,10],[48,136],[66,488],[407,580]]","true","5","main_T2_Trial","d","img/Fire_Down_Target.gif","[""img/Fire_Up_Distractor.gif"",""img/Fire_Up_Distractor.gif"",""img/Fire_Up_Distractor.gif"",""img/Fire_Up_Distractor.gif"",""img/Fire_Up_Distractor.gif"",""img/Fire_Up_Distractor.gif"",""img/Fire_Up_Distractor.gif"",""img/Fire_Up_Distractor.gif"",""img/Fire_Up_Distractor.gif"",""img/Fire_Up_Distractor.gif"",""img/Fire_Up_Distractor.gif"",""img/Fire_Up_Distractor.gif""]","5","targetDown_distractorsUp"
"","","","","","html-keyboard-response","66","256678","0.0-14.0-0.0-0.26","5f1c1014ad82c0460a0fbef5","619531dcf66c91622fa1b861","619596ecfb3c877bb8a4bf5a","null","","null","","","","","main_T1_ITI","","","","",""
"","","","","","visual-search-circle","67","258924","0.0-14.0-0.0-1.26","5f1c1014ad82c0460a0fbef5","619531dcf66c91622fa1b861","619596ecfb3c877bb8a4bf5a","1242","","d","true","[[599,320],[320,0],[0,279],[279,599]]","true","4","main_T2_Trial","d","img/Fire_Down_Target.gif","[""img/Fire_Up_Distractor.gif"",""img/Fire_Up_Distractor.gif"",""img/Fire_Up_Distractor.gif"",""img/Fire_Up_Distractor.gif"",""img/Fire_Up_Distractor.gif"",""img/Fire_Up_Distractor.gif"",""img/Fire_Up_Distractor.gif"",""img/Fire_Up_Distractor.gif"",""img/Fire_Up_Distractor.gif"",""img/Fire_Up_Distractor.gif"",""img/Fire_Up_Distractor.gif"",""img/Fire_Up_Distractor.gif""]","4","targetDown_distractorsUp"
"","","","","","html-keyboard-response","68","258925","0.0-14.0-0.0-0.27","5f1c1014ad82c0460a0fbef5","619531dcf66c91622fa1b861","619596ecfb3c877bb8a4bf5a","null","","null","","","","","main_T1_ITI","","","","",""
"","","","","","visual-search-circle","69","261917","0.0-14.0-0.0-1.27","5f1c1014ad82c0460a0fbef5","619531dcf66c91622fa1b861","619596ecfb3c877bb8a4bf5a","1991","","s","true","[[341,2],[30,168],[91,515],[440,564],[595,247]]","false","5","main_T2_Trial","s","img/Fire_Down_Target.gif","[""img/Fire_Up_Distractor.gif"",""img/Fire_Up_Distractor.gif"",""img/Fire_Up_Distractor.gif"",""img/Fire_Up_Distractor.gif"",""img/Fire_Up_Distractor.gif"",""img/Fire_Up_Distractor.gif"",""img/Fire_Up_Distractor.gif"",""img/Fire_Up_Distractor.gif"",""img/Fire_Up_Distractor.gif"",""img/Fire_Up_Distractor.gif"",""img/Fire_Up_Distractor.gif"",""img/Fire_Up_Distractor.gif""]","5","targetDown_distractorsUp"
"","","","","","html-keyboard-response","70","261917","0.0-14.0-0.0-0.28","5f1c1014ad82c0460a0fbef5","619531dcf66c91622fa1b861","619596ecfb3c877bb8a4bf5a","null","","null","","","","","main_T1_ITI","","","","",""
"","","","","","visual-search-circle","71","265679","0.0-14.0-0.0-1.28","5f1c1014ad82c0460a0fbef5","619531dcf66c91622fa1b861","619596ecfb3c877bb8a4bf5a","2759","","s","true","[[1,268],[89,513],[335,597],[555,457],[582,198],[396,16],[138,47]]","false","7","main_T2_Trial","s","img/Fire_Up_Target.gif","[""img/Fire_Down_Distractor.gif"",""img/Fire_Down_Distractor.gif"",""img/Fire_Down_Distractor.gif"",""img/Fire_Down_Distractor.gif"",""img/Fire_Down_Distractor.gif"",""img/Fire_Down_Distractor.gif"",""img/Fire_Down_Distractor.gif"",""img/Fire_Down_Distractor.gif"",""img/Fire_Down_Distractor.gif"",""img/Fire_Down_Distractor.gif"",""img/Fire_Down_Distractor.gif"",""img/Fire_Down_Distractor.gif""]","7","targetUp_distractorsDown"
"","","","","","html-keyboard-response","72","265679","0.0-14.0-0.0-0.29","5f1c1014ad82c0460a0fbef5","619531dcf66c91622fa1b861","619596ecfb3c877bb8a4bf5a","null","","null","","","","","main_T1_ITI","","","","",""
"","","","","","visual-search-circle","73","268716","0.0-14.0-0.0-1.29","5f1c1014ad82c0460a0fbef5","619531dcf66c91622fa1b861","619596ecfb3c877bb8a4bf5a","2032","","s","true","[[80,504],[323,599],[548,468],[586,210],[408,20],[149,40],[3,256]]","false","7","main_T2_Trial","s","img/Fire_Down_Target.gif","[""img/Fire_Up_Distractor.gif"",""img/Fire_Up_Distractor.gif"",""img/Fire_Up_Distractor.gif"",""img/Fire_Up_Distractor.gif"",""img/Fire_Up_Distractor.gif"",""img/Fire_Up_Distractor.gif"",""img/Fire_Up_Distractor.gif"",""img/Fire_Up_Distractor.gif"",""img/Fire_Up_Distractor.gif"",""img/Fire_Up_Distractor.gif"",""img/Fire_Up_Distractor.gif"",""img/Fire_Up_Distractor.gif""]","7","targetDown_distractorsUp"
"","","","","","html-keyboard-response","74","268717","0.0-14.0-0.0-0.30","5f1c1014ad82c0460a0fbef5","619531dcf66c91622fa1b861","619596ecfb3c877bb8a4bf5a","null","","null","","","","","main_T1_ITI","","","","",""
"","","","","","visual-search-circle","75","270455","0.0-14.0-0.0-1.30","5f1c1014ad82c0460a0fbef5","619531dcf66c91622fa1b861","619596ecfb3c877bb8a4bf5a","733","","d","true","[[202,583],[460,553],[598,332],[511,86],[264,2],[45,141],[17,400]]","true","7","main_T2_Trial","d","img/Fire_Down_Target.gif","[""img/Fire_Up_Distractor.gif"",""img/Fire_Up_Distractor.gif"",""img/Fire_Up_Distractor.gif"",""img/Fire_Up_Distractor.gif"",""img/Fire_Up_Distractor.gif"",""img/Fire_Up_Distractor.gif"",""img/Fire_Up_Distractor.gif"",""img/Fire_Up_Distractor.gif"",""img/Fire_Up_Distractor.gif"",""img/Fire_Up_Distractor.gif"",""img/Fire_Up_Distractor.gif"",""img/Fire_Up_Distractor.gif""]","7","targetDown_distractorsUp"
"","","","","","html-keyboard-response","76","270455","0.0-14.0-0.0-0.31","5f1c1014ad82c0460a0fbef5","619531dcf66c91622fa1b861","619596ecfb3c877bb8a4bf5a","null","","null","","","","","main_T1_ITI","","","","",""
"","","","","","visual-search-circle","77","272376","0.0-14.0-0.0-1.31","5f1c1014ad82c0460a0fbef5","619531dcf66c91622fa1b861","619596ecfb3c877bb8a4bf5a","917","","s","true","[[284,599],[551,463],[567,163],[315,0],[48,136],[32,436]]","false","6","main_T2_Trial","s","img/Fire_Down_Target.gif","[""img/Fire_Up_Distractor.gif"",""img/Fire_Up_Distractor.gif"",""img/Fire_Up_Distractor.gif"",""img/Fire_Up_Distractor.gif"",""img/Fire_Up_Distractor.gif"",""img/Fire_Up_Distractor.gif"",""img/Fire_Up_Distractor.gif"",""img/Fire_Up_Distractor.gif"",""img/Fire_Up_Distractor.gif"",""img/Fire_Up_Distractor.gif"",""img/Fire_Up_Distractor.gif"",""img/Fire_Up_Distractor.gif""]","6","targetDown_distractorsUp"
"","","","","","html-keyboard-response","78","272376","0.0-14.0-0.0-0.32","5f1c1014ad82c0460a0fbef5","619531dcf66c91622fa1b861","619596ecfb3c877bb8a4bf5a","null","","null","","","","","main_T1_ITI","","","","",""
"","","","","","visual-search-circle","79","274105","0.0-14.0-0.0-1.32","5f1c1014ad82c0460a0fbef5","619531dcf66c91622fa1b861","619596ecfb3c877bb8a4bf5a","725","","d","true","[[1,268],[89,513],[335,597],[555,457],[582,198],[396,16],[138,47]]","true","7","main_T2_Trial","d","img/Fire_Down_Target.gif","[""img/Fire_Up_Distractor.gif"",""img/Fire_Up_Distractor.gif"",""img/Fire_Up_Distractor.gif"",""img/Fire_Up_Distractor.gif"",""img/Fire_Up_Distractor.gif"",""img/Fire_Up_Distractor.gif"",""img/Fire_Up_Distractor.gif"",""img/Fire_Up_Distractor.gif"",""img/Fire_Up_Distractor.gif"",""img/Fire_Up_Distractor.gif"",""img/Fire_Up_Distractor.gif"",""img/Fire_Up_Distractor.gif""]","7","targetDown_distractorsUp"
"","","","","","html-keyboard-response","80","274106","0.0-14.0-0.0-0.33","5f1c1014ad82c0460a0fbef5","619531dcf66c91622fa1b861","619596ecfb3c877bb8a4bf5a","null","","null","","","","","main_T1_ITI","","","","",""
"","","","","","visual-search-circle","81","276195","0.0-14.0-0.0-1.33","5f1c1014ad82c0460a0fbef5","619531dcf66c91622fa1b861","619596ecfb3c877bb8a4bf5a","1086","","d","true","[[187,578],[578,412],[412,21],[21,187]]","true","4","main_T2_Trial","d","img/Fire_Up_Target.gif","[""img/Fire_Down_Distractor.gif"",""img/Fire_Down_Distractor.gif"",""img/Fire_Down_Distractor.gif"",""img/Fire_Down_Distractor.gif"",""img/Fire_Down_Distractor.gif"",""img/Fire_Down_Distractor.gif"",""img/Fire_Down_Distractor.gif"",""img/Fire_Down_Distractor.gif"",""img/Fire_Down_Distractor.gif"",""img/Fire_Down_Distractor.gif"",""img/Fire_Down_Distractor.gif"",""img/Fire_Down_Distractor.gif""]","4","targetUp_distractorsDown"
"","","","","","html-keyboard-response","82","276195","0.0-14.0-0.0-0.34","5f1c1014ad82c0460a0fbef5","619531dcf66c91622fa1b861","619596ecfb3c877bb8a4bf5a","null","","null","","","","","main_T1_ITI","","","","",""
"","","","","","visual-search-circle","83","278059","0.0-14.0-0.0-1.34","5f1c1014ad82c0460a0fbef5","619531dcf66c91622fa1b861","619596ecfb3c877bb8a4bf5a","860","","d","false","[[21,412],[214,587],[471,546],[599,319],[501,78],[252,3],[38,152]]","false","7","main_T2_Trial","s","img/Fire_Up_Target.gif","[""img/Fire_Down_Distractor.gif"",""img/Fire_Down_Distractor.gif"",""img/Fire_Down_Distractor.gif"",""img/Fire_Down_Distractor.gif"",""img/Fire_Down_Distractor.gif"",""img/Fire_Down_Distractor.gif"",""img/Fire_Down_Distractor.gif"",""img/Fire_Down_Distractor.gif"",""img/Fire_Down_Distractor.gif"",""img/Fire_Down_Distractor.gif"",""img/Fire_Down_Distractor.gif"",""img/Fire_Down_Distractor.gif""]","7","targetUp_distractorsDown"
"","","","","","html-keyboard-response","84","278059","0.0-14.0-0.0-0.35","5f1c1014ad82c0460a0fbef5","619531dcf66c91622fa1b861","619596ecfb3c877bb8a4bf5a","null","","null","","","","","main_T1_ITI","","","","",""
"","","","","","visual-search-circle","85","280764","0.0-14.0-0.0-1.35","5f1c1014ad82c0460a0fbef5","619531dcf66c91622fa1b861","619596ecfb3c877bb8a4bf5a","1700","","s","true","[[222,589],[478,541],[599,311],[495,72],[244,5],[34,159],[25,419]]","false","7","main_T2_Trial","s","img/Fire_Down_Target.gif","[""img/Fire_Up_Distractor.gif"",""img/Fire_Up_Distractor.gif"",""img/Fire_Up_Distractor.gif"",""img/Fire_Up_Distractor.gif"",""img/Fire_Up_Distractor.gif"",""img/Fire_Up_Distractor.gif"",""img/Fire_Up_Distractor.gif"",""img/Fire_Up_Distractor.gif"",""img/Fire_Up_Distractor.gif"",""img/Fire_Up_Distractor.gif"",""img/Fire_Up_Distractor.gif"",""img/Fire_Up_Distractor.gif""]","7","targetDown_distractorsUp"
"","","","","","html-keyboard-response","86","280764","0.0-14.0-0.0-0.36","5f1c1014ad82c0460a0fbef5","619531dcf66c91622fa1b861","619596ecfb3c877bb8a4bf5a","null","","null","","","","","main_T1_ITI","","","","",""
"","","","","","visual-search-circle","87","284119","0.0-14.0-0.0-1.36","5f1c1014ad82c0460a0fbef5","619531dcf66c91622fa1b861","619596ecfb3c877bb8a4bf5a","2352","","s","true","[[279,0],[8,227],[141,554],[492,529],[578,187]]","false","5","main_T2_Trial","s","img/Fire_Up_Target.gif","[""img/Fire_Down_Distractor.gif"",""img/Fire_Down_Distractor.gif"",""img/Fire_Down_Distractor.gif"",""img/Fire_Down_Distractor.gif"",""img/Fire_Down_Distractor.gif"",""img/Fire_Down_Distractor.gif"",""img/Fire_Down_Distractor.gif"",""img/Fire_Down_Distractor.gif"",""img/Fire_Down_Distractor.gif"",""img/Fire_Down_Distractor.gif"",""img/Fire_Down_Distractor.gif"",""img/Fire_Down_Distractor.gif""]","5","targetUp_distractorsDown"
"","","","","","html-keyboard-response","88","284120","0.0-14.0-0.0-0.37","5f1c1014ad82c0460a0fbef5","619531dcf66c91622fa1b861","619596ecfb3c877bb8a4bf5a","null","","null","","","","","main_T1_ITI","","","","",""
"","","","","","visual-search-circle","89","287735","0.0-14.0-0.0-1.37","5f1c1014ad82c0460a0fbef5","619531dcf66c91622fa1b861","619596ecfb3c877bb8a4bf5a","2608","","d","true","[[407,580],[580,192],[192,19],[19,407]]","true","4","main_T2_Trial","d","img/Fire_Up_Target.gif","[""img/Fire_Down_Distractor.gif"",""img/Fire_Down_Distractor.gif"",""img/Fire_Down_Distractor.gif"",""img/Fire_Down_Distractor.gif"",""img/Fire_Down_Distractor.gif"",""img/Fire_Down_Distractor.gif"",""img/Fire_Down_Distractor.gif"",""img/Fire_Down_Distractor.gif"",""img/Fire_Down_Distractor.gif"",""img/Fire_Down_Distractor.gif"",""img/Fire_Down_Distractor.gif"",""img/Fire_Down_Distractor.gif""]","4","targetUp_distractorsDown"
"","","","","","html-keyboard-response","90","287735","0.0-14.0-0.0-0.38","5f1c1014ad82c0460a0fbef5","619531dcf66c91622fa1b861","619596ecfb3c877bb8a4bf5a","null","","null","","","","","main_T1_ITI","","","","",""
"","","","","","visual-search-circle","91","290674","0.0-14.0-0.0-1.38","5f1c1014ad82c0460a0fbef5","619531dcf66c91622fa1b861","619596ecfb3c877bb8a4bf5a","1934","","s","true","[[519,95],[276,0],[51,131],[13,389],[191,579],[450,559],[596,343]]","false","7","main_T2_Trial","s","img/Fire_Down_Target.gif","[""img/Fire_Up_Distractor.gif"",""img/Fire_Up_Distractor.gif"",""img/Fire_Up_Distractor.gif"",""img/Fire_Up_Distractor.gif"",""img/Fire_Up_Distractor.gif"",""img/Fire_Up_Distractor.gif"",""img/Fire_Up_Distractor.gif"",""img/Fire_Up_Distractor.gif"",""img/Fire_Up_Distractor.gif"",""img/Fire_Up_Distractor.gif"",""img/Fire_Up_Distractor.gif"",""img/Fire_Up_Distractor.gif""]","7","targetDown_distractorsUp"
"","","","","","html-keyboard-response","92","292142","0.0-14.0-0.0-0.39","5f1c1014ad82c0460a0fbef5","619531dcf66c91622fa1b861","619596ecfb3c877bb8a4bf5a","1468","Wow! You've completed 40 out of 160 trials! </p> <p>  </p><p> Take a quick break, then press any key when you're ready to continue."," ","","","","","main_T1_ITI","","","","",""
"","","","","","visual-search-circle","93","294266","0.0-14.0-0.0-1.39","5f1c1014ad82c0460a0fbef5","619531dcf66c91622fa1b861","619596ecfb3c877bb8a4bf5a","1120","","d","true","[[567,163],[315,0],[48,136],[32,436],[284,599],[551,463]]","true","6","main_T2_Trial","d","img/Fire_Up_Target.gif","[""img/Fire_Down_Distractor.gif"",""img/Fire_Down_Distractor.gif"",""img/Fire_Down_Distractor.gif"",""img/Fire_Down_Distractor.gif"",""img/Fire_Down_Distractor.gif"",""img/Fire_Down_Distractor.gif"",""img/Fire_Down_Distractor.gif"",""img/Fire_Down_Distractor.gif"",""img/Fire_Down_Distractor.gif"",""img/Fire_Down_Distractor.gif"",""img/Fire_Down_Distractor.gif"",""img/Fire_Down_Distractor.gif""]","6","targetUp_distractorsDown"
"","","","","","html-keyboard-response","94","294266","0.0-14.0-0.0-0.40","5f1c1014ad82c0460a0fbef5","619531dcf66c91622fa1b861","619596ecfb3c877bb8a4bf5a","null","","null","","","","","main_T1_ITI","","","","",""
"","","","","","visual-search-circle","95","296378","0.0-14.0-0.0-1.40","5f1c1014ad82c0460a0fbef5","619531dcf66c91622fa1b861","619596ecfb3c877bb8a4bf5a","1111","","s","true","[[392,14],[163,32],[14,207],[32,436],[207,585],[436,567],[585,392],[567,163]]","false","8","main_T2_Trial","s","img/Fire_Up_Target.gif","[""img/Fire_Down_Distractor.gif"",""img/Fire_Down_Distractor.gif"",""img/Fire_Down_Distractor.gif"",""img/Fire_Down_Distractor.gif"",""img/Fire_Down_Distractor.gif"",""img/Fire_Down_Distractor.gif"",""img/Fire_Down_Distractor.gif"",""img/Fire_Down_Distractor.gif"",""img/Fire_Down_Distractor.gif"",""img/Fire_Down_Distractor.gif"",""img/Fire_Down_Distractor.gif"",""img/Fire_Down_Distractor.gif""]","8","targetUp_distractorsDown"
"","","","","","html-keyboard-response","96","296379","0.0-14.0-0.0-0.41","5f1c1014ad82c0460a0fbef5","619531dcf66c91622fa1b861","619596ecfb3c877bb8a4bf5a","null","","null","","","","","main_T1_ITI","","","","",""
"","","","","","visual-search-circle","97","300481","0.0-14.0-0.0-1.41","5f1c1014ad82c0460a0fbef5","619531dcf66c91622fa1b861","619596ecfb3c877bb8a4bf5a","3100","","s","true","[[454,557],[592,232],[326,1],[23,182],[103,526]]","false","5","main_T2_Trial","s","img/Fire_Down_Target.gif","[""img/Fire_Up_Distractor.gif"",""img/Fire_Up_Distractor.gif"",""img/Fire_Up_Distractor.gif"",""img/Fire_Up_Distractor.gif"",""img/Fire_Up_Distractor.gif"",""img/Fire_Up_Distractor.gif"",""img/Fire_Up_Distractor.gif"",""img/Fire_Up_Distractor.gif"",""img/Fire_Up_Distractor.gif"",""img/Fire_Up_Distractor.gif"",""img/Fire_Up_Distractor.gif"",""img/Fire_Up_Distractor.gif""]","5","targetDown_distractorsUp"
"","","","","","html-keyboard-response","98","300482","0.0-14.0-0.0-0.42","5f1c1014ad82c0460a0fbef5","619531dcf66c91622fa1b861","619596ecfb3c877bb8a4bf5a","null","","null","","","","","main_T1_ITI","","","","",""
"","","","","","visual-search-circle","99","302694","0.0-14.0-0.0-1.42","5f1c1014ad82c0460a0fbef5","619531dcf66c91622fa1b861","619596ecfb3c877bb8a4bf5a","1210","","d","true","[[222,589],[551,463],[533,111],[192,19],[0,315]]","true","5","main_T2_Trial","d","img/Fire_Up_Target.gif","[""img/Fire_Down_Distractor.gif"",""img/Fire_Down_Distractor.gif"",""img/Fire_Down_Distractor.gif"",""img/Fire_Down_Distractor.gif"",""img/Fire_Down_Distractor.gif"",""img/Fire_Down_Distractor.gif"",""img/Fire_Down_Distractor.gif"",""img/Fire_Down_Distractor.gif"",""img/Fire_Down_Distractor.gif"",""img/Fire_Down_Distractor.gif"",""img/Fire_Down_Distractor.gif"",""img/Fire_Down_Distractor.gif""]","5","targetUp_distractorsDown"
"","","","","","html-keyboard-response","100","302694","0.0-14.0-0.0-0.43","5f1c1014ad82c0460a0fbef5","619531dcf66c91622fa1b861","619596ecfb3c877bb8a4bf5a","null","","null","","","","","main_T1_ITI","","","","",""
"","","","","","visual-search-circle","101","306462","0.0-14.0-0.0-1.43","5f1c1014ad82c0460a0fbef5","619531dcf66c91622fa1b861","619596ecfb3c877bb8a4bf5a","2766","","d","true","[[8,227],[42,454],[227,591],[454,557],[591,372],[557,145],[372,8],[145,42]]","true","8","main_T2_Trial","d","img/Fire_Up_Target.gif","[""img/Fire_Down_Distractor.gif"",""img/Fire_Down_Distractor.gif"",""img/Fire_Down_Distractor.gif"",""img/Fire_Down_Distractor.gif"",""img/Fire_Down_Distractor.gif"",""img/Fire_Down_Distractor.gif"",""img/Fire_Down_Distractor.gif"",""img/Fire_Down_Distractor.gif"",""img/Fire_Down_Distractor.gif"",""img/Fire_Down_Distractor.gif"",""img/Fire_Down_Distractor.gif"",""img/Fire_Down_Distractor.gif""]","8","targetUp_distractorsDown"
"","","","","","html-keyboard-response","102","306463","0.0-14.0-0.0-0.44","5f1c1014ad82c0460a0fbef5","619531dcf66c91622fa1b861","619596ecfb3c877bb8a4bf5a","null","","null","","","","","main_T1_ITI","","","","",""
"","","","","","visual-search-circle","103","308615","0.0-14.0-0.0-1.44","5f1c1014ad82c0460a0fbef5","619531dcf66c91622fa1b861","619596ecfb3c877bb8a4bf5a","1148","","s","true","[[315,599],[589,377],[463,48],[111,66],[19,407]]","false","5","main_T2_Trial","s","img/Fire_Down_Target.gif","[""img/Fire_Up_Distractor.gif"",""img/Fire_Up_Distractor.gif"",""img/Fire_Up_Distractor.gif"",""img/Fire_Up_Distractor.gif"",""img/Fire_Up_Distractor.gif"",""img/Fire_Up_Distractor.gif"",""img/Fire_Up_Distractor.gif"",""img/Fire_Up_Distractor.gif"",""img/Fire_Up_Distractor.gif"",""img/Fire_Up_Distractor.gif"",""img/Fire_Up_Distractor.gif"",""img/Fire_Up_Distractor.gif""]","5","targetDown_distractorsUp"
"","","","","","html-keyboard-response","104","308615","0.0-14.0-0.0-0.45","5f1c1014ad82c0460a0fbef5","619531dcf66c91622fa1b861","619596ecfb3c877bb8a4bf5a","null","","null","","","","","main_T1_ITI","","","","",""
"","","","","","visual-search-circle","105","311082","0.0-14.0-0.0-1.45","5f1c1014ad82c0460a0fbef5","619531dcf66c91622fa1b861","619596ecfb3c877bb8a4bf5a","1463","","s","true","[[583,397],[526,103],[242,5],[16,202],[73,496],[357,594]]","false","6","main_T2_Trial","s","img/Fire_Up_Target.gif","[""img/Fire_Down_Distractor.gif"",""img/Fire_Down_Distractor.gif"",""img/Fire_Down_Distractor.gif"",""img/Fire_Down_Distractor.gif"",""img/Fire_Down_Distractor.gif"",""img/Fire_Down_Distractor.gif"",""img/Fire_Down_Distractor.gif"",""img/Fire_Down_Distractor.gif"",""img/Fire_Down_Distractor.gif"",""img/Fire_Down_Distractor.gif"",""img/Fire_Down_Distractor.gif"",""img/Fire_Down_Distractor.gif""]","6","targetUp_distractorsDown"
"","","","","","html-keyboard-response","106","311082","0.0-14.0-0.0-0.46","5f1c1014ad82c0460a0fbef5","619531dcf66c91622fa1b861","619596ecfb3c877bb8a4bf5a","null","","null","","","","","main_T1_ITI","","","","",""
"","","","","","visual-search-circle","107","315506","0.0-14.0-0.0-1.46","5f1c1014ad82c0460a0fbef5","619531dcf66c91622fa1b861","619596ecfb3c877bb8a4bf5a","3421","","s","true","[[352,595],[581,402],[529,107],[247,4],[18,197],[70,492]]","false","6","main_T2_Trial","s","img/Fire_Down_Target.gif","[""img/Fire_Up_Distractor.gif"",""img/Fire_Up_Distractor.gif"",""img/Fire_Up_Distractor.gif"",""img/Fire_Up_Distractor.gif"",""img/Fire_Up_Distractor.gif"",""img/Fire_Up_Distractor.gif"",""img/Fire_Up_Distractor.gif"",""img/Fire_Up_Distractor.gif"",""img/Fire_Up_Distractor.gif"",""img/Fire_Up_Distractor.gif"",""img/Fire_Up_Distractor.gif"",""img/Fire_Up_Distractor.gif""]","6","targetDown_distractorsUp"
"","","","","","html-keyboard-response","108","315506","0.0-14.0-0.0-0.47","5f1c1014ad82c0460a0fbef5","619531dcf66c91622fa1b861","619596ecfb3c877bb8a4bf5a","null","","null","","","","","main_T1_ITI","","","","",""
"","","","","","visual-search-circle","109","317401","0.0-14.0-0.0-1.47","5f1c1014ad82c0460a0fbef5","619531dcf66c91622fa1b861","619596ecfb3c877bb8a4bf5a","892","","d","true","[[484,63],[230,8],[28,172],[31,432],[236,593],[489,532],[599,297]]","true","7","main_T2_Trial","d","img/Fire_Down_Target.gif","[""img/Fire_Up_Distractor.gif"",""img/Fire_Up_Distractor.gif"",""img/Fire_Up_Distractor.gif"",""img/Fire_Up_Distractor.gif"",""img/Fire_Up_Distractor.gif"",""img/Fire_Up_Distractor.gif"",""img/Fire_Up_Distractor.gif"",""img/Fire_Up_Distractor.gif"",""img/Fire_Up_Distractor.gif"",""img/Fire_Up_Distractor.gif"",""img/Fire_Up_Distractor.gif"",""img/Fire_Up_Distractor.gif""]","7","targetDown_distractorsUp"
"","","","","","html-keyboard-response","110","317401","0.0-14.0-0.0-0.48","5f1c1014ad82c0460a0fbef5","619531dcf66c91622fa1b861","619596ecfb3c877bb8a4bf5a","null","","null","","","","","main_T1_ITI","","","","",""
"","","","","","visual-search-circle","111","320173","0.0-14.0-0.0-1.48","5f1c1014ad82c0460a0fbef5","619531dcf66c91622fa1b861","619596ecfb3c877bb8a4bf5a","1766","","s","true","[[80,504],[289,599],[504,519],[599,310],[519,95],[310,0],[95,80],[0,289]]","false","8","main_T2_Trial","s","img/Fire_Down_Target.gif","[""img/Fire_Up_Distractor.gif"",""img/Fire_Up_Distractor.gif"",""img/Fire_Up_Distractor.gif"",""img/Fire_Up_Distractor.gif"",""img/Fire_Up_Distractor.gif"",""img/Fire_Up_Distractor.gif"",""img/Fire_Up_Distractor.gif"",""img/Fire_Up_Distractor.gif"",""img/Fire_Up_Distractor.gif"",""img/Fire_Up_Distractor.gif"",""img/Fire_Up_Distractor.gif"",""img/Fire_Up_Distractor.gif""]","8","targetDown_distractorsUp"
"","","","","","html-keyboard-response","112","320174","0.0-14.0-0.0-0.49","5f1c1014ad82c0460a0fbef5","619531dcf66c91622fa1b861","619596ecfb3c877bb8a4bf5a","null","","null","","","","","main_T1_ITI","","","","",""
"","","","","","visual-search-circle","113","324973","0.0-14.0-0.0-1.49","5f1c1014ad82c0460a0fbef5","619531dcf66c91622fa1b861","619596ecfb3c877bb8a4bf5a","3797","","s","true","[[182,23],[2,263],[119,539],[417,576],[597,336],[480,60]]","false","6","main_T2_Trial","s","img/Fire_Up_Target.gif","[""img/Fire_Down_Distractor.gif"",""img/Fire_Down_Distractor.gif"",""img/Fire_Down_Distractor.gif"",""img/Fire_Down_Distractor.gif"",""img/Fire_Down_Distractor.gif"",""img/Fire_Down_Distractor.gif"",""img/Fire_Down_Distractor.gif"",""img/Fire_Down_Distractor.gif"",""img/Fire_Down_Distractor.gif"",""img/Fire_Down_Distractor.gif"",""img/Fire_Down_Distractor.gif"",""img/Fire_Down_Distractor.gif""]","6","targetUp_distractorsDown"
"","","","","","html-keyboard-response","114","324973","0.0-14.0-0.0-0.50","5f1c1014ad82c0460a0fbef5","619531dcf66c91622fa1b861","619596ecfb3c877bb8a4bf5a","null","","null","","","","","main_T1_ITI","","","","",""
"","","","","","visual-search-circle","115","326907","0.0-14.0-0.0-1.50","5f1c1014ad82c0460a0fbef5","619531dcf66c91622fa1b861","619596ecfb3c877bb8a4bf5a","931","","d","true","[[595,352],[492,70],[197,18],[4,247],[107,529],[402,581]]","true","6","main_T2_Trial","d","img/Fire_Down_Target.gif","[""img/Fire_Up_Distractor.gif"",""img/Fire_Up_Distractor.gif"",""img/Fire_Up_Distractor.gif"",""img/Fire_Up_Distractor.gif"",""img/Fire_Up_Distractor.gif"",""img/Fire_Up_Distractor.gif"",""img/Fire_Up_Distractor.gif"",""img/Fire_Up_Distractor.gif"",""img/Fire_Up_Distractor.gif"",""img/Fire_Up_Distractor.gif"",""img/Fire_Up_Distractor.gif"",""img/Fire_Up_Distractor.gif""]","6","targetDown_distractorsUp"
"","","","","","html-keyboard-response","116","326908","0.0-14.0-0.0-0.51","5f1c1014ad82c0460a0fbef5","619531dcf66c91622fa1b861","619596ecfb3c877bb8a4bf5a","null","","null","","","","","main_T1_ITI","","","","",""
"","","","","","visual-search-circle","117","329452","0.0-14.0-0.0-1.51","5f1c1014ad82c0460a0fbef5","619531dcf66c91622fa1b861","619596ecfb3c877bb8a4bf5a","1542","","s","true","[[315,599],[599,284],[284,0],[0,315]]","false","4","main_T2_Trial","s","img/Fire_Down_Target.gif","[""img/Fire_Up_Distractor.gif"",""img/Fire_Up_Distractor.gif"",""img/Fire_Up_Distractor.gif"",""img/Fire_Up_Distractor.gif"",""img/Fire_Up_Distractor.gif"",""img/Fire_Up_Distractor.gif"",""img/Fire_Up_Distractor.gif"",""img/Fire_Up_Distractor.gif"",""img/Fire_Up_Distractor.gif"",""img/Fire_Up_Distractor.gif"",""img/Fire_Up_Distractor.gif"",""img/Fire_Up_Distractor.gif""]","4","targetDown_distractorsUp"
"","","","","","html-keyboard-response","118","329453","0.0-14.0-0.0-0.52","5f1c1014ad82c0460a0fbef5","619531dcf66c91622fa1b861","619596ecfb3c877bb8a4bf5a","null","","null","","","","","main_T1_ITI","","","","",""
"","","","","","visual-search-circle","119","331229","0.0-14.0-0.0-1.52","5f1c1014ad82c0460a0fbef5","619531dcf66c91622fa1b861","619596ecfb3c877bb8a4bf5a","773","","d","true","[[2,263],[63,484],[263,597],[484,536],[597,336],[536,115],[336,2],[115,63]]","true","8","main_T2_Trial","d","img/Fire_Down_Target.gif","[""img/Fire_Up_Distractor.gif"",""img/Fire_Up_Distractor.gif"",""img/Fire_Up_Distractor.gif"",""img/Fire_Up_Distractor.gif"",""img/Fire_Up_Distractor.gif"",""img/Fire_Up_Distractor.gif"",""img/Fire_Up_Distractor.gif"",""img/Fire_Up_Distractor.gif"",""img/Fire_Up_Distractor.gif"",""img/Fire_Up_Distractor.gif"",""img/Fire_Up_Distractor.gif"",""img/Fire_Up_Distractor.gif""]","8","targetDown_distractorsUp"
"","","","","","html-keyboard-response","120","331230","0.0-14.0-0.0-0.53","5f1c1014ad82c0460a0fbef5","619531dcf66c91622fa1b861","619596ecfb3c877bb8a4bf5a","null","","null","","","","","main_T1_ITI","","","","",""
"","","","","","visual-search-circle","121","333366","0.0-14.0-0.0-1.53","5f1c1014ad82c0460a0fbef5","619531dcf66c91622fa1b861","619596ecfb3c877bb8a4bf5a","1133","","d","true","[[7,232],[145,557],[496,526],[576,182],[273,1]]","true","5","main_T2_Trial","d","img/Fire_Up_Target.gif","[""img/Fire_Down_Distractor.gif"",""img/Fire_Down_Distractor.gif"",""img/Fire_Down_Distractor.gif"",""img/Fire_Down_Distractor.gif"",""img/Fire_Down_Distractor.gif"",""img/Fire_Down_Distractor.gif"",""img/Fire_Down_Distractor.gif"",""img/Fire_Down_Distractor.gif"",""img/Fire_Down_Distractor.gif"",""img/Fire_Down_Distractor.gif"",""img/Fire_Down_Distractor.gif"",""img/Fire_Down_Distractor.gif""]","5","targetUp_distractorsDown"
"","","","","","html-keyboard-response","122","333366","0.0-14.0-0.0-0.54","5f1c1014ad82c0460a0fbef5","619531dcf66c91622fa1b861","619596ecfb3c877bb8a4bf5a","null","","null","","","","","main_T1_ITI","","","","",""
"","","","","","visual-search-circle","123","335684","0.0-14.0-0.0-1.54","5f1c1014ad82c0460a0fbef5","619531dcf66c91622fa1b861","619596ecfb3c877bb8a4bf5a","1315","","d","true","[[5,242],[51,467],[242,594],[467,548],[594,357],[548,132],[357,5],[132,51]]","true","8","main_T2_Trial","d","img/Fire_Down_Target.gif","[""img/Fire_Up_Distractor.gif"",""img/Fire_Up_Distractor.gif"",""img/Fire_Up_Distractor.gif"",""img/Fire_Up_Distractor.gif"",""img/Fire_Up_Distractor.gif"",""img/Fire_Up_Distractor.gif"",""img/Fire_Up_Distractor.gif"",""img/Fire_Up_Distractor.gif"",""img/Fire_Up_Distractor.gif"",""img/Fire_Up_Distractor.gif"",""img/Fire_Up_Distractor.gif"",""img/Fire_Up_Distractor.gif""]","8","targetDown_distractorsUp"
"","","","","","html-keyboard-response","124","335684","0.0-14.0-0.0-0.55","5f1c1014ad82c0460a0fbef5","619531dcf66c91622fa1b861","619596ecfb3c877bb8a4bf5a","null","","null","","","","","main_T1_ITI","","","","",""
"","","","","","visual-search-circle","125","338567","0.0-14.0-0.0-1.55","5f1c1014ad82c0460a0fbef5","619531dcf66c91622fa1b861","619596ecfb3c877bb8a4bf5a","1879","","d","true","[[431,569],[599,320],[467,51],[168,30],[0,279],[132,548]]","true","6","main_T2_Trial","d","img/Fire_Down_Target.gif","[""img/Fire_Up_Distractor.gif"",""img/Fire_Up_Distractor.gif"",""img/Fire_Up_Distractor.gif"",""img/Fire_Up_Distractor.gif"",""img/Fire_Up_Distractor.gif"",""img/Fire_Up_Distractor.gif"",""img/Fire_Up_Distractor.gif"",""img/Fire_Up_Distractor.gif"",""img/Fire_Up_Distractor.gif"",""img/Fire_Up_Distractor.gif"",""img/Fire_Up_Distractor.gif"",""img/Fire_Up_Distractor.gif""]","6","targetDown_distractorsUp"
"","","","","","html-keyboard-response","126","338567","0.0-14.0-0.0-0.56","5f1c1014ad82c0460a0fbef5","619531dcf66c91622fa1b861","619596ecfb3c877bb8a4bf5a","null","","null","","","","","main_T1_ITI","","","","",""
"","","","","","visual-search-circle","127","342057","0.0-14.0-0.0-1.56","5f1c1014ad82c0460a0fbef5","619531dcf66c91622fa1b861","619596ecfb3c877bb8a4bf5a","2487","","s","true","[[571,173],[263,2],[5,242],[154,562],[504,519]]","false","5","main_T2_Trial","s","img/Fire_Down_Target.gif","[""img/Fire_Up_Distractor.gif"",""img/Fire_Up_Distractor.gif"",""img/Fire_Up_Distractor.gif"",""img/Fire_Up_Distractor.gif"",""img/Fire_Up_Distractor.gif"",""img/Fire_Up_Distractor.gif"",""img/Fire_Up_Distractor.gif"",""img/Fire_Up_Distractor.gif"",""img/Fire_Up_Distractor.gif"",""img/Fire_Up_Distractor.gif"",""img/Fire_Up_Distractor.gif"",""img/Fire_Up_Distractor.gif""]","5","targetDown_distractorsUp"
"","","","","","html-keyboard-response","128","342057","0.0-14.0-0.0-0.57","5f1c1014ad82c0460a0fbef5","619531dcf66c91622fa1b861","619596ecfb3c877bb8a4bf5a","null","","null","","","","","main_T1_ITI","","","","",""
"","","","","","visual-search-circle","129","344071","0.0-14.0-0.0-1.57","5f1c1014ad82c0460a0fbef5","619531dcf66c91622fa1b861","619596ecfb3c877bb8a4bf5a","1009","","d","true","[[440,564],[564,159],[159,35],[35,440]]","true","4","main_T2_Trial","d","img/Fire_Up_Target.gif","[""img/Fire_Down_Distractor.gif"",""img/Fire_Down_Distractor.gif"",""img/Fire_Down_Distractor.gif"",""img/Fire_Down_Distractor.gif"",""img/Fire_Down_Distractor.gif"",""img/Fire_Down_Distractor.gif"",""img/Fire_Down_Distractor.gif"",""img/Fire_Down_Distractor.gif"",""img/Fire_Down_Distractor.gif"",""img/Fire_Down_Distractor.gif"",""img/Fire_Down_Distractor.gif"",""img/Fire_Down_Distractor.gif""]","4","targetUp_distractorsDown"
"","","","","","html-keyboard-response","130","344071","0.0-14.0-0.0-0.58","5f1c1014ad82c0460a0fbef5","619531dcf66c91622fa1b861","619596ecfb3c877bb8a4bf5a","null","","null","","","","","main_T1_ITI","","","","",""
"","","","","","visual-search-circle","131","345988","0.0-14.0-0.0-1.58","5f1c1014ad82c0460a0fbef5","619531dcf66c91622fa1b861","619596ecfb3c877bb8a4bf5a","915","","d","true","[[551,136],[136,48],[48,463],[463,551]]","true","4","main_T2_Trial","d","img/Fire_Up_Target.gif","[""img/Fire_Down_Distractor.gif"",""img/Fire_Down_Distractor.gif"",""img/Fire_Down_Distractor.gif"",""img/Fire_Down_Distractor.gif"",""img/Fire_Down_Distractor.gif"",""img/Fire_Down_Distractor.gif"",""img/Fire_Down_Distractor.gif"",""img/Fire_Down_Distractor.gif"",""img/Fire_Down_Distractor.gif"",""img/Fire_Down_Distractor.gif"",""img/Fire_Down_Distractor.gif"",""img/Fire_Down_Distractor.gif""]","4","targetUp_distractorsDown"
"","","","","","html-keyboard-response","132","347609","0.0-14.0-0.0-0.59","5f1c1014ad82c0460a0fbef5","619531dcf66c91622fa1b861","619596ecfb3c877bb8a4bf5a","1621","Wow! You've completed 60 out of 160 trials! </p> <p>  </p><p> Take a quick break, then press any key when you're ready to continue."," ","","","","","main_T1_ITI","","","","",""
"","","","","","visual-search-circle","133","349693","0.0-14.0-0.0-1.59","5f1c1014ad82c0460a0fbef5","619531dcf66c91622fa1b861","619596ecfb3c877bb8a4bf5a","1082","","s","true","[[589,377],[541,121],[311,0],[72,104],[5,355],[159,565],[419,574]]","false","7","main_T2_Trial","s","img/Fire_Down_Target.gif","[""img/Fire_Up_Distractor.gif"",""img/Fire_Up_Distractor.gif"",""img/Fire_Up_Distractor.gif"",""img/Fire_Up_Distractor.gif"",""img/Fire_Up_Distractor.gif"",""img/Fire_Up_Distractor.gif"",""img/Fire_Up_Distractor.gif"",""img/Fire_Up_Distractor.gif"",""img/Fire_Up_Distractor.gif"",""img/Fire_Up_Distractor.gif"",""img/Fire_Up_Distractor.gif"",""img/Fire_Up_Distractor.gif""]","7","targetDown_distractorsUp"
"","","","","","html-keyboard-response","134","349694","0.0-14.0-0.0-0.60","5f1c1014ad82c0460a0fbef5","619531dcf66c91622fa1b861","619596ecfb3c877bb8a4bf5a","null","","null","","","","","main_T1_ITI","","","","",""
"","","","","","visual-search-circle","135","352432","0.0-14.0-0.0-1.60","5f1c1014ad82c0460a0fbef5","619531dcf66c91622fa1b861","619596ecfb3c877bb8a4bf5a","1737","","d","true","[[63,484],[402,581],[599,289],[382,11],[51,132]]","true","5","main_T2_Trial","d","img/Fire_Up_Target.gif","[""img/Fire_Down_Distractor.gif"",""img/Fire_Down_Distractor.gif"",""img/Fire_Down_Distractor.gif"",""img/Fire_Down_Distractor.gif"",""img/Fire_Down_Distractor.gif"",""img/Fire_Down_Distractor.gif"",""img/Fire_Down_Distractor.gif"",""img/Fire_Down_Distractor.gif"",""img/Fire_Down_Distractor.gif"",""img/Fire_Down_Distractor.gif"",""img/Fire_Down_Distractor.gif"",""img/Fire_Down_Distractor.gif""]","5","targetUp_distractorsDown"
"","","","","","html-keyboard-response","136","352435","0.0-14.0-0.0-0.61","5f1c1014ad82c0460a0fbef5","619531dcf66c91622fa1b861","619596ecfb3c877bb8a4bf5a","null","","null","","","","","main_T1_ITI","","","","",""
"","","","","","visual-search-circle","137","354720","0.0-14.0-0.0-1.61","5f1c1014ad82c0460a0fbef5","619531dcf66c91622fa1b861","619596ecfb3c877bb8a4bf5a","1283","","s","true","[[326,1],[82,93],[2,341],[146,557],[406,580],[585,391],[549,134]]","false","7","main_T2_Trial","s","img/Fire_Up_Target.gif","[""img/Fire_Down_Distractor.gif"",""img/Fire_Down_Distractor.gif"",""img/Fire_Down_Distractor.gif"",""img/Fire_Down_Distractor.gif"",""img/Fire_Down_Distractor.gif"",""img/Fire_Down_Distractor.gif"",""img/Fire_Down_Distractor.gif"",""img/Fire_Down_Distractor.gif"",""img/Fire_Down_Distractor.gif"",""img/Fire_Down_Distractor.gif"",""img/Fire_Down_Distractor.gif"",""img/Fire_Down_Distractor.gif""]","7","targetUp_distractorsDown"
"","","","","","html-keyboard-response","138","354721","0.0-14.0-0.0-0.62","5f1c1014ad82c0460a0fbef5","619531dcf66c91622fa1b861","619596ecfb3c877bb8a4bf5a","null","","null","","","","","main_T1_ITI","","","","",""
"","","","","","visual-search-circle","139","356520","0.0-14.0-0.0-1.62","5f1c1014ad82c0460a0fbef5","619531dcf66c91622fa1b861","619596ecfb3c877bb8a4bf5a","797","","d","true","[[6,237],[237,593],[593,362],[362,6]]","true","4","main_T2_Trial","d","img/Fire_Down_Target.gif","[""img/Fire_Up_Distractor.gif"",""img/Fire_Up_Distractor.gif"",""img/Fire_Up_Distractor.gif"",""img/Fire_Up_Distractor.gif"",""img/Fire_Up_Distractor.gif"",""img/Fire_Up_Distractor.gif"",""img/Fire_Up_Distractor.gif"",""img/Fire_Up_Distractor.gif"",""img/Fire_Up_Distractor.gif"",""img/Fire_Up_Distractor.gif"",""img/Fire_Up_Distractor.gif"",""img/Fire_Up_Distractor.gif""]","4","targetDown_distractorsUp"
"","","","","","html-keyboard-response","140","356520","0.0-14.0-0.0-0.63","5f1c1014ad82c0460a0fbef5","619531dcf66c91622fa1b861","619596ecfb3c877bb8a4bf5a","null","","null","","","","","main_T1_ITI","","","","",""
"","","","","","visual-search-circle","141","358656","0.0-14.0-0.0-1.63","5f1c1014ad82c0460a0fbef5","619531dcf66c91622fa1b861","619596ecfb3c877bb8a4bf5a","1130","","d","true","[[107,70],[4,352],[197,581],[492,529],[595,247],[402,18]]","true","6","main_T2_Trial","d","img/Fire_Up_Target.gif","[""img/Fire_Down_Distractor.gif"",""img/Fire_Down_Distractor.gif"",""img/Fire_Down_Distractor.gif"",""img/Fire_Down_Distractor.gif"",""img/Fire_Down_Distractor.gif"",""img/Fire_Down_Distractor.gif"",""img/Fire_Down_Distractor.gif"",""img/Fire_Down_Distractor.gif"",""img/Fire_Down_Distractor.gif"",""img/Fire_Down_Distractor.gif"",""img/Fire_Down_Distractor.gif"",""img/Fire_Down_Distractor.gif""]","6","targetUp_distractorsDown"
"","","","","","html-keyboard-response","142","358656","0.0-14.0-0.0-0.64","5f1c1014ad82c0460a0fbef5","619531dcf66c91622fa1b861","619596ecfb3c877bb8a4bf5a","null","","null","","","","","main_T1_ITI","","","","",""
"","","","","","visual-search-circle","143","360582","0.0-14.0-0.0-1.64","5f1c1014ad82c0460a0fbef5","619531dcf66c91622fa1b861","619596ecfb3c877bb8a4bf5a","923","","s","true","[[488,533],[599,297],[485,64],[231,8],[28,171],[30,432],[235,592]]","false","7","main_T2_Trial","s","img/Fire_Up_Target.gif","[""img/Fire_Down_Distractor.gif"",""img/Fire_Down_Distractor.gif"",""img/Fire_Down_Distractor.gif"",""img/Fire_Down_Distractor.gif"",""img/Fire_Down_Distractor.gif"",""img/Fire_Down_Distractor.gif"",""img/Fire_Down_Distractor.gif"",""img/Fire_Down_Distractor.gif"",""img/Fire_Down_Distractor.gif"",""img/Fire_Down_Distractor.gif"",""img/Fire_Down_Distractor.gif"",""img/Fire_Down_Distractor.gif""]","7","targetUp_distractorsDown"
"","","","","","html-keyboard-response","144","360583","0.0-14.0-0.0-0.65","5f1c1014ad82c0460a0fbef5","619531dcf66c91622fa1b861","619596ecfb3c877bb8a4bf5a","null","","null","","","","","main_T1_ITI","","","","",""
"","","","","","visual-search-circle","145","362459","0.0-14.0-0.0-1.65","5f1c1014ad82c0460a0fbef5","619531dcf66c91622fa1b861","619596ecfb3c877bb8a4bf5a","874","","d","true","[[454,557],[599,294],[445,37],[145,42],[0,305],[154,562]]","true","6","main_T2_Trial","d","img/Fire_Down_Target.gif","[""img/Fire_Up_Distractor.gif"",""img/Fire_Up_Distractor.gif"",""img/Fire_Up_Distractor.gif"",""img/Fire_Up_Distractor.gif"",""img/Fire_Up_Distractor.gif"",""img/Fire_Up_Distractor.gif"",""img/Fire_Up_Distractor.gif"",""img/Fire_Up_Distractor.gif"",""img/Fire_Up_Distractor.gif"",""img/Fire_Up_Distractor.gif"",""img/Fire_Up_Distractor.gif"",""img/Fire_Up_Distractor.gif""]","6","targetDown_distractorsUp"
"","","","","","html-keyboard-response","146","362459","0.0-14.0-0.0-0.66","5f1c1014ad82c0460a0fbef5","619531dcf66c91622fa1b861","619596ecfb3c877bb8a4bf5a","null","","null","","","","","main_T1_ITI","","","","",""
"","","","","","visual-search-circle","147","364650","0.0-14.0-0.0-1.66","5f1c1014ad82c0460a0fbef5","619531dcf66c91622fa1b861","619596ecfb3c877bb8a4bf5a","1189","","s","true","[[123,542],[422,574],[598,331],[476,57],[177,25],[1,268]]","false","6","main_T2_Trial","s","img/Fire_Up_Target.gif","[""img/Fire_Down_Distractor.gif"",""img/Fire_Down_Distractor.gif"",""img/Fire_Down_Distractor.gif"",""img/Fire_Down_Distractor.gif"",""img/Fire_Down_Distractor.gif"",""img/Fire_Down_Distractor.gif"",""img/Fire_Down_Distractor.gif"",""img/Fire_Down_Distractor.gif"",""img/Fire_Down_Distractor.gif"",""img/Fire_Down_Distractor.gif"",""img/Fire_Down_Distractor.gif"",""img/Fire_Down_Distractor.gif""]","6","targetUp_distractorsDown"
"","","","","","html-keyboard-response","148","364650","0.0-14.0-0.0-0.67","5f1c1014ad82c0460a0fbef5","619531dcf66c91622fa1b861","619596ecfb3c877bb8a4bf5a","null","","null","","","","","main_T1_ITI","","","","",""
"","","","","","visual-search-circle","149","366708","0.0-14.0-0.0-1.67","5f1c1014ad82c0460a0fbef5","619531dcf66c91622fa1b861","619596ecfb3c877bb8a4bf5a","1056","","s","true","[[192,580],[580,407],[407,19],[19,192]]","false","4","main_T2_Trial","s","img/Fire_Up_Target.gif","[""img/Fire_Down_Distractor.gif"",""img/Fire_Down_Distractor.gif"",""img/Fire_Down_Distractor.gif"",""img/Fire_Down_Distractor.gif"",""img/Fire_Down_Distractor.gif"",""img/Fire_Down_Distractor.gif"",""img/Fire_Down_Distractor.gif"",""img/Fire_Down_Distractor.gif"",""img/Fire_Down_Distractor.gif"",""img/Fire_Down_Distractor.gif"",""img/Fire_Down_Distractor.gif"",""img/Fire_Down_Distractor.gif""]","4","targetUp_distractorsDown"
"","","","","","html-keyboard-response","150","366708","0.0-14.0-0.0-0.68","5f1c1014ad82c0460a0fbef5","619531dcf66c91622fa1b861","619596ecfb3c877bb8a4bf5a","null","","null","","","","","main_T1_ITI","","","","",""
"","","","","","visual-search-circle","151","368557","0.0-14.0-0.0-1.68","5f1c1014ad82c0460a0fbef5","619531dcf66c91622fa1b861","619596ecfb3c877bb8a4bf5a","846","","s","true","[[0,284],[136,551],[436,567],[599,315],[463,48],[163,32]]","false","6","main_T2_Trial","s","img/Fire_Up_Target.gif","[""img/Fire_Down_Distractor.gif"",""img/Fire_Down_Distractor.gif"",""img/Fire_Down_Distractor.gif"",""img/Fire_Down_Distractor.gif"",""img/Fire_Down_Distractor.gif"",""img/Fire_Down_Distractor.gif"",""img/Fire_Down_Distractor.gif"",""img/Fire_Down_Distractor.gif"",""img/Fire_Down_Distractor.gif"",""img/Fire_Down_Distractor.gif"",""img/Fire_Down_Distractor.gif"",""img/Fire_Down_Distractor.gif""]","6","targetUp_distractorsDown"
"","","","","","html-keyboard-response","152","368557","0.0-14.0-0.0-0.69","5f1c1014ad82c0460a0fbef5","619531dcf66c91622fa1b861","619596ecfb3c877bb8a4bf5a","null","","null","","","","","main_T1_ITI","","","","",""
"","","","","","visual-search-circle","153","370364","0.0-14.0-0.0-1.69","5f1c1014ad82c0460a0fbef5","619531dcf66c91622fa1b861","619596ecfb3c877bb8a4bf5a","803","","d","true","[[397,16],[139,46],[1,267],[88,513],[335,597],[554,458],[582,199]]","true","7","main_T2_Trial","d","img/Fire_Up_Target.gif","[""img/Fire_Down_Distractor.gif"",""img/Fire_Down_Distractor.gif"",""img/Fire_Down_Distractor.gif"",""img/Fire_Down_Distractor.gif"",""img/Fire_Down_Distractor.gif"",""img/Fire_Down_Distractor.gif"",""img/Fire_Down_Distractor.gif"",""img/Fire_Down_Distractor.gif"",""img/Fire_Down_Distractor.gif"",""img/Fire_Down_Distractor.gif"",""img/Fire_Down_Distractor.gif"",""img/Fire_Down_Distractor.gif""]","7","targetUp_distractorsDown"
"","","","","","html-keyboard-response","154","370364","0.0-14.0-0.0-0.70","5f1c1014ad82c0460a0fbef5","619531dcf66c91622fa1b861","619596ecfb3c877bb8a4bf5a","null","","null","","","","","main_T1_ITI","","","","",""
"","","","","","visual-search-circle","155","372211","0.0-14.0-0.0-1.70","5f1c1014ad82c0460a0fbef5","619531dcf66c91622fa1b861","619596ecfb3c877bb8a4bf5a","844","","s","true","[[562,154],[349,4],[99,76],[0,317],[126,544],[383,588],[577,414]]","false","7","main_T2_Trial","s","img/Fire_Up_Target.gif","[""img/Fire_Down_Distractor.gif"",""img/Fire_Down_Distractor.gif"",""img/Fire_Down_Distractor.gif"",""img/Fire_Down_Distractor.gif"",""img/Fire_Down_Distractor.gif"",""img/Fire_Down_Distractor.gif"",""img/Fire_Down_Distractor.gif"",""img/Fire_Down_Distractor.gif"",""img/Fire_Down_Distractor.gif"",""img/Fire_Down_Distractor.gif"",""img/Fire_Down_Distractor.gif"",""img/Fire_Down_Distractor.gif""]","7","targetUp_distractorsDown"
"","","","","","html-keyboard-response","156","372212","0.0-14.0-0.0-0.71","5f1c1014ad82c0460a0fbef5","619531dcf66c91622fa1b861","619596ecfb3c877bb8a4bf5a","null","","null","","","","","main_T1_ITI","","","","",""
"","","","","","visual-search-circle","157","374054","0.0-14.0-0.0-1.71","5f1c1014ad82c0460a0fbef5","619531dcf66c91622fa1b861","619596ecfb3c877bb8a4bf5a","839","","d","true","[[173,571],[433,568],[593,363],[532,110],[296,0],[63,115],[8,370]]","true","7","main_T2_Trial","d","img/Fire_Down_Target.gif","[""img/Fire_Up_Distractor.gif"",""img/Fire_Up_Distractor.gif"",""img/Fire_Up_Distractor.gif"",""img/Fire_Up_Distractor.gif"",""img/Fire_Up_Distractor.gif"",""img/Fire_Up_Distractor.gif"",""img/Fire_Up_Distractor.gif"",""img/Fire_Up_Distractor.gif"",""img/Fire_Up_Distractor.gif"",""img/Fire_Up_Distractor.gif"",""img/Fire_Up_Distractor.gif"",""img/Fire_Up_Distractor.gif""]","7","targetDown_distractorsUp"
"","","","","","html-keyboard-response","158","374054","0.0-14.0-0.0-0.72","5f1c1014ad82c0460a0fbef5","619531dcf66c91622fa1b861","619596ecfb3c877bb8a4bf5a","null","","null","","","","","main_T1_ITI","","","","",""
"","","","","","visual-search-circle","159","375988","0.0-14.0-0.0-1.72","5f1c1014ad82c0460a0fbef5","619531dcf66c91622fa1b861","619596ecfb3c877bb8a4bf5a","930","","s","true","[[588,382],[562,154],[382,11],[154,37],[11,217],[37,445],[217,588],[445,562]]","false","8","main_T2_Trial","s","img/Fire_Up_Target.gif","[""img/Fire_Down_Distractor.gif"",""img/Fire_Down_Distractor.gif"",""img/Fire_Down_Distractor.gif"",""img/Fire_Down_Distractor.gif"",""img/Fire_Down_Distractor.gif"",""img/Fire_Down_Distractor.gif"",""img/Fire_Down_Distractor.gif"",""img/Fire_Down_Distractor.gif"",""img/Fire_Down_Distractor.gif"",""img/Fire_Down_Distractor.gif"",""img/Fire_Down_Distractor.gif"",""img/Fire_Down_Distractor.gif""]","8","targetUp_distractorsDown"
"","","","","","html-keyboard-response","160","375989","0.0-14.0-0.0-0.73","5f1c1014ad82c0460a0fbef5","619531dcf66c91622fa1b861","619596ecfb3c877bb8a4bf5a","null","","null","","","","","main_T1_ITI","","","","",""
"","","","","","visual-search-circle","161","377703","0.0-14.0-0.0-1.73","5f1c1014ad82c0460a0fbef5","619531dcf66c91622fa1b861","619596ecfb3c877bb8a4bf5a","709","","s","false","[[372,8],[117,61],[0,294],[108,530],[360,593],[567,435],[572,175]]","true","7","main_T2_Trial","d","img/Fire_Down_Target.gif","[""img/Fire_Up_Distractor.gif"",""img/Fire_Up_Distractor.gif"",""img/Fire_Up_Distractor.gif"",""img/Fire_Up_Distractor.gif"",""img/Fire_Up_Distractor.gif"",""img/Fire_Up_Distractor.gif"",""img/Fire_Up_Distractor.gif"",""img/Fire_Up_Distractor.gif"",""img/Fire_Up_Distractor.gif"",""img/Fire_Up_Distractor.gif"",""img/Fire_Up_Distractor.gif"",""img/Fire_Up_Distractor.gif""]","7","targetDown_distractorsUp"
"","","","","","html-keyboard-response","162","377703","0.0-14.0-0.0-0.74","5f1c1014ad82c0460a0fbef5","619531dcf66c91622fa1b861","619596ecfb3c877bb8a4bf5a","null","","null","","","","","main_T1_ITI","","","","",""
"","","","","","visual-search-circle","163","379530","0.0-14.0-0.0-1.74","5f1c1014ad82c0460a0fbef5","619531dcf66c91622fa1b861","619596ecfb3c877bb8a4bf5a","824","","s","true","[[84,508],[294,599],[508,515],[599,305],[515,91],[305,0],[91,84],[0,294]]","false","8","main_T2_Trial","s","img/Fire_Up_Target.gif","[""img/Fire_Down_Distractor.gif"",""img/Fire_Down_Distractor.gif"",""img/Fire_Down_Distractor.gif"",""img/Fire_Down_Distractor.gif"",""img/Fire_Down_Distractor.gif"",""img/Fire_Down_Distractor.gif"",""img/Fire_Down_Distractor.gif"",""img/Fire_Down_Distractor.gif"",""img/Fire_Down_Distractor.gif"",""img/Fire_Down_Distractor.gif"",""img/Fire_Down_Distractor.gif"",""img/Fire_Down_Distractor.gif""]","8","targetUp_distractorsDown"
"","","","","","html-keyboard-response","164","379531","0.0-14.0-0.0-0.75","5f1c1014ad82c0460a0fbef5","619531dcf66c91622fa1b861","619596ecfb3c877bb8a4bf5a","null","","null","","","","","main_T1_ITI","","","","",""
"","","","","","visual-search-circle","165","381416","0.0-14.0-0.0-1.75","5f1c1014ad82c0460a0fbef5","619531dcf66c91622fa1b861","619596ecfb3c877bb8a4bf5a","881","","d","true","[[417,23],[23,182],[182,576],[576,417]]","true","4","main_T2_Trial","d","img/Fire_Down_Target.gif","[""img/Fire_Up_Distractor.gif"",""img/Fire_Up_Distractor.gif"",""img/Fire_Up_Distractor.gif"",""img/Fire_Up_Distractor.gif"",""img/Fire_Up_Distractor.gif"",""img/Fire_Up_Distractor.gif"",""img/Fire_Up_Distractor.gif"",""img/Fire_Up_Distractor.gif"",""img/Fire_Up_Distractor.gif"",""img/Fire_Up_Distractor.gif"",""img/Fire_Up_Distractor.gif"",""img/Fire_Up_Distractor.gif""]","4","targetDown_distractorsUp"
"","","","","","html-keyboard-response","166","381416","0.0-14.0-0.0-0.76","5f1c1014ad82c0460a0fbef5","619531dcf66c91622fa1b861","619596ecfb3c877bb8a4bf5a","null","","null","","","","","main_T1_ITI","","","","",""
"","","","","","visual-search-circle","167","383256","0.0-14.0-0.0-1.76","5f1c1014ad82c0460a0fbef5","619531dcf66c91622fa1b861","619596ecfb3c877bb8a4bf5a","837","","d","true","[[263,2],[63,115],[2,336],[115,536],[336,597],[536,484],[597,263],[484,63]]","true","8","main_T2_Trial","d","img/Fire_Down_Target.gif","[""img/Fire_Up_Distractor.gif"",""img/Fire_Up_Distractor.gif"",""img/Fire_Up_Distractor.gif"",""img/Fire_Up_Distractor.gif"",""img/Fire_Up_Distractor.gif"",""img/Fire_Up_Distractor.gif"",""img/Fire_Up_Distractor.gif"",""img/Fire_Up_Distractor.gif"",""img/Fire_Up_Distractor.gif"",""img/Fire_Up_Distractor.gif"",""img/Fire_Up_Distractor.gif"",""img/Fire_Up_Distractor.gif""]","8","targetDown_distractorsUp"
"","","","","","html-keyboard-response","168","383257","0.0-14.0-0.0-0.77","5f1c1014ad82c0460a0fbef5","619531dcf66c91622fa1b861","619596ecfb3c877bb8a4bf5a","null","","null","","","","","main_T1_ITI","","","","",""
"","","","","","visual-search-circle","169","385012","0.0-14.0-0.0-1.77","5f1c1014ad82c0460a0fbef5","619531dcf66c91622fa1b861","619596ecfb3c877bb8a4bf5a","751","","s","true","[[458,45],[232,7],[45,141],[7,367],[141,554],[367,592],[554,458],[592,232]]","false","8","main_T2_Trial","s","img/Fire_Up_Target.gif","[""img/Fire_Down_Distractor.gif"",""img/Fire_Down_Distractor.gif"",""img/Fire_Down_Distractor.gif"",""img/Fire_Down_Distractor.gif"",""img/Fire_Down_Distractor.gif"",""img/Fire_Down_Distractor.gif"",""img/Fire_Down_Distractor.gif"",""img/Fire_Down_Distractor.gif"",""img/Fire_Down_Distractor.gif"",""img/Fire_Down_Distractor.gif"",""img/Fire_Down_Distractor.gif"",""img/Fire_Down_Distractor.gif""]","8","targetUp_distractorsDown"
"","","","","","html-keyboard-response","170","385012","0.0-14.0-0.0-0.78","5f1c1014ad82c0460a0fbef5","619531dcf66c91622fa1b861","619596ecfb3c877bb8a4bf5a","null","","null","","","","","main_T1_ITI","","","","",""
"","","","","","visual-search-circle","171","386738","0.0-14.0-0.0-1.78","5f1c1014ad82c0460a0fbef5","619531dcf66c91622fa1b861","619596ecfb3c877bb8a4bf5a","720","","d","true","[[18,402],[173,571],[402,581],[571,426],[581,197],[426,28],[197,18],[28,173]]","true","8","main_T2_Trial","d","img/Fire_Up_Target.gif","[""img/Fire_Down_Distractor.gif"",""img/Fire_Down_Distractor.gif"",""img/Fire_Down_Distractor.gif"",""img/Fire_Down_Distractor.gif"",""img/Fire_Down_Distractor.gif"",""img/Fire_Down_Distractor.gif"",""img/Fire_Down_Distractor.gif"",""img/Fire_Down_Distractor.gif"",""img/Fire_Down_Distractor.gif"",""img/Fire_Down_Distractor.gif"",""img/Fire_Down_Distractor.gif"",""img/Fire_Down_Distractor.gif""]","8","targetUp_distractorsDown"
"","","","","","html-keyboard-response","172","388330","0.0-14.0-0.0-0.79","5f1c1014ad82c0460a0fbef5","619531dcf66c91622fa1b861","619596ecfb3c877bb8a4bf5a","1593","Wow! You've completed 80 out of 160 trials! </p> <p>  </p><p> Take a quick break, then press any key when you're ready to continue."," ","","","","","main_T1_ITI","","","","",""
"","","","","","visual-search-circle","173","390159","0.0-14.0-0.0-1.79","5f1c1014ad82c0460a0fbef5","619531dcf66c91622fa1b861","619596ecfb3c877bb8a4bf5a","824","","d","true","[[574,177],[331,1],[57,123],[25,422],[268,598],[542,476]]","true","6","main_T2_Trial","d","img/Fire_Down_Target.gif","[""img/Fire_Up_Distractor.gif"",""img/Fire_Up_Distractor.gif"",""img/Fire_Up_Distractor.gif"",""img/Fire_Up_Distractor.gif"",""img/Fire_Up_Distractor.gif"",""img/Fire_Up_Distractor.gif"",""img/Fire_Up_Distractor.gif"",""img/Fire_Up_Distractor.gif"",""img/Fire_Up_Distractor.gif"",""img/Fire_Up_Distractor.gif"",""img/Fire_Up_Distractor.gif"",""img/Fire_Up_Distractor.gif""]","6","targetDown_distractorsUp"
"","","","","","html-keyboard-response","174","390159","0.0-14.0-0.0-0.80","5f1c1014ad82c0460a0fbef5","619531dcf66c91622fa1b861","619596ecfb3c877bb8a4bf5a","null","","null","","","","","main_T1_ITI","","","","",""
"","","","","","visual-search-circle","175","392145","0.0-14.0-0.0-1.80","5f1c1014ad82c0460a0fbef5","619531dcf66c91622fa1b861","619596ecfb3c877bb8a4bf5a","982","","s","true","[[115,536],[412,578],[597,341],[484,63],[187,21],[2,258]]","false","6","main_T2_Trial","s","img/Fire_Up_Target.gif","[""img/Fire_Down_Distractor.gif"",""img/Fire_Down_Distractor.gif"",""img/Fire_Down_Distractor.gif"",""img/Fire_Down_Distractor.gif"",""img/Fire_Down_Distractor.gif"",""img/Fire_Down_Distractor.gif"",""img/Fire_Down_Distractor.gif"",""img/Fire_Down_Distractor.gif"",""img/Fire_Down_Distractor.gif"",""img/Fire_Down_Distractor.gif"",""img/Fire_Down_Distractor.gif"",""img/Fire_Down_Distractor.gif""]","6","targetUp_distractorsDown"
"","","","","","html-keyboard-response","176","392145","0.0-14.0-0.0-0.81","5f1c1014ad82c0460a0fbef5","619531dcf66c91622fa1b861","619596ecfb3c877bb8a4bf5a","null","","null","","","","","main_T1_ITI","","","","",""
"","","","","","visual-search-circle","177","394089","0.0-14.0-0.0-1.81","5f1c1014ad82c0460a0fbef5","619531dcf66c91622fa1b861","619596ecfb3c877bb8a4bf5a","942","","s","true","[[247,4],[4,352],[352,595],[595,247]]","false","4","main_T2_Trial","s","img/Fire_Up_Target.gif","[""img/Fire_Down_Distractor.gif"",""img/Fire_Down_Distractor.gif"",""img/Fire_Down_Distractor.gif"",""img/Fire_Down_Distractor.gif"",""img/Fire_Down_Distractor.gif"",""img/Fire_Down_Distractor.gif"",""img/Fire_Down_Distractor.gif"",""img/Fire_Down_Distractor.gif"",""img/Fire_Down_Distractor.gif"",""img/Fire_Down_Distractor.gif"",""img/Fire_Down_Distractor.gif"",""img/Fire_Down_Distractor.gif""]","4","targetUp_distractorsDown"
"","","","","","html-keyboard-response","178","394090","0.0-14.0-0.0-0.82","5f1c1014ad82c0460a0fbef5","619531dcf66c91622fa1b861","619596ecfb3c877bb8a4bf5a","null","","null","","","","","main_T1_ITI","","","","",""
"","","","","","visual-search-circle","179","395959","0.0-14.0-0.0-1.82","5f1c1014ad82c0460a0fbef5","619531dcf66c91622fa1b861","619596ecfb3c877bb8a4bf5a","866","","d","true","[[305,0],[0,294],[294,599],[599,305]]","true","4","main_T2_Trial","d","img/Fire_Down_Target.gif","[""img/Fire_Up_Distractor.gif"",""img/Fire_Up_Distractor.gif"",""img/Fire_Up_Distractor.gif"",""img/Fire_Up_Distractor.gif"",""img/Fire_Up_Distractor.gif"",""img/Fire_Up_Distractor.gif"",""img/Fire_Up_Distractor.gif"",""img/Fire_Up_Distractor.gif"",""img/Fire_Up_Distractor.gif"",""img/Fire_Up_Distractor.gif"",""img/Fire_Up_Distractor.gif"",""img/Fire_Up_Distractor.gif""]","4","targetDown_distractorsUp"
"","","","","","html-keyboard-response","180","395959","0.0-14.0-0.0-0.83","5f1c1014ad82c0460a0fbef5","619531dcf66c91622fa1b861","619596ecfb3c877bb8a4bf5a","null","","null","","","","","main_T1_ITI","","","","",""
"","","","","","visual-search-circle","181","397984","0.0-14.0-0.0-1.83","5f1c1014ad82c0460a0fbef5","619531dcf66c91622fa1b861","619596ecfb3c877bb8a4bf5a","1022","","d","true","[[320,599],[547,470],[587,213],[410,21],[151,39],[3,253],[79,502]]","true","7","main_T2_Trial","d","img/Fire_Up_Target.gif","[""img/Fire_Down_Distractor.gif"",""img/Fire_Down_Distractor.gif"",""img/Fire_Down_Distractor.gif"",""img/Fire_Down_Distractor.gif"",""img/Fire_Down_Distractor.gif"",""img/Fire_Down_Distractor.gif"",""img/Fire_Down_Distractor.gif"",""img/Fire_Down_Distractor.gif"",""img/Fire_Down_Distractor.gif"",""img/Fire_Down_Distractor.gif"",""img/Fire_Down_Distractor.gif"",""img/Fire_Down_Distractor.gif""]","7","targetUp_distractorsDown"
"","","","","","html-keyboard-response","182","397984","0.0-14.0-0.0-0.84","5f1c1014ad82c0460a0fbef5","619531dcf66c91622fa1b861","619596ecfb3c877bb8a4bf5a","null","","null","","","","","main_T1_ITI","","","","",""
"","","","","","visual-search-circle","183","400255","0.0-14.0-0.0-1.84","5f1c1014ad82c0460a0fbef5","619531dcf66c91622fa1b861","619596ecfb3c877bb8a4bf5a","1269","","d","true","[[458,554],[592,367],[554,141],[367,7],[141,45],[7,232],[45,458],[232,592]]","true","8","main_T2_Trial","d","img/Fire_Down_Target.gif","[""img/Fire_Up_Distractor.gif"",""img/Fire_Up_Distractor.gif"",""img/Fire_Up_Distractor.gif"",""img/Fire_Up_Distractor.gif"",""img/Fire_Up_Distractor.gif"",""img/Fire_Up_Distractor.gif"",""img/Fire_Up_Distractor.gif"",""img/Fire_Up_Distractor.gif"",""img/Fire_Up_Distractor.gif"",""img/Fire_Up_Distractor.gif"",""img/Fire_Up_Distractor.gif"",""img/Fire_Up_Distractor.gif""]","8","targetDown_distractorsUp"
"","","","","","html-keyboard-response","184","400255","0.0-14.0-0.0-0.85","5f1c1014ad82c0460a0fbef5","619531dcf66c91622fa1b861","619596ecfb3c877bb8a4bf5a","null","","null","","","","","main_T1_ITI","","","","",""
"","","","","","visual-search-circle","185","402337","0.0-14.0-0.0-1.85","5f1c1014ad82c0460a0fbef5","619531dcf66c91622fa1b861","619596ecfb3c877bb8a4bf5a","1079","","s","true","[[8,372],[217,588],[508,515],[591,227],[382,11],[91,84]]","false","6","main_T2_Trial","s","img/Fire_Down_Target.gif","[""img/Fire_Up_Distractor.gif"",""img/Fire_Up_Distractor.gif"",""img/Fire_Up_Distractor.gif"",""img/Fire_Up_Distractor.gif"",""img/Fire_Up_Distractor.gif"",""img/Fire_Up_Distractor.gif"",""img/Fire_Up_Distractor.gif"",""img/Fire_Up_Distractor.gif"",""img/Fire_Up_Distractor.gif"",""img/Fire_Up_Distractor.gif"",""img/Fire_Up_Distractor.gif"",""img/Fire_Up_Distractor.gif""]","6","targetDown_distractorsUp"
"","","","","","html-keyboard-response","186","402338","0.0-14.0-0.0-0.86","5f1c1014ad82c0460a0fbef5","619531dcf66c91622fa1b861","619596ecfb3c877bb8a4bf5a","null","","null","","","","","main_T1_ITI","","","","",""
"","","","","","visual-search-circle","187","406141","0.0-14.0-0.0-1.86","5f1c1014ad82c0460a0fbef5","619531dcf66c91622fa1b861","619596ecfb3c877bb8a4bf5a","2802","","d","true","[[488,533],[599,297],[485,64],[231,8],[28,171],[30,432],[235,592]]","true","7","main_T2_Trial","d","img/Fire_Up_Target.gif","[""img/Fire_Down_Distractor.gif"",""img/Fire_Down_Distractor.gif"",""img/Fire_Down_Distractor.gif"",""img/Fire_Down_Distractor.gif"",""img/Fire_Down_Distractor.gif"",""img/Fire_Down_Distractor.gif"",""img/Fire_Down_Distractor.gif"",""img/Fire_Down_Distractor.gif"",""img/Fire_Down_Distractor.gif"",""img/Fire_Down_Distractor.gif"",""img/Fire_Down_Distractor.gif"",""img/Fire_Down_Distractor.gif""]","7","targetUp_distractorsDown"
"","","","","","html-keyboard-response","188","406141","0.0-14.0-0.0-0.87","5f1c1014ad82c0460a0fbef5","619531dcf66c91622fa1b861","619596ecfb3c877bb8a4bf5a","null","","null","","","","","main_T1_ITI","","","","",""
"","","","","","visual-search-circle","189","407980","0.0-14.0-0.0-1.87","5f1c1014ad82c0460a0fbef5","619531dcf66c91622fa1b861","619596ecfb3c877bb8a4bf5a","837","","d","true","[[480,539],[599,308],[493,70],[241,5],[33,162],[26,422],[225,590]]","true","7","main_T2_Trial","d","img/Fire_Down_Target.gif","[""img/Fire_Up_Distractor.gif"",""img/Fire_Up_Distractor.gif"",""img/Fire_Up_Distractor.gif"",""img/Fire_Up_Distractor.gif"",""img/Fire_Up_Distractor.gif"",""img/Fire_Up_Distractor.gif"",""img/Fire_Up_Distractor.gif"",""img/Fire_Up_Distractor.gif"",""img/Fire_Up_Distractor.gif"",""img/Fire_Up_Distractor.gif"",""img/Fire_Up_Distractor.gif"",""img/Fire_Up_Distractor.gif""]","7","targetDown_distractorsUp"
"","","","","","html-keyboard-response","190","407981","0.0-14.0-0.0-0.88","5f1c1014ad82c0460a0fbef5","619531dcf66c91622fa1b861","619596ecfb3c877bb8a4bf5a","null","","null","","","","","main_T1_ITI","","","","",""
"","","","","","visual-search-circle","191","409840","0.0-14.0-0.0-1.88","5f1c1014ad82c0460a0fbef5","619531dcf66c91622fa1b861","619596ecfb3c877bb8a4bf5a","854","","d","false","[[519,95],[95,80],[80,504],[504,519]]","false","4","main_T2_Trial","s","img/Fire_Up_Target.gif","[""img/Fire_Down_Distractor.gif"",""img/Fire_Down_Distractor.gif"",""img/Fire_Down_Distractor.gif"",""img/Fire_Down_Distractor.gif"",""img/Fire_Down_Distractor.gif"",""img/Fire_Down_Distractor.gif"",""img/Fire_Down_Distractor.gif"",""img/Fire_Down_Distractor.gif"",""img/Fire_Down_Distractor.gif"",""img/Fire_Down_Distractor.gif"",""img/Fire_Down_Distractor.gif"",""img/Fire_Down_Distractor.gif""]","4","targetUp_distractorsDown"
"","","","","","html-keyboard-response","192","409841","0.0-14.0-0.0-0.89","5f1c1014ad82c0460a0fbef5","619531dcf66c91622fa1b861","619596ecfb3c877bb8a4bf5a","null","","null","","","","","main_T1_ITI","","","","",""
"","","","","","visual-search-circle","193","411643","0.0-14.0-0.0-1.89","5f1c1014ad82c0460a0fbef5","619531dcf66c91622fa1b861","619596ecfb3c877bb8a4bf5a","801","","d","true","[[16,397],[305,599],[586,387],[472,54],[119,60]]","true","5","main_T2_Trial","d","img/Fire_Down_Target.gif","[""img/Fire_Up_Distractor.gif"",""img/Fire_Up_Distractor.gif"",""img/Fire_Up_Distractor.gif"",""img/Fire_Up_Distractor.gif"",""img/Fire_Up_Distractor.gif"",""img/Fire_Up_Distractor.gif"",""img/Fire_Up_Distractor.gif"",""img/Fire_Up_Distractor.gif"",""img/Fire_Up_Distractor.gif"",""img/Fire_Up_Distractor.gif"",""img/Fire_Up_Distractor.gif"",""img/Fire_Up_Distractor.gif""]","5","targetDown_distractorsUp"
"","","","","","html-keyboard-response","194","411643","0.0-14.0-0.0-0.90","5f1c1014ad82c0460a0fbef5","619531dcf66c91622fa1b861","619596ecfb3c877bb8a4bf5a","null","","null","","","","","main_T1_ITI","","","","",""
"","","","","","visual-search-circle","195","416929","0.0-14.0-0.0-1.90","5f1c1014ad82c0460a0fbef5","619531dcf66c91622fa1b861","619596ecfb3c877bb8a4bf5a","4281","","s","true","[[99,522],[522,500],[500,77],[77,99]]","false","4","main_T2_Trial","s","img/Fire_Down_Target.gif","[""img/Fire_Up_Distractor.gif"",""img/Fire_Up_Distractor.gif"",""img/Fire_Up_Distractor.gif"",""img/Fire_Up_Distractor.gif"",""img/Fire_Up_Distractor.gif"",""img/Fire_Up_Distractor.gif"",""img/Fire_Up_Distractor.gif"",""img/Fire_Up_Distractor.gif"",""img/Fire_Up_Distractor.gif"",""img/Fire_Up_Distractor.gif"",""img/Fire_Up_Distractor.gif"",""img/Fire_Up_Distractor.gif""]","4","targetDown_distractorsUp"
"","","","","","html-keyboard-response","196","416929","0.0-14.0-0.0-0.91","5f1c1014ad82c0460a0fbef5","619531dcf66c91622fa1b861","619596ecfb3c877bb8a4bf5a","null","","null","","","","","main_T1_ITI","","","","",""
"","","","","","visual-search-circle","197","418769","0.0-14.0-0.0-1.91","5f1c1014ad82c0460a0fbef5","619531dcf66c91622fa1b861","619596ecfb3c877bb8a4bf5a","839","","d","true","[[508,515],[569,168],[258,2],[4,247],[159,564]]","true","5","main_T2_Trial","d","img/Fire_Down_Target.gif","[""img/Fire_Up_Distractor.gif"",""img/Fire_Up_Distractor.gif"",""img/Fire_Up_Distractor.gif"",""img/Fire_Up_Distractor.gif"",""img/Fire_Up_Distractor.gif"",""img/Fire_Up_Distractor.gif"",""img/Fire_Up_Distractor.gif"",""img/Fire_Up_Distractor.gif"",""img/Fire_Up_Distractor.gif"",""img/Fire_Up_Distractor.gif"",""img/Fire_Up_Distractor.gif"",""img/Fire_Up_Distractor.gif""]","5","targetDown_distractorsUp"
"","","","","","html-keyboard-response","198","418770","0.0-14.0-0.0-0.92","5f1c1014ad82c0460a0fbef5","619531dcf66c91622fa1b861","619596ecfb3c877bb8a4bf5a","null","","null","","","","","main_T1_ITI","","","","",""
"","","","","","visual-search-circle","199","421737","0.0-14.0-0.0-1.92","5f1c1014ad82c0460a0fbef5","619531dcf66c91622fa1b861","619596ecfb3c877bb8a4bf5a","1963","","s","true","[[519,95],[232,7],[13,212],[80,504],[367,592],[586,387]]","false","6","main_T2_Trial","s","img/Fire_Down_Target.gif","[""img/Fire_Up_Distractor.gif"",""img/Fire_Up_Distractor.gif"",""img/Fire_Up_Distractor.gif"",""img/Fire_Up_Distractor.gif"",""img/Fire_Up_Distractor.gif"",""img/Fire_Up_Distractor.gif"",""img/Fire_Up_Distractor.gif"",""img/Fire_Up_Distractor.gif"",""img/Fire_Up_Distractor.gif"",""img/Fire_Up_Distractor.gif"",""img/Fire_Up_Distractor.gif"",""img/Fire_Up_Distractor.gif""]","6","targetDown_distractorsUp"
"","","","","","html-keyboard-response","200","421738","0.0-14.0-0.0-0.93","5f1c1014ad82c0460a0fbef5","619531dcf66c91622fa1b861","619596ecfb3c877bb8a4bf5a","null","","null","","","","","main_T1_ITI","","","","",""
"","","","","","visual-search-circle","201","424696","0.0-14.0-0.0-1.93","5f1c1014ad82c0460a0fbef5","619531dcf66c91622fa1b861","619596ecfb3c877bb8a4bf5a","1957","","s","true","[[382,11],[51,132],[63,484],[402,581],[599,289]]","false","5","main_T2_Trial","s","img/Fire_Down_Target.gif","[""img/Fire_Up_Distractor.gif"",""img/Fire_Up_Distractor.gif"",""img/Fire_Up_Distractor.gif"",""img/Fire_Up_Distractor.gif"",""img/Fire_Up_Distractor.gif"",""img/Fire_Up_Distractor.gif"",""img/Fire_Up_Distractor.gif"",""img/Fire_Up_Distractor.gif"",""img/Fire_Up_Distractor.gif"",""img/Fire_Up_Distractor.gif"",""img/Fire_Up_Distractor.gif"",""img/Fire_Up_Distractor.gif""]","5","targetDown_distractorsUp"
"","","","","","html-keyboard-response","202","424696","0.0-14.0-0.0-0.94","5f1c1014ad82c0460a0fbef5","619531dcf66c91622fa1b861","619596ecfb3c877bb8a4bf5a","null","","null","","","","","main_T1_ITI","","","","",""
"","","","","","visual-search-circle","203","427676","0.0-14.0-0.0-1.94","5f1c1014ad82c0460a0fbef5","619531dcf66c91622fa1b861","619596ecfb3c877bb8a4bf5a","1974","","s","true","[[197,581],[492,529],[595,247],[402,18],[107,70],[4,352]]","false","6","main_T2_Trial","s","img/Fire_Down_Target.gif","[""img/Fire_Up_Distractor.gif"",""img/Fire_Up_Distractor.gif"",""img/Fire_Up_Distractor.gif"",""img/Fire_Up_Distractor.gif"",""img/Fire_Up_Distractor.gif"",""img/Fire_Up_Distractor.gif"",""img/Fire_Up_Distractor.gif"",""img/Fire_Up_Distractor.gif"",""img/Fire_Up_Distractor.gif"",""img/Fire_Up_Distractor.gif"",""img/Fire_Up_Distractor.gif"",""img/Fire_Up_Distractor.gif""]","6","targetDown_distractorsUp"
"","","","","","html-keyboard-response","204","427676","0.0-14.0-0.0-0.95","5f1c1014ad82c0460a0fbef5","619531dcf66c91622fa1b861","619596ecfb3c877bb8a4bf5a","null","","null","","","","","main_T1_ITI","","","","",""
"","","","","","visual-search-circle","205","430852","0.0-14.0-0.0-1.95","5f1c1014ad82c0460a0fbef5","619531dcf66c91622fa1b861","619596ecfb3c877bb8a4bf5a","2173","","s","true","[[522,99],[177,25],[1,331],[237,593],[559,450]]","false","5","main_T2_Trial","s","img/Fire_Up_Target.gif","[""img/Fire_Down_Distractor.gif"",""img/Fire_Down_Distractor.gif"",""img/Fire_Down_Distractor.gif"",""img/Fire_Down_Distractor.gif"",""img/Fire_Down_Distractor.gif"",""img/Fire_Down_Distractor.gif"",""img/Fire_Down_Distractor.gif"",""img/Fire_Down_Distractor.gif"",""img/Fire_Down_Distractor.gif"",""img/Fire_Down_Distractor.gif"",""img/Fire_Down_Distractor.gif"",""img/Fire_Down_Distractor.gif""]","5","targetUp_distractorsDown"
"","","","","","html-keyboard-response","206","430852","0.0-14.0-0.0-0.96","5f1c1014ad82c0460a0fbef5","619531dcf66c91622fa1b861","619596ecfb3c877bb8a4bf5a","null","","null","","","","","main_T1_ITI","","","","",""
"","","","","","visual-search-circle","207","434516","0.0-14.0-0.0-1.96","5f1c1014ad82c0460a0fbef5","619531dcf66c91622fa1b861","619596ecfb3c877bb8a4bf5a","2662","","s","true","[[599,289],[478,59],[223,10],[25,179],[34,439],[243,594],[495,527]]","false","7","main_T2_Trial","s","img/Fire_Up_Target.gif","[""img/Fire_Down_Distractor.gif"",""img/Fire_Down_Distractor.gif"",""img/Fire_Down_Distractor.gif"",""img/Fire_Down_Distractor.gif"",""img/Fire_Down_Distractor.gif"",""img/Fire_Down_Distractor.gif"",""img/Fire_Down_Distractor.gif"",""img/Fire_Down_Distractor.gif"",""img/Fire_Down_Distractor.gif"",""img/Fire_Down_Distractor.gif"",""img/Fire_Down_Distractor.gif"",""img/Fire_Down_Distractor.gif""]","7","targetUp_distractorsDown"
"","","","","","html-keyboard-response","208","434516","0.0-14.0-0.0-0.97","5f1c1014ad82c0460a0fbef5","619531dcf66c91622fa1b861","619596ecfb3c877bb8a4bf5a","null","","null","","","","","main_T1_ITI","","","","",""
"","","","","","visual-search-circle","209","436679","0.0-14.0-0.0-1.97","5f1c1014ad82c0460a0fbef5","619531dcf66c91622fa1b861","619596ecfb3c877bb8a4bf5a","1159","","d","true","[[187,21],[12,214],[53,471],[280,599],[521,501],[596,252],[447,38]]","true","7","main_T2_Trial","d","img/Fire_Up_Target.gif","[""img/Fire_Down_Distractor.gif"",""img/Fire_Down_Distractor.gif"",""img/Fire_Down_Distractor.gif"",""img/Fire_Down_Distractor.gif"",""img/Fire_Down_Distractor.gif"",""img/Fire_Down_Distractor.gif"",""img/Fire_Down_Distractor.gif"",""img/Fire_Down_Distractor.gif"",""img/Fire_Down_Distractor.gif"",""img/Fire_Down_Distractor.gif"",""img/Fire_Down_Distractor.gif"",""img/Fire_Down_Distractor.gif""]","7","targetUp_distractorsDown"
"","","","","","html-keyboard-response","210","436679","0.0-14.0-0.0-0.98","5f1c1014ad82c0460a0fbef5","619531dcf66c91622fa1b861","619596ecfb3c877bb8a4bf5a","null","","null","","","","","main_T1_ITI","","","","",""
"","","","","","visual-search-circle","211","438745","0.0-14.0-0.0-1.98","5f1c1014ad82c0460a0fbef5","619531dcf66c91622fa1b861","619596ecfb3c877bb8a4bf5a","1061","","s","true","[[496,526],[599,320],[526,103],[320,0],[103,73],[0,279],[73,496],[279,599]]","false","8","main_T2_Trial","s","img/Fire_Down_Target.gif","[""img/Fire_Up_Distractor.gif"",""img/Fire_Up_Distractor.gif"",""img/Fire_Up_Distractor.gif"",""img/Fire_Up_Distractor.gif"",""img/Fire_Up_Distractor.gif"",""img/Fire_Up_Distractor.gif"",""img/Fire_Up_Distractor.gif"",""img/Fire_Up_Distractor.gif"",""img/Fire_Up_Distractor.gif"",""img/Fire_Up_Distractor.gif"",""img/Fire_Up_Distractor.gif"",""img/Fire_Up_Distractor.gif""]","8","targetDown_distractorsUp"
"","","","","","html-keyboard-response","212","439940","0.0-14.0-0.0-0.99","5f1c1014ad82c0460a0fbef5","619531dcf66c91622fa1b861","619596ecfb3c877bb8a4bf5a","1195","Wow! You've completed 100 out of 160 trials! </p> <p>  </p><p> Take a quick break, then press any key when you're ready to continue.","s","","","","","main_T1_ITI","","","","",""
"","","","","","visual-search-circle","213","441932","0.0-14.0-0.0-1.99","5f1c1014ad82c0460a0fbef5","619531dcf66c91622fa1b861","619596ecfb3c877bb8a4bf5a","989","","d","true","[[154,562],[504,519],[571,173],[263,2],[5,242]]","true","5","main_T2_Trial","d","img/Fire_Down_Target.gif","[""img/Fire_Up_Distractor.gif"",""img/Fire_Up_Distractor.gif"",""img/Fire_Up_Distractor.gif"",""img/Fire_Up_Distractor.gif"",""img/Fire_Up_Distractor.gif"",""img/Fire_Up_Distractor.gif"",""img/Fire_Up_Distractor.gif"",""img/Fire_Up_Distractor.gif"",""img/Fire_Up_Distractor.gif"",""img/Fire_Up_Distractor.gif"",""img/Fire_Up_Distractor.gif"",""img/Fire_Up_Distractor.gif""]","5","targetDown_distractorsUp"
"","","","","","html-keyboard-response","214","441932","0.0-14.0-0.0-0.100","5f1c1014ad82c0460a0fbef5","619531dcf66c91622fa1b861","619596ecfb3c877bb8a4bf5a","null","","null","","","","","main_T1_ITI","","","","",""
"","","","","","visual-search-circle","215","445045","0.0-14.0-0.0-1.100","5f1c1014ad82c0460a0fbef5","619531dcf66c91622fa1b861","619596ecfb3c877bb8a4bf5a","2108","","d","true","[[320,0],[103,73],[0,279],[73,496],[279,599],[496,526],[599,320],[526,103]]","true","8","main_T2_Trial","d","img/Fire_Up_Target.gif","[""img/Fire_Down_Distractor.gif"",""img/Fire_Down_Distractor.gif"",""img/Fire_Down_Distractor.gif"",""img/Fire_Down_Distractor.gif"",""img/Fire_Down_Distractor.gif"",""img/Fire_Down_Distractor.gif"",""img/Fire_Down_Distractor.gif"",""img/Fire_Down_Distractor.gif"",""img/Fire_Down_Distractor.gif"",""img/Fire_Down_Distractor.gif"",""img/Fire_Down_Distractor.gif"",""img/Fire_Down_Distractor.gif""]","8","targetUp_distractorsDown"
"","","","","","html-keyboard-response","216","445046","0.0-14.0-0.0-0.101","5f1c1014ad82c0460a0fbef5","619531dcf66c91622fa1b861","619596ecfb3c877bb8a4bf5a","null","","null","","","","","main_T1_ITI","","","","",""
"","","","","","visual-search-circle","217","449592","0.0-14.0-0.0-1.101","5f1c1014ad82c0460a0fbef5","619531dcf66c91622fa1b861","619596ecfb3c877bb8a4bf5a","3543","","d","true","[[467,51],[242,5],[51,132],[5,357],[132,548],[357,594],[548,467],[594,242]]","true","8","main_T2_Trial","d","img/Fire_Up_Target.gif","[""img/Fire_Down_Distractor.gif"",""img/Fire_Down_Distractor.gif"",""img/Fire_Down_Distractor.gif"",""img/Fire_Down_Distractor.gif"",""img/Fire_Down_Distractor.gif"",""img/Fire_Down_Distractor.gif"",""img/Fire_Down_Distractor.gif"",""img/Fire_Down_Distractor.gif"",""img/Fire_Down_Distractor.gif"",""img/Fire_Down_Distractor.gif"",""img/Fire_Down_Distractor.gif"",""img/Fire_Down_Distractor.gif""]","8","targetUp_distractorsDown"
"","","","","","html-keyboard-response","218","449593","0.0-14.0-0.0-0.102","5f1c1014ad82c0460a0fbef5","619531dcf66c91622fa1b861","619596ecfb3c877bb8a4bf5a","null","","null","","","","","main_T1_ITI","","","","",""
