"success","timeout","failed_images","failed_audio","failed_video","trial_type","trial_index","time_elapsed","internal_node_id","subject_id","study_id","session_id","rt","stimulus","response","correct","locations","target_present","set_size","task","correct_response","target","foilCM","setSizeCM","searchCondition"
"true","false","[]","[]","[]","preload","0","202487","0.0-0.0","5f2c8d4334a79d06cb136702","619531dcf66c91622fa1b861","6195956807d8e6385b11d710","","","","","","","","","","","","",""
"true","","","","","fullscreen","1","205348","0.0-1.0","5f2c8d4334a79d06cb136702","619531dcf66c91622fa1b861","6195956807d8e6385b11d710","","","","","","","","","","","","",""
"","","","","","html-keyboard-response","2","210492","0.0-2.0","5f2c8d4334a79d06cb136702","619531dcf66c91622fa1b861","6195956807d8e6385b11d710","5142.700000000186","What a beautiful Wednesday to do some awesome science! </p> <p>  </p><p> </p>
    By completing this survey or questionnaire, you are consenting to be in this research study. </p>
    Your participation is voluntary and you can stop at any time.
    <p> [Press any key to continue.] </p>
    
    "," ","","","","","","","","","",""
"","","","","","video-keyboard-response","3","229683","0.0-3.0","5f2c8d4334a79d06cb136702","619531dcf66c91622fa1b861","6195956807d8e6385b11d710","19186.39999999944","[""video/TaskInstructions.mp4""]"," ","","","","","","","","","",""
"","","","","","html-keyboard-response","4","232545","0.0-4.0","5f2c8d4334a79d06cb136702","619531dcf66c91622fa1b861","6195956807d8e6385b11d710","2862.2999999998137","
    <p>First, we're going to do a few practice trials to make sure you understand the task. You will recieve feedback on each trial. </p>
    <p>[Press any key to begin the familiarization phase.]</p>
    "," ","","","","","","","","","",""
"","","","","","visual-search-circle","5","243352","0.0-5.0-0.0","5f2c8d4334a79d06cb136702","619531dcf66c91622fa1b861","6195956807d8e6385b11d710","9732.700000000186","","s","false","[[197,581],[581,402],[402,18],[18,197]]","true","4","training","d","","","",""
"","","","","","html-keyboard-response","6","245323","0.0-6.0","5f2c8d4334a79d06cb136702","619531dcf66c91622fa1b861","6195956807d8e6385b11d710","1969.9000000003725"," <div style='float: center;'><img src='img/feedbackWrong.png'></img> </div> "," ","","","","","","","","","",""
"","","","","","visual-search-circle","7","247667","0.0-7.0-0.0","5f2c8d4334a79d06cb136702","619531dcf66c91622fa1b861","6195956807d8e6385b11d710","1329.8999999994412","","s","true","[[583,202],[202,16],[16,397],[397,583]]","false","4","training","s","","","",""
"","","","","","html-keyboard-response","8","249073","0.0-8.0","5f2c8d4334a79d06cb136702","619531dcf66c91622fa1b861","6195956807d8e6385b11d710","1405.2000000001863"," <div style='float: center; '><img src='img/feedbackRight.png'></img> </div> "," ","","","","","","","","","",""
"","","","","","visual-search-circle","9","251377","0.0-9.0-0.0","5f2c8d4334a79d06cb136702","619531dcf66c91622fa1b861","6195956807d8e6385b11d710","1295.2999999998137","","s","true","[[571,426],[545,127],[273,1],[28,173],[54,472],[326,598]]","false","6","training","s","","","",""
"","","","","","html-keyboard-response","10","251784","0.0-10.0","5f2c8d4334a79d06cb136702","619531dcf66c91622fa1b861","6195956807d8e6385b11d710","407"," <div style='float: center; '><img src='img/feedbackRight.png'></img> </div> "," ","","","","","","","","","",""
"","","","","","visual-search-circle","11","254187","0.0-11.0-0.0","5f2c8d4334a79d06cb136702","619531dcf66c91622fa1b861","6195956807d8e6385b11d710","1383.2999999998137","","d","true","[[284,599],[500,522],[599,315],[522,99],[315,0],[99,77],[0,284],[77,500]]","true","8","training","d","","","",""
"","","","","","html-keyboard-response","12","254931","0.0-12.0","5f2c8d4334a79d06cb136702","619531dcf66c91622fa1b861","6195956807d8e6385b11d710","743.0999999996275"," <div style='float: center; '><img src='img/feedbackRight.png'></img> </div> "," ","","","","","","","","","",""
"","","","","","video-keyboard-response","13","257595","0.0-13.0","5f2c8d4334a79d06cb136702","619531dcf66c91622fa1b861","6195956807d8e6385b11d710","2662","[""video/endTraining.mp4""]"," ","","","","","","","","","",""
"","","","","","html-keyboard-response","14","257597","0.0-14.0-0.0-0.0","5f2c8d4334a79d06cb136702","619531dcf66c91622fa1b861","6195956807d8e6385b11d710","null","","null","","","","","main_T1_ITI","","","","",""
"","","","","","visual-search-circle","15","261157","0.0-14.0-0.0-1.0","5f2c8d4334a79d06cb136702","619531dcf66c91622fa1b861","6195956807d8e6385b11d710","2537","","d","true","[[84,508],[294,599],[508,515],[599,305],[515,91],[305,0],[91,84],[0,294]]","true","8","main_T2_Trial","d","img/Fire_Down_Target.gif","[""img/Fire_Up_Distractor.gif"",""img/Fire_Up_Distractor.gif"",""img/Fire_Up_Distractor.gif"",""img/Fire_Up_Distractor.gif"",""img/Fire_Up_Distractor.gif"",""img/Fire_Up_Distractor.gif"",""img/Fire_Up_Distractor.gif"",""img/Fire_Up_Distractor.gif"",""img/Fire_Up_Distractor.gif"",""img/Fire_Up_Distractor.gif"",""img/Fire_Up_Distractor.gif"",""img/Fire_Up_Distractor.gif""]","8","targetDown_distractorsUp"
"","","","","","html-keyboard-response","16","261160","0.0-14.0-0.0-0.1","5f2c8d4334a79d06cb136702","619531dcf66c91622fa1b861","6195956807d8e6385b11d710","null","","null","","","","","main_T1_ITI","","","","",""
"","","","","","visual-search-circle","17","263989","0.0-14.0-0.0-1.1","5f2c8d4334a79d06cb136702","619531dcf66c91622fa1b861","6195956807d8e6385b11d710","1819","","s","true","[[526,496],[599,279],[496,73],[279,0],[73,103],[0,320],[103,526],[320,599]]","false","8","main_T2_Trial","s","img/Fire_Down_Target.gif","[""img/Fire_Up_Distractor.gif"",""img/Fire_Up_Distractor.gif"",""img/Fire_Up_Distractor.gif"",""img/Fire_Up_Distractor.gif"",""img/Fire_Up_Distractor.gif"",""img/Fire_Up_Distractor.gif"",""img/Fire_Up_Distractor.gif"",""img/Fire_Up_Distractor.gif"",""img/Fire_Up_Distractor.gif"",""img/Fire_Up_Distractor.gif"",""img/Fire_Up_Distractor.gif"",""img/Fire_Up_Distractor.gif""]","8","targetDown_distractorsUp"
"","","","","","html-keyboard-response","18","263990","0.0-14.0-0.0-0.2","5f2c8d4334a79d06cb136702","619531dcf66c91622fa1b861","6195956807d8e6385b11d710","null","","null","","","","","main_T1_ITI","","","","",""
"","","","","","visual-search-circle","19","266477","0.0-14.0-0.0-1.2","5f2c8d4334a79d06cb136702","619531dcf66c91622fa1b861","6195956807d8e6385b11d710","1477.6000000005588","","s","true","[[154,37],[4,250],[76,500],[317,599],[544,473],[588,216],[414,22]]","false","7","main_T2_Trial","s","img/Fire_Down_Target.gif","[""img/Fire_Up_Distractor.gif"",""img/Fire_Up_Distractor.gif"",""img/Fire_Up_Distractor.gif"",""img/Fire_Up_Distractor.gif"",""img/Fire_Up_Distractor.gif"",""img/Fire_Up_Distractor.gif"",""img/Fire_Up_Distractor.gif"",""img/Fire_Up_Distractor.gif"",""img/Fire_Up_Distractor.gif"",""img/Fire_Up_Distractor.gif"",""img/Fire_Up_Distractor.gif"",""img/Fire_Up_Distractor.gif""]","7","targetDown_distractorsUp"
"","","","","","html-keyboard-response","20","266479","0.0-14.0-0.0-0.3","5f2c8d4334a79d06cb136702","619531dcf66c91622fa1b861","6195956807d8e6385b11d710","null","","null","","","","","main_T1_ITI","","","","",""
"","","","","","visual-search-circle","21","269666","0.0-14.0-0.0-1.3","5f2c8d4334a79d06cb136702","619531dcf66c91622fa1b861","6195956807d8e6385b11d710","2178.2999999998137","","s","true","[[57,476],[476,542],[542,123],[123,57]]","false","4","main_T2_Trial","s","img/Fire_Up_Target.gif","[""img/Fire_Down_Distractor.gif"",""img/Fire_Down_Distractor.gif"",""img/Fire_Down_Distractor.gif"",""img/Fire_Down_Distractor.gif"",""img/Fire_Down_Distractor.gif"",""img/Fire_Down_Distractor.gif"",""img/Fire_Down_Distractor.gif"",""img/Fire_Down_Distractor.gif"",""img/Fire_Down_Distractor.gif"",""img/Fire_Down_Distractor.gif"",""img/Fire_Down_Distractor.gif"",""img/Fire_Down_Distractor.gif""]","4","targetUp_distractorsDown"
"","","","","","html-keyboard-response","22","269673","0.0-14.0-0.0-0.4","5f2c8d4334a79d06cb136702","619531dcf66c91622fa1b861","6195956807d8e6385b11d710","null","","null","","","","","main_T1_ITI","","","","",""
"","","","","","visual-search-circle","23","272316","0.0-14.0-0.0-1.4","5f2c8d4334a79d06cb136702","619531dcf66c91622fa1b861","6195956807d8e6385b11d710","1627.7999999998137","","d","true","[[294,599],[599,305],[305,0],[0,294]]","true","4","main_T2_Trial","d","img/Fire_Down_Target.gif","[""img/Fire_Up_Distractor.gif"",""img/Fire_Up_Distractor.gif"",""img/Fire_Up_Distractor.gif"",""img/Fire_Up_Distractor.gif"",""img/Fire_Up_Distractor.gif"",""img/Fire_Up_Distractor.gif"",""img/Fire_Up_Distractor.gif"",""img/Fire_Up_Distractor.gif"",""img/Fire_Up_Distractor.gif"",""img/Fire_Up_Distractor.gif"",""img/Fire_Up_Distractor.gif"",""img/Fire_Up_Distractor.gif""]","4","targetDown_distractorsUp"
"","","","","","html-keyboard-response","24","272318","0.0-14.0-0.0-0.5","5f2c8d4334a79d06cb136702","619531dcf66c91622fa1b861","6195956807d8e6385b11d710","null","","null","","","","","main_T1_ITI","","","","",""
"","","","","","visual-search-circle","25","276064","0.0-14.0-0.0-1.5","5f2c8d4334a79d06cb136702","619531dcf66c91622fa1b861","6195956807d8e6385b11d710","2728.4000000003725","","s","false","[[476,542],[542,123],[123,57],[57,476]]","true","4","main_T2_Trial","d","img/Fire_Down_Target.gif","[""img/Fire_Up_Distractor.gif"",""img/Fire_Up_Distractor.gif"",""img/Fire_Up_Distractor.gif"",""img/Fire_Up_Distractor.gif"",""img/Fire_Up_Distractor.gif"",""img/Fire_Up_Distractor.gif"",""img/Fire_Up_Distractor.gif"",""img/Fire_Up_Distractor.gif"",""img/Fire_Up_Distractor.gif"",""img/Fire_Up_Distractor.gif"",""img/Fire_Up_Distractor.gif"",""img/Fire_Up_Distractor.gif""]","4","targetDown_distractorsUp"
"","","","","","html-keyboard-response","26","276066","0.0-14.0-0.0-0.6","5f2c8d4334a79d06cb136702","619531dcf66c91622fa1b861","6195956807d8e6385b11d710","null","","null","","","","","main_T1_ITI","","","","",""
"","","","","","visual-search-circle","27","280808","0.0-14.0-0.0-1.6","5f2c8d4334a79d06cb136702","619531dcf66c91622fa1b861","6195956807d8e6385b11d710","3732","","s","true","[[592,232],[387,13],[95,80],[7,367],[212,586],[504,519]]","false","6","main_T2_Trial","s","img/Fire_Down_Target.gif","[""img/Fire_Up_Distractor.gif"",""img/Fire_Up_Distractor.gif"",""img/Fire_Up_Distractor.gif"",""img/Fire_Up_Distractor.gif"",""img/Fire_Up_Distractor.gif"",""img/Fire_Up_Distractor.gif"",""img/Fire_Up_Distractor.gif"",""img/Fire_Up_Distractor.gif"",""img/Fire_Up_Distractor.gif"",""img/Fire_Up_Distractor.gif"",""img/Fire_Up_Distractor.gif"",""img/Fire_Up_Distractor.gif""]","6","targetDown_distractorsUp"
"","","","","","html-keyboard-response","28","280815","0.0-14.0-0.0-0.7","5f2c8d4334a79d06cb136702","619531dcf66c91622fa1b861","6195956807d8e6385b11d710","null","","null","","","","","main_T1_ITI","","","","",""
"","","","","","visual-search-circle","29","283818","0.0-14.0-0.0-1.7","5f2c8d4334a79d06cb136702","619531dcf66c91622fa1b861","6195956807d8e6385b11d710","1984.199999999255","","s","true","[[21,412],[214,587],[471,546],[599,319],[501,78],[252,3],[38,152]]","false","7","main_T2_Trial","s","img/Fire_Up_Target.gif","[""img/Fire_Down_Distractor.gif"",""img/Fire_Down_Distractor.gif"",""img/Fire_Down_Distractor.gif"",""img/Fire_Down_Distractor.gif"",""img/Fire_Down_Distractor.gif"",""img/Fire_Down_Distractor.gif"",""img/Fire_Down_Distractor.gif"",""img/Fire_Down_Distractor.gif"",""img/Fire_Down_Distractor.gif"",""img/Fire_Down_Distractor.gif"",""img/Fire_Down_Distractor.gif"",""img/Fire_Down_Distractor.gif""]","7","targetUp_distractorsDown"
"","","","","","html-keyboard-response","30","283821","0.0-14.0-0.0-0.8","5f2c8d4334a79d06cb136702","619531dcf66c91622fa1b861","6195956807d8e6385b11d710","null","","null","","","","","main_T1_ITI","","","","",""
"","","","","","visual-search-circle","31","285918","0.0-14.0-0.0-1.8","5f2c8d4334a79d06cb136702","619531dcf66c91622fa1b861","6195956807d8e6385b11d710","1084.300000000745","","d","true","[[0,289],[104,527],[356,594],[565,439],[574,179],[376,10],[121,59]]","true","7","main_T2_Trial","d","img/Fire_Up_Target.gif","[""img/Fire_Down_Distractor.gif"",""img/Fire_Down_Distractor.gif"",""img/Fire_Down_Distractor.gif"",""img/Fire_Down_Distractor.gif"",""img/Fire_Down_Distractor.gif"",""img/Fire_Down_Distractor.gif"",""img/Fire_Down_Distractor.gif"",""img/Fire_Down_Distractor.gif"",""img/Fire_Down_Distractor.gif"",""img/Fire_Down_Distractor.gif"",""img/Fire_Down_Distractor.gif"",""img/Fire_Down_Distractor.gif""]","7","targetUp_distractorsDown"
"","","","","","html-keyboard-response","32","285920","0.0-14.0-0.0-0.9","5f2c8d4334a79d06cb136702","619531dcf66c91622fa1b861","6195956807d8e6385b11d710","null","","null","","","","","main_T1_ITI","","","","",""
"","","","","","visual-search-circle","33","287939","0.0-14.0-0.0-1.9","5f2c8d4334a79d06cb136702","619531dcf66c91622fa1b861","6195956807d8e6385b11d710","1002.5999999996275","","d","true","[[2,263],[119,539],[417,576],[597,336],[480,60],[182,23]]","true","6","main_T2_Trial","d","img/Fire_Down_Target.gif","[""img/Fire_Up_Distractor.gif"",""img/Fire_Up_Distractor.gif"",""img/Fire_Up_Distractor.gif"",""img/Fire_Up_Distractor.gif"",""img/Fire_Up_Distractor.gif"",""img/Fire_Up_Distractor.gif"",""img/Fire_Up_Distractor.gif"",""img/Fire_Up_Distractor.gif"",""img/Fire_Up_Distractor.gif"",""img/Fire_Up_Distractor.gif"",""img/Fire_Up_Distractor.gif"",""img/Fire_Up_Distractor.gif""]","6","targetDown_distractorsUp"
"","","","","","html-keyboard-response","34","287941","0.0-14.0-0.0-0.10","5f2c8d4334a79d06cb136702","619531dcf66c91622fa1b861","6195956807d8e6385b11d710","null","","null","","","","","main_T1_ITI","","","","",""
"","","","","","visual-search-circle","35","291677","0.0-14.0-0.0-1.10","5f2c8d4334a79d06cb136702","619531dcf66c91622fa1b861","6195956807d8e6385b11d710","2720.7000000001863","","s","false","[[508,84],[261,2],[43,144],[18,404],[205,584],[464,551],[598,328]]","true","7","main_T2_Trial","d","img/Fire_Up_Target.gif","[""img/Fire_Down_Distractor.gif"",""img/Fire_Down_Distractor.gif"",""img/Fire_Down_Distractor.gif"",""img/Fire_Down_Distractor.gif"",""img/Fire_Down_Distractor.gif"",""img/Fire_Down_Distractor.gif"",""img/Fire_Down_Distractor.gif"",""img/Fire_Down_Distractor.gif"",""img/Fire_Down_Distractor.gif"",""img/Fire_Down_Distractor.gif"",""img/Fire_Down_Distractor.gif"",""img/Fire_Down_Distractor.gif""]","7","targetUp_distractorsDown"
"","","","","","html-keyboard-response","36","291679","0.0-14.0-0.0-0.11","5f2c8d4334a79d06cb136702","619531dcf66c91622fa1b861","6195956807d8e6385b11d710","null","","null","","","","","main_T1_ITI","","","","",""
"","","","","","visual-search-circle","37","294339","0.0-14.0-0.0-1.11","5f2c8d4334a79d06cb136702","619531dcf66c91622fa1b861","6195956807d8e6385b11d710","1638","","s","true","[[115,536],[369,591],[571,427],[568,167],[363,6],[110,67],[0,302]]","false","7","main_T2_Trial","s","img/Fire_Down_Target.gif","[""img/Fire_Up_Distractor.gif"",""img/Fire_Up_Distractor.gif"",""img/Fire_Up_Distractor.gif"",""img/Fire_Up_Distractor.gif"",""img/Fire_Up_Distractor.gif"",""img/Fire_Up_Distractor.gif"",""img/Fire_Up_Distractor.gif"",""img/Fire_Up_Distractor.gif"",""img/Fire_Up_Distractor.gif"",""img/Fire_Up_Distractor.gif"",""img/Fire_Up_Distractor.gif"",""img/Fire_Up_Distractor.gif""]","7","targetDown_distractorsUp"
"","","","","","html-keyboard-response","38","294341","0.0-14.0-0.0-0.12","5f2c8d4334a79d06cb136702","619531dcf66c91622fa1b861","6195956807d8e6385b11d710","null","","null","","","","","main_T1_ITI","","","","",""
"","","","","","visual-search-circle","39","298245","0.0-14.0-0.0-1.12","5f2c8d4334a79d06cb136702","619531dcf66c91622fa1b861","6195956807d8e6385b11d710","2890.2000000001863","","s","true","[[163,567],[424,573],[590,373],[538,118],[306,0],[69,107],[6,360]]","false","7","main_T2_Trial","s","img/Fire_Down_Target.gif","[""img/Fire_Up_Distractor.gif"",""img/Fire_Up_Distractor.gif"",""img/Fire_Up_Distractor.gif"",""img/Fire_Up_Distractor.gif"",""img/Fire_Up_Distractor.gif"",""img/Fire_Up_Distractor.gif"",""img/Fire_Up_Distractor.gif"",""img/Fire_Up_Distractor.gif"",""img/Fire_Up_Distractor.gif"",""img/Fire_Up_Distractor.gif"",""img/Fire_Up_Distractor.gif"",""img/Fire_Up_Distractor.gif""]","7","targetDown_distractorsUp"
"","","","","","html-keyboard-response","40","298247","0.0-14.0-0.0-0.13","5f2c8d4334a79d06cb136702","619531dcf66c91622fa1b861","6195956807d8e6385b11d710","null","","null","","","","","main_T1_ITI","","","","",""
"","","","","","visual-search-circle","41","302073","0.0-14.0-0.0-1.13","5f2c8d4334a79d06cb136702","619531dcf66c91622fa1b861","6195956807d8e6385b11d710","2813.600000000559","","s","true","[[357,594],[597,336],[426,28],[80,95],[37,445]]","false","5","main_T2_Trial","s","img/Fire_Down_Target.gif","[""img/Fire_Up_Distractor.gif"",""img/Fire_Up_Distractor.gif"",""img/Fire_Up_Distractor.gif"",""img/Fire_Up_Distractor.gif"",""img/Fire_Up_Distractor.gif"",""img/Fire_Up_Distractor.gif"",""img/Fire_Up_Distractor.gif"",""img/Fire_Up_Distractor.gif"",""img/Fire_Up_Distractor.gif"",""img/Fire_Up_Distractor.gif"",""img/Fire_Up_Distractor.gif"",""img/Fire_Up_Distractor.gif""]","5","targetDown_distractorsUp"
"","","","","","html-keyboard-response","42","302075","0.0-14.0-0.0-0.14","5f2c8d4334a79d06cb136702","619531dcf66c91622fa1b861","6195956807d8e6385b11d710","null","","null","","","","","main_T1_ITI","","","","",""
"","","","","","visual-search-circle","43","306150","0.0-14.0-0.0-1.14","5f2c8d4334a79d06cb136702","619531dcf66c91622fa1b861","6195956807d8e6385b11d710","3064.7999999998137","","d","true","[[341,2],[30,168],[91,515],[440,564],[595,247]]","true","5","main_T2_Trial","d","img/Fire_Up_Target.gif","[""img/Fire_Down_Distractor.gif"",""img/Fire_Down_Distractor.gif"",""img/Fire_Down_Distractor.gif"",""img/Fire_Down_Distractor.gif"",""img/Fire_Down_Distractor.gif"",""img/Fire_Down_Distractor.gif"",""img/Fire_Down_Distractor.gif"",""img/Fire_Down_Distractor.gif"",""img/Fire_Down_Distractor.gif"",""img/Fire_Down_Distractor.gif"",""img/Fire_Down_Distractor.gif"",""img/Fire_Down_Distractor.gif""]","5","targetUp_distractorsDown"
"","","","","","html-keyboard-response","44","306153","0.0-14.0-0.0-0.15","5f2c8d4334a79d06cb136702","619531dcf66c91622fa1b861","6195956807d8e6385b11d710","null","","null","","","","","main_T1_ITI","","","","",""
"","","","","","visual-search-circle","45","310463","0.0-14.0-0.0-1.15","5f2c8d4334a79d06cb136702","619531dcf66c91622fa1b861","6195956807d8e6385b11d710","3295.2999999998137","","s","true","[[488,66],[136,48],[10,377],[284,599],[580,407]]","false","5","main_T2_Trial","s","img/Fire_Down_Target.gif","[""img/Fire_Up_Distractor.gif"",""img/Fire_Up_Distractor.gif"",""img/Fire_Up_Distractor.gif"",""img/Fire_Up_Distractor.gif"",""img/Fire_Up_Distractor.gif"",""img/Fire_Up_Distractor.gif"",""img/Fire_Up_Distractor.gif"",""img/Fire_Up_Distractor.gif"",""img/Fire_Up_Distractor.gif"",""img/Fire_Up_Distractor.gif"",""img/Fire_Up_Distractor.gif"",""img/Fire_Up_Distractor.gif""]","5","targetDown_distractorsUp"
"","","","","","html-keyboard-response","46","310470","0.0-14.0-0.0-0.16","5f2c8d4334a79d06cb136702","619531dcf66c91622fa1b861","6195956807d8e6385b11d710","null","","null","","","","","main_T1_ITI","","","","",""
"","","","","","visual-search-circle","47","313790","0.0-14.0-0.0-1.16","5f2c8d4334a79d06cb136702","619531dcf66c91622fa1b861","6195956807d8e6385b11d710","2304.5","","s","true","[[11,382],[289,599],[581,402],[484,63],[132,51]]","false","5","main_T2_Trial","s","img/Fire_Up_Target.gif","[""img/Fire_Down_Distractor.gif"",""img/Fire_Down_Distractor.gif"",""img/Fire_Down_Distractor.gif"",""img/Fire_Down_Distractor.gif"",""img/Fire_Down_Distractor.gif"",""img/Fire_Down_Distractor.gif"",""img/Fire_Down_Distractor.gif"",""img/Fire_Down_Distractor.gif"",""img/Fire_Down_Distractor.gif"",""img/Fire_Down_Distractor.gif"",""img/Fire_Down_Distractor.gif"",""img/Fire_Down_Distractor.gif""]","5","targetUp_distractorsDown"
"","","","","","html-keyboard-response","48","313791","0.0-14.0-0.0-0.17","5f2c8d4334a79d06cb136702","619531dcf66c91622fa1b861","6195956807d8e6385b11d710","null","","null","","","","","main_T1_ITI","","","","",""
"","","","","","visual-search-circle","49","317314","0.0-14.0-0.0-1.17","5f2c8d4334a79d06cb136702","619531dcf66c91622fa1b861","6195956807d8e6385b11d710","2504.0999999996275","","d","true","[[533,111],[192,19],[0,315],[222,589],[551,463]]","true","5","main_T2_Trial","d","img/Fire_Down_Target.gif","[""img/Fire_Up_Distractor.gif"",""img/Fire_Up_Distractor.gif"",""img/Fire_Up_Distractor.gif"",""img/Fire_Up_Distractor.gif"",""img/Fire_Up_Distractor.gif"",""img/Fire_Up_Distractor.gif"",""img/Fire_Up_Distractor.gif"",""img/Fire_Up_Distractor.gif"",""img/Fire_Up_Distractor.gif"",""img/Fire_Up_Distractor.gif"",""img/Fire_Up_Distractor.gif"",""img/Fire_Up_Distractor.gif""]","5","targetDown_distractorsUp"
"","","","","","html-keyboard-response","50","317321","0.0-14.0-0.0-0.18","5f2c8d4334a79d06cb136702","619531dcf66c91622fa1b861","6195956807d8e6385b11d710","null","","null","","","","","main_T1_ITI","","","","",""
"","","","","","visual-search-circle","51","322334","0.0-14.0-0.0-1.18","5f2c8d4334a79d06cb136702","619531dcf66c91622fa1b861","6195956807d8e6385b11d710","3990.4000000003725","","s","true","[[187,578],[417,576],[578,412],[576,182],[412,21],[182,23],[21,187],[23,417]]","false","8","main_T2_Trial","s","img/Fire_Down_Target.gif","[""img/Fire_Up_Distractor.gif"",""img/Fire_Up_Distractor.gif"",""img/Fire_Up_Distractor.gif"",""img/Fire_Up_Distractor.gif"",""img/Fire_Up_Distractor.gif"",""img/Fire_Up_Distractor.gif"",""img/Fire_Up_Distractor.gif"",""img/Fire_Up_Distractor.gif"",""img/Fire_Up_Distractor.gif"",""img/Fire_Up_Distractor.gif"",""img/Fire_Up_Distractor.gif"",""img/Fire_Up_Distractor.gif""]","8","targetDown_distractorsUp"
"","","","","","html-keyboard-response","52","324791","0.0-14.0-0.0-0.19","5f2c8d4334a79d06cb136702","619531dcf66c91622fa1b861","6195956807d8e6385b11d710","2457.2999999998137","Wow! You've completed 20 out of 160 trials! </p> <p>  </p><p> Take a quick break, then press any key when you're ready to continue."," ","","","","","main_T1_ITI","","","","",""
"","","","","","visual-search-circle","53","329270","0.0-14.0-0.0-1.19","5f2c8d4334a79d06cb136702","619531dcf66c91622fa1b861","6195956807d8e6385b11d710","3470","","s","true","[[11,382],[289,599],[581,402],[484,63],[132,51]]","false","5","main_T2_Trial","s","img/Fire_Down_Target.gif","[""img/Fire_Up_Distractor.gif"",""img/Fire_Up_Distractor.gif"",""img/Fire_Up_Distractor.gif"",""img/Fire_Up_Distractor.gif"",""img/Fire_Up_Distractor.gif"",""img/Fire_Up_Distractor.gif"",""img/Fire_Up_Distractor.gif"",""img/Fire_Up_Distractor.gif"",""img/Fire_Up_Distractor.gif"",""img/Fire_Up_Distractor.gif"",""img/Fire_Up_Distractor.gif"",""img/Fire_Up_Distractor.gif""]","5","targetDown_distractorsUp"
"","","","","","html-keyboard-response","54","329272","0.0-14.0-0.0-0.20","5f2c8d4334a79d06cb136702","619531dcf66c91622fa1b861","6195956807d8e6385b11d710","null","","null","","","","","main_T1_ITI","","","","",""
"","","","","","visual-search-circle","55","332614","0.0-14.0-0.0-1.20","5f2c8d4334a79d06cb136702","619531dcf66c91622fa1b861","6195956807d8e6385b11d710","2322.7000000001863","","s","true","[[554,458],[458,45],[45,141],[141,554]]","false","4","main_T2_Trial","s","img/Fire_Down_Target.gif","[""img/Fire_Up_Distractor.gif"",""img/Fire_Up_Distractor.gif"",""img/Fire_Up_Distractor.gif"",""img/Fire_Up_Distractor.gif"",""img/Fire_Up_Distractor.gif"",""img/Fire_Up_Distractor.gif"",""img/Fire_Up_Distractor.gif"",""img/Fire_Up_Distractor.gif"",""img/Fire_Up_Distractor.gif"",""img/Fire_Up_Distractor.gif"",""img/Fire_Up_Distractor.gif"",""img/Fire_Up_Distractor.gif""]","4","targetDown_distractorsUp"
"","","","","","html-keyboard-response","56","332616","0.0-14.0-0.0-0.21","5f2c8d4334a79d06cb136702","619531dcf66c91622fa1b861","6195956807d8e6385b11d710","null","","null","","","","","main_T1_ITI","","","","",""
"","","","","","visual-search-circle","57","337840","0.0-14.0-0.0-1.21","5f2c8d4334a79d06cb136702","619531dcf66c91622fa1b861","6195956807d8e6385b11d710","4217.4000000003725","","d","true","[[596,253],[448,39],[188,21],[12,213],[53,470],[279,599],[521,502]]","true","7","main_T2_Trial","d","img/Fire_Up_Target.gif","[""img/Fire_Down_Distractor.gif"",""img/Fire_Down_Distractor.gif"",""img/Fire_Down_Distractor.gif"",""img/Fire_Down_Distractor.gif"",""img/Fire_Down_Distractor.gif"",""img/Fire_Down_Distractor.gif"",""img/Fire_Down_Distractor.gif"",""img/Fire_Down_Distractor.gif"",""img/Fire_Down_Distractor.gif"",""img/Fire_Down_Distractor.gif"",""img/Fire_Down_Distractor.gif"",""img/Fire_Down_Distractor.gif""]","7","targetUp_distractorsDown"
"","","","","","html-keyboard-response","58","337850","0.0-14.0-0.0-0.22","5f2c8d4334a79d06cb136702","619531dcf66c91622fa1b861","6195956807d8e6385b11d710","null","","null","","","","","main_T1_ITI","","","","",""
"","","","","","visual-search-circle","59","342944","0.0-14.0-0.0-1.22","5f2c8d4334a79d06cb136702","619531dcf66c91622fa1b861","6195956807d8e6385b11d710","4075.7000000001863","","s","false","[[445,37],[95,80],[28,426],[336,597],[594,357]]","true","5","main_T2_Trial","d","img/Fire_Up_Target.gif","[""img/Fire_Down_Distractor.gif"",""img/Fire_Down_Distractor.gif"",""img/Fire_Down_Distractor.gif"",""img/Fire_Down_Distractor.gif"",""img/Fire_Down_Distractor.gif"",""img/Fire_Down_Distractor.gif"",""img/Fire_Down_Distractor.gif"",""img/Fire_Down_Distractor.gif"",""img/Fire_Down_Distractor.gif"",""img/Fire_Down_Distractor.gif"",""img/Fire_Down_Distractor.gif"",""img/Fire_Down_Distractor.gif""]","5","targetUp_distractorsDown"
"","","","","","html-keyboard-response","60","342946","0.0-14.0-0.0-0.23","5f2c8d4334a79d06cb136702","619531dcf66c91622fa1b861","6195956807d8e6385b11d710","null","","null","","","","","main_T1_ITI","","","","",""
"","","","","","visual-search-circle","61","346253","0.0-14.0-0.0-1.23","5f2c8d4334a79d06cb136702","619531dcf66c91622fa1b861","6195956807d8e6385b11d710","2295.7999999998137","","d","true","[[431,30],[84,91],[35,440],[352,595],[597,341]]","true","5","main_T2_Trial","d","img/Fire_Up_Target.gif","[""img/Fire_Down_Distractor.gif"",""img/Fire_Down_Distractor.gif"",""img/Fire_Down_Distractor.gif"",""img/Fire_Down_Distractor.gif"",""img/Fire_Down_Distractor.gif"",""img/Fire_Down_Distractor.gif"",""img/Fire_Down_Distractor.gif"",""img/Fire_Down_Distractor.gif"",""img/Fire_Down_Distractor.gif"",""img/Fire_Down_Distractor.gif"",""img/Fire_Down_Distractor.gif"",""img/Fire_Down_Distractor.gif""]","5","targetUp_distractorsDown"
"","","","","","html-keyboard-response","62","346255","0.0-14.0-0.0-0.24","5f2c8d4334a79d06cb136702","619531dcf66c91622fa1b861","6195956807d8e6385b11d710","null","","null","","","","","main_T1_ITI","","","","",""
"","","","","","visual-search-circle","63","348496","0.0-14.0-0.0-1.24","5f2c8d4334a79d06cb136702","619531dcf66c91622fa1b861","6195956807d8e6385b11d710","1222.699999999255","","d","true","[[591,372],[372,8],[8,227],[227,591]]","true","4","main_T2_Trial","d","img/Fire_Down_Target.gif","[""img/Fire_Up_Distractor.gif"",""img/Fire_Up_Distractor.gif"",""img/Fire_Up_Distractor.gif"",""img/Fire_Up_Distractor.gif"",""img/Fire_Up_Distractor.gif"",""img/Fire_Up_Distractor.gif"",""img/Fire_Up_Distractor.gif"",""img/Fire_Up_Distractor.gif"",""img/Fire_Up_Distractor.gif"",""img/Fire_Up_Distractor.gif"",""img/Fire_Up_Distractor.gif"",""img/Fire_Up_Distractor.gif""]","4","targetDown_distractorsUp"
"","","","","","html-keyboard-response","64","348499","0.0-14.0-0.0-0.25","5f2c8d4334a79d06cb136702","619531dcf66c91622fa1b861","6195956807d8e6385b11d710","null","","null","","","","","main_T1_ITI","","","","",""
"","","","","","visual-search-circle","65","352017","0.0-14.0-0.0-1.25","5f2c8d4334a79d06cb136702","619531dcf66c91622fa1b861","6195956807d8e6385b11d710","2504.800000000745","","s","true","[[2,258],[168,569],[515,508],[564,159],[247,4]]","false","5","main_T2_Trial","s","img/Fire_Down_Target.gif","[""img/Fire_Up_Distractor.gif"",""img/Fire_Up_Distractor.gif"",""img/Fire_Up_Distractor.gif"",""img/Fire_Up_Distractor.gif"",""img/Fire_Up_Distractor.gif"",""img/Fire_Up_Distractor.gif"",""img/Fire_Up_Distractor.gif"",""img/Fire_Up_Distractor.gif"",""img/Fire_Up_Distractor.gif"",""img/Fire_Up_Distractor.gif"",""img/Fire_Up_Distractor.gif"",""img/Fire_Up_Distractor.gif""]","5","targetDown_distractorsUp"
"","","","","","html-keyboard-response","66","352018","0.0-14.0-0.0-0.26","5f2c8d4334a79d06cb136702","619531dcf66c91622fa1b861","6195956807d8e6385b11d710","null","","null","","","","","main_T1_ITI","","","","",""
"","","","","","visual-search-circle","67","354815","0.0-14.0-0.0-1.26","5f2c8d4334a79d06cb136702","619531dcf66c91622fa1b861","6195956807d8e6385b11d710","1788","","d","true","[[526,496],[496,73],[73,103],[103,526]]","true","4","main_T2_Trial","d","img/Fire_Up_Target.gif","[""img/Fire_Down_Distractor.gif"",""img/Fire_Down_Distractor.gif"",""img/Fire_Down_Distractor.gif"",""img/Fire_Down_Distractor.gif"",""img/Fire_Down_Distractor.gif"",""img/Fire_Down_Distractor.gif"",""img/Fire_Down_Distractor.gif"",""img/Fire_Down_Distractor.gif"",""img/Fire_Down_Distractor.gif"",""img/Fire_Down_Distractor.gif"",""img/Fire_Down_Distractor.gif"",""img/Fire_Down_Distractor.gif""]","4","targetUp_distractorsDown"
"","","","","","html-keyboard-response","68","354817","0.0-14.0-0.0-0.27","5f2c8d4334a79d06cb136702","619531dcf66c91622fa1b861","6195956807d8e6385b11d710","null","","null","","","","","main_T1_ITI","","","","",""
"","","","","","visual-search-circle","69","358859","0.0-14.0-0.0-1.27","5f2c8d4334a79d06cb136702","619531dcf66c91622fa1b861","6195956807d8e6385b11d710","3023.9000000003725","","d","true","[[341,597],[558,452],[580,193],[391,14],[133,50],[1,274],[93,517]]","true","7","main_T2_Trial","d","img/Fire_Down_Target.gif","[""img/Fire_Up_Distractor.gif"",""img/Fire_Up_Distractor.gif"",""img/Fire_Up_Distractor.gif"",""img/Fire_Up_Distractor.gif"",""img/Fire_Up_Distractor.gif"",""img/Fire_Up_Distractor.gif"",""img/Fire_Up_Distractor.gif"",""img/Fire_Up_Distractor.gif"",""img/Fire_Up_Distractor.gif"",""img/Fire_Up_Distractor.gif"",""img/Fire_Up_Distractor.gif"",""img/Fire_Up_Distractor.gif""]","7","targetDown_distractorsUp"
"","","","","","html-keyboard-response","70","358861","0.0-14.0-0.0-0.28","5f2c8d4334a79d06cb136702","619531dcf66c91622fa1b861","6195956807d8e6385b11d710","null","","null","","","","","main_T1_ITI","","","","",""
"","","","","","visual-search-circle","71","361470","0.0-14.0-0.0-1.28","5f2c8d4334a79d06cb136702","619531dcf66c91622fa1b861","6195956807d8e6385b11d710","1600.5","","d","true","[[564,440],[586,212],[440,35],[212,13],[35,159],[13,387],[159,564],[387,586]]","true","8","main_T2_Trial","d","img/Fire_Down_Target.gif","[""img/Fire_Up_Distractor.gif"",""img/Fire_Up_Distractor.gif"",""img/Fire_Up_Distractor.gif"",""img/Fire_Up_Distractor.gif"",""img/Fire_Up_Distractor.gif"",""img/Fire_Up_Distractor.gif"",""img/Fire_Up_Distractor.gif"",""img/Fire_Up_Distractor.gif"",""img/Fire_Up_Distractor.gif"",""img/Fire_Up_Distractor.gif"",""img/Fire_Up_Distractor.gif"",""img/Fire_Up_Distractor.gif""]","8","targetDown_distractorsUp"
"","","","","","html-keyboard-response","72","361472","0.0-14.0-0.0-0.29","5f2c8d4334a79d06cb136702","619531dcf66c91622fa1b861","6195956807d8e6385b11d710","null","","null","","","","","main_T1_ITI","","","","",""
"","","","","","visual-search-circle","73","365898","0.0-14.0-0.0-1.29","5f2c8d4334a79d06cb136702","619531dcf66c91622fa1b861","6195956807d8e6385b11d710","3409.2999999998137","","d","true","[[289,599],[554,458],[564,159],[310,0],[45,141],[35,440]]","true","6","main_T2_Trial","d","img/Fire_Up_Target.gif","[""img/Fire_Down_Distractor.gif"",""img/Fire_Down_Distractor.gif"",""img/Fire_Down_Distractor.gif"",""img/Fire_Down_Distractor.gif"",""img/Fire_Down_Distractor.gif"",""img/Fire_Down_Distractor.gif"",""img/Fire_Down_Distractor.gif"",""img/Fire_Down_Distractor.gif"",""img/Fire_Down_Distractor.gif"",""img/Fire_Down_Distractor.gif"",""img/Fire_Down_Distractor.gif"",""img/Fire_Down_Distractor.gif""]","6","targetUp_distractorsDown"
"","","","","","html-keyboard-response","74","365905","0.0-14.0-0.0-0.30","5f2c8d4334a79d06cb136702","619531dcf66c91622fa1b861","6195956807d8e6385b11d710","null","","null","","","","","main_T1_ITI","","","","",""
"","","","","","visual-search-circle","75","369036","0.0-14.0-0.0-1.30","5f2c8d4334a79d06cb136702","619531dcf66c91622fa1b861","6195956807d8e6385b11d710","2109.7000000001863","","s","true","[[467,548],[594,357],[548,132],[357,5],[132,51],[5,242],[51,467],[242,594]]","false","8","main_T2_Trial","s","img/Fire_Up_Target.gif","[""img/Fire_Down_Distractor.gif"",""img/Fire_Down_Distractor.gif"",""img/Fire_Down_Distractor.gif"",""img/Fire_Down_Distractor.gif"",""img/Fire_Down_Distractor.gif"",""img/Fire_Down_Distractor.gif"",""img/Fire_Down_Distractor.gif"",""img/Fire_Down_Distractor.gif"",""img/Fire_Down_Distractor.gif"",""img/Fire_Down_Distractor.gif"",""img/Fire_Down_Distractor.gif"",""img/Fire_Down_Distractor.gif""]","8","targetUp_distractorsDown"
"","","","","","html-keyboard-response","76","369039","0.0-14.0-0.0-0.31","5f2c8d4334a79d06cb136702","619531dcf66c91622fa1b861","6195956807d8e6385b11d710","null","","null","","","","","main_T1_ITI","","","","",""
"","","","","","visual-search-circle","77","372244","0.0-14.0-0.0-1.31","5f2c8d4334a79d06cb136702","619531dcf66c91622fa1b861","6195956807d8e6385b11d710","2185.5","","s","false","[[508,84],[294,0],[84,91],[0,305],[91,515],[305,599],[515,508],[599,294]]","true","8","main_T2_Trial","d","img/Fire_Up_Target.gif","[""img/Fire_Down_Distractor.gif"",""img/Fire_Down_Distractor.gif"",""img/Fire_Down_Distractor.gif"",""img/Fire_Down_Distractor.gif"",""img/Fire_Down_Distractor.gif"",""img/Fire_Down_Distractor.gif"",""img/Fire_Down_Distractor.gif"",""img/Fire_Down_Distractor.gif"",""img/Fire_Down_Distractor.gif"",""img/Fire_Down_Distractor.gif"",""img/Fire_Down_Distractor.gif"",""img/Fire_Down_Distractor.gif""]","8","targetUp_distractorsDown"
"","","","","","html-keyboard-response","78","372247","0.0-14.0-0.0-0.32","5f2c8d4334a79d06cb136702","619531dcf66c91622fa1b861","6195956807d8e6385b11d710","null","","null","","","","","main_T1_ITI","","","","",""
"","","","","","visual-search-circle","79","374998","0.0-14.0-0.0-1.32","5f2c8d4334a79d06cb136702","619531dcf66c91622fa1b861","6195956807d8e6385b11d710","1741.6000000005588","","d","true","[[571,173],[326,1],[54,127],[28,426],[273,598],[545,472]]","true","6","main_T2_Trial","d","img/Fire_Down_Target.gif","[""img/Fire_Up_Distractor.gif"",""img/Fire_Up_Distractor.gif"",""img/Fire_Up_Distractor.gif"",""img/Fire_Up_Distractor.gif"",""img/Fire_Up_Distractor.gif"",""img/Fire_Up_Distractor.gif"",""img/Fire_Up_Distractor.gif"",""img/Fire_Up_Distractor.gif"",""img/Fire_Up_Distractor.gif"",""img/Fire_Up_Distractor.gif"",""img/Fire_Up_Distractor.gif"",""img/Fire_Up_Distractor.gif""]","6","targetDown_distractorsUp"
"","","","","","html-keyboard-response","80","375004","0.0-14.0-0.0-0.33","5f2c8d4334a79d06cb136702","619531dcf66c91622fa1b861","6195956807d8e6385b11d710","null","","null","","","","","main_T1_ITI","","","","",""
"","","","","","visual-search-circle","81","377509","0.0-14.0-0.0-1.33","5f2c8d4334a79d06cb136702","619531dcf66c91622fa1b861","6195956807d8e6385b11d710","1498.2999999998137","","d","true","[[25,177],[99,522],[450,559],[593,237],[331,1]]","true","5","main_T2_Trial","d","img/Fire_Up_Target.gif","[""img/Fire_Down_Distractor.gif"",""img/Fire_Down_Distractor.gif"",""img/Fire_Down_Distractor.gif"",""img/Fire_Down_Distractor.gif"",""img/Fire_Down_Distractor.gif"",""img/Fire_Down_Distractor.gif"",""img/Fire_Down_Distractor.gif"",""img/Fire_Down_Distractor.gif"",""img/Fire_Down_Distractor.gif"",""img/Fire_Down_Distractor.gif"",""img/Fire_Down_Distractor.gif"",""img/Fire_Down_Distractor.gif""]","5","targetUp_distractorsDown"
"","","","","","html-keyboard-response","82","377511","0.0-14.0-0.0-0.34","5f2c8d4334a79d06cb136702","619531dcf66c91622fa1b861","6195956807d8e6385b11d710","null","","null","","","","","main_T1_ITI","","","","",""
"","","","","","visual-search-circle","83","380093","0.0-14.0-0.0-1.34","5f2c8d4334a79d06cb136702","619531dcf66c91622fa1b861","6195956807d8e6385b11d710","1573","","d","true","[[222,10],[25,180],[34,440],[244,594],[495,527],[599,288],[478,58]]","true","7","main_T2_Trial","d","img/Fire_Down_Target.gif","[""img/Fire_Up_Distractor.gif"",""img/Fire_Up_Distractor.gif"",""img/Fire_Up_Distractor.gif"",""img/Fire_Up_Distractor.gif"",""img/Fire_Up_Distractor.gif"",""img/Fire_Up_Distractor.gif"",""img/Fire_Up_Distractor.gif"",""img/Fire_Up_Distractor.gif"",""img/Fire_Up_Distractor.gif"",""img/Fire_Up_Distractor.gif"",""img/Fire_Up_Distractor.gif"",""img/Fire_Up_Distractor.gif""]","7","targetDown_distractorsUp"
"","","","","","html-keyboard-response","84","380095","0.0-14.0-0.0-0.35","5f2c8d4334a79d06cb136702","619531dcf66c91622fa1b861","6195956807d8e6385b11d710","null","","null","","","","","main_T1_ITI","","","","",""
"","","","","","visual-search-circle","85","383797","0.0-14.0-0.0-1.35","5f2c8d4334a79d06cb136702","619531dcf66c91622fa1b861","6195956807d8e6385b11d710","2697.300000000745","","d","true","[[598,326],[326,1],[1,273],[273,598]]","true","4","main_T2_Trial","d","img/Fire_Down_Target.gif","[""img/Fire_Up_Distractor.gif"",""img/Fire_Up_Distractor.gif"",""img/Fire_Up_Distractor.gif"",""img/Fire_Up_Distractor.gif"",""img/Fire_Up_Distractor.gif"",""img/Fire_Up_Distractor.gif"",""img/Fire_Up_Distractor.gif"",""img/Fire_Up_Distractor.gif"",""img/Fire_Up_Distractor.gif"",""img/Fire_Up_Distractor.gif"",""img/Fire_Up_Distractor.gif"",""img/Fire_Up_Distractor.gif""]","4","targetDown_distractorsUp"
"","","","","","html-keyboard-response","86","383799","0.0-14.0-0.0-0.36","5f2c8d4334a79d06cb136702","619531dcf66c91622fa1b861","6195956807d8e6385b11d710","null","","null","","","","","main_T1_ITI","","","","",""
"","","","","","visual-search-circle","87","386967","0.0-14.0-0.0-1.36","5f2c8d4334a79d06cb136702","619531dcf66c91622fa1b861","6195956807d8e6385b11d710","2158.7999999998137","","d","true","[[589,377],[559,150],[377,10],[150,40],[10,222],[40,449],[222,589],[449,559]]","true","8","main_T2_Trial","d","img/Fire_Up_Target.gif","[""img/Fire_Down_Distractor.gif"",""img/Fire_Down_Distractor.gif"",""img/Fire_Down_Distractor.gif"",""img/Fire_Down_Distractor.gif"",""img/Fire_Down_Distractor.gif"",""img/Fire_Down_Distractor.gif"",""img/Fire_Down_Distractor.gif"",""img/Fire_Down_Distractor.gif"",""img/Fire_Down_Distractor.gif"",""img/Fire_Down_Distractor.gif"",""img/Fire_Down_Distractor.gif"",""img/Fire_Down_Distractor.gif""]","8","targetUp_distractorsDown"
"","","","","","html-keyboard-response","88","386982","0.0-14.0-0.0-0.37","5f2c8d4334a79d06cb136702","619531dcf66c91622fa1b861","6195956807d8e6385b11d710","null","","null","","","","","main_T1_ITI","","","","",""
"","","","","","visual-search-circle","89","390602","0.0-14.0-0.0-1.37","5f2c8d4334a79d06cb136702","619531dcf66c91622fa1b861","6195956807d8e6385b11d710","2602","","d","true","[[326,1],[54,127],[28,426],[273,598],[545,472],[571,173]]","true","6","main_T2_Trial","d","img/Fire_Up_Target.gif","[""img/Fire_Down_Distractor.gif"",""img/Fire_Down_Distractor.gif"",""img/Fire_Down_Distractor.gif"",""img/Fire_Down_Distractor.gif"",""img/Fire_Down_Distractor.gif"",""img/Fire_Down_Distractor.gif"",""img/Fire_Down_Distractor.gif"",""img/Fire_Down_Distractor.gif"",""img/Fire_Down_Distractor.gif"",""img/Fire_Down_Distractor.gif"",""img/Fire_Down_Distractor.gif"",""img/Fire_Down_Distractor.gif""]","6","targetUp_distractorsDown"
"","","","","","html-keyboard-response","90","390604","0.0-14.0-0.0-0.38","5f2c8d4334a79d06cb136702","619531dcf66c91622fa1b861","6195956807d8e6385b11d710","null","","null","","","","","main_T1_ITI","","","","",""
"","","","","","visual-search-circle","91","394834","0.0-14.0-0.0-1.38","5f2c8d4334a79d06cb136702","619531dcf66c91622fa1b861","6195956807d8e6385b11d710","3212.7000000001863","","d","true","[[177,574],[574,422],[422,25],[25,177]]","true","4","main_T2_Trial","d","img/Fire_Up_Target.gif","[""img/Fire_Down_Distractor.gif"",""img/Fire_Down_Distractor.gif"",""img/Fire_Down_Distractor.gif"",""img/Fire_Down_Distractor.gif"",""img/Fire_Down_Distractor.gif"",""img/Fire_Down_Distractor.gif"",""img/Fire_Down_Distractor.gif"",""img/Fire_Down_Distractor.gif"",""img/Fire_Down_Distractor.gif"",""img/Fire_Down_Distractor.gif"",""img/Fire_Down_Distractor.gif"",""img/Fire_Down_Distractor.gif""]","4","targetUp_distractorsDown"
"","","","","","html-keyboard-response","92","396295","0.0-14.0-0.0-0.39","5f2c8d4334a79d06cb136702","619531dcf66c91622fa1b861","6195956807d8e6385b11d710","1460.199999999255","Wow! You've completed 40 out of 160 trials! </p> <p>  </p><p> Take a quick break, then press any key when you're ready to continue."," ","","","","","main_T1_ITI","","","","",""
"","","","","","visual-search-circle","93","402501","0.0-14.0-0.0-1.39","5f2c8d4334a79d06cb136702","619531dcf66c91622fa1b861","6195956807d8e6385b11d710","5185.299999999814","","s","true","[[362,593],[568,434],[572,173],[371,8],[116,62],[0,295],[109,531]]","false","7","main_T2_Trial","s","img/Fire_Up_Target.gif","[""img/Fire_Down_Distractor.gif"",""img/Fire_Down_Distractor.gif"",""img/Fire_Down_Distractor.gif"",""img/Fire_Down_Distractor.gif"",""img/Fire_Down_Distractor.gif"",""img/Fire_Down_Distractor.gif"",""img/Fire_Down_Distractor.gif"",""img/Fire_Down_Distractor.gif"",""img/Fire_Down_Distractor.gif"",""img/Fire_Down_Distractor.gif"",""img/Fire_Down_Distractor.gif"",""img/Fire_Down_Distractor.gif""]","7","targetUp_distractorsDown"
"","","","","","html-keyboard-response","94","402503","0.0-14.0-0.0-0.40","5f2c8d4334a79d06cb136702","619531dcf66c91622fa1b861","6195956807d8e6385b11d710","null","","null","","","","","main_T1_ITI","","","","",""
"","","","","","visual-search-circle","95","405382","0.0-14.0-0.0-1.40","5f2c8d4334a79d06cb136702","619531dcf66c91622fa1b861","6195956807d8e6385b11d710","1870.4000000003725","","d","true","[[551,136],[222,10],[0,284],[192,580],[533,488]]","true","5","main_T2_Trial","d","img/Fire_Up_Target.gif","[""img/Fire_Down_Distractor.gif"",""img/Fire_Down_Distractor.gif"",""img/Fire_Down_Distractor.gif"",""img/Fire_Down_Distractor.gif"",""img/Fire_Down_Distractor.gif"",""img/Fire_Down_Distractor.gif"",""img/Fire_Down_Distractor.gif"",""img/Fire_Down_Distractor.gif"",""img/Fire_Down_Distractor.gif"",""img/Fire_Down_Distractor.gif"",""img/Fire_Down_Distractor.gif"",""img/Fire_Down_Distractor.gif""]","5","targetUp_distractorsDown"
"","","","","","html-keyboard-response","96","405384","0.0-14.0-0.0-0.41","5f2c8d4334a79d06cb136702","619531dcf66c91622fa1b861","6195956807d8e6385b11d710","null","","null","","","","","main_T1_ITI","","","","",""
"","","","","","visual-search-circle","97","408272","0.0-14.0-0.0-1.41","5f2c8d4334a79d06cb136702","619531dcf66c91622fa1b861","6195956807d8e6385b11d710","1882.7000000001863","","s","true","[[299,600],[600,300],[300,0],[0,299]]","false","4","main_T2_Trial","s","img/Fire_Up_Target.gif","[""img/Fire_Down_Distractor.gif"",""img/Fire_Down_Distractor.gif"",""img/Fire_Down_Distractor.gif"",""img/Fire_Down_Distractor.gif"",""img/Fire_Down_Distractor.gif"",""img/Fire_Down_Distractor.gif"",""img/Fire_Down_Distractor.gif"",""img/Fire_Down_Distractor.gif"",""img/Fire_Down_Distractor.gif"",""img/Fire_Down_Distractor.gif"",""img/Fire_Down_Distractor.gif"",""img/Fire_Down_Distractor.gif""]","4","targetUp_distractorsDown"
"","","","","","html-keyboard-response","98","408275","0.0-14.0-0.0-0.42","5f2c8d4334a79d06cb136702","619531dcf66c91622fa1b861","6195956807d8e6385b11d710","null","","null","","","","","main_T1_ITI","","","","",""
"","","","","","visual-search-circle","99","412286","0.0-14.0-0.0-1.42","5f2c8d4334a79d06cb136702","619531dcf66c91622fa1b861","6195956807d8e6385b11d710","2987.4000000003725","","s","true","[[48,463],[377,589],[599,315],[407,19],[66,111]]","false","5","main_T2_Trial","s","img/Fire_Up_Target.gif","[""img/Fire_Down_Distractor.gif"",""img/Fire_Down_Distractor.gif"",""img/Fire_Down_Distractor.gif"",""img/Fire_Down_Distractor.gif"",""img/Fire_Down_Distractor.gif"",""img/Fire_Down_Distractor.gif"",""img/Fire_Down_Distractor.gif"",""img/Fire_Down_Distractor.gif"",""img/Fire_Down_Distractor.gif"",""img/Fire_Down_Distractor.gif"",""img/Fire_Down_Distractor.gif"",""img/Fire_Down_Distractor.gif""]","5","targetUp_distractorsDown"
"","","","","","html-keyboard-response","100","412287","0.0-14.0-0.0-0.43","5f2c8d4334a79d06cb136702","619531dcf66c91622fa1b861","6195956807d8e6385b11d710","null","","null","","","","","main_T1_ITI","","","","",""
"","","","","","visual-search-circle","101","416320","0.0-14.0-0.0-1.43","5f2c8d4334a79d06cb136702","619531dcf66c91622fa1b861","6195956807d8e6385b11d710","3013.5","","d","true","[[362,593],[551,463],[593,237],[463,48],[237,6],[48,136],[6,362],[136,551]]","true","8","main_T2_Trial","d","img/Fire_Down_Target.gif","[""img/Fire_Up_Distractor.gif"",""img/Fire_Up_Distractor.gif"",""img/Fire_Up_Distractor.gif"",""img/Fire_Up_Distractor.gif"",""img/Fire_Up_Distractor.gif"",""img/Fire_Up_Distractor.gif"",""img/Fire_Up_Distractor.gif"",""img/Fire_Up_Distractor.gif"",""img/Fire_Up_Distractor.gif"",""img/Fire_Up_Distractor.gif"",""img/Fire_Up_Distractor.gif"",""img/Fire_Up_Distractor.gif""]","8","targetDown_distractorsUp"
"","","","","","html-keyboard-response","102","416326","0.0-14.0-0.0-0.44","5f2c8d4334a79d06cb136702","619531dcf66c91622fa1b861","6195956807d8e6385b11d710","null","","null","","","","","main_T1_ITI","","","","",""
"","","","","","visual-search-circle","103","418380","0.0-14.0-0.0-1.44","5f2c8d4334a79d06cb136702","619531dcf66c91622fa1b861","6195956807d8e6385b11d710","1048.0999999996275","","d","true","[[163,567],[463,551],[599,284],[436,32],[136,48],[0,315]]","true","6","main_T2_Trial","d","img/Fire_Down_Target.gif","[""img/Fire_Up_Distractor.gif"",""img/Fire_Up_Distractor.gif"",""img/Fire_Up_Distractor.gif"",""img/Fire_Up_Distractor.gif"",""img/Fire_Up_Distractor.gif"",""img/Fire_Up_Distractor.gif"",""img/Fire_Up_Distractor.gif"",""img/Fire_Up_Distractor.gif"",""img/Fire_Up_Distractor.gif"",""img/Fire_Up_Distractor.gif"",""img/Fire_Up_Distractor.gif"",""img/Fire_Up_Distractor.gif""]","6","targetDown_distractorsUp"
"","","","","","html-keyboard-response","104","418404","0.0-14.0-0.0-0.45","5f2c8d4334a79d06cb136702","619531dcf66c91622fa1b861","6195956807d8e6385b11d710","null","","null","","","","","main_T1_ITI","","","","",""
"","","","","","visual-search-circle","105","422521","0.0-14.0-0.0-1.45","5f2c8d4334a79d06cb136702","619531dcf66c91622fa1b861","6195956807d8e6385b11d710","3109.800000000745","","d","true","[[564,159],[310,0],[45,141],[35,440],[289,599],[554,458]]","true","6","main_T2_Trial","d","img/Fire_Up_Target.gif","[""img/Fire_Down_Distractor.gif"",""img/Fire_Down_Distractor.gif"",""img/Fire_Down_Distractor.gif"",""img/Fire_Down_Distractor.gif"",""img/Fire_Down_Distractor.gif"",""img/Fire_Down_Distractor.gif"",""img/Fire_Down_Distractor.gif"",""img/Fire_Down_Distractor.gif"",""img/Fire_Down_Distractor.gif"",""img/Fire_Down_Distractor.gif"",""img/Fire_Down_Distractor.gif"",""img/Fire_Down_Distractor.gif""]","6","targetUp_distractorsDown"
"","","","","","html-keyboard-response","106","422524","0.0-14.0-0.0-0.46","5f2c8d4334a79d06cb136702","619531dcf66c91622fa1b861","6195956807d8e6385b11d710","null","","null","","","","","main_T1_ITI","","","","",""
"","","","","","visual-search-circle","107","424874","0.0-14.0-0.0-1.46","5f2c8d4334a79d06cb136702","619531dcf66c91622fa1b861","6195956807d8e6385b11d710","1334.0999999996275","","d","true","[[115,536],[336,597],[536,484],[597,263],[484,63],[263,2],[63,115],[2,336]]","true","8","main_T2_Trial","d","img/Fire_Down_Target.gif","[""img/Fire_Up_Distractor.gif"",""img/Fire_Up_Distractor.gif"",""img/Fire_Up_Distractor.gif"",""img/Fire_Up_Distractor.gif"",""img/Fire_Up_Distractor.gif"",""img/Fire_Up_Distractor.gif"",""img/Fire_Up_Distractor.gif"",""img/Fire_Up_Distractor.gif"",""img/Fire_Up_Distractor.gif"",""img/Fire_Up_Distractor.gif"",""img/Fire_Up_Distractor.gif"",""img/Fire_Up_Distractor.gif""]","8","targetDown_distractorsUp"
"","","","","","html-keyboard-response","108","424878","0.0-14.0-0.0-0.47","5f2c8d4334a79d06cb136702","619531dcf66c91622fa1b861","6195956807d8e6385b11d710","null","","null","","","","","main_T1_ITI","","","","",""
"","","","","","visual-search-circle","109","427589","0.0-14.0-0.0-1.47","5f2c8d4334a79d06cb136702","619531dcf66c91622fa1b861","6195956807d8e6385b11d710","1705.300000000745","","d","true","[[2,258],[115,536],[412,578],[597,341],[484,63],[187,21]]","true","6","main_T2_Trial","d","img/Fire_Down_Target.gif","[""img/Fire_Up_Distractor.gif"",""img/Fire_Up_Distractor.gif"",""img/Fire_Up_Distractor.gif"",""img/Fire_Up_Distractor.gif"",""img/Fire_Up_Distractor.gif"",""img/Fire_Up_Distractor.gif"",""img/Fire_Up_Distractor.gif"",""img/Fire_Up_Distractor.gif"",""img/Fire_Up_Distractor.gif"",""img/Fire_Up_Distractor.gif"",""img/Fire_Up_Distractor.gif"",""img/Fire_Up_Distractor.gif""]","6","targetDown_distractorsUp"
"","","","","","html-keyboard-response","110","427592","0.0-14.0-0.0-0.48","5f2c8d4334a79d06cb136702","619531dcf66c91622fa1b861","6195956807d8e6385b11d710","null","","null","","","","","main_T1_ITI","","","","",""
"","","","","","visual-search-circle","111","431644","0.0-14.0-0.0-1.48","5f2c8d4334a79d06cb136702","619531dcf66c91622fa1b861","6195956807d8e6385b11d710","3044.7000000011176","","d","true","[[512,87],[300,0],[87,87],[0,299],[87,512],[299,600],[512,512],[600,300]]","true","8","main_T2_Trial","d","img/Fire_Down_Target.gif","[""img/Fire_Up_Distractor.gif"",""img/Fire_Up_Distractor.gif"",""img/Fire_Up_Distractor.gif"",""img/Fire_Up_Distractor.gif"",""img/Fire_Up_Distractor.gif"",""img/Fire_Up_Distractor.gif"",""img/Fire_Up_Distractor.gif"",""img/Fire_Up_Distractor.gif"",""img/Fire_Up_Distractor.gif"",""img/Fire_Up_Distractor.gif"",""img/Fire_Up_Distractor.gif"",""img/Fire_Up_Distractor.gif""]","8","targetDown_distractorsUp"
"","","","","","html-keyboard-response","112","431647","0.0-14.0-0.0-0.49","5f2c8d4334a79d06cb136702","619531dcf66c91622fa1b861","6195956807d8e6385b11d710","null","","null","","","","","main_T1_ITI","","","","",""
"","","","","","visual-search-circle","113","435164","0.0-14.0-0.0-1.49","5f2c8d4334a79d06cb136702","619531dcf66c91622fa1b861","6195956807d8e6385b11d710","2509","","d","true","[[3,253],[163,567],[512,512],[567,163],[253,3]]","true","5","main_T2_Trial","d","img/Fire_Up_Target.gif","[""img/Fire_Down_Distractor.gif"",""img/Fire_Down_Distractor.gif"",""img/Fire_Down_Distractor.gif"",""img/Fire_Down_Distractor.gif"",""img/Fire_Down_Distractor.gif"",""img/Fire_Down_Distractor.gif"",""img/Fire_Down_Distractor.gif"",""img/Fire_Down_Distractor.gif"",""img/Fire_Down_Distractor.gif"",""img/Fire_Down_Distractor.gif"",""img/Fire_Down_Distractor.gif"",""img/Fire_Down_Distractor.gif""]","5","targetUp_distractorsDown"
"","","","","","html-keyboard-response","114","435169","0.0-14.0-0.0-0.50","5f2c8d4334a79d06cb136702","619531dcf66c91622fa1b861","6195956807d8e6385b11d710","null","","null","","","","","main_T1_ITI","","","","",""
"","","","","","visual-search-circle","115","438316","0.0-14.0-0.0-1.50","5f2c8d4334a79d06cb136702","619531dcf66c91622fa1b861","6195956807d8e6385b11d710","2137.199999999255","","d","true","[[310,599],[540,478],[589,223],[420,25],[160,34],[5,243],[72,495]]","true","7","main_T2_Trial","d","img/Fire_Up_Target.gif","[""img/Fire_Down_Distractor.gif"",""img/Fire_Down_Distractor.gif"",""img/Fire_Down_Distractor.gif"",""img/Fire_Down_Distractor.gif"",""img/Fire_Down_Distractor.gif"",""img/Fire_Down_Distractor.gif"",""img/Fire_Down_Distractor.gif"",""img/Fire_Down_Distractor.gif"",""img/Fire_Down_Distractor.gif"",""img/Fire_Down_Distractor.gif"",""img/Fire_Down_Distractor.gif"",""img/Fire_Down_Distractor.gif""]","7","targetUp_distractorsDown"
"","","","","","html-keyboard-response","116","438319","0.0-14.0-0.0-0.51","5f2c8d4334a79d06cb136702","619531dcf66c91622fa1b861","6195956807d8e6385b11d710","null","","null","","","","","main_T1_ITI","","","","",""
"","","","","","visual-search-circle","117","441046","0.0-14.0-0.0-1.51","5f2c8d4334a79d06cb136702","619531dcf66c91622fa1b861","6195956807d8e6385b11d710","1704.5","","d","true","[[45,141],[7,367],[141,554],[367,592],[554,458],[592,232],[458,45],[232,7]]","true","8","main_T2_Trial","d","img/Fire_Down_Target.gif","[""img/Fire_Up_Distractor.gif"",""img/Fire_Up_Distractor.gif"",""img/Fire_Up_Distractor.gif"",""img/Fire_Up_Distractor.gif"",""img/Fire_Up_Distractor.gif"",""img/Fire_Up_Distractor.gif"",""img/Fire_Up_Distractor.gif"",""img/Fire_Up_Distractor.gif"",""img/Fire_Up_Distractor.gif"",""img/Fire_Up_Distractor.gif"",""img/Fire_Up_Distractor.gif"",""img/Fire_Up_Distractor.gif""]","8","targetDown_distractorsUp"
"","","","","","html-keyboard-response","118","441048","0.0-14.0-0.0-0.52","5f2c8d4334a79d06cb136702","619531dcf66c91622fa1b861","6195956807d8e6385b11d710","null","","null","","","","","main_T1_ITI","","","","",""
"","","","","","visual-search-circle","119","445982","0.0-14.0-0.0-1.52","5f2c8d4334a79d06cb136702","619531dcf66c91622fa1b861","6195956807d8e6385b11d710","3920.199999999255","","s","true","[[87,512],[377,589],[589,377],[512,87],[222,10],[10,222]]","false","6","main_T2_Trial","s","img/Fire_Down_Target.gif","[""img/Fire_Up_Distractor.gif"",""img/Fire_Up_Distractor.gif"",""img/Fire_Up_Distractor.gif"",""img/Fire_Up_Distractor.gif"",""img/Fire_Up_Distractor.gif"",""img/Fire_Up_Distractor.gif"",""img/Fire_Up_Distractor.gif"",""img/Fire_Up_Distractor.gif"",""img/Fire_Up_Distractor.gif"",""img/Fire_Up_Distractor.gif"",""img/Fire_Up_Distractor.gif"",""img/Fire_Up_Distractor.gif""]","6","targetDown_distractorsUp"
"","","","","","html-keyboard-response","120","445985","0.0-14.0-0.0-0.53","5f2c8d4334a79d06cb136702","619531dcf66c91622fa1b861","6195956807d8e6385b11d710","null","","null","","","","","main_T1_ITI","","","","",""
"","","","","","visual-search-circle","121","452412","0.0-14.0-0.0-1.53","5f2c8d4334a79d06cb136702","619531dcf66c91622fa1b861","6195956807d8e6385b11d710","5410.5","","d","true","[[14,392],[237,593],[522,500],[585,207],[362,6],[77,99]]","true","6","main_T2_Trial","d","img/Fire_Up_Target.gif","[""img/Fire_Down_Distractor.gif"",""img/Fire_Down_Distractor.gif"",""img/Fire_Down_Distractor.gif"",""img/Fire_Down_Distractor.gif"",""img/Fire_Down_Distractor.gif"",""img/Fire_Down_Distractor.gif"",""img/Fire_Down_Distractor.gif"",""img/Fire_Down_Distractor.gif"",""img/Fire_Down_Distractor.gif"",""img/Fire_Down_Distractor.gif"",""img/Fire_Down_Distractor.gif"",""img/Fire_Down_Distractor.gif""]","6","targetUp_distractorsDown"
"","","","","","html-keyboard-response","122","452426","0.0-14.0-0.0-0.54","5f2c8d4334a79d06cb136702","619531dcf66c91622fa1b861","6195956807d8e6385b11d710","null","","null","","","","","main_T1_ITI","","","","",""
"","","","","","visual-search-circle","123","455519","0.0-14.0-0.0-1.54","5f2c8d4334a79d06cb136702","619531dcf66c91622fa1b861","6195956807d8e6385b11d710","2074.9000000003725","","s","true","[[300,0],[14,207],[123,542],[476,542],[585,207]]","false","5","main_T2_Trial","s","img/Fire_Up_Target.gif","[""img/Fire_Down_Distractor.gif"",""img/Fire_Down_Distractor.gif"",""img/Fire_Down_Distractor.gif"",""img/Fire_Down_Distractor.gif"",""img/Fire_Down_Distractor.gif"",""img/Fire_Down_Distractor.gif"",""img/Fire_Down_Distractor.gif"",""img/Fire_Down_Distractor.gif"",""img/Fire_Down_Distractor.gif"",""img/Fire_Down_Distractor.gif"",""img/Fire_Down_Distractor.gif"",""img/Fire_Down_Distractor.gif""]","5","targetUp_distractorsDown"
"","","","","","html-keyboard-response","124","455520","0.0-14.0-0.0-0.55","5f2c8d4334a79d06cb136702","619531dcf66c91622fa1b861","6195956807d8e6385b11d710","null","","null","","","","","main_T1_ITI","","","","",""
"","","","","","visual-search-circle","125","458753","0.0-14.0-0.0-1.55","5f2c8d4334a79d06cb136702","619531dcf66c91622fa1b861","6195956807d8e6385b11d710","2216.9000000003725","","s","true","[[159,35],[5,244],[73,496],[311,599],[541,477],[589,221],[419,24]]","false","7","main_T2_Trial","s","img/Fire_Up_Target.gif","[""img/Fire_Down_Distractor.gif"",""img/Fire_Down_Distractor.gif"",""img/Fire_Down_Distractor.gif"",""img/Fire_Down_Distractor.gif"",""img/Fire_Down_Distractor.gif"",""img/Fire_Down_Distractor.gif"",""img/Fire_Down_Distractor.gif"",""img/Fire_Down_Distractor.gif"",""img/Fire_Down_Distractor.gif"",""img/Fire_Down_Distractor.gif"",""img/Fire_Down_Distractor.gif"",""img/Fire_Down_Distractor.gif""]","7","targetUp_distractorsDown"
"","","","","","html-keyboard-response","126","458756","0.0-14.0-0.0-0.56","5f2c8d4334a79d06cb136702","619531dcf66c91622fa1b861","6195956807d8e6385b11d710","null","","null","","","","","main_T1_ITI","","","","",""
"","","","","","visual-search-circle","127","462697","0.0-14.0-0.0-1.56","5f2c8d4334a79d06cb136702","619531dcf66c91622fa1b861","6195956807d8e6385b11d710","2930.5999999996275","","s","true","[[149,559],[500,522],[574,177],[268,1],[6,237]]","false","5","main_T2_Trial","s","img/Fire_Down_Target.gif","[""img/Fire_Up_Distractor.gif"",""img/Fire_Up_Distractor.gif"",""img/Fire_Up_Distractor.gif"",""img/Fire_Up_Distractor.gif"",""img/Fire_Up_Distractor.gif"",""img/Fire_Up_Distractor.gif"",""img/Fire_Up_Distractor.gif"",""img/Fire_Up_Distractor.gif"",""img/Fire_Up_Distractor.gif"",""img/Fire_Up_Distractor.gif"",""img/Fire_Up_Distractor.gif"",""img/Fire_Up_Distractor.gif""]","5","targetDown_distractorsUp"
"","","","","","html-keyboard-response","128","462699","0.0-14.0-0.0-0.57","5f2c8d4334a79d06cb136702","619531dcf66c91622fa1b861","6195956807d8e6385b11d710","null","","null","","","","","main_T1_ITI","","","","",""
"","","","","","visual-search-circle","129","465910","0.0-14.0-0.0-1.57","5f2c8d4334a79d06cb136702","619531dcf66c91622fa1b861","6195956807d8e6385b11d710","2193.7000000011176","","s","true","[[289,0],[80,95],[0,310],[95,519],[310,599],[519,504],[599,289],[504,80]]","false","8","main_T2_Trial","s","img/Fire_Up_Target.gif","[""img/Fire_Down_Distractor.gif"",""img/Fire_Down_Distractor.gif"",""img/Fire_Down_Distractor.gif"",""img/Fire_Down_Distractor.gif"",""img/Fire_Down_Distractor.gif"",""img/Fire_Down_Distractor.gif"",""img/Fire_Down_Distractor.gif"",""img/Fire_Down_Distractor.gif"",""img/Fire_Down_Distractor.gif"",""img/Fire_Down_Distractor.gif"",""img/Fire_Down_Distractor.gif"",""img/Fire_Down_Distractor.gif""]","8","targetUp_distractorsDown"
"","","","","","html-keyboard-response","130","465911","0.0-14.0-0.0-0.58","5f2c8d4334a79d06cb136702","619531dcf66c91622fa1b861","6195956807d8e6385b11d710","null","","null","","","","","main_T1_ITI","","","","",""
"","","","","","visual-search-circle","131","468046","0.0-14.0-0.0-1.58","5f2c8d4334a79d06cb136702","619531dcf66c91622fa1b861","6195956807d8e6385b11d710","1116.800000000745","","d","true","[[222,589],[589,377],[377,10],[10,222]]","true","4","main_T2_Trial","d","img/Fire_Up_Target.gif","[""img/Fire_Down_Distractor.gif"",""img/Fire_Down_Distractor.gif"",""img/Fire_Down_Distractor.gif"",""img/Fire_Down_Distractor.gif"",""img/Fire_Down_Distractor.gif"",""img/Fire_Down_Distractor.gif"",""img/Fire_Down_Distractor.gif"",""img/Fire_Down_Distractor.gif"",""img/Fire_Down_Distractor.gif"",""img/Fire_Down_Distractor.gif"",""img/Fire_Down_Distractor.gif"",""img/Fire_Down_Distractor.gif""]","4","targetUp_distractorsDown"
"","","","","","html-keyboard-response","132","471120","0.0-14.0-0.0-0.59","5f2c8d4334a79d06cb136702","619531dcf66c91622fa1b861","6195956807d8e6385b11d710","3074.39999999851","Wow! You've completed 60 out of 160 trials! </p> <p>  </p><p> Take a quick break, then press any key when you're ready to continue."," ","","","","","main_T1_ITI","","","","",""
"","","","","","visual-search-circle","133","473831","0.0-14.0-0.0-1.59","5f2c8d4334a79d06cb136702","619531dcf66c91622fa1b861","6195956807d8e6385b11d710","1699.2999999988824","","d","true","[[508,515],[515,91],[91,84],[84,508]]","true","4","main_T2_Trial","d","img/Fire_Up_Target.gif","[""img/Fire_Down_Distractor.gif"",""img/Fire_Down_Distractor.gif"",""img/Fire_Down_Distractor.gif"",""img/Fire_Down_Distractor.gif"",""img/Fire_Down_Distractor.gif"",""img/Fire_Down_Distractor.gif"",""img/Fire_Down_Distractor.gif"",""img/Fire_Down_Distractor.gif"",""img/Fire_Down_Distractor.gif"",""img/Fire_Down_Distractor.gif"",""img/Fire_Down_Distractor.gif"",""img/Fire_Down_Distractor.gif""]","4","targetUp_distractorsDown"
"","","","","","html-keyboard-response","134","473833","0.0-14.0-0.0-0.60","5f2c8d4334a79d06cb136702","619531dcf66c91622fa1b861","6195956807d8e6385b11d710","null","","null","","","","","main_T1_ITI","","","","",""
"","","","","","visual-search-circle","135","476302","0.0-14.0-0.0-1.60","5f2c8d4334a79d06cb136702","619531dcf66c91622fa1b861","6195956807d8e6385b11d710","1461.2999999988824","","d","true","[[127,54],[1,326],[173,571],[472,545],[598,273],[426,28]]","true","6","main_T2_Trial","d","img/Fire_Up_Target.gif","[""img/Fire_Down_Distractor.gif"",""img/Fire_Down_Distractor.gif"",""img/Fire_Down_Distractor.gif"",""img/Fire_Down_Distractor.gif"",""img/Fire_Down_Distractor.gif"",""img/Fire_Down_Distractor.gif"",""img/Fire_Down_Distractor.gif"",""img/Fire_Down_Distractor.gif"",""img/Fire_Down_Distractor.gif"",""img/Fire_Down_Distractor.gif"",""img/Fire_Down_Distractor.gif"",""img/Fire_Down_Distractor.gif""]","6","targetUp_distractorsDown"
"","","","","","html-keyboard-response","136","476304","0.0-14.0-0.0-0.61","5f2c8d4334a79d06cb136702","619531dcf66c91622fa1b861","6195956807d8e6385b11d710","null","","null","","","","","main_T1_ITI","","","","",""
"","","","","","visual-search-circle","137","481429","0.0-14.0-0.0-1.61","5f2c8d4334a79d06cb136702","619531dcf66c91622fa1b861","6195956807d8e6385b11d710","4109.0999999996275","","s","true","[[173,28],[28,426],[426,571],[571,173]]","false","4","main_T2_Trial","s","img/Fire_Down_Target.gif","[""img/Fire_Up_Distractor.gif"",""img/Fire_Up_Distractor.gif"",""img/Fire_Up_Distractor.gif"",""img/Fire_Up_Distractor.gif"",""img/Fire_Up_Distractor.gif"",""img/Fire_Up_Distractor.gif"",""img/Fire_Up_Distractor.gif"",""img/Fire_Up_Distractor.gif"",""img/Fire_Up_Distractor.gif"",""img/Fire_Up_Distractor.gif"",""img/Fire_Up_Distractor.gif"",""img/Fire_Up_Distractor.gif""]","4","targetDown_distractorsUp"
"","","","","","html-keyboard-response","138","481431","0.0-14.0-0.0-0.62","5f2c8d4334a79d06cb136702","619531dcf66c91622fa1b861","6195956807d8e6385b11d710","null","","null","","","","","main_T1_ITI","","","","",""
"","","","","","visual-search-circle","139","484834","0.0-14.0-0.0-1.62","5f2c8d4334a79d06cb136702","619531dcf66c91622fa1b861","6195956807d8e6385b11d710","2375","","s","true","[[14,207],[32,436],[207,585],[436,567],[585,392],[567,163],[392,14],[163,32]]","false","8","main_T2_Trial","s","img/Fire_Up_Target.gif","[""img/Fire_Down_Distractor.gif"",""img/Fire_Down_Distractor.gif"",""img/Fire_Down_Distractor.gif"",""img/Fire_Down_Distractor.gif"",""img/Fire_Down_Distractor.gif"",""img/Fire_Down_Distractor.gif"",""img/Fire_Down_Distractor.gif"",""img/Fire_Down_Distractor.gif"",""img/Fire_Down_Distractor.gif"",""img/Fire_Down_Distractor.gif"",""img/Fire_Down_Distractor.gif"",""img/Fire_Down_Distractor.gif""]","8","targetUp_distractorsDown"
"","","","","","html-keyboard-response","140","484835","0.0-14.0-0.0-0.63","5f2c8d4334a79d06cb136702","619531dcf66c91622fa1b861","6195956807d8e6385b11d710","null","","null","","","","","main_T1_ITI","","","","",""
"","","","","","visual-search-circle","141","487241","0.0-14.0-0.0-1.63","5f2c8d4334a79d06cb136702","619531dcf66c91622fa1b861","6195956807d8e6385b11d710","1390.2000000011176","","d","true","[[599,305],[305,0],[0,294],[294,599]]","true","4","main_T2_Trial","d","img/Fire_Down_Target.gif","[""img/Fire_Up_Distractor.gif"",""img/Fire_Up_Distractor.gif"",""img/Fire_Up_Distractor.gif"",""img/Fire_Up_Distractor.gif"",""img/Fire_Up_Distractor.gif"",""img/Fire_Up_Distractor.gif"",""img/Fire_Up_Distractor.gif"",""img/Fire_Up_Distractor.gif"",""img/Fire_Up_Distractor.gif"",""img/Fire_Up_Distractor.gif"",""img/Fire_Up_Distractor.gif"",""img/Fire_Up_Distractor.gif""]","4","targetDown_distractorsUp"
"","","","","","html-keyboard-response","142","487244","0.0-14.0-0.0-0.64","5f2c8d4334a79d06cb136702","619531dcf66c91622fa1b861","6195956807d8e6385b11d710","null","","null","","","","","main_T1_ITI","","","","",""
"","","","","","visual-search-circle","143","490639","0.0-14.0-0.0-1.64","5f2c8d4334a79d06cb136702","619531dcf66c91622fa1b861","6195956807d8e6385b11d710","2379.699999999255","","s","true","[[1,331],[177,574],[476,542],[598,268],[422,25],[123,57]]","false","6","main_T2_Trial","s","img/Fire_Down_Target.gif","[""img/Fire_Up_Distractor.gif"",""img/Fire_Up_Distractor.gif"",""img/Fire_Up_Distractor.gif"",""img/Fire_Up_Distractor.gif"",""img/Fire_Up_Distractor.gif"",""img/Fire_Up_Distractor.gif"",""img/Fire_Up_Distractor.gif"",""img/Fire_Up_Distractor.gif"",""img/Fire_Up_Distractor.gif"",""img/Fire_Up_Distractor.gif"",""img/Fire_Up_Distractor.gif"",""img/Fire_Up_Distractor.gif""]","6","targetDown_distractorsUp"
"","","","","","html-keyboard-response","144","490642","0.0-14.0-0.0-0.65","5f2c8d4334a79d06cb136702","619531dcf66c91622fa1b861","6195956807d8e6385b11d710","null","","null","","","","","main_T1_ITI","","","","",""
"","","","","","visual-search-circle","145","493857","0.0-14.0-0.0-1.65","5f2c8d4334a79d06cb136702","619531dcf66c91622fa1b861","6195956807d8e6385b11d710","2198.300000000745","","d","true","[[594,242],[397,16],[103,73],[5,357],[202,583],[496,526]]","true","6","main_T2_Trial","d","img/Fire_Up_Target.gif","[""img/Fire_Down_Distractor.gif"",""img/Fire_Down_Distractor.gif"",""img/Fire_Down_Distractor.gif"",""img/Fire_Down_Distractor.gif"",""img/Fire_Down_Distractor.gif"",""img/Fire_Down_Distractor.gif"",""img/Fire_Down_Distractor.gif"",""img/Fire_Down_Distractor.gif"",""img/Fire_Down_Distractor.gif"",""img/Fire_Down_Distractor.gif"",""img/Fire_Down_Distractor.gif"",""img/Fire_Down_Distractor.gif""]","6","targetUp_distractorsDown"
"","","","","","html-keyboard-response","146","493859","0.0-14.0-0.0-0.66","5f2c8d4334a79d06cb136702","619531dcf66c91622fa1b861","6195956807d8e6385b11d710","null","","null","","","","","main_T1_ITI","","","","",""
"","","","","","visual-search-circle","147","496794","0.0-14.0-0.0-1.66","5f2c8d4334a79d06cb136702","619531dcf66c91622fa1b861","6195956807d8e6385b11d710","1920.2000000011176","","s","true","[[559,150],[377,10],[150,40],[10,222],[40,450],[222,589],[450,559],[589,377]]","false","8","main_T2_Trial","s","img/Fire_Down_Target.gif","[""img/Fire_Up_Distractor.gif"",""img/Fire_Up_Distractor.gif"",""img/Fire_Up_Distractor.gif"",""img/Fire_Up_Distractor.gif"",""img/Fire_Up_Distractor.gif"",""img/Fire_Up_Distractor.gif"",""img/Fire_Up_Distractor.gif"",""img/Fire_Up_Distractor.gif"",""img/Fire_Up_Distractor.gif"",""img/Fire_Up_Distractor.gif"",""img/Fire_Up_Distractor.gif"",""img/Fire_Up_Distractor.gif""]","8","targetDown_distractorsUp"
"","","","","","html-keyboard-response","148","496796","0.0-14.0-0.0-0.67","5f2c8d4334a79d06cb136702","619531dcf66c91622fa1b861","6195956807d8e6385b11d710","null","","null","","","","","main_T1_ITI","","","","",""
"","","","","","visual-search-circle","149","499487","0.0-14.0-0.0-1.67","5f2c8d4334a79d06cb136702","619531dcf66c91622fa1b861","6195956807d8e6385b11d710","1673.7000000011176","","s","true","[[60,480],[336,597],[576,417],[539,119],[263,2],[23,182]]","false","6","main_T2_Trial","s","img/Fire_Up_Target.gif","[""img/Fire_Down_Distractor.gif"",""img/Fire_Down_Distractor.gif"",""img/Fire_Down_Distractor.gif"",""img/Fire_Down_Distractor.gif"",""img/Fire_Down_Distractor.gif"",""img/Fire_Down_Distractor.gif"",""img/Fire_Down_Distractor.gif"",""img/Fire_Down_Distractor.gif"",""img/Fire_Down_Distractor.gif"",""img/Fire_Down_Distractor.gif"",""img/Fire_Down_Distractor.gif"",""img/Fire_Down_Distractor.gif""]","6","targetUp_distractorsDown"
"","","","","","html-keyboard-response","150","499490","0.0-14.0-0.0-0.68","5f2c8d4334a79d06cb136702","619531dcf66c91622fa1b861","6195956807d8e6385b11d710","null","","null","","","","","main_T1_ITI","","","","",""
"","","","","","visual-search-circle","151","503169","0.0-14.0-0.0-1.68","5f2c8d4334a79d06cb136702","619531dcf66c91622fa1b861","6195956807d8e6385b11d710","2663.89999999851","","s","true","[[132,51],[51,467],[467,548],[548,132]]","false","4","main_T2_Trial","s","img/Fire_Down_Target.gif","[""img/Fire_Up_Distractor.gif"",""img/Fire_Up_Distractor.gif"",""img/Fire_Up_Distractor.gif"",""img/Fire_Up_Distractor.gif"",""img/Fire_Up_Distractor.gif"",""img/Fire_Up_Distractor.gif"",""img/Fire_Up_Distractor.gif"",""img/Fire_Up_Distractor.gif"",""img/Fire_Up_Distractor.gif"",""img/Fire_Up_Distractor.gif"",""img/Fire_Up_Distractor.gif"",""img/Fire_Up_Distractor.gif""]","4","targetDown_distractorsUp"
"","","","","","html-keyboard-response","152","503171","0.0-14.0-0.0-0.69","5f2c8d4334a79d06cb136702","619531dcf66c91622fa1b861","6195956807d8e6385b11d710","null","","null","","","","","main_T1_ITI","","","","",""
"","","","","","visual-search-circle","153","505295","0.0-14.0-0.0-1.69","5f2c8d4334a79d06cb136702","619531dcf66c91622fa1b861","6195956807d8e6385b11d710","1111.2000000011176","","d","true","[[595,247],[472,54],[247,4],[54,127],[4,352],[127,545],[352,595],[545,472]]","true","8","main_T2_Trial","d","img/Fire_Up_Target.gif","[""img/Fire_Down_Distractor.gif"",""img/Fire_Down_Distractor.gif"",""img/Fire_Down_Distractor.gif"",""img/Fire_Down_Distractor.gif"",""img/Fire_Down_Distractor.gif"",""img/Fire_Down_Distractor.gif"",""img/Fire_Down_Distractor.gif"",""img/Fire_Down_Distractor.gif"",""img/Fire_Down_Distractor.gif"",""img/Fire_Down_Distractor.gif"",""img/Fire_Down_Distractor.gif"",""img/Fire_Down_Distractor.gif""]","8","targetUp_distractorsDown"
"","","","","","html-keyboard-response","154","505298","0.0-14.0-0.0-0.70","5f2c8d4334a79d06cb136702","619531dcf66c91622fa1b861","6195956807d8e6385b11d710","null","","null","","","","","main_T1_ITI","","","","",""
"","","","","","visual-search-circle","155","507927","0.0-14.0-0.0-1.70","5f2c8d4334a79d06cb136702","619531dcf66c91622fa1b861","6195956807d8e6385b11d710","1610.0999999996275","","d","true","[[586,387],[519,95],[232,7],[13,212],[80,504],[367,592]]","true","6","main_T2_Trial","d","img/Fire_Down_Target.gif","[""img/Fire_Up_Distractor.gif"",""img/Fire_Up_Distractor.gif"",""img/Fire_Up_Distractor.gif"",""img/Fire_Up_Distractor.gif"",""img/Fire_Up_Distractor.gif"",""img/Fire_Up_Distractor.gif"",""img/Fire_Up_Distractor.gif"",""img/Fire_Up_Distractor.gif"",""img/Fire_Up_Distractor.gif"",""img/Fire_Up_Distractor.gif"",""img/Fire_Up_Distractor.gif"",""img/Fire_Up_Distractor.gif""]","6","targetDown_distractorsUp"
"","","","","","html-keyboard-response","156","507928","0.0-14.0-0.0-0.71","5f2c8d4334a79d06cb136702","619531dcf66c91622fa1b861","6195956807d8e6385b11d710","null","","null","","","","","main_T1_ITI","","","","",""
"","","","","","visual-search-circle","157","510412","0.0-14.0-0.0-1.71","5f2c8d4334a79d06cb136702","619531dcf66c91622fa1b861","6195956807d8e6385b11d710","1473.0999999996275","","d","true","[[412,21],[182,23],[21,187],[23,417],[187,578],[417,576],[578,412],[576,182]]","true","8","main_T2_Trial","d","img/Fire_Up_Target.gif","[""img/Fire_Down_Distractor.gif"",""img/Fire_Down_Distractor.gif"",""img/Fire_Down_Distractor.gif"",""img/Fire_Down_Distractor.gif"",""img/Fire_Down_Distractor.gif"",""img/Fire_Down_Distractor.gif"",""img/Fire_Down_Distractor.gif"",""img/Fire_Down_Distractor.gif"",""img/Fire_Down_Distractor.gif"",""img/Fire_Down_Distractor.gif"",""img/Fire_Down_Distractor.gif"",""img/Fire_Down_Distractor.gif""]","8","targetUp_distractorsDown"
"","","","","","html-keyboard-response","158","510414","0.0-14.0-0.0-0.72","5f2c8d4334a79d06cb136702","619531dcf66c91622fa1b861","6195956807d8e6385b11d710","null","","null","","","","","main_T1_ITI","","","","",""
"","","","","","visual-search-circle","159","512959","0.0-14.0-0.0-1.72","5f2c8d4334a79d06cb136702","619531dcf66c91622fa1b861","6195956807d8e6385b11d710","1535.9000000003725","","s","true","[[197,18],[0,310],[217,588],[548,467],[536,115]]","false","5","main_T2_Trial","s","img/Fire_Up_Target.gif","[""img/Fire_Down_Distractor.gif"",""img/Fire_Down_Distractor.gif"",""img/Fire_Down_Distractor.gif"",""img/Fire_Down_Distractor.gif"",""img/Fire_Down_Distractor.gif"",""img/Fire_Down_Distractor.gif"",""img/Fire_Down_Distractor.gif"",""img/Fire_Down_Distractor.gif"",""img/Fire_Down_Distractor.gif"",""img/Fire_Down_Distractor.gif"",""img/Fire_Down_Distractor.gif"",""img/Fire_Down_Distractor.gif""]","5","targetUp_distractorsDown"
"","","","","","html-keyboard-response","160","512961","0.0-14.0-0.0-0.73","5f2c8d4334a79d06cb136702","619531dcf66c91622fa1b861","6195956807d8e6385b11d710","null","","null","","","","","main_T1_ITI","","","","",""
"","","","","","visual-search-circle","161","515795","0.0-14.0-0.0-1.73","5f2c8d4334a79d06cb136702","619531dcf66c91622fa1b861","6195956807d8e6385b11d710","1820.8999999985099","","s","true","[[595,352],[352,4],[4,247],[247,595]]","false","4","main_T2_Trial","s","img/Fire_Down_Target.gif","[""img/Fire_Up_Distractor.gif"",""img/Fire_Up_Distractor.gif"",""img/Fire_Up_Distractor.gif"",""img/Fire_Up_Distractor.gif"",""img/Fire_Up_Distractor.gif"",""img/Fire_Up_Distractor.gif"",""img/Fire_Up_Distractor.gif"",""img/Fire_Up_Distractor.gif"",""img/Fire_Up_Distractor.gif"",""img/Fire_Up_Distractor.gif"",""img/Fire_Up_Distractor.gif"",""img/Fire_Up_Distractor.gif""]","4","targetDown_distractorsUp"
"","","","","","html-keyboard-response","162","515796","0.0-14.0-0.0-0.74","5f2c8d4334a79d06cb136702","619531dcf66c91622fa1b861","6195956807d8e6385b11d710","null","","null","","","","","main_T1_ITI","","","","",""
"","","","","","visual-search-circle","163","519544","0.0-14.0-0.0-1.74","5f2c8d4334a79d06cb136702","619531dcf66c91622fa1b861","6195956807d8e6385b11d710","2739.300000000745","","s","true","[[30,431],[431,569],[569,168],[168,30]]","false","4","main_T2_Trial","s","img/Fire_Down_Target.gif","[""img/Fire_Up_Distractor.gif"",""img/Fire_Up_Distractor.gif"",""img/Fire_Up_Distractor.gif"",""img/Fire_Up_Distractor.gif"",""img/Fire_Up_Distractor.gif"",""img/Fire_Up_Distractor.gif"",""img/Fire_Up_Distractor.gif"",""img/Fire_Up_Distractor.gif"",""img/Fire_Up_Distractor.gif"",""img/Fire_Up_Distractor.gif"",""img/Fire_Up_Distractor.gif"",""img/Fire_Up_Distractor.gif""]","4","targetDown_distractorsUp"
"","","","","","html-keyboard-response","164","519546","0.0-14.0-0.0-0.75","5f2c8d4334a79d06cb136702","619531dcf66c91622fa1b861","6195956807d8e6385b11d710","null","","null","","","","","main_T1_ITI","","","","",""
"","","","","","visual-search-circle","165","522781","0.0-14.0-0.0-1.75","5f2c8d4334a79d06cb136702","619531dcf66c91622fa1b861","6195956807d8e6385b11d710","2215.5","","s","true","[[586,212],[367,7],[80,95],[13,387],[232,592],[519,504]]","false","6","main_T2_Trial","s","img/Fire_Up_Target.gif","[""img/Fire_Down_Distractor.gif"",""img/Fire_Down_Distractor.gif"",""img/Fire_Down_Distractor.gif"",""img/Fire_Down_Distractor.gif"",""img/Fire_Down_Distractor.gif"",""img/Fire_Down_Distractor.gif"",""img/Fire_Down_Distractor.gif"",""img/Fire_Down_Distractor.gif"",""img/Fire_Down_Distractor.gif"",""img/Fire_Down_Distractor.gif"",""img/Fire_Down_Distractor.gif"",""img/Fire_Down_Distractor.gif""]","6","targetUp_distractorsDown"
"","","","","","html-keyboard-response","166","522804","0.0-14.0-0.0-0.76","5f2c8d4334a79d06cb136702","619531dcf66c91622fa1b861","6195956807d8e6385b11d710","null","","null","","","","","main_T1_ITI","","","","",""
"","","","","","visual-search-circle","167","525858","0.0-14.0-0.0-1.76","5f2c8d4334a79d06cb136702","619531dcf66c91622fa1b861","6195956807d8e6385b11d710","2036.4000000003725","","d","true","[[492,70],[141,45],[8,372],[279,599],[578,412]]","true","5","main_T2_Trial","d","img/Fire_Up_Target.gif","[""img/Fire_Down_Distractor.gif"",""img/Fire_Down_Distractor.gif"",""img/Fire_Down_Distractor.gif"",""img/Fire_Down_Distractor.gif"",""img/Fire_Down_Distractor.gif"",""img/Fire_Down_Distractor.gif"",""img/Fire_Down_Distractor.gif"",""img/Fire_Down_Distractor.gif"",""img/Fire_Down_Distractor.gif"",""img/Fire_Down_Distractor.gif"",""img/Fire_Down_Distractor.gif"",""img/Fire_Down_Distractor.gif""]","5","targetUp_distractorsDown"
"","","","","","html-keyboard-response","168","525860","0.0-14.0-0.0-0.77","5f2c8d4334a79d06cb136702","619531dcf66c91622fa1b861","6195956807d8e6385b11d710","null","","null","","","","","main_T1_ITI","","","","",""
"","","","","","visual-search-circle","169","529697","0.0-14.0-0.0-1.77","5f2c8d4334a79d06cb136702","619531dcf66c91622fa1b861","6195956807d8e6385b11d710","2817.39999999851","","s","true","[[242,5],[51,132],[5,357],[132,548],[357,594],[548,467],[594,242],[467,51]]","false","8","main_T2_Trial","s","img/Fire_Up_Target.gif","[""img/Fire_Down_Distractor.gif"",""img/Fire_Down_Distractor.gif"",""img/Fire_Down_Distractor.gif"",""img/Fire_Down_Distractor.gif"",""img/Fire_Down_Distractor.gif"",""img/Fire_Down_Distractor.gif"",""img/Fire_Down_Distractor.gif"",""img/Fire_Down_Distractor.gif"",""img/Fire_Down_Distractor.gif"",""img/Fire_Down_Distractor.gif"",""img/Fire_Down_Distractor.gif"",""img/Fire_Down_Distractor.gif""]","8","targetUp_distractorsDown"
"","","","","","html-keyboard-response","170","529700","0.0-14.0-0.0-0.78","5f2c8d4334a79d06cb136702","619531dcf66c91622fa1b861","6195956807d8e6385b11d710","null","","null","","","","","main_T1_ITI","","","","",""
"","","","","","visual-search-circle","171","532732","0.0-14.0-0.0-1.78","5f2c8d4334a79d06cb136702","619531dcf66c91622fa1b861","6195956807d8e6385b11d710","2012.0999999996275","","s","true","[[519,504],[586,212],[367,7],[80,95],[13,387],[232,592]]","false","6","main_T2_Trial","s","img/Fire_Down_Target.gif","[""img/Fire_Up_Distractor.gif"",""img/Fire_Up_Distractor.gif"",""img/Fire_Up_Distractor.gif"",""img/Fire_Up_Distractor.gif"",""img/Fire_Up_Distractor.gif"",""img/Fire_Up_Distractor.gif"",""img/Fire_Up_Distractor.gif"",""img/Fire_Up_Distractor.gif"",""img/Fire_Up_Distractor.gif"",""img/Fire_Up_Distractor.gif"",""img/Fire_Up_Distractor.gif"",""img/Fire_Up_Distractor.gif""]","6","targetDown_distractorsUp"
"","","","","","html-keyboard-response","172","534153","0.0-14.0-0.0-0.79","5f2c8d4334a79d06cb136702","619531dcf66c91622fa1b861","6195956807d8e6385b11d710","1420.2000000011176","Wow! You've completed 80 out of 160 trials! </p> <p>  </p><p> Take a quick break, then press any key when you're ready to continue."," ","","","","","main_T1_ITI","","","","",""
"","","","","","visual-search-circle","173","537555","0.0-14.0-0.0-1.79","5f2c8d4334a79d06cb136702","619531dcf66c91622fa1b861","6195956807d8e6385b11d710","2389.699999999255","","d","true","[[99,522],[349,595],[562,446],[577,186],[384,12],[127,54],[0,282]]","true","7","main_T2_Trial","d","img/Fire_Up_Target.gif","[""img/Fire_Down_Distractor.gif"",""img/Fire_Down_Distractor.gif"",""img/Fire_Down_Distractor.gif"",""img/Fire_Down_Distractor.gif"",""img/Fire_Down_Distractor.gif"",""img/Fire_Down_Distractor.gif"",""img/Fire_Down_Distractor.gif"",""img/Fire_Down_Distractor.gif"",""img/Fire_Down_Distractor.gif"",""img/Fire_Down_Distractor.gif"",""img/Fire_Down_Distractor.gif"",""img/Fire_Down_Distractor.gif""]","7","targetUp_distractorsDown"
"","","","","","html-keyboard-response","174","537566","0.0-14.0-0.0-0.80","5f2c8d4334a79d06cb136702","619531dcf66c91622fa1b861","6195956807d8e6385b11d710","null","","null","","","","","main_T1_ITI","","","","",""
"","","","","","visual-search-circle","175","539975","0.0-14.0-0.0-1.80","5f2c8d4334a79d06cb136702","619531dcf66c91622fa1b861","6195956807d8e6385b11d710","1392.0999999996275","","d","true","[[202,583],[431,569],[583,397],[569,168],[397,16],[168,30],[16,202],[30,431]]","true","8","main_T2_Trial","d","img/Fire_Up_Target.gif","[""img/Fire_Down_Distractor.gif"",""img/Fire_Down_Distractor.gif"",""img/Fire_Down_Distractor.gif"",""img/Fire_Down_Distractor.gif"",""img/Fire_Down_Distractor.gif"",""img/Fire_Down_Distractor.gif"",""img/Fire_Down_Distractor.gif"",""img/Fire_Down_Distractor.gif"",""img/Fire_Down_Distractor.gif"",""img/Fire_Down_Distractor.gif"",""img/Fire_Down_Distractor.gif"",""img/Fire_Down_Distractor.gif""]","8","targetUp_distractorsDown"
"","","","","","html-keyboard-response","176","539978","0.0-14.0-0.0-0.81","5f2c8d4334a79d06cb136702","619531dcf66c91622fa1b861","6195956807d8e6385b11d710","null","","null","","","","","main_T1_ITI","","","","",""
"","","","","","visual-search-circle","177","542686","0.0-14.0-0.0-1.81","5f2c8d4334a79d06cb136702","619531dcf66c91622fa1b861","6195956807d8e6385b11d710","1701.5","","s","true","[[467,548],[599,279],[431,30],[132,51],[0,320],[168,569]]","false","6","main_T2_Trial","s","img/Fire_Up_Target.gif","[""img/Fire_Down_Distractor.gif"",""img/Fire_Down_Distractor.gif"",""img/Fire_Down_Distractor.gif"",""img/Fire_Down_Distractor.gif"",""img/Fire_Down_Distractor.gif"",""img/Fire_Down_Distractor.gif"",""img/Fire_Down_Distractor.gif"",""img/Fire_Down_Distractor.gif"",""img/Fire_Down_Distractor.gif"",""img/Fire_Down_Distractor.gif"",""img/Fire_Down_Distractor.gif"",""img/Fire_Down_Distractor.gif""]","6","targetUp_distractorsDown"
"","","","","","html-keyboard-response","178","542687","0.0-14.0-0.0-0.82","5f2c8d4334a79d06cb136702","619531dcf66c91622fa1b861","6195956807d8e6385b11d710","null","","null","","","","","main_T1_ITI","","","","",""
"","","","","","visual-search-circle","179","544932","0.0-14.0-0.0-1.82","5f2c8d4334a79d06cb136702","619531dcf66c91622fa1b861","6195956807d8e6385b11d710","1223.3999999985099","","d","true","[[431,569],[592,365],[533,111],[298,0],[64,114],[7,368],[171,570]]","true","7","main_T2_Trial","d","img/Fire_Down_Target.gif","[""img/Fire_Up_Distractor.gif"",""img/Fire_Up_Distractor.gif"",""img/Fire_Up_Distractor.gif"",""img/Fire_Up_Distractor.gif"",""img/Fire_Up_Distractor.gif"",""img/Fire_Up_Distractor.gif"",""img/Fire_Up_Distractor.gif"",""img/Fire_Up_Distractor.gif"",""img/Fire_Up_Distractor.gif"",""img/Fire_Up_Distractor.gif"",""img/Fire_Up_Distractor.gif"",""img/Fire_Up_Distractor.gif""]","7","targetDown_distractorsUp"
"","","","","","html-keyboard-response","180","544934","0.0-14.0-0.0-0.83","5f2c8d4334a79d06cb136702","619531dcf66c91622fa1b861","6195956807d8e6385b11d710","null","","null","","","","","main_T1_ITI","","","","",""
"","","","","","visual-search-circle","181","547859","0.0-14.0-0.0-1.83","5f2c8d4334a79d06cb136702","619531dcf66c91622fa1b861","6195956807d8e6385b11d710","1907.5","","s","true","[[362,6],[109,68],[0,304],[116,537],[371,591],[572,426],[568,165]]","false","7","main_T2_Trial","s","img/Fire_Up_Target.gif","[""img/Fire_Down_Distractor.gif"",""img/Fire_Down_Distractor.gif"",""img/Fire_Down_Distractor.gif"",""img/Fire_Down_Distractor.gif"",""img/Fire_Down_Distractor.gif"",""img/Fire_Down_Distractor.gif"",""img/Fire_Down_Distractor.gif"",""img/Fire_Down_Distractor.gif"",""img/Fire_Down_Distractor.gif"",""img/Fire_Down_Distractor.gif"",""img/Fire_Down_Distractor.gif"",""img/Fire_Down_Distractor.gif""]","7","targetUp_distractorsDown"
"","","","","","html-keyboard-response","182","547862","0.0-14.0-0.0-0.84","5f2c8d4334a79d06cb136702","619531dcf66c91622fa1b861","6195956807d8e6385b11d710","null","","null","","","","","main_T1_ITI","","","","",""
"","","","","","visual-search-circle","183","551044","0.0-14.0-0.0-1.84","5f2c8d4334a79d06cb136702","619531dcf66c91622fa1b861","6195956807d8e6385b11d710","2160.2999999988824","","s","true","[[48,136],[32,436],[284,599],[551,463],[567,163],[315,0]]","false","6","main_T2_Trial","s","img/Fire_Up_Target.gif","[""img/Fire_Down_Distractor.gif"",""img/Fire_Down_Distractor.gif"",""img/Fire_Down_Distractor.gif"",""img/Fire_Down_Distractor.gif"",""img/Fire_Down_Distractor.gif"",""img/Fire_Down_Distractor.gif"",""img/Fire_Down_Distractor.gif"",""img/Fire_Down_Distractor.gif"",""img/Fire_Down_Distractor.gif"",""img/Fire_Down_Distractor.gif"",""img/Fire_Down_Distractor.gif"",""img/Fire_Down_Distractor.gif""]","6","targetUp_distractorsDown"
"","","","","","html-keyboard-response","184","551046","0.0-14.0-0.0-0.85","5f2c8d4334a79d06cb136702","619531dcf66c91622fa1b861","6195956807d8e6385b11d710","null","","null","","","","","main_T1_ITI","","","","",""
"","","","","","visual-search-circle","185","554233","0.0-14.0-0.0-1.85","5f2c8d4334a79d06cb136702","619531dcf66c91622fa1b861","6195956807d8e6385b11d710","2173.4000000003725","","s","true","[[445,562],[599,305],[454,42],[154,37],[0,294],[145,557]]","false","6","main_T2_Trial","s","img/Fire_Down_Target.gif","[""img/Fire_Up_Distractor.gif"",""img/Fire_Up_Distractor.gif"",""img/Fire_Up_Distractor.gif"",""img/Fire_Up_Distractor.gif"",""img/Fire_Up_Distractor.gif"",""img/Fire_Up_Distractor.gif"",""img/Fire_Up_Distractor.gif"",""img/Fire_Up_Distractor.gif"",""img/Fire_Up_Distractor.gif"",""img/Fire_Up_Distractor.gif"",""img/Fire_Up_Distractor.gif"",""img/Fire_Up_Distractor.gif""]","6","targetDown_distractorsUp"
"","","","","","html-keyboard-response","186","554235","0.0-14.0-0.0-0.86","5f2c8d4334a79d06cb136702","619531dcf66c91622fa1b861","6195956807d8e6385b11d710","null","","null","","","","","main_T1_ITI","","","","",""
"","","","","","visual-search-circle","187","558167","0.0-14.0-0.0-1.86","5f2c8d4334a79d06cb136702","619531dcf66c91622fa1b861","6195956807d8e6385b11d710","2916.2000000011176","","s","true","[[512,512],[567,163],[253,3],[3,253],[163,567]]","false","5","main_T2_Trial","s","img/Fire_Up_Target.gif","[""img/Fire_Down_Distractor.gif"",""img/Fire_Down_Distractor.gif"",""img/Fire_Down_Distractor.gif"",""img/Fire_Down_Distractor.gif"",""img/Fire_Down_Distractor.gif"",""img/Fire_Down_Distractor.gif"",""img/Fire_Down_Distractor.gif"",""img/Fire_Down_Distractor.gif"",""img/Fire_Down_Distractor.gif"",""img/Fire_Down_Distractor.gif"",""img/Fire_Down_Distractor.gif"",""img/Fire_Down_Distractor.gif""]","5","targetUp_distractorsDown"
"","","","","","html-keyboard-response","188","558171","0.0-14.0-0.0-0.87","5f2c8d4334a79d06cb136702","619531dcf66c91622fa1b861","6195956807d8e6385b11d710","null","","null","","","","","main_T1_ITI","","","","",""
"","","","","","visual-search-circle","189","561538","0.0-14.0-0.0-1.87","5f2c8d4334a79d06cb136702","619531dcf66c91622fa1b861","6195956807d8e6385b11d710","2349","","s","true","[[599,284],[436,32],[136,48],[0,315],[163,567],[463,551]]","false","6","main_T2_Trial","s","img/Fire_Up_Target.gif","[""img/Fire_Down_Distractor.gif"",""img/Fire_Down_Distractor.gif"",""img/Fire_Down_Distractor.gif"",""img/Fire_Down_Distractor.gif"",""img/Fire_Down_Distractor.gif"",""img/Fire_Down_Distractor.gif"",""img/Fire_Down_Distractor.gif"",""img/Fire_Down_Distractor.gif"",""img/Fire_Down_Distractor.gif"",""img/Fire_Down_Distractor.gif"",""img/Fire_Down_Distractor.gif"",""img/Fire_Down_Distractor.gif""]","6","targetUp_distractorsDown"
"","","","","","html-keyboard-response","190","561540","0.0-14.0-0.0-0.88","5f2c8d4334a79d06cb136702","619531dcf66c91622fa1b861","6195956807d8e6385b11d710","null","","null","","","","","main_T1_ITI","","","","",""
"","","","","","visual-search-circle","191","563736","0.0-14.0-0.0-1.88","5f2c8d4334a79d06cb136702","619531dcf66c91622fa1b861","6195956807d8e6385b11d710","1178.6000000014901","","d","true","[[294,599],[599,305],[305,0],[0,294]]","true","4","main_T2_Trial","d","img/Fire_Up_Target.gif","[""img/Fire_Down_Distractor.gif"",""img/Fire_Down_Distractor.gif"",""img/Fire_Down_Distractor.gif"",""img/Fire_Down_Distractor.gif"",""img/Fire_Down_Distractor.gif"",""img/Fire_Down_Distractor.gif"",""img/Fire_Down_Distractor.gif"",""img/Fire_Down_Distractor.gif"",""img/Fire_Down_Distractor.gif"",""img/Fire_Down_Distractor.gif"",""img/Fire_Down_Distractor.gif"",""img/Fire_Down_Distractor.gif""]","4","targetUp_distractorsDown"
"","","","","","html-keyboard-response","192","563738","0.0-14.0-0.0-0.89","5f2c8d4334a79d06cb136702","619531dcf66c91622fa1b861","6195956807d8e6385b11d710","null","","null","","","","","main_T1_ITI","","","","",""
"","","","","","visual-search-circle","193","565940","0.0-14.0-0.0-1.89","5f2c8d4334a79d06cb136702","619531dcf66c91622fa1b861","6195956807d8e6385b11d710","1180.2999999988824","","d","true","[[77,99],[40,450],[362,593],[598,331],[422,25]]","true","5","main_T2_Trial","d","img/Fire_Down_Target.gif","[""img/Fire_Up_Distractor.gif"",""img/Fire_Up_Distractor.gif"",""img/Fire_Up_Distractor.gif"",""img/Fire_Up_Distractor.gif"",""img/Fire_Up_Distractor.gif"",""img/Fire_Up_Distractor.gif"",""img/Fire_Up_Distractor.gif"",""img/Fire_Up_Distractor.gif"",""img/Fire_Up_Distractor.gif"",""img/Fire_Up_Distractor.gif"",""img/Fire_Up_Distractor.gif"",""img/Fire_Up_Distractor.gif""]","5","targetDown_distractorsUp"
"","","","","","html-keyboard-response","194","565943","0.0-14.0-0.0-0.90","5f2c8d4334a79d06cb136702","619531dcf66c91622fa1b861","6195956807d8e6385b11d710","null","","null","","","","","main_T1_ITI","","","","",""
"","","","","","visual-search-circle","195","568008","0.0-14.0-0.0-1.90","5f2c8d4334a79d06cb136702","619531dcf66c91622fa1b861","6195956807d8e6385b11d710","1048.199999999255","","d","true","[[597,258],[258,2],[2,341],[341,597]]","true","4","main_T2_Trial","d","img/Fire_Down_Target.gif","[""img/Fire_Up_Distractor.gif"",""img/Fire_Up_Distractor.gif"",""img/Fire_Up_Distractor.gif"",""img/Fire_Up_Distractor.gif"",""img/Fire_Up_Distractor.gif"",""img/Fire_Up_Distractor.gif"",""img/Fire_Up_Distractor.gif"",""img/Fire_Up_Distractor.gif"",""img/Fire_Up_Distractor.gif"",""img/Fire_Up_Distractor.gif"",""img/Fire_Up_Distractor.gif"",""img/Fire_Up_Distractor.gif""]","4","targetDown_distractorsUp"
"","","","","","html-keyboard-response","196","568010","0.0-14.0-0.0-0.91","5f2c8d4334a79d06cb136702","619531dcf66c91622fa1b861","6195956807d8e6385b11d710","null","","null","","","","","main_T1_ITI","","","","",""
"","","","","","visual-search-circle","197","571015","0.0-14.0-0.0-1.91","5f2c8d4334a79d06cb136702","619531dcf66c91622fa1b861","6195956807d8e6385b11d710","1985.699999999255","","s","true","[[367,7],[113,64],[0,299],[112,534],[366,592],[569,430],[570,170]]","false","7","main_T2_Trial","s","img/Fire_Down_Target.gif","[""img/Fire_Up_Distractor.gif"",""img/Fire_Up_Distractor.gif"",""img/Fire_Up_Distractor.gif"",""img/Fire_Up_Distractor.gif"",""img/Fire_Up_Distractor.gif"",""img/Fire_Up_Distractor.gif"",""img/Fire_Up_Distractor.gif"",""img/Fire_Up_Distractor.gif"",""img/Fire_Up_Distractor.gif"",""img/Fire_Up_Distractor.gif"",""img/Fire_Up_Distractor.gif"",""img/Fire_Up_Distractor.gif""]","7","targetDown_distractorsUp"
"","","","","","html-keyboard-response","198","571018","0.0-14.0-0.0-0.92","5f2c8d4334a79d06cb136702","619531dcf66c91622fa1b861","6195956807d8e6385b11d710","null","","null","","","","","main_T1_ITI","","","","",""
"","","","","","visual-search-circle","199","573099","0.0-14.0-0.0-1.92","5f2c8d4334a79d06cb136702","619531dcf66c91622fa1b861","6195956807d8e6385b11d710","1068.2999999988824","","d","true","[[599,310],[495,72],[243,5],[34,160],[25,420],[223,589],[478,540]]","true","7","main_T2_Trial","d","img/Fire_Down_Target.gif","[""img/Fire_Up_Distractor.gif"",""img/Fire_Up_Distractor.gif"",""img/Fire_Up_Distractor.gif"",""img/Fire_Up_Distractor.gif"",""img/Fire_Up_Distractor.gif"",""img/Fire_Up_Distractor.gif"",""img/Fire_Up_Distractor.gif"",""img/Fire_Up_Distractor.gif"",""img/Fire_Up_Distractor.gif"",""img/Fire_Up_Distractor.gif"",""img/Fire_Up_Distractor.gif"",""img/Fire_Up_Distractor.gif""]","7","targetDown_distractorsUp"
"","","","","","html-keyboard-response","200","573102","0.0-14.0-0.0-0.93","5f2c8d4334a79d06cb136702","619531dcf66c91622fa1b861","6195956807d8e6385b11d710","null","","null","","","","","main_T1_ITI","","","","",""
"","","","","","visual-search-circle","201","575074","0.0-14.0-0.0-1.93","5f2c8d4334a79d06cb136702","619531dcf66c91622fa1b861","6195956807d8e6385b11d710","960.5999999996275","","s","true","[[45,458],[458,554],[554,141],[141,45]]","false","4","main_T2_Trial","s","img/Fire_Up_Target.gif","[""img/Fire_Down_Distractor.gif"",""img/Fire_Down_Distractor.gif"",""img/Fire_Down_Distractor.gif"",""img/Fire_Down_Distractor.gif"",""img/Fire_Down_Distractor.gif"",""img/Fire_Down_Distractor.gif"",""img/Fire_Down_Distractor.gif"",""img/Fire_Down_Distractor.gif"",""img/Fire_Down_Distractor.gif"",""img/Fire_Down_Distractor.gif"",""img/Fire_Down_Distractor.gif"",""img/Fire_Down_Distractor.gif""]","4","targetUp_distractorsDown"
"","","","","","html-keyboard-response","202","575076","0.0-14.0-0.0-0.94","5f2c8d4334a79d06cb136702","619531dcf66c91622fa1b861","6195956807d8e6385b11d710","null","","null","","","","","main_T1_ITI","","","","",""
"","","","","","visual-search-circle","203","576932","0.0-14.0-0.0-1.94","5f2c8d4334a79d06cb136702","619531dcf66c91622fa1b861","6195956807d8e6385b11d710","835.6999999992549","","d","true","[[177,574],[522,500],[559,150],[237,6],[1,268]]","true","5","main_T2_Trial","d","img/Fire_Down_Target.gif","[""img/Fire_Up_Distractor.gif"",""img/Fire_Up_Distractor.gif"",""img/Fire_Up_Distractor.gif"",""img/Fire_Up_Distractor.gif"",""img/Fire_Up_Distractor.gif"",""img/Fire_Up_Distractor.gif"",""img/Fire_Up_Distractor.gif"",""img/Fire_Up_Distractor.gif"",""img/Fire_Up_Distractor.gif"",""img/Fire_Up_Distractor.gif"",""img/Fire_Up_Distractor.gif"",""img/Fire_Up_Distractor.gif""]","5","targetDown_distractorsUp"
"","","","","","html-keyboard-response","204","576934","0.0-14.0-0.0-0.95","5f2c8d4334a79d06cb136702","619531dcf66c91622fa1b861","6195956807d8e6385b11d710","null","","null","","","","","main_T1_ITI","","","","",""
"","","","","","visual-search-circle","205","579713","0.0-14.0-0.0-1.95","5f2c8d4334a79d06cb136702","619531dcf66c91622fa1b861","6195956807d8e6385b11d710","1761.5","","s","true","[[192,19],[0,315],[222,589],[551,463],[533,111]]","false","5","main_T2_Trial","s","img/Fire_Up_Target.gif","[""img/Fire_Down_Distractor.gif"",""img/Fire_Down_Distractor.gif"",""img/Fire_Down_Distractor.gif"",""img/Fire_Down_Distractor.gif"",""img/Fire_Down_Distractor.gif"",""img/Fire_Down_Distractor.gif"",""img/Fire_Down_Distractor.gif"",""img/Fire_Down_Distractor.gif"",""img/Fire_Down_Distractor.gif"",""img/Fire_Down_Distractor.gif"",""img/Fire_Down_Distractor.gif"",""img/Fire_Down_Distractor.gif""]","5","targetUp_distractorsDown"
"","","","","","html-keyboard-response","206","579714","0.0-14.0-0.0-0.96","5f2c8d4334a79d06cb136702","619531dcf66c91622fa1b861","6195956807d8e6385b11d710","null","","null","","","","","main_T1_ITI","","","","",""
"","","","","","visual-search-circle","207","581592","0.0-14.0-0.0-1.96","5f2c8d4334a79d06cb136702","619531dcf66c91622fa1b861","6195956807d8e6385b11d710","860.9000000003725","","d","true","[[0,310],[121,540],[376,589],[574,420],[565,160],[356,5],[104,72]]","true","7","main_T2_Trial","d","img/Fire_Down_Target.gif","[""img/Fire_Up_Distractor.gif"",""img/Fire_Up_Distractor.gif"",""img/Fire_Up_Distractor.gif"",""img/Fire_Up_Distractor.gif"",""img/Fire_Up_Distractor.gif"",""img/Fire_Up_Distractor.gif"",""img/Fire_Up_Distractor.gif"",""img/Fire_Up_Distractor.gif"",""img/Fire_Up_Distractor.gif"",""img/Fire_Up_Distractor.gif"",""img/Fire_Up_Distractor.gif"",""img/Fire_Up_Distractor.gif""]","7","targetDown_distractorsUp"
"","","","","","html-keyboard-response","208","581595","0.0-14.0-0.0-0.97","5f2c8d4334a79d06cb136702","619531dcf66c91622fa1b861","6195956807d8e6385b11d710","null","","null","","","","","main_T1_ITI","","","","",""
"","","","","","visual-search-circle","209","585258","0.0-14.0-0.0-1.97","5f2c8d4334a79d06cb136702","619531dcf66c91622fa1b861","6195956807d8e6385b11d710","2651.300000000745","","d","true","[[417,23],[23,182],[182,576],[576,417]]","true","4","main_T2_Trial","d","img/Fire_Up_Target.gif","[""img/Fire_Down_Distractor.gif"",""img/Fire_Down_Distractor.gif"",""img/Fire_Down_Distractor.gif"",""img/Fire_Down_Distractor.gif"",""img/Fire_Down_Distractor.gif"",""img/Fire_Down_Distractor.gif"",""img/Fire_Down_Distractor.gif"",""img/Fire_Down_Distractor.gif"",""img/Fire_Down_Distractor.gif"",""img/Fire_Down_Distractor.gif"",""img/Fire_Down_Distractor.gif"",""img/Fire_Down_Distractor.gif""]","4","targetUp_distractorsDown"
"","","","","","html-keyboard-response","210","585261","0.0-14.0-0.0-0.98","5f2c8d4334a79d06cb136702","619531dcf66c91622fa1b861","6195956807d8e6385b11d710","null","","null","","","","","main_T1_ITI","","","","",""
"","","","","","visual-search-circle","211","586997","0.0-14.0-0.0-1.98","5f2c8d4334a79d06cb136702","619531dcf66c91622fa1b861","6195956807d8e6385b11d710","725","","d","true","[[567,163],[315,0],[48,136],[32,436],[284,599],[551,463]]","true","6","main_T2_Trial","d","img/Fire_Up_Target.gif","[""img/Fire_Down_Distractor.gif"",""img/Fire_Down_Distractor.gif"",""img/Fire_Down_Distractor.gif"",""img/Fire_Down_Distractor.gif"",""img/Fire_Down_Distractor.gif"",""img/Fire_Down_Distractor.gif"",""img/Fire_Down_Distractor.gif"",""img/Fire_Down_Distractor.gif"",""img/Fire_Down_Distractor.gif"",""img/Fire_Down_Distractor.gif"",""img/Fire_Down_Distractor.gif"",""img/Fire_Down_Distractor.gif""]","6","targetUp_distractorsDown"
"","","","","","html-keyboard-response","212","587898","0.0-14.0-0.0-0.99","5f2c8d4334a79d06cb136702","619531dcf66c91622fa1b861","6195956807d8e6385b11d710","900.5999999996275","Wow! You've completed 100 out of 160 trials! </p> <p>  </p><p> Take a quick break, then press any key when you're ready to continue."," ","","","","","main_T1_ITI","","","","",""
"","","","","","visual-search-circle","213","590328","0.0-14.0-0.0-1.99","5f2c8d4334a79d06cb136702","619531dcf66c91622fa1b861","6195956807d8e6385b11d710","1416.7000000011176","","s","true","[[28,173],[173,571],[571,426],[426,28]]","false","4","main_T2_Trial","s","img/Fire_Up_Target.gif","[""img/Fire_Down_Distractor.gif"",""img/Fire_Down_Distractor.gif"",""img/Fire_Down_Distractor.gif"",""img/Fire_Down_Distractor.gif"",""img/Fire_Down_Distractor.gif"",""img/Fire_Down_Distractor.gif"",""img/Fire_Down_Distractor.gif"",""img/Fire_Down_Distractor.gif"",""img/Fire_Down_Distractor.gif"",""img/Fire_Down_Distractor.gif"",""img/Fire_Down_Distractor.gif"",""img/Fire_Down_Distractor.gif""]","4","targetUp_distractorsDown"
"","","","","","html-keyboard-response","214","590330","0.0-14.0-0.0-0.100","5f2c8d4334a79d06cb136702","619531dcf66c91622fa1b861","6195956807d8e6385b11d710","null","","null","","","","","main_T1_ITI","","","","",""
"","","","","","visual-search-circle","215","592175","0.0-14.0-0.0-1.100","5f2c8d4334a79d06cb136702","619531dcf66c91622fa1b861","6195956807d8e6385b11d710","831.5999999996275","","d","true","[[599,294],[294,0],[0,305],[305,599]]","true","4","main_T2_Trial","d","img/Fire_Up_Target.gif","[""img/Fire_Down_Distractor.gif"",""img/Fire_Down_Distractor.gif"",""img/Fire_Down_Distractor.gif"",""img/Fire_Down_Distractor.gif"",""img/Fire_Down_Distractor.gif"",""img/Fire_Down_Distractor.gif"",""img/Fire_Down_Distractor.gif"",""img/Fire_Down_Distractor.gif"",""img/Fire_Down_Distractor.gif"",""img/Fire_Down_Distractor.gif"",""img/Fire_Down_Distractor.gif"",""img/Fire_Down_Distractor.gif""]","4","targetUp_distractorsDown"
"","","","","","html-keyboard-response","216","592176","0.0-14.0-0.0-0.101","5f2c8d4334a79d06cb136702","619531dcf66c91622fa1b861","6195956807d8e6385b11d710","null","","null","","","","","main_T1_ITI","","","","",""
